time,seconds_elapsed,z,y,x
1772363418601788200,0.1217880859375,-0.20531857444941995,-0.05024725520312786,-0.07587547132596373
1772363418611858200,0.131858154296875,-0.09533552020788193,-0.06193301682174206,-0.0834530669733882
1772363418621927200,0.14192724609375,-0.06805120744109153,-0.046019408375024794,-0.04236205491125583
1772363418631997200,0.1519970703125,-0.12666530897319317,0.014810615640878676,-0.018065379653126
1772363418642066200,0.162066162109375,-0.10869593704044818,0.0585585719525814,-0.045295770275592805
1772363418652136400,0.172136474609375,-0.11246376514136791,0.0954798971146345,0.02536795775145292
1772363418662204200,0.1822041015625,-0.1898228991538286,0.08102291721701621,0.07220438159778714
1772363418672274400,0.1922744140625,0.14426117141842842,0.07951017456650733,0.06892170666530728
1772363418682343200,0.20234326171875,0.2243523607432842,-0.017034136909246444,-0.03448927570953965
1772363418692413400,0.212413330078125,-0.023069909942150114,-0.012568974193930625,-0.03834580500721931
1772363418702482200,0.222482177734375,-0.025941081464290618,-0.01368891813457012,0.0038140053302049633
1772363418712552200,0.23255224609375,0.11862287229299545,-0.06445230616629123,-0.027992753297090528
1772363418722621200,0.24262109375,0.1485883869677782,-0.05435527504384517,-0.01646130545735359
1772363418732691200,0.252691162109375,0.31299510531425473,-0.09175357006788253,-0.028045068006217477
1772363418742760200,0.26276025390625,0.07740881837308407,-0.1443131938666105,-0.041241526448726654
1772363418752830200,0.272830322265625,-0.2657142987012863,-0.0943558615207672,0.06124181968718767
1772363418762899200,0.282899169921875,-0.08475099782943725,0.016373627173900604,0.07602846993058919
1772363418772969200,0.29296923828125,0.10817103638350963,0.09124445150196552,0.02555427410379052
1772363418783038200,0.3030380859375,-0.05310732080936432,0.14148060078918934,0.04884586397260427
1772363418793108200,0.313108154296875,-0.1551321095228195,0.12243921571075915,0.04867065353617072
1772363418803178200,0.32317822265625,-0.05317103369534015,0.09258592923879623,0.05980827975273132
1772363418813247200,0.333247314453125,0.0834416687965393,0.09926116921901702,0.1096013614475727
1772363418823317200,0.343317138671875,0.1236006607055664,0.018922142612934113,0.09854133051186799
1772363418833386200,0.35338623046875,0.1722510021060705,-0.09375088136494159,0.04215075024813413
1772363418843456300,0.363456298828125,0.14629998376965522,-0.19169103111326694,-0.005756663830578327
1772363418853525200,0.373525146484375,-0.11045359436273575,-0.13484861542880533,-0.0657597355030477
1772363418863595300,0.38359521484375,-0.14321429271399974,0.02895487632751465,0.02840133409798145
1772363418873664300,0.393664306640625,-0.07596446478366851,0.13211656011641024,0.14266338083297014
1772363418883734300,0.403734375,-0.05869710364043712,0.21629005031883716,0.14901611086055636
1772363418893803300,0.41380322265625,-0.1749228516638279,0.152025960201025,0.08158712697103619
1772363418903873300,0.423873291015625,-0.18264964652359483,0.03564589839875698,0.07147285245284438
1772363418913942300,0.4339423828125,-0.10056699112057685,-0.04973229141831398,0.10445186972990632
1772363418924012300,0.44401220703125,0.03487959020137787,-0.0389911171734333,0.14128829308748245
1772363418934081300,0.454081298828125,0.1435866331577301,0.01803776099383831,0.121287853718549
1772363418944151000,0.464151123046875,0.17449731972813606,0.08459609952867031,0.059532531551271674
1772363418954220300,0.47422021484375,0.11141922452449798,0.10857727909684181,0.004047521825134754
1772363418964290000,0.4842900390625,-0.024259411987662315,0.02818447647690773,-0.0666379796423018
1772363418974359300,0.494359375,-0.12614333092570304,-0.07003098308146,-0.07122296934500336
1772363418984429300,0.50442919921875,-0.11201835946142673,-0.0900602101534605,-0.03355710942596197
1772363418994498300,0.514498291015625,-0.006408697998523712,-0.11359598404169081,0.0065500061653554435
1772363419004568300,0.524568359375,0.06668693335056304,-0.08933423396646976,-0.016767741058021784
1772363419014638000,0.53463818359375,0.08977730155885219,-0.09246201059818267,-0.07070932073444128
1772363419024707300,0.544707275390625,0.037459085300564764,-0.12623159373104573,-0.09376417923793195
1772363419034777000,0.554777099609375,-0.09140168789029121,-0.1412298408985138,-0.12358911639824509
1772363419044846300,0.564846435546875,-0.13986790489554404,-0.09831950445473193,-0.10689312540218233
1772363419054916000,0.574916015625,-0.07154547929763794,-0.032461423143744464,-0.06572977875620126
1772363419064985300,0.5849853515625,0.00525543631017208,0.03410568321943283,-0.02110050956532359
1772363419075055400,0.595055419921875,0.06495967116653918,0.13698328936994075,0.04916150579303503
1772363419085124400,0.605124267578125,0.08709668417274952,0.17819617424607276,0.06294438582137227
1772363419095194400,0.6151943359375,0.09451368243098258,0.15548749883174895,-0.00095963881239295
1772363419105263400,0.625263427734375,0.10528583633601665,0.0963993500471115,-0.05820099068656563
1772363419115333400,0.63533349609375,0.09160159437656402,-0.005547697255015373,-0.1271063307389617
1772363419125402000,0.645402099609375,0.0169184015750885,-0.11646131034493445,-0.15996990494281052
1772363419135472400,0.655472412109375,-0.041406946143507956,-0.18783610925078392,-0.16783333179429172
1772363419145541000,0.665541015625,-0.04117138382196426,-0.2156424000650644,-0.10549421838968992
1772363419155611400,0.675611328125,-0.01397474933862686,-0.16912790164947508,-0.051459407471865413
1772363419165680000,0.68568017578125,-0.03420329837501049,-0.10361761086285114,-0.06058160221278667
1772363419175750100,0.695750244140625,-0.04431026636958122,0.004574468308687209,-0.0714243371360004
1772363419185819100,0.705819091796875,-0.04032967230081558,0.06445113712251185,-0.09773907421827316
1772363419195889200,0.71588916015625,-0.020894319468736648,0.033089784175157545,-0.12845745308697223
1772363419205958400,0.72595849609375,0.02358604277074337,0.0010983166307210921,-0.14675065014660357
1772363419216028200,0.736028076171875,0.11355156037807464,-0.007498831322789192,-0.1372754041843116
1772363419226098200,0.74609814453125,0.16974924841821193,0.021319266882538795,-0.10375964968204497
1772363419236167200,0.756167236328125,0.17029285377562045,0.004520692294836044,-0.09377806163281202
1772363419246237200,0.7662373046875,0.26180443178117274,-0.024563947892189023,-0.06594415215924382
1772363419256306200,0.77630615234375,0.15255495251119136,-0.11669102744758128,-0.08422361295446754
1772363419266376200,0.786376220703125,-0.18678981506824494,-0.07780512421429157,-0.01861293053328991
1772363419276445200,0.796445068359375,-0.10252630849480629,-0.05017828162014484,0.05837649338394403
1772363419286515200,0.80651513671875,0.11085457637906074,-0.06472878502011299,0.02716273221373558
1772363419296584400,0.81658447265625,0.09722118782401085,-0.026364275312423704,0.02597776021286845
1772363419306654200,0.826654296875,-0.006003039807081222,-0.006306991189718246,0.04555237538516521
1772363419316723500,0.836723388671875,-0.08675181625783443,-0.015531915652751922,0.03602832184508443
1772363419326793200,0.846793212890625,-0.12881927213668823,0.01916764180660248,0.018582097003608942
1772363419336862200,0.8568623046875,-0.12372633291184902,0.04462883079946041,0.01098038982823491
1772363419346932200,0.86693212890625,-0.09468202473521233,0.024700726014375684,-0.03248290432319045
1772363419357001200,0.877001220703125,-0.038163434177637096,0.052471945515274995,-0.01878258801177144
1772363419367071200,0.8870712890625,0.05268061982989311,0.08200023781657219,0.01623904100880027
1772363419377140200,0.89714013671875,0.0993055928826332,0.05928747074902057,-0.008749708166718483
1772363419387210500,0.90721044921875,0.0584235473960638,0.0018266309052705765,-0.09034209583476185
1772363419397279200,0.917279296875,0.10923895787596702,-0.039835751304030415,-0.13227043550387024
1772363419407349200,0.927349365234375,0.18623802640438078,-0.05739186626076698,-0.1254436582237482
1772363419417418200,0.937418212890625,0.1524140827357769,-0.01924012252092361,-0.08216156585812569
1772363419427488300,0.94748828125,0.08065233033895491,0.003713467565178871,-0.04452741625159978
1772363419437557200,0.95755712890625,0.07724573676586151,-0.005564063867926597,-0.02400602174848318
1772363419447627300,0.967627197265625,0.11174889487028121,-0.021038111853599547,-0.01577083897516131
1772363419457697300,0.977697265625,0.10701894373893737,-0.05143266559541225,-0.020030249985307454
1772363419467766300,0.987766357421875,0.08562193544507027,-0.05019289466738701,0.0030814532719552513
1772363419477836300,0.997836181640625,0.018124270233511923,-0.032522213420271874,0.04455401199758052
1772363419487905300,1.0079052734375,-0.09000584961771964,-0.03528174126148224,0.05966653319448232
1772363419497975300,1.017975341796875,-0.13651274924874304,-0.055770987060666084,0.09645166475623845
1772363419508044300,1.028044189453125,-0.09307634310424327,-0.06058803195357322,0.1421134918652475
1772363419518114300,1.0381142578125,0.004250643181800842,-0.059258244654536246,0.1776854482449591
1772363419528183300,1.048183349609375,0.06424246280789375,-0.04268412647247314,0.2156855085544288
1772363419538253300,1.05825341796875,0.07359013686776161,-0.022809213179349898,0.27609321550503374
1772363419548322300,1.068322265625,0.006592237871885299,-0.001572363883256912,0.29756606551408765
1772363419558392300,1.078392333984375,-0.06682897216975689,-0.007309446230530738,0.3042193859234452
1772363419568461000,1.0884609375,-0.08037292887568473,-0.016407529443502426,0.32766280535310505
1772363419578531300,1.09853125,-0.021391163074970243,-0.0022679449319839475,0.3614851415865123
1772363419588600000,1.10860009765625,0.023432898035645484,0.053849663609266275,0.3899130714304745
1772363419598670300,1.11867041015625,0.037002573704719544,0.08649404210448265,0.362697001594305
1772363419608739300,1.1287392578125,0.014248305583000182,0.10329495477974414,0.3669878306560218
1772363419618809300,1.138809326171875,-0.0423112015068531,0.09073825554549693,0.3744821319341659
1772363419628878300,1.14887841796875,-0.07706453498005866,0.06896949132978916,0.34238369688391684
1772363419638948000,1.158947998046875,-0.0565630142211914,0.04768471123874187,0.3058578007802367
1772363419649017300,1.169017333984375,0.0004161795854568481,0.02178922248184681,0.23784487952291963
1772363419659087600,1.179087646484375,0.028835633862018584,0.020182956328988075,0.18008812547251582
1772363419669156900,1.189156982421875,-0.006818447843194008,-0.00870879163444042,0.11233064028099178
1772363419679227000,1.199226806640625,-0.01468845056593418,0.006795066967606544,0.08909925616681576
1772363419689296000,1.2092958984375,0.02993102788329124,0.027818565773963928,0.07233750645816325
1772363419699366000,1.219365966796875,0.10869769060611724,-0.006788052704930305,0.034893910987675185
1772363419709435600,1.229435546875,0.14643793093562124,-0.009695464584231376,-0.0019240999303758142
1772363419719505000,1.2395048828125,0.09369476726353168,-0.03720832540988922,-0.054242023927718395
1772363419729574700,1.24957470703125,-0.0185872115701437,-0.0766448482632637,-0.08518354402780533
1772363419739644000,1.259643798828125,-0.11242869382798672,-0.10255962624251842,-0.09681801385059952
1772363419749713700,1.269713623046875,-0.07933014182448386,-0.09195406107604503,-0.10380991856455803
1772363419759783000,1.279782958984375,-0.012100187638401984,-0.02827332380414009,-0.06475260428711771
1772363419769853000,1.28985302734375,0.029025018954277036,0.003618775019049644,-0.05840308912992477
1772363419779921700,1.299921630859375,0.03062076371312141,0.02893558710515499,-0.08310366901382804
1772363419789992000,1.309991943359375,0.033656770408153534,0.06362286960482597,-0.0900264540143311
1772363419800060700,1.320060791015625,0.06454641419053077,0.07471767959296703,-0.11605901315435767
1772363419810131000,1.330130859375,0.08821487454771995,0.059227264994382856,-0.1304648473866284
1772363419820199700,1.34019970703125,0.08898936605155468,0.04344926562607288,-0.13225348436906934
1772363419830269700,1.350269775390625,0.05383855769336223,-0.00594341857433319,-0.1508728446431458
1772363419840338700,1.360338623046875,0.003217208480834961,-0.06903086612820625,-0.17846666175052522
1772363419850408700,1.37040869140625,0.03316051132380962,-0.09745324301421641,-0.18654037035182117
1772363419860477700,1.380477783203125,0.05890986960828304,-0.05200198991596698,-0.20470204998627303
1772363419870547700,1.390547607421875,0.027952421286702153,-0.009206219762563705,-0.2081372851319611
1772363419880616700,1.40061669921875,-0.026805004817247388,0.01716857694387436,-0.1928263187535107
1772363419890686700,1.410686767578125,-0.0038385552495718,0.04719605093896389,-0.14693652810752392
1772363419900755700,1.420755615234375,0.01949380502104759,0.04435702812075615,-0.13998875479623674
1772363419910825700,1.43082568359375,0.022620412608981132,0.05383446604013443,-0.13602248151376842
1772363419920895700,1.440895751953125,0.008697685718536376,0.05149930109083652,-0.12240604409351945
1772363419930964700,1.45096484375,-0.007058101817965507,0.031150340545177457,-0.09603986908495425
1772363419941034800,1.46103466796875,-0.03815758895874023,0.012889292189478874,-0.07561155969277024
1772363419951103700,1.471103759765625,-0.03842413094043731,0.021954057654738426,-0.013427490719407796
1772363419961173800,1.481173828125,-0.012423428243398666,0.060822425231337546,0.06589081453680992
1772363419971242800,1.49124267578125,0.012545008796453476,0.07270049455165863,0.07228416883572936
1772363419981312800,1.501312744140625,-0.008284428742527961,0.07517945188581943,0.046966918358206745
1772363419991381800,1.5113818359375,-0.030543606823682783,0.03966273282468319,0.05612856832668185
1772363420001451800,1.52145166015625,-0.022509937971830367,-0.014319617253541946,0.029251082795113324
1772363420011520800,1.531520751953125,-0.0006786299139261245,0.00866962866783142,0.026430618546903133
1772363420021590800,1.5415908203125,0.03710077338218689,0.02359422607719898,0.06091960199549794
1772363420031659800,1.55165966796875,0.0426858800381422,0.00753507167994976,0.04075228162705898
1772363420041729800,1.561729736328125,-0.04347381554543972,-0.031116438275575635,0.022381197025626895
1772363420051798800,1.571798828125,-0.1032008467555046,-0.037924949246644975,0.027510522738099098
1772363420061868500,1.58186865234375,-0.12056348496675491,-0.0010924714118242262,0.04738105211704969
1772363420071937800,1.591937744140625,-0.10514730464816092,0.008481997141242027,0.06168006497398019
1772363420082007600,1.602007568359375,-0.0822217716127634,-0.040464112335443496,0.04155205370262265
1772363420092076800,1.612076904296875,-0.029839842468500136,-0.050693829926848406,0.04498363558650016
1772363420102146800,1.622146728515625,0.05620996299982071,-0.021125790137052534,0.07760667903274297
1772363420112215800,1.6322158203125,0.07601824079751968,0.007261515435576438,0.029745588313788172
1772363420122285800,1.642285888671875,0.07222936990857123,0.06815875946879386,0.01131429795771837
1772363420132354800,1.652354736328125,0.0460930581331253,0.10037643698453902,0.0049291269652545445
1772363420142424800,1.6624248046875,0.003734510353207588,0.10240472794175147,0.004345774119347333
1772363420152493800,1.672493896484375,-0.04490414060950279,0.014276362633705138,-0.03553776184916496
1772363420162563800,1.682563720703125,-0.07032616663575172,-0.059545829424262044,-0.05201236517950892
1772363420172633600,1.692633544921875,-0.03232873667478561,-0.10384031370282172,-0.03965031173452735
1772363420182702800,1.702702880859375,-0.004568623089790344,-0.09914660292863846,-0.013224369362741708
1772363420192772900,1.71277294921875,-0.04166179768741131,-0.027023616003990173,-0.008612930044531822
1772363420202841900,1.722841796875,-0.1086994441717863,0.055854573690891265,-0.022257424515485763
1772363420212911900,1.732911865234375,-0.1534293972581625,0.095005265340209,-0.05847016301676631
1772363420222980900,1.74298095703125,-0.1271077920436859,0.09538462004661559,-0.08453150985985994
1772363420233051000,1.75305078125,-0.04201543343067169,0.07233867550194263,-0.07442176538631319
1772363420243119600,1.76311962890625,0.04525543826520443,0.03140811469852924,-0.07434110136553644
1772363420253190000,1.77318994140625,0.11348726297020911,0.008627543091773986,-0.062014703755825754
1772363420263258600,1.783258544921875,0.13750176028609276,0.00531213493347168,-0.030779023014754055
1772363420273329000,1.793328857421875,0.12521861729621886,-0.023439327776432036,-0.02998231967911124
1772363420283397600,1.803397705078125,0.10700316164791583,-0.02225976260304451,0.003544979130476713
1772363420293467600,1.813467529296875,0.10372633193433284,0.004631751453876495,0.020727584599703548
1772363420303536600,1.82353662109375,0.08933715657591819,0.03434007649719715,0.03996463838070631
1772363420313606700,1.833606689453125,0.008126023310422897,0.05033785609602928,0.049861470755934716
1772363420323676000,1.843676025390625,-0.06024316403865814,0.07388415137827396,0.0988951123856008
1772363420333745700,1.85374560546875,-0.08440554539263248,0.05583820707798004,0.11314195666387676
1772363420343815000,1.86381494140625,-0.08379121288657188,0.011515081226825713,0.09723302439227699
1772363420353884700,1.873884765625,-0.030569910308718678,-0.029032617738842963,0.0606074673064053
1772363420363954000,1.883953857421875,0.053687166523933405,-0.028610592934489247,0.024506226355582476
1772363420374023700,1.894023681640625,0.09666238489747046,-0.022530980759859084,0.0050448622994124885
1772363420384093000,1.904093017578125,0.05162906495034694,0.006465981143712997,0.008466653441637753
1772363420394162700,1.91416259765625,0.017484218764305115,0.03735036422908306,0.021599691259115934
1772363420404231700,1.924231689453125,0.03412672600746155,0.0737520494312048,0.0633246173106134
1772363420414302000,1.934302001953125,0.070706105864048,0.06905658509135246,0.036746114725619554
1772363420424371700,1.944371826171875,0.08850129027366638,0.024933365726470945,-0.006501344718039035
1772363420434441000,1.95444091796875,0.1014057800322771,0.006766425395011901,-0.030542876171320676
1772363420444510700,1.9645107421875,0.08291559909582137,-0.023361001843214033,-0.022818127138167617
1772363420454579700,1.974579833984375,0.04822305589914322,-0.06530103195011615,-0.030463381194323298
1772363420464649700,1.984649658203125,-0.003988777375221252,-0.058251697960495945,-0.006003916589915752
1772363420474718700,1.99471875,-0.04657704225778579,-0.013173369827866554,0.006439677658677101
1772363420484788700,2.004788818359375,-0.055012277647852895,0.052318800780177116,0.02677212546095252
1772363420494857700,2.014857666015625,-0.08251987777650356,0.045945758616924286,0.048089054255932566
1772363420504928000,2.024927978515625,-0.09755436530113219,0.02538286305963993,0.045645898887515066
1772363420514996700,2.034996826171875,-0.0634644641727209,0.060980830663442606,0.04872574472427368
1772363420525066800,2.045066650390625,-0.00790975021123886,0.11990122166574001,0.10924567987769841
1772363420535135700,2.0551357421875,0.05235562565922737,0.11054010360240936,0.11401947015076876
1772363420545205800,2.065205810546875,0.05043430220782757,0.040972646379470824,0.0630444851949811
1772363420555274800,2.075274658203125,0.00042202480435371396,-0.0487029483705759,0.04637494381442666
1772363420565344800,2.0853447265625,-0.013378537011146545,-0.0722311234742403,0.04462050136253237
1772363420575413800,2.095413818359375,0.017237550526857374,-0.08668576528429985,0.025726123539358377
1772363420585483800,2.10548388671875,0.018719898039102553,-0.04938040924072265,0.010179010317474603
1772363420595552800,2.115552734375,0.03599544248878955,-0.0031540801167488095,-0.015063567488640546
1772363420605622800,2.125622802734375,0.031930092746019365,0.012926117068529128,-0.03744417999237776
1772363420615691800,2.13569189453125,0.00872106659412384,0.017089081966876984,-0.04530965267047286
1772363420625761800,2.14576171875,0.02410918986201286,-0.002205401089787483,-0.07667056722640991
1772363420635830500,2.15583056640625,0.050264790859818456,-0.019285715228319168,-0.08580401401370763
1772363420645900800,2.16590087890625,0.05295066894292831,0.014201543831825255,-0.05255553214550018
1772363420655969800,2.1759697265625,0.0567722730576992,0.046046880903840064,-0.008045359289646148
1772363420666040000,2.1860400390625,0.04549216963052749,0.04076338754296303,-0.014130524422228336
1772363420676108800,2.19610888671875,-0.004355272600054741,0.02165244435966015,-0.0554706889398396
1772363420686178800,2.2061787109375,-0.04573766882419586,-0.009580313771963118,-0.05580898098349571
1772363420696248800,2.216248779296875,-0.028087445843219757,-0.028686580780148505,-0.03400178445354104
1772363420706317800,2.22631787109375,-0.007104279047250747,-0.032795185142755506,-0.025814824736118316
1772363420716387800,2.236387939453125,-0.0016898527830839156,-0.0013888240098953247,-0.0014230185404419898
1772363420726456800,2.246456787109375,-0.008204933765530586,0.011074351722002029,0.025259821201860905
1772363420736526800,2.25652685546875,-0.01943418378829956,0.014182839131355285,0.02220554819777608
1772363420746595800,2.266595947265625,-0.06585691226720809,-0.02841360905766487,0.00793912243619561
1772363420756665900,2.276665771484375,-0.06399871717989444,-0.0438011478036642,0.001577770710736513
1772363420766734800,2.28673486328125,-0.06032499710321426,-0.04004734822809696,-0.005048953952640295
1772363420776804900,2.296804931640625,-0.055748190706968306,0.0018061726391315459,0.01174552898183465
1772363420786873900,2.306873779296875,-0.07062719540894032,0.041398178315162654,0.02211421665251255
1772363420796944000,2.31694384765625,-0.027612229546904562,0.09140051884651183,0.029768969189375636
1772363420807012900,2.327012939453125,-0.01325111123919487,0.09230418968796729,0.016989859376102683
1772363420817083000,2.337082763671875,-0.05126841494441032,0.053798225682973856,-0.0013508300870656966
1772363420827152000,2.34715185546875,-0.03508943355977535,0.03893617211580276,-0.004120440930873155
1772363420837222000,2.357221923828125,0.058383215385675424,0.03899345526099205,0.0326351722754538
1772363420847291000,2.367290771484375,0.13875146808624267,0.017778817796707154,0.021329934407025575
1772363420857361000,2.37736083984375,0.1373690738171339,0.015438976672291755,-0.001093055933713913
1772363420867429600,2.3874296875,0.09684066407382488,0.013346388307213783,-0.020843466064333915
1772363420877500000,2.3975,0.06406476815342903,-0.005334931287169456,-0.015111352153122424
1772363420887569000,2.40756884765625,0.014690788653492926,-0.059212067425251,-0.012539894229918717
1772363420897639000,2.417638916015625,-0.00009936872124671936,-0.0929272900223732,-0.013123100945353508
1772363420907708000,2.4277080078125,0.02109948665201664,-0.09844634570479392,-0.03555705107152462
1772363420917777700,2.437777587890625,0.021575287470221517,-0.06710019032657145,-0.019059797517955303
1772363420927847000,2.447846923828125,-0.0072702832639217375,0.013200842356681824,0.012712474317848681
1772363420937916700,2.457916748046875,-0.05151099152863026,0.07559563147127628,-0.022917934250831603
1772363420947987000,2.467987060546875,-0.09970949750840663,0.09815934545695781,-0.05514160311594605
1772363420958055700,2.4780556640625,-0.12979074751734732,0.09808043500185012,-0.053650780036300416
1772363420968125700,2.488125732421875,-0.07839373775720596,0.057821489849686616,-0.028047990615665912
1772363420978195000,2.49819482421875,0.02311316456198692,0.015635960549116135,-0.052174131612479684
1772363420988264700,2.5082646484375,0.09706453595757483,-0.0002776478976011276,-0.06215981131494045
1772363420998334000,2.518333984375,0.12021160278916358,-0.018835633373260496,-0.08577259596213697
1772363421008403700,2.52840380859375,0.07639934906959533,-0.04438742325901985,-0.09934928589388728
1772363421018473000,2.538472900390625,0.019746902999281883,-0.03833294552564621,-0.06677592680826783
1772363421028542700,2.548542724609375,0.04584522085189819,0.006083119305968284,-0.033422523260861633
1772363421038612000,2.558612060546875,0.0472825601786375,0.04708966795504093,0.012197802793979645
1772363421048681700,2.568681640625,-0.023510054925084112,0.06978080771267414,0.05605827956944704
1772363421058751000,2.5787509765625,-0.09215805921554565,0.06978080771267414,0.074552698289603
1772363421068821000,2.588821044921875,-0.10846446637213229,0.046323944279551506,0.0986649568915367
1772363421078889700,2.5988896484375,-0.097157474938035,-0.024385668715834617,0.10063830279111861
1772363421088960000,2.6089599609375,-0.04818623102009296,-0.06675882954299449,0.06333382353037595
1772363421099028700,2.61902880859375,-0.0034580314993858333,-0.037981063348054886,0.08681669818758964
1772363421109099000,2.62909912109375,-0.022217677026987074,-0.019315525844693184,0.10008402990922331
1772363421119167700,2.639167724609375,-0.09576455927491187,0.03833469909131527,0.09727584062069654
1772363421129238000,2.649238037109375,-0.1034755720436573,0.09414952529370785,0.10663330542221665
1772363421139306800,2.659306640625,-0.025815993779897687,0.1023427686214447,0.08910992369130254
1772363421149376800,2.669376708984375,0.01423661514520645,0.07012626014947891,0.030207214476168153
1772363421159445800,2.67944580078125,0.0419803621172905,0.03580956452786922,0.009358926106244326
1772363421169515800,2.689515869140625,0.0919113909780979,0.0035322657793760296,0.01711816193088889
1772363421179586000,2.6995859375,0.10255436554551124,-0.012907996889948843,0.019136369885504243
1772363421189654800,2.70965478515625,0.06162906543910503,-0.04487608355879783,-0.00023687749579548835
1772363421199724800,2.719724853515625,0.03571311841607094,-0.07648994996249675,-0.03331204862371087
1772363421209793800,2.729793701171875,0.0012929624199867248,-0.059581485259532926,-0.04046352781355381
1772363421219863800,2.73986376953125,-0.06079612174630165,-0.023785364735126494,-0.03190817317515612
1772363421229932800,2.749932861328125,-0.06906593744158744,0.009693711018562316,-0.024675737703591584
1772363421240002800,2.7600029296875,-0.05134907896518707,0.05388882657587528,-0.015523001693934202
1772363421250071800,2.77007177734375,-0.034606033957004546,0.12275778014063835,0.03117196785509586
1772363421260141800,2.780141845703125,-0.006034019467234611,0.14198679674565792,0.05610562584251165
1772363421270210800,2.7902109375,0.016443769800662995,0.09535013325512409,0.03335471872165799
1772363421280280800,2.80028076171875,-0.0006365443378686904,0.009509002101421356,-0.027360154481977223
1772363421290350000,2.81035009765625,-0.05118482831418514,-0.08970540536642074,-0.049921822641044854
1772363421300419800,2.820419921875,-0.04643792604804039,-0.1442652630716562,-0.04597440018951893
1772363421310488800,2.83048876953125,0.03256488351821899,-0.12380290527939795,-0.02316357957497239
1772363421320558800,2.840558837890625,0.08178454923927783,-0.1167553248554468,-0.021059008511155844
1772363421330627800,2.8506279296875,0.0602840805709362,-0.11903379118144511,-0.04402604260072112
1772363421340697900,2.86069775390625,0.026170798566937443,-0.10233692340254782,-0.024539251842349768
1772363421350766800,2.870766845703125,0.03226911544203758,-0.049582069292664524,0.0028849077865481373
1772363421360836900,2.8808369140625,0.038511224702000614,0.0099906481385231,-0.03798544726222753
1772363421370905900,2.89090576171875,0.06662263594269752,0.041600422888994217,-0.07527253699675202
1772363421380975600,2.9009755859375,0.12283493703007697,0.08760989439189433,-0.042910920965671534
1772363421391044900,2.911044921875,0.1453460440456867,0.07068506307601928,-0.024833120222389697
1772363421401115000,2.921114990234375,0.09500818794965743,0.004165887507796288,-0.012225567583739758
1772363421411185000,2.931184814453125,0.04398819480836391,-0.02882745055556297,0.03319017580971122
1772363421421254000,2.94125390625,0.0455003529369831,-0.0517442157626152,0.0484774690516293
1772363421431323600,2.95132373046875,0.057695817643404,-0.02293839251697063,0.05504661830887198
1772363421441393000,2.961392822265625,0.04806523498892784,0.00709025052189827,0.028941286193579434
1772363421451462700,2.971462646484375,0.02002981159389019,0.03527940317392349,0.011927899811416863
1772363421461532000,2.981531982421875,0.0011088380247354507,0.04117021477818489,0.027675650171935556
1772363421471601700,2.9916015625,-0.038325931262969966,0.008585457515716552,0.020584376736730334
1772363421481671000,3.0016708984375,-0.06976444109976292,-0.05005962367653846,0.004824497547000647
1772363421491741000,3.011740966796875,-0.07383329797387123,-0.07266308515071869,0.01313932142779231
1772363421501810000,3.021809814453125,-0.03564765196442604,-0.034384500160813326,0.06422039710655808
1772363421511880000,3.0318798828125,-0.004573883786797523,0.025437808117270467,0.06891366948932409
1772363421521949000,3.041948974609375,-0.03550093697011471,0.05980886427462101,0.027453677984327077
1772363421532019000,3.05201904296875,-0.056607437884807585,0.06333762292265892,0.011853665531426668
1772363421542087700,3.062087646484375,-0.04499298793673515,0.02849602664411068,-0.023038491890579462
1772363421552158000,3.072157958984375,-0.03628828795552254,-0.022453823870420456,-0.044466772105544804
1772363421562226700,3.082226806640625,-0.02902969512939453,-0.01879588588476181,-0.03303323168233037
1772363421572297000,3.092296875,-0.0330699104309082,-0.011779869642853736,-0.027101941937208173
1772363421582365700,3.10236572265625,-0.002699322086572647,-0.01126432133615017,-0.009268179082870483
1772363421592435700,3.112435791015625,0.05251578465700149,0.029797172370553016,0.03528027995675802
1772363421602504700,3.122504638671875,0.07299918523728847,0.017619243320822715,0.02781257442459464
1772363421612574700,3.13257470703125,0.06167173553705215,-0.01954524294734001,-0.0006128712013363837
1772363421622645000,3.14264501953125,0.05859948848485946,-0.0417623354524374,-0.004887041389197111
1772363421632713700,3.152713623046875,0.05116670813560485,-0.0508031355202198,0.0025621055729687214
1772363421642784000,3.162783935546875,0.03353694342076778,-0.01871171473264694,0.03881970612928271
1772363421652852700,3.172852783203125,0.006149754801392555,-0.04254384121894836,0.04289981504976749
1772363421662926600,3.182926513671875,0.0033189152896404266,-0.04676525830626487,0.03947890069037675
1772363421672995600,3.19299560546875,0.04309212275147438,-0.03245382435917854,0.06929667745754123
1772363421683065600,3.203065673828125,0.060252516388893125,0.02057224790751934,0.05590834970474243
1772363421693134600,3.213134521484375,0.009912322205305099,0.052069209933280944,0.021254531083256006
1772363421703204600,3.22320458984375,-0.05797112745344638,0.0405728334069252,-0.019411387434601784
1772363421713273600,3.233273681640625,-0.07206395021378993,0.03040215252637863,0.01323430623486638
1772363421723343600,3.243343505859375,-0.012571896803379059,0.0073643912881612775,0.029450404759496448
1772363421733412900,3.253412841796875,0.04862286887168884,0.0014390928924083708,0.00721285398826003
1772363421743482600,3.263482666015625,0.05979951192438602,-0.02358604277074337,-0.017239450222998855
1772363421753551600,3.273551513671875,0.0996364322721958,-0.04462883079946041,0.004751286180317402
1772363421763621600,3.28362158203125,0.10151391658186912,-0.03434066101908684,0.03388005777001381
1772363421773690600,3.293690673828125,0.04528524888157844,0.002520458388328552,0.041610213630646466
1772363421783760600,3.3037607421875,0.033519992285966874,0.07734276739954948,0.08022562935948371
1772363421793829600,3.31382958984375,0.014160627299547195,0.0864350053936243,0.10535188730955124
1772363421803899600,3.323899658203125,-0.038899931758642196,0.031088965746760365,0.08044307150244713
1772363421813968600,3.33396875,-0.10012275448441504,-0.006900865429639816,0.07686053684055805
1772363421824038700,3.34403857421875,-0.10981295837163925,-0.04431260445713996,0.06359773516356945
1772363421834107600,3.354107666015625,-0.06396130777895451,-0.05890986960828304,0.03302607128918171
1772363421844177700,3.364177734375,-0.026918986585736274,-0.04134031064808368,0.001964285810291767
1772363421854247700,3.37424755859375,-0.0033183307677507397,-0.01009878468811512,-0.017095803968608377
1772363421864316700,3.384316650390625,0.03752981244921684,0.010803718087077141,-0.03362637526988983
1772363421874386400,3.394386474609375,0.05917524254620075,0.04230360272228718,-0.03198664523884654
1772363421884455700,3.40445556640625,0.06439210041165351,0.05694704510271549,-0.04463467601835727
1772363421894525400,3.414525390625,0.06493395220339297,0.049880175456404684,-0.0863634014621377
1772363421904594700,3.4245947265625,0.04569324516057968,0.02180617361664772,-0.11689765593558549
1772363421914664700,3.434664794921875,0.0282031811773777,-0.017187866166234016,-0.119111386462301
1772363421924733700,3.444733642578125,0.0640314504057169,-0.009117372435331344,-0.07709668368399143
1772363421934803700,3.4548037109375,0.045052609169483185,-0.09548808042109012,-0.10816416825130581
1772363421944872700,3.464872802734375,0.017855974686145783,-0.12060206341147423,-0.09933014280200005
1772363421954942700,3.474942626953125,-0.013748539367318152,-0.040517303827404975,-0.037377544496953484
1772363421965011700,3.48501171875,-0.06332593248486519,0.04368482794761658,0.003846300164610147
1772363421975081700,3.495081787109375,-0.14064824161827563,0.07565759079158306,0.04142769667059183
1772363421985150500,3.505150390625,-0.16774784546792507,0.05908288808763027,0.06154138715565204
1772363421995220700,3.515220703125,-0.10001929410994052,0.07407762812376022,0.06417495052963496
1772363422005289500,3.52528955078125,-0.015755787536501885,0.07201485037505627,0.03298588540926575
1772363422015359700,3.53535986328125,0.039402620583772655,0.05229074372947216,-0.014503157126903534
1772363422025428500,3.545428466796875,0.06121230133175849,0.008242343166470528,0.005367664512991905
1772363422035498500,3.55549853515625,0.04176058188676834,-0.06387538306117058,0.013402648539096116
1772363422045567700,3.565567626953125,0.03482815227508545,-0.12523732199668883,-0.0016198562867939471
1772363422055637500,3.575637451171875,0.030972645890712736,-0.1088257008999586,-0.006142740538716316
1772363422065707800,3.585707763671875,0.06169277832508087,-0.047264440000057216,0.009820406138151884
1772363422075776500,3.595776611328125,0.0763660313218832,0.0030938743621110915,0.00605345482006669
1772363422085846800,3.6058466796875,0.053013797307014464,0.03668751640617847,0.004966097974777222
1772363422095915500,3.61591552734375,0.04603694403171539,0.02486731475293636,-0.016167290946841238
1772363422105985500,3.625985595703125,0.043099137014150614,0.002834346643090248,-0.02375306990072131
1772363422116054500,3.636054443359375,0.03922784853875637,0.011817279043793677,-0.003061433397233486
1772363422126124500,3.64612451171875,0.05746142436563968,0.0427034156948328,0.02910612136647105
1772363422136193800,3.65619384765625,0.06411445251405239,0.07098433828353881,0.05559782245084643
1772363422146263600,3.666263671875,0.04662731114029884,0.06429857690930366,0.045524172203987835
1772363422156332800,3.676332763671875,0.03702478553652763,0.03607435294389724,0.042907267703860996
1772363422166402600,3.686402587890625,0.03396189083456993,-0.025912439891695976,0.028915713360905645
1772363422176471800,3.696471923828125,0.032952421531081195,-0.04487666808068752,0.027247487887740132
1772363422186541600,3.70654150390625,0.026915479454398154,-0.03904197057783603,0.06214724409431219
1772363422196610800,3.71661083984375,-0.017681202641129493,-0.014220833054184912,0.07864931995347142
1772363422206680600,3.7266806640625,-0.0724795452773571,0.022752514556050298,0.06631853842958807
1772363422216749600,3.73674951171875,-0.09843582431077956,0.030358313384652134,0.053840457389503715
1772363422226819600,3.746819580078125,-0.083990534850955,0.017114216408133504,0.04937281045615673
1772363422236888600,3.756888671875,-0.04457505478560924,0.02946750202476978,0.030412381659448144
1772363422246958800,3.766958740234375,-0.013578443497419357,0.052929626154899594,0.02353372806161642
1772363422257028600,3.777028564453125,-0.045967970448732375,0.04831833296716213,-0.002088204450905323
1772363422267097600,3.78709765625,-0.06500117222070693,0.05397592033743858,-0.012652414693683386
1772363422277167600,3.797167724609375,-0.06283434957563877,0.03435059789121151,-0.03881707578077912
1772363422287236600,3.807236572265625,0.007059855383634567,0.015801964765787123,-0.044326632982492446
1772363422297306600,3.817306640625,0.09331132090389728,-0.00756079064309597,-0.050854281185567375
1772363422307375600,3.827375732421875,0.16840192546248434,-0.01977612909376621,-0.047900838207453486
1772363422317445600,3.837445556640625,0.16994506325125694,-0.048553310766816134,-0.05968816050440073
1772363422327514600,3.8475146484375,0.1105599773466587,-0.08928338056206703,-0.07860708824694156
1772363422337584600,3.857584716796875,0.12322539765238762,-0.06641220806241036,-0.050721594716608524
1772363422347653600,3.867653564453125,0.1288636958003044,-0.029482115072011945,-0.029678076035529372
1772363422357723600,3.8777236328125,0.0937023660480976,-0.022450316739082335,-0.03099529611393809
1772363422367792600,3.887792724609375,0.06771452283263206,0.0037450317472219464,-0.020320611234009266
1772363422377862700,3.897862548828125,0.04382628224492073,-0.009869652107357978,0.00036971009522676466
1772363422387931600,3.907931640625,-0.02163841583430767,-0.016330957075953483,-0.025219343061000106
1772363422398001700,3.918001708984375,-0.05530044693946838,-0.02115092457830906,-0.061650108227133744
1772363422408070700,3.928070556640625,-0.026648352950811385,0.01626782871186733,-0.05406842092648148
1772363422418140700,3.938140625,-0.0034779052436351775,0.044051323172450065,0.007290741530060768
1772363422428209700,3.948209716796875,0.029155367335677144,0.017125906845927238,0.0074978084094822406
1772363422438279700,3.95827978515625,0.03766717509329319,0.011873977667093276,-0.0058553018994629375
1772363422448349700,3.968349609375,0.01954348938167095,-0.003084522011876106,-0.006428717873245477
1772363422458418700,3.978418701171875,0.016827216160297392,-0.02186930198073387,0.0151766724742949
1772363422468488700,3.98848876953125,-0.021750644037127495,-0.01695288836658001,0.03910276085436344
1772363422478557700,3.9985576171875,-0.014207973572611807,0.012687047615647316,0.024676760616898535
1772363422488626700,4.008626708984375,-0.014085223975777625,0.012289572730660437,0.026019991919398307
1772363422498696400,4.018696533203125,0.04341828596591949,0.0737163935959339,0.04093026854246855
1772363422508765700,4.028765625,0.04130348576903343,0.09892857626378536,0.06093845282644033
1772363422518835500,4.03883544921875,-0.03618307401537895,0.10616729534566402,0.1116043718330562
1772363422528904700,4.04890478515625,-0.07403378898203372,0.08778758904635905,0.11831789799705147
1772363422538974500,4.058974365234375,-0.09884498963356017,0.03708323772549629,0.08935454610213636
1772363422549043700,4.069043701171875,-0.08308218783438205,0.011478840869665146,0.10201455958038567
1772363422559113700,4.07911376953125,-0.0399888960391283,-0.005138531932234764,0.10495148981511593
1772363422569182700,4.0891826171875,0.01834697307348251,-0.027141104903817177,0.049006753622740505
1772363422579252700,4.099252685546875,0.04698036236166954,-0.04325578888058662,0.006641629971563816
1772363422589321700,4.10932177734375,0.0001543137788772583,-0.03006663696169853,0.01697363889366388
1772363422599391700,4.119391845703125,-0.07689619267582892,-0.028572599011659622,0.004344312814623118
1772363422609460500,4.12946044921875,-0.08399813363552093,-0.004626490756869316,0.0016213175915181636
1772363422619530800,4.13953076171875,-0.037788171124458314,-0.027454408636689184,-0.038779958640784026
1772363422629599500,4.149599609375,0.023215455892682074,-0.02613222012221813,-0.045532209379971024
1772363422639669800,4.159669677734375,0.029204467174410817,0.01640519135594368,0.00343465062379837
1772363422649739800,4.16973974609375,-0.006281856748461723,-0.009126140263676643,0.01462619898468256
1772363422659808300,4.179808349609375,-0.04075403519272804,-0.036598084557056425,0.017447978407144547
1772363422669878300,4.189878173828125,-0.04316577250957489,-0.027612229546904562,0.02217047688439488
1772363422679947300,4.199947265625,-0.020379940205812453,-0.03169160781502724,0.018286913449317217
1772363422690017300,4.210017333984375,0.00023147066831588744,-0.020337854629755018,0.021982260835915802
1772363422700086300,4.220086181640625,0.014798925203084946,-0.02001929019987583,0.012320698521286248
1772363422710156300,4.23015625,-0.0078045362710952755,0.032247488132119174,-0.0020925883650779725
1772363422720225300,4.240225341796875,-0.015414426752924919,0.09284078078269958,0.010641074871271848
1772363422730295300,4.25029541015625,-0.02726151641309261,0.12409867335557936,0.008893500551581382
1772363422740364300,4.2603642578125,-0.034549919855594635,0.09562953471839428,0.009744418292492627
1772363422750434000,4.27043408203125,-0.01891045217514038,0.020510873109102247,0.008348872280865907
1772363422760503300,4.28050341796875,0.0033031331986188885,-0.05264145686328411,0.012182459094375372
1772363422770573000,4.290572998046875,0.05153846405744552,-0.10716858134269713,0.0074004855148494236
1772363422780642300,4.300642333984375,0.12999883731007575,-0.11368190875947475,-0.010298252782970667
1772363422790712300,4.31071240234375,0.15259353095591066,-0.10572656584084034,-0.026331688217073677
1772363422800782000,4.320781982421875,0.04694938270151615,-0.107457919678092,-0.07593216994926333
1772363422810851300,4.330851318359375,-0.06015373218953609,-0.05688742386996746,-0.062407940857112404
1772363422820921000,4.340921142578125,-0.06835165169239044,0.021833646145462987,-0.016746259878575802
1772363422830990300,4.350990234375,0.00696340927183628,0.10871113460958004,0.006262129134684801
1772363422841060000,4.36106005859375,0.06317980201244354,0.10259762016534804,-0.01795242079794407
1772363422851129300,4.37112939453125,0.10370236653685569,0.10110358221530914,0.004549187736958265
1772363422861199000,4.38119921875,0.08016016290783881,0.05888590421080589,0.026991175039112567
1772363422871268400,4.391268310546875,0.013996961170434951,0.01167640926837921,0.005114128143340349
1772363422881338400,4.40133837890625,-0.0292401230096817,-0.015940496453642844,0.019811054276674983
1772363422891407400,4.411407470703125,-0.009352350234985351,-0.005969137537479401,0.03803746971040964
1772363422901477400,4.421477294921875,-0.004750993919372558,0.022827333357930184,0.058711716687679286
1772363422911546000,4.431546142578125,-0.003589548924565315,0.05027472773194313,0.05440729749202728
1772363422921616400,4.441616455078125,0.03155775230228901,0.0684749858111143,0.06398512704595923
1772363422931685000,4.45168505859375,0.012250409764051437,0.059091655915975566,0.06565963612943887
1772363422941755400,4.46175537109375,0.015706103175878523,0.03499240292608738,0.07143295883387327
1772363422951825200,4.4718251953125,0.014703648135066031,-0.034143677142262456,0.02013911718726158
1772363422961894400,4.481894287109375,0.0051543140232563015,-0.07781973726153374,-0.043374739085137844
1772363422971964400,4.49196435546875,-0.004530044645071029,-0.06798398742377758,-0.04261661419421434
1772363422982033200,4.502033203125,-0.057172670552134514,-0.05872574521303177,-0.039900340972840787
1772363422992103400,4.512103515625,-0.11740122154355048,-0.01106733745932579,-0.03421352750808
1772363423002172200,4.522172119140625,-0.1418348210543394,0.03488134376704693,0.012959288685768842
1772363423012242400,4.532242431640625,-0.13246084350943566,0.05559095431864261,0.04185805091187358
1772363423022311200,4.542311279296875,-0.05639408739507198,0.08119476665258407,0.0463489325903356
1772363423032381200,4.552381103515625,0.010882628542184828,0.07335925072133541,0.020019582460820674
1772363423042450200,4.5624501953125,0.05499298842549324,0.0454787256270647,-0.005863777466863393
1772363423052520200,4.572520263671875,0.10212181934714316,0.02942717001438141,-0.004109481145441532
1772363423062589200,4.582589111328125,0.1418207925289869,-0.00518704724907875,-0.014768822325766085
1772363423072659200,4.5926591796875,0.11585048497021197,-0.044098669445514674,-0.05270253940075636
1772363423082729200,4.602729248046875,0.050838206833601,-0.035599136647582054,-0.04201367986500263
1772363423092798200,4.612798095703125,0.02259878529906273,-0.011877484798431396,-0.0009448796346783637
1772363423102868200,4.6228681640625,0.027813305076956747,-0.005603226834535599,0.01962678375095129
1772363423112937200,4.632937255859375,-0.005965630406141281,-0.0013777180939912796,0.02688157718479633
1772363423123007200,4.64300732421875,-0.03461772439479828,0.005753448960185051,0.0644236645936966
1772363423133076200,4.653076171875,-0.057438628011941904,0.004863806644082069,0.061847092103958126
1772363423143146200,4.663146240234375,-0.04611760805249214,0.0378191507846117,0.022380320242792368
1772363423153215200,4.67321533203125,-0.013124854511022566,0.06511047781407833,-0.00845130974203348
1772363423163285200,4.68328515625,0.012281973946094512,0.02481120065152645,-0.019505495458841324
1772363423173354200,4.693354248046875,0.01849310354590416,-0.049185178929567336,-0.05074921337589621
1772363423183424300,4.70342431640625,0.04413958597779274,-0.06921557504534721,-0.02705254983752966
1772363423193493200,4.7134931640625,0.06792728880047798,-0.07757540711164473,-0.010530161842703818
1772363423203563300,4.723563232421875,0.057539165776968,-0.06699614543020725,-0.007953735483437776
1772363423213632300,4.73363232421875,0.046209962511062616,-0.06596387977302073,-0.021513035888969897
1772363423223702300,4.743702392578125,0.020752865171432495,-0.016768179449439046,-0.008142682184278964
1772363423233772300,4.753772216796875,-0.01323708271384239,0.0378846172362566,0.005549889212101698
1772363423243841300,4.76384130859375,-0.011054477977752684,0.06369885745048523,0.024669892484694717
1772363423253911300,4.773911376953125,0.03138414930105209,0.08887363071739673,0.06162015148028731
1772363423263980000,4.78397998046875,0.0035457097828388213,0.05170563731789589,0.0386238912962377
1772363423274050300,4.79405029296875,-0.09455459896326064,-0.026887422403693198,0.030057430741935967
1772363423284119300,4.804119384765625,-0.1331435650765896,-0.05260463198423385,0.042023324476182455
1772363423294189300,4.814189208984375,-0.06134440327882766,-0.015436054062843322,0.07904153414145111
1772363423304258300,4.82425830078125,-0.014116203635931013,0.02485737788081169,0.04348272950425744
1772363423314328300,4.834328369140625,-0.022327567142248154,0.085751114782691,0.017140812154114244
1772363423324397300,4.844397216796875,-0.0579746345847845,0.12607318829894065,0.030613895580917594
1772363423334467000,4.854467041015625,-0.08492635439634323,0.07363105340003967,0.015242138925939798
1772363423344536300,4.864536376953125,-0.07459142286479473,0.03817804722487926,0.01961523944362998
1772363423354606000,4.874606201171875,0.00798690710067749,-0.009354103800654412,0.0022724749766290186
1772363423364676400,4.88467626953125,0.05715104324221611,-0.07820727527439594,-0.04465995659008622
1772363423374745300,4.894745361328125,0.043076925182342525,-0.10152969867289066,-0.07954816848933696
1772363423384815000,4.904815185546875,-0.008541033852100371,-0.07966682643294334,-0.07412336696162819
1772363423394884400,4.91488427734375,-0.09792202956974506,-0.03764262517392635,-0.04034267791286111
1772363423404954000,4.9249541015625,-0.1513514219403267,0.030907763960957527,0.02049509101808071
1772363423415023400,4.9350234375,-0.11106208164989947,0.06953180138766765,0.038906507629901166
1772363423425093000,4.945093017578125,-0.0638303748756647,0.10349076961278915,0.04623027464672923
1772363423435162400,4.955162353515625,-0.03826747907400131,0.13598551050424576,0.05904518642574549
1772363423445232000,4.965232177734375,-0.013071663019061089,0.13360767545700072,0.05872837556153535
1772363423455301400,4.97530126953125,0.017937223228812218,0.12739186968207358,0.0523402819596231
1772363423465371400,4.985371337890625,0.04546294353604317,0.09290741627812385,0.028532413131743668
1772363423475440400,4.9954404296875,0.048432314735651016,0.026956395986676214,-0.00745513831153512
1772363423485510400,5.005510498046875,0.02037526403069496,-0.045832945892214774,-0.040710780572891236
1772363423495580200,5.015580078125,-0.005275894576311111,-0.10314999335110187,-0.054552551181614395
1772363423505649400,5.0256494140625,0.0066810851991176605,-0.13071896827816962,-0.04421075151786208
1772363423515719200,5.03571923828125,0.09185176974534988,-0.12527063974440097,-0.019730244125425813
1772363423525788400,5.045788330078125,0.1437082137107849,-0.12088029583096503,-0.006573094779998063
1772363423535858200,5.055858154296875,0.15171382551193235,-0.1208686053931713,-0.023595395120978354
1772363423545927200,5.06592724609375,0.08119476665258407,-0.09056056089103222,-0.019129355622828005
1772363423555997400,5.07599755859375,0.013080430847406387,-0.05071253462731838,-0.02384630114212632
1772363423566066200,5.086066162109375,0.0038110827207565303,0.0229746328741312,0.004727320782840252
1772363423576136400,5.096136474609375,0.046990883755683895,0.08394377309978007,0.003084522011876106
1772363423586205200,5.106205078125,0.07885317196249961,0.12286065599322318,-0.0007004033543169499
1772363423596275500,5.116275390625,0.07185995207428932,0.09873451499640941,-0.008869973545521498
1772363423606344200,5.12634423828125,0.01691314087808132,0.03617722879648209,-0.007582710213959217
1772363423616414200,5.136414306640625,0.006170213067531585,0.03169160781502724,0.03539060846343636
1772363423626484200,5.146484130859375,0.030736499047279355,0.02502981183826923,0.07902326783239841
1772363423636553200,5.15655322265625,0.06077917061150074,-0.003327683117985725,0.0688185385517776
1772363423646623500,5.16662353515625,0.080282912504673,-0.015060206487774848,0.0372243997618556
1772363423656692200,5.176692138671875,0.09952128145992756,-0.02567746209204197,0.004686111989617347
1772363423666758700,5.186758544921875,0.06918751799464225,-0.03836977040469646,-0.041030221785604955
1772363423676827600,5.19682763671875,0.02182955449223518,-0.02128594913482666,-0.060390755815804
1772363423686897700,5.206897705078125,-0.05345511133372784,-0.038354572835564614,-0.08720350554808974
1772363423696966700,5.216966552734375,-0.08101122677922248,-0.0016477672070264815,-0.09050810005143284
1772363423707036700,5.22703662109375,-0.04391103791892528,0.06684709234833718,-0.05215966469570994
1772363423717105700,5.237105712890625,-0.07556757442057133,0.06067454119324684,-0.020379794075340033
1772363423727175700,5.24717578125,-0.09955343016386031,-0.005842296287417411,-0.08477481709644198
1772363423737244700,5.25724462890625,-0.08484101420044898,-0.031032851645350454,-0.06261836873739958
1772363423747314700,5.267314697265625,-0.028490765947103498,-0.012249240720272064,-0.014335253214091062
1772363423757384000,5.277384033203125,0.04838555298447609,0.017077976050972936,-0.025860125182569027
1772363423767453700,5.28745361328125,0.06245850200057029,0.04672141916453838,-0.038071810371428726
1772363423777523700,5.297523681640625,0.08327917171120643,0.05750584802925587,-0.033767245045304296
1772363423787592700,5.3075927734375,0.12685761667490006,0.044373979255557056,0.005025719207525253
1772363423797662700,5.317662841796875,0.12135901925861835,0.04419628460109234,0.011628040082007646
1772363423807731700,5.327731689453125,0.09462824872136115,0.023186814320087432,0.03170841281935573
1772363423817801700,5.3378017578125,0.05378185907006264,-0.029978374156355857,0.0678187138594687
1772363423827870700,5.34787060546875,0.01464753403365612,-0.07778875760138035,0.06829729115664959
1772363423837940700,5.357940673828125,0.036196518018841745,-0.06833820768892765,0.06565875934660434
1772363423848009700,5.368009765625,0.04223755174875259,-0.033922727867960925,0.054556935095787046
1772363423858079700,5.378079833984375,0.0034480946272611615,0.006669979283213615,0.03924962197914719
1772363423868148700,5.388148681640625,-0.03936404213905334,0.036517420536279675,0.014554010531306266
1772363423878218800,5.39821875,-0.04763444235622882,0.033272739526629444,-0.031814211281389
1772363423888287700,5.408287841796875,-0.07010580188333988,-0.050077159333229065,-0.06275397781580686
1772363423898357500,5.418357421875,-0.038105566510558124,-0.1269376961737871,-0.07045914536565542
1772363423908427800,5.428427734375,0.0541319876819849,-0.12200900759994983,-0.03163651662692427
1772363423918496500,5.43849658203125,0.0927133550107479,-0.05000935479402542,0.015351006127893923
1772363423928566800,5.44856689453125,0.06510989329218864,-0.01765080750286579,0.048448681348562235
1772363423938635800,5.4586357421875,0.03602525310516357,0.014439444240927695,0.05456102674901485
1772363423948705800,5.468705810546875,-0.008471475747227668,0.030457682105898855,0.034077772299200296
1772363423958774800,5.47877490234375,-0.005905424651503562,0.06314589974284171,0.0581730797663331
1772363423968844500,5.488844482421875,-0.008006780844926833,0.09348550842702388,0.10767492342963814
1772363423978913800,5.498913818359375,-0.020023381853103636,0.07758417493999004,0.10293547381758689
1772363423988983600,5.508983642578125,-0.06130231770277023,0.06749708068966866,0.0949181715786457
1772363423999052800,5.519052734375,-0.08881108687520027,0.03026654344797134,0.0733159961014986
1772363424009122600,5.52912255859375,-0.05164484704136848,-0.00008826280534267425,0.0683250559464097
1772363424019191800,5.53919189453125,-0.004294482323527336,-0.03355272551178932,0.06413491078019141
1772363424029261800,5.54926171875,0.0222732066065073,-0.04528115722835064,0.0338347573235631
1772363424039331600,5.55933154296875,-0.015004676908254622,-0.0446902055978775,0.0003733633570373058
1772363424049400800,5.56940087890625,-0.06706278092563152,-0.053688920089602465,-0.01991349173784256
1772363424059470600,5.579470703125,-0.08384381985664367,-0.08173895653188228,-0.04375336313918233
1772363424069539800,5.589539794921875,-0.05848258410692215,-0.12010931145846843,-0.03697524730637669
1772363424079609600,5.599609619140625,0.010873276191949844,-0.1295610304147005,0.018481413108110425
1772363424089678800,5.609678955078125,0.07353110015690326,-0.06754501148462295,0.022379297329485414
1772363424099748600,5.61974853515625,0.09716858085393905,-0.009165303230285644,-0.026162030738592145
1772363424109817900,5.62981787109375,0.050585693377256394,0.04649170206189155,-0.042483635464310644
1772363424119888000,5.639887939453125,-0.000025718963146209716,0.06716916390955448,-0.03192643948420882
1772363424129956600,5.64995654296875,-0.02870119382739067,0.05591536396741867,-0.039461365033686156
1772363424140027000,5.66002685546875,-0.053315995123982426,0.04706745612323284,-0.0314861483708024
1772363424150095600,5.670095703125,-0.04557867887020111,0.01909340752661228,-0.026220629058033226
1772363424160166000,5.680165771484375,-0.009772621473670005,0.03183013950288296,-0.019649580104649067
1772363424170234600,5.690234619140625,0.02705108853280544,0.05480886403024196,-0.0012277882292866707
1772363424180304600,5.7003046875,0.04444061475098133,0.04535948316156864,0.02285641332194209
1772363424190374700,5.710374755859375,0.022270283997058868,0.04087269313633442,0.010217442631721496
1772363424200443600,5.720443603515625,-0.0293751475661993,-0.00018996961414813993,-0.031394086173176766
1772363424210514000,5.730513916015625,-0.08097966259717941,-0.06719780548214913,-0.0436377739354968
1772363424220582700,5.740582763671875,-0.08791150768697262,-0.11425123308002948,-0.0014855623826384543
1772363424230653000,5.75065283203125,-0.06733224551677704,-0.11646890912950038,0.000656125821173191
1772363424240721700,5.7607216796875,-0.04646013787984848,-0.07558978625237942,-0.021134119573980568
1772363424250791700,5.770791748046875,-0.021945289826393127,-0.03334171310961246,0.0044556642346084115
1772363424260860700,5.780860595703125,-0.007523965764045715,0.016586977663636208,0.02445347325503826
1772363424270930700,5.7909306640625,0.0045066637694835664,0.05525777684152126,0.01565875690281391
1772363424280999700,5.800999755859375,0.020301029750704764,0.08013385942280292,0.031099341010302303
1772363424291069700,5.811069580078125,0.04618599711358547,0.08170973043739795,0.05831380341127514
1772363424301138700,5.821138671875,0.05723521439433098,0.054822892555594444,0.06067556410655379
1772363424311208700,5.831208740234375,0.06713116998672485,0.01403144796192646,0.01853138972967863
1772363424321278700,5.84127880859375,0.05490881727337837,0.006136310797929764,0.013944938722252845
1772363424331347700,5.85134765625,0.05156184493303299,0.013974164816737173,0.04455050486624241
1772363424341417700,5.861417724609375,0.0682400080114603,0.03629121056497097,0.07720467410311102
1772363424351486700,5.87148681640625,0.07293664139509201,0.015379939961433409,0.06454334545060991
1772363424361556700,5.881556640625,0.06182955644726753,-0.006998480585217476,0.024766776987910268
1772363424371625700,5.891625732421875,0.025556466060876845,-0.0018248773396015165,0.01229863281995058
1772363424381695700,5.90169580078125,-0.011171382355690002,-0.058491351935267444,0.021051263596117496
1772363424391764700,5.9117646484375,-0.045585693132877345,-0.11332593492865561,0.0024631752431392667
1772363424401834800,5.921834716796875,-0.07495265739262104,-0.10905834061205387,0.014558394445478915
1772363424411903700,5.93190380859375,-0.032329321196675295,-0.04284545451402664,0.03983794326111674
1772363424421973800,5.941973876953125,0.09169511787891388,0.13238076401054857,0.15391937273219228
1772363424432042500,5.95204248046875,0.05262684381604194,0.10836217504143714,0.12478767853304742
1772363424442112800,5.96211279296875,-0.10816577568650244,-0.05233809000253677,-0.02622618201598525
1772363424452182800,5.972182861328125,-0.148357500821352,-0.06271159997880459,-0.03461597082912922
1772363424462251800,5.982251708984375,0.0850362445116043,-0.016529694518446922,0.015084464146196842
1772363424472321800,5.99232177734375,0.12885142084062098,0.035627193698287006,0.02551335757151246
1772363424482390500,6.002390625,-0.2225450190603733,0.0598918663829565,-0.016734277179837227
1772363424492460800,6.012460693359375,-0.10342647220492363,0.07298807932138443,-0.04095379554852843
1772363424502529500,6.022529541015625,0.0725140320688486,0.012476035213470458,-0.03673442428782582
1772363424512599800,6.032599853515625,0.16697627657353878,-0.017014847686886787,-0.09020107992887497
1772363424522668500,6.04266845703125,0.17679799788594244,-0.0366425082206726,-0.109414314442873
1772363424532738600,6.052738525390625,0.06534604013562202,-0.10458090293705463,-0.09895531814023852
1772363424542807800,6.062807861328125,0.006601005700230598,-0.1013619408905506,-0.045327188327163453
1772363424552877600,6.072877685546875,0.06397767439186573,-0.017896306696534157,-0.0014114742331206797
1772363424562946800,6.08294677734375,0.14123451707363127,0.019236615389585494,-0.03483735849484801
1772363424573016600,6.0930166015625,0.10712357315719127,0.041088966235518457,-0.07727846999168396
1772363424583086800,6.1030869140625,-0.0015390461355447769,0.041460137635469435,-0.1213309622079134
1772363424593155600,6.113155517578125,-0.05462941581010818,0.024640520259737966,-0.1345066701233387
1772363424603225600,6.1232255859375,-0.07551672101616859,-0.011221066716313361,-0.09962313439920543
1772363424613294600,6.133294677734375,-0.02650514508783817,-0.035414427730441095,-0.06216667944714427
1772363424623364600,6.143364501953125,0.058065235477685925,-0.04109364241063595,-0.03609890286326408
1772363424633433900,6.153433837890625,0.04311959528028965,-0.03448620696961879,-0.015930851842463015
1772363424643503600,6.163503662109375,0.003800561326742172,-0.011219313150644302,0.03440846555829048
1772363424653572900,6.17357275390625,-0.007478373056650161,0.03686228845119476,0.09707155022025107
1772363424663643000,6.183642822265625,0.017326982375979422,0.0763052410453558,0.13426014801636338
1772363424673712000,6.193712158203125,0.03823123871684074,0.08925473898947238,0.10465148395523428
1772363424683782000,6.203781982421875,0.040462943291664125,0.03019698534309864,0.06297390417680145
1772363424693851000,6.213850830078125,0.018014964640140532,-0.05350947186946869,0.06016556875780225
1772363424703921200,6.223921142578125,0.018943769922852516,-0.10249825144410132,0.08893091386258602
1772363424713990000,6.233989990234375,0.056656537723541255,-0.06021686055362224,0.12987550319135188
1772363424724060200,6.24406005859375,0.07577858682274818,-0.041644262030720705,0.12253157016932964
1772363424734130000,6.2541298828125,0.044511926421523094,0.01078501338660717,0.088578447163105
1772363424744199000,6.264198974609375,0.04781038344502449,0.07174597030580043,0.08009586549997329
1772363424754269000,6.27426904296875,0.04916530518531799,0.09691139122247695,0.06851108003780246
1772363424764338000,6.284337890625,0.005396306085586547,0.08363689910769462,0.04925590607821941
1772363424774408000,6.294407958984375,-0.01748188067674637,0.04673135603666305,0.04132876634076237
1772363424784477000,6.304476806640625,0.012861819660663604,0.012387187886238098,0.04249313394501805
1772363424794547200,6.314547119140625,0.06525310115516185,-0.008284428742527961,0.04927928695380687
1772363424804616000,6.324615966796875,0.033386136773228645,-0.060447746700048446,0.004450403537601232
1772363424814686000,6.33468603515625,-0.042101358148455614,-0.08685001593530177,-0.010397329243272543
1772363424824755000,6.3447548828125,-0.05991407821476459,-0.07025953114032744,0.002107932064682245
1772363424834825000,6.354824951171875,-0.014337152910232543,-0.05051379718482494,0.009063011899590492
1772363424844895000,6.36489501953125,-0.024570962154865265,-0.011254384464025496,-0.004980857152491807
1772363424854964000,6.3749638671875,-0.055439563149213784,0.043919805747270585,-0.011440554685890674
1772363424865034000,6.385033935546875,-0.06291852072775364,0.053693011742830275,0.02502601244598627
1772363424875103000,6.39510302734375,-0.05794599301218986,0.0550514406144619,0.03747223704308271
1772363424885173000,6.405173095703125,-0.019229601126909256,0.07350830380320549,0.03202580820545554
1772363424895242000,6.415241943359375,0.01811316431760788,0.10115443561971187,0.009177870450913906
1772363424905312000,6.42531201171875,0.009925766208767891,0.1011965211957693,0.005254705657809972
1772363424915381000,6.435381103515625,-0.008607669347524643,0.02369184123277664,-0.008226414944976567
1772363424925451000,6.445450927734375,-0.01565700333714485,-0.031281273448467255,-0.011545184104144573
1772363424935520000,6.45552001953125,-0.025123335340619085,-0.0799251851081848,-0.003623451194167137
1772363424945590000,6.465590087890625,-0.042405894052982326,-0.10713877072632312,-0.031220190910995003
1772363424955659000,6.475658935546875,-0.03929097690284252,-0.07624445076882838,-0.024393559761345385
1772363424965729000,6.48572900390625,0.004278700232505798,-0.018823358413577077,0.003226560831069946
1772363424975799000,6.495799072265625,0.045613750183582304,0.05188625458180904,0.022476035702228545
1772363424985868000,6.505867919921875,0.022104279780387877,0.06547989564836025,-0.010768646773695946
1772363424995938000,6.51593798828125,-0.01047697035074234,0.047045244291424745,-0.03819339092448353
1772363425006007000,6.526007080078125,-0.00033610008656978605,0.013206103053689001,-0.03493278169333935
1772363425016077000,6.5360771484375,0.03865267899930477,-0.027213001096248624,-0.04849821957871318
1772363425026146000,6.54614599609375,0.10230126756727695,-0.036432080340385434,-0.03429375313743949
1772363425036216000,6.556216064453125,0.13055764023661612,0.012139935126900672,-0.01750891481414437
1772363425046284800,6.566284912109375,0.10902268477678298,0.02198737540245056,-0.025409166544675826
1772363425056355000,6.57635498046875,0.05403554157018661,0.056035190954804415,0.020066636472940443
1772363425066423800,6.586423828125,0.00893149447441101,0.07980886525213718,0.06333776905313133
1772363425076494000,6.596494140625,0.009466916525363921,0.08575345287024974,0.09631634793877601
1772363425086564000,6.606564208984375,-0.00018646248281002043,0.046775195178389545,0.06718786861002445
1772363425096632800,6.6166328125,-0.030284663626551626,-0.02729951033592224,0.04456234143450856
1772363425106703000,6.626703125,-0.02171732628941536,-0.09052899670898913,0.03923252471387386
1772363425116771800,6.636771728515625,-0.010285831692814827,-0.0953062941133976,0.011098609380424023
1772363425126842000,6.646842041015625,0.005195815077424049,-0.041459553113579746,0.007125906357169151
1772363425136910800,6.656910888671875,-0.02990764700770378,0.03236497703194618,0.02689019888266921
1772363425146981000,6.666981201171875,-0.11274842730164528,0.07969780609309673,0.052681935004144906
1772363425157049900,6.6770498046875,-0.13299334295094012,0.06250058757662773,0.03151522833481431
1772363425167120000,6.687119873046875,-0.0689981329023838,0.017987492111325262,-0.005566401955485344
1772363425177188900,6.69718896484375,0.025723054799437522,-0.0024888942062854767,-0.018043606212735173
1772363425187259000,6.7072587890625,0.12847265065610408,0.011043956583738326,0.0057281683884561055
1772363425197329200,6.7173291015625,0.1546837812334299,0.04468728298842907,0.005800356841832399
1772363425207398000,6.72739794921875,0.11484393827617168,0.06945230641067028,-0.008325491405278444
1772363425217468000,6.737468017578125,0.023496026399731636,0.024403204372525213,-0.055657882075011725
1772363425227537000,6.747536865234375,-0.030558219870924948,0.02010287683010101,-0.0645594198025763
1772363425237607000,6.75760693359375,-0.024576807373762128,-0.009265840995311737,-0.05511603028327226
1772363425247676000,6.767676025390625,0.00968786579966545,-0.05127075303196907,-0.07390592481866479
1772363425257746000,6.777745849609375,0.005188216292858124,-0.05365735590755939,-0.09139452749714255
1772363425267815000,6.78781494140625,-0.0037853637576103208,-0.031845337072014805,-0.11660481046885252
1772363425277885000,6.797885009765625,0.013825111734867095,0.013743278670310973,-0.1270733052521944
1772363425287954000,6.807953857421875,-0.017125322324037552,-0.006940612918138503,-0.16634937684684992
1772363425298024000,6.81802392578125,-0.028982933378219604,-0.05360065728425979,-0.18357304497882723
1772363425308093200,6.82809326171875,-0.018109657186269758,-0.0994318496108055,-0.14357216624096036
1772363425318163000,6.838162841796875,0.04166062864363193,-0.06895370923876762,-0.07705591328218579
1772363425328233000,6.84823291015625,0.10114391422569752,0.01720423277914524,-0.027063801883906124
1772363425338302000,6.858302001953125,0.07334872932732105,0.06929039384722709,-0.0046671150282025335
1772363425348372000,6.8683720703125,-0.01718026738166809,0.08532207571566104,0.00018748539611697197
1772363425358441000,6.87844091796875,-0.07087211008071899,0.07555179232954978,-0.0089482994787395
1772363425368511000,6.888510986328125,-0.04801555062830448,0.07489946590065956,0.011461743604391813
1772363425378580000,6.898580078125,-0.009460486784577369,0.07320142981112003,0.05906637534424662
1772363425388650000,6.90864990234375,-0.018275076881051063,0.03672726389467716,0.10125833438560367
1772363425398719000,6.918718994140625,-0.0567068066060543,-0.012730302235484122,0.1308402565702796
1772363425408789000,6.9287890625,-0.03985094887316227,-0.037892216020822524,0.13197408290579915
1772363425418858000,6.93885791015625,0.03603577449917793,-0.04144552458822727,0.1318374509140849
1772363425428928000,6.948927978515625,0.10651976204514503,-0.03213175279796123,0.12033464464694262
1772363425438998000,6.958998046875,0.08043956437110901,-0.045859249377250666,0.07559358564466237
1772363425449066800,6.969066650390625,0.039320787519216534,0.0013303718209266662,0.0670342854835093
1772363425459137000,6.979136962890625,-0.013532850790023802,0.013592472022771834,0.05382321399375796
1772363425469205800,6.989205810546875,-0.04743745847940445,0.012288403686881064,0.05136646849140525
1772363425479276000,6.999276123046875,-0.04535539150834083,0.01652794095277786,0.06725260440930723
1772363425489345000,7.009344970703125,0.005239654219150543,0.0090104049295187,0.053245706366747615
1772363425499415000,7.0194150390625,0.029988311028480527,-0.031246786656975743,0.02262757300212979
1772363425509484000,7.029484130859375,0.052118309772014614,-0.01063946743607521,0.048117403567582366
1772363425519553800,7.0395537109375,0.030177111598849296,-0.00813245305120945,0.06587108692303299
1772363425529623000,7.049623046875,0.0015653496205806732,0.025609657552838325,0.04085968752428889
1772363425539692800,7.05969287109375,0.003360416343808174,0.0827139390438795,0.031745676089823247
1772363425549762000,7.069761962890625,-0.01247545069158077,0.09096563456058501,0.04142784280106425
1772363425559831800,7.079831787109375,-0.05670096138715744,0.01956394764780998,0.029189854127168655
1772363425569901800,7.08990185546875,-0.06004734920561313,-0.0246826058357954,0.03508066573143005
1772363425579971000,7.09997119140625,0.013617606464028358,0.015355390042066572,0.027479689208418128
1772363425590040800,7.110040771484375,0.0407207174450159,0.03090484135150909,0.020249737954884765
1772363425600110000,7.120110107421875,-0.024261165553331375,-0.0024929858595132827,0.006891805340349674
1772363425610179800,7.130179931640625,-0.06336567997336387,-0.02448912909030914,-0.0019055413603782652
1772363425620249000,7.1402490234375,-0.04247603667974472,-0.01475508606135845,0.00895282952338457
1772363425630318800,7.15031884765625,-0.0089057755112648,0.001048047748208046,0.015412234795838593
1772363425640388000,7.16038818359375,0.054018005913496016,0.007622749963402748,0.01531783451065421
1772363425650457900,7.170457763671875,0.09176759859323501,-0.014594927063584328,-0.012138766083121299
1772363425660527000,7.180527099609375,0.08567571145892143,-0.07881868517100811,-0.05886559207513928
1772363425670597400,7.190597412109375,0.07273790395259856,-0.09274901084601879,-0.08631094062253833
1772363425680666400,7.200666259765625,0.045865094596147536,-0.07955342918634414,-0.09733326989635825
1772363425690736400,7.210736328125,0.016854104167222977,-0.030555881783366202,-0.09796630710288881
1772363425700806400,7.220806396484375,0.0028279169023036955,0.009199790021777152,-0.07285466220006347
1772363425710875400,7.23087548828125,-0.022983985224366187,0.04466331759095192,-0.042920565576851366
1772363425720945400,7.2409453125,0.009095160603523254,0.05333119269311428,-0.0022482173182070252
1772363425731014100,7.25101416015625,0.030286417192220687,0.06668401074111462,0.03653261810541153
1772363425741084400,7.26108447265625,-0.00322246917784214,0.08915653931200504,0.05096490195319056
1772363425751153200,7.271153076171875,-0.010355974319577216,0.04114624938070774,0.03460442652180791
1772363425761223400,7.281223388671875,0.024303251129388807,-0.004377484431862831,0.025889059016108513
1772363425771292400,7.29129248046875,0.040354806742072105,-0.03358662778139114,0.01505333835557103
1772363425781362200,7.301362060546875,0.04414952284991741,-0.024904724153876304,0.030553689826279876
1772363425791431400,7.311431396484375,-0.0002332242339849472,-0.037248072898387906,0.016810703416913746
1772363425801501200,7.321501220703125,-0.06424363185167312,-0.02879004115462303,-0.0013883856184780598
1772363425811570400,7.3315703125,-0.09172960467040538,0.011592822638154029,0.012484218519926071
1772363425821640200,7.34164013671875,-0.077367901840806,0.05151625222563743,0.01710559471026063
1772363425831710500,7.35171044921875,-0.06405366223752498,0.0684884298145771,0.009374123675376177
1772363425841779200,7.361779296875,-0.0582493598729372,0.04605272612273693,0.0015549743570387362
1772363425851849200,7.37184912109375,-0.05546586663424968,-0.00845218652486801,-0.01416208860427141
1772363425861918500,7.38191845703125,-0.054153614991903305,-0.005341945549845695,0.002318944466859102
1772363425871988200,7.39198828125,0.007113631397485732,0.016772271102666853,0.038785365468263625
1772363425882057500,7.402057373046875,0.032168577677011485,0.013394903624057769,0.013009995959699153
1772363425892127200,7.412127197265625,-0.007035889986157417,-0.0048345805495977395,-0.020215251163393257
1772363425902196500,7.422196533203125,0.0074298577398061744,-0.017597031489014623,-0.01855111734345555
1772363425912266200,7.432266357421875,0.06350128905177116,-0.04398527219891548,-0.012709990099817515
1772363425922335500,7.44233544921875,0.07841478054523468,-0.07889350397288798,-0.03241042360886931
1772363425932405200,7.4524052734375,0.09345511328876017,-0.08482464758753776,-0.057279930318891996
1772363425942474200,7.46247412109375,0.08641571617126464,-0.042373745349049564,-0.052020402355492115
1772363425952544500,7.47254443359375,0.03280570653676986,0.002515197691321373,-0.04784808510690927
1772363425962614300,7.4826142578125,-0.014421324062347411,0.007203647768497467,-0.06213833013549447
1772363425972683500,7.49268359375,-0.0301028773188591,-0.020942834785580632,-0.047246758212894195
1772363425982753300,7.502753173828125,0.011410451808571816,-0.04236147038936615,-0.03310951178893447
1772363425992822500,7.512822509765625,0.07472937003076076,-0.0263905787974596,-0.020640052446722984
1772363426002892300,7.522892333984375,0.07644143464565277,-0.009750409641861916,-0.003431874144822359
1772363426012961300,7.532961181640625,0.05600187320709228,0.021998481318354607,0.037456747213006014
1772363426023031300,7.54303125,0.006810264536738395,0.049371056890487666,0.035107407607883216
1772363426033100300,7.553100341796875,-0.004805938977003097,0.07339782916605472,0.03734159640073776
1772363426043170600,7.563170654296875,0.014876082092523574,0.10947393567562103,0.08758987451717257
1772363426053239300,7.5732392578125,0.06893909619152545,0.15257131912410257,0.17270006104782223
1772363426063309300,7.583309326171875,0.014112696504592894,0.085428458699584,0.1539526904799044
1772363426073378300,7.59337841796875,-0.12713117291927337,-0.022145780834555626,0.09454729243963957
1772363426083448300,7.6034482421875,-0.20040859057605265,-0.0699696082830429,0.10754983574524521
1772363426093518300,7.613518310546875,-0.12275894918441772,-0.08623276081979274,0.11898089195042848
1772363426103587300,7.62358740234375,-0.03155249160528183,-0.03269873903095722,0.10313201930299401
1772363426113657300,7.6336572265625,-0.0031681086421012877,0.029227263528108595,0.08337430264875292
1772363426123726300,7.643726318359375,-0.030323826593160626,0.036036943542957306,0.04771759059503674
1772363426133796400,7.65379638671875,-0.08490355804264545,0.037867081579565996,0.03608370529413223
1772363426143865300,7.663865234375,-0.06356617098152637,0.0414005164027214,0.05321808770745992
1772363426153935400,7.673935302734375,0.032521628898382185,0.02369710192978382,0.022662205924093723
1772363426164004400,7.68400439453125,0.048885903722047805,-0.023373276802897452,-0.07568579397276043
1772363426174074400,7.694074462890625,0.04849193596839905,-0.02165185983777046,-0.09966755806282163
1772363426184143400,7.704143310546875,0.07059621574878693,0.006731354081630707,-0.08144450362995266
1772363426194213400,7.71421337890625,0.10833236442506312,0.06232055483460426,-0.07240648004114628
1772363426204282400,7.724282470703125,0.0637871202558279,0.09258066854178905,-0.06631342386305332
1772363426214352400,7.734352294921875,-0.0052700493574142455,0.051074353677034376,-0.07098945285007358
1772363426224421400,7.74442138671875,-0.030676293292641637,0.03952420113682747,-0.036718642196804284
1772363426234491400,7.754491455078125,-0.046129298490285874,0.03361293126642704,-0.027050211749970913
1772363426244561400,7.7645615234375,-0.06861117941141129,0.05323357753753662,-0.0055555883005261415
1772363426254630400,7.77463037109375,-0.08376081774830818,0.0978852046906948,0.013622136508673428
1772363426264700400,7.784700439453125,-0.07153086625039577,0.10472761793136597,0.0007141396187245845
1772363426274769400,7.794769287109375,-0.08828618621826172,0.025831775870919227,-0.022105302693694828
1772363426284839400,7.80483935546875,-0.10105331333279609,-0.05789163247644901,-0.001454728852957487
1772363426294908200,7.814908203125,-0.08635083424150944,-0.11328560291826724,0.018761106832325458
1772363426304978400,7.824978515625,-0.07352876206934451,-0.1325970371097326,-0.008115063524991273
1772363426315047200,7.835047119140625,-0.04676759639382362,-0.10425123259127139,-0.033318186103552576
1772363426325117400,7.845117431640625,0.0023497779965400696,-0.045998365586996076,-0.01109670968428254
1772363426335186200,7.855186279296875,0.043779520493745804,-0.02628478033542633,-0.016898235569894313
1772363426345256400,7.86525634765625,0.03943944546282291,0.00973404302895069,-0.04628521970435977
1772363426355325400,7.875325439453125,0.033606501525640486,0.03612579087018966,-0.025506635569781062
1772363426365395200,7.885395263671875,0.0301987389087677,0.06684650782644748,-0.005877952122688293
1772363426375464400,7.89546435546875,0.06133621997237205,0.10217968701422214,0.009824497791379689
1772363426385534200,7.9055341796875,0.12791209416389465,0.11073591843545436,0.029480361506342888
1772363426395604500,7.9156044921875,0.14355097732245922,0.06909457901418209,-0.002757482014596462
1772363426405673200,7.925673095703125,0.0673205550789833,-0.008203764721751213,-0.028682927518337963
1772363426415743200,7.9357431640625,-0.007796352964639664,-0.027263854500651358,-0.015524462998658417
1772363426425812200,7.945812255859375,-0.008126023310422897,-0.01848608928322792,0.04103533635213971
1772363426435882200,7.95588232421875,0.0063625207692384715,-0.0029933365970849987,0.06782192872986197
1772363426445951200,7.965951171875,-0.03569382919371128,-0.009800094002485275,0.06532105182483793
1772363426456021200,7.976021240234375,-0.06674304745197296,-0.04888999537527561,0.045891690342128276
1772363426466090500,7.986090576171875,-0.06687865653038025,-0.03387771968245506,0.03555500524491072
1772363426476160300,7.99616015625,-0.06256020880937575,0.032203064468503,0.06626753889471292
1772363426486229500,8.0062294921875,-0.08971534223854541,0.07087912434339523,0.07450637492984533
1772363426496299300,8.01629931640625,-0.14450667061209677,0.05281798247396945,0.020986673927307128
1772363426506368500,8.026368408203124,-0.15615385378599167,0.032740824607014656,-0.015528408521413802
1772363426516438300,8.036438232421874,-0.0995195278942585,0.040461774247884746,0.005052753344923258
1772363426526507300,8.04650732421875,-0.034595512562990184,0.06012333705127239,0.025116028816998003
1772363426536577300,8.056577392578125,0.014280454286932944,0.05702420199215412,0.015525339781492948
1772363426546647300,8.066647216796875,0.012590016981959343,0.048236499902606006,-0.01651274338364601
1772363426556716500,8.076716552734375,0.01386193661391735,0.03814531399905682,-0.017637071238458157
1772363426566786300,8.086786376953125,0.02705167305469513,0.008681903627514838,-0.031772271835803986
1772363426576855300,8.096855224609374,0.05517009855806827,-0.03231646171510219,-0.03291676569581031
1772363426586925300,8.10692529296875,0.0996802714139223,-0.0749976655781269,-0.05405673048868775
1772363426596994300,8.116994384765626,0.14379063129723071,-0.03880348564684391,-0.06082739366739988
1772363426607064300,8.127064208984375,0.09901917715668677,-0.01737725125849247,-0.08031623025238513
1772363426617133300,8.13713330078125,0.033301965621113774,-0.005700841990113258,-0.10251257223039865
1772363426627203300,8.147203369140625,-0.027412323060631752,-0.01838964317142963,-0.10173267389908433
1772363426637272300,8.157272216796875,-0.009823474878072738,-0.06291618264019488,-0.08578589383512734
1772363426647342300,8.16734228515625,0.05485796386897564,-0.03669160805940628,-0.047384705378860234
1772363426657411300,8.177411376953126,0.08240823409557342,0.015334931775927542,-0.0035531624369323253
1772363426667481300,8.1874814453125,0.07707914802730083,0.05515840812027454,0.042187575127184386
1772363426677550300,8.19755029296875,0.0536830748707056,0.0610550649434328,0.06321852658763527
1772363426687620400,8.207620361328125,-0.02211713926196098,0.05106324776113033,0.04222513065859675
1772363426697689300,8.217689453125,-0.03765957630872726,0.041947628891468046,0.03647109717652201
1772363426707759400,8.22775927734375,-0.017786416581273078,0.03765899178683758,0.060336979801952836
1772363426717829000,8.2378291015625,-0.026235680496692657,0.00874152486026287,0.07638108276054263
1772363426727898400,8.2478984375,-0.0555611437022686,-0.022768296647071837,0.09169102622568606
1772363426737968400,8.257968505859376,-0.11838730997145175,-0.06471183388531207,0.10186126871481538
1772363426748037400,8.268037353515625,-0.07859189067780971,-0.019825813454389572,0.10953574886545538
1772363426758107400,8.278107421875,-0.009313771790266037,0.018730419433116912,0.10409238876774907
1772363426768176400,8.28817626953125,0.07440379133820534,0.049510173100233076,0.049382601197808976
1772363426778246400,8.298246337890625,0.038194998359680175,0.04254851739406586,-0.008023439718782902
1772363426788315400,8.3083154296875,-0.042057519006729126,0.020780337700247762,-0.032667028718441724
1772363426798385400,8.318385498046876,-0.029231939703226087,-0.00042202480435371396,-0.012520166616141795
1772363426808454400,8.328454345703125,0.04945639708638191,0.00734510206580162,0.004502864377200603
1772363426818524400,8.3385244140625,0.13560089510083198,0.030193478211760518,0.009668138185888528
1772363426828593200,8.34859326171875,0.1650976232200861,0.027964111724495887,-0.007497077757120132
1772363426838663400,8.358663330078125,0.09783259772062301,-0.03279284705519676,-0.049038463935256
1772363426848732200,8.368732177734374,0.014718261182308196,-0.06808861684203148,-0.046306554753333326
1772363426858802400,8.378802490234374,-0.02688333075046539,-0.0667015463978052,-0.02417728666216135
1772363426868871400,8.388871337890626,-0.02960135753750801,-0.020708441507816314,-0.016789368367940188
1772363426878941200,8.398941162109375,-0.01606792222559452,0.030141455763578413,0.010028349800407886
1772363426889011500,8.409011474609375,-0.05189619145393371,0.050344285836815834,0.0572590336613357
1772363426899080200,8.419080078125,-0.10893851362466811,0.05896539918780327,0.05741451648399234
1772363426909150500,8.429150390625,-0.06793839471638202,0.11150631828606128,0.061954644131660457
1772363426919219200,8.43921923828125,0.008970072919130325,0.12653671415746212,0.04480652545392513
1772363426929289200,8.449289306640624,0.0315583368241787,0.06889525704979896,-0.003772650406509638
1772363426939358200,8.459358154296876,0.014006313520669937,-0.03269815450906753,-0.03299976780414581
1772363426949428200,8.46942822265625,-0.0007955342918634414,-0.10529343512058258,-0.042553047438710925
1772363426959497500,8.47949755859375,0.00362637380361557,-0.14297113160789013,-0.06519932514131069
1772363426969567200,8.489567138671875,-0.007425766086578369,-0.13311550802588462,-0.0718733960777521
1772363426979636500,8.499636474609375,-0.015602058279514311,-0.09179740920960902,-0.06109115917012095
1772363426989706200,8.509706298828124,0.03196633310317993,-0.03423486255705356,-0.036020723060518504
1772363426999775500,8.519775390625,0.04276946666836738,0.005232055434584618,-0.04168532469347119
1772363427009845200,8.52984521484375,0.042786417803168296,0.01183072304725647,-0.07748758269771933
1772363427019914500,8.53991455078125,0.04700491228103638,0.01625263114273548,-0.08162672832906245
1772363427029984300,8.549984375,0.06961772610545158,0.03295008344352245,-0.05411664398238063
1772363427040053200,8.56005322265625,0.07297931149303913,0.055443070280551905,-0.03844692729413509
1772363427050123500,8.57012353515625,0.08735562736988067,0.041917818275094026,-0.02175020564571023
1772363427060192300,8.580192138671874,0.08395838614702224,0.04132920473217964,0.022209785981476306
1772363427070262500,8.590262451171874,0.07151976033449173,0.011787468427419661,0.032754999262839556
1772363427080332300,8.600332275390626,0.007039397117495536,-0.05788286464810371,0.027224253142625093
1772363427090402300,8.61040234375,-0.016986206114292145,-0.06418167253136635,0.04768851063102483
1772363427100471300,8.62047119140625,-0.025289924079179762,-0.058059974780678744,0.040824031689018006
1772363427110541300,8.630541259765625,-0.015410919621586798,-0.033197920724749565,0.04637815868481993
1772363427120610300,8.6406103515625,-0.022539164066314697,0.04922434189617633,0.09573533318042754
1772363427130680300,8.650680419921875,-0.037355624926090236,0.09527706801891327,0.10961787419095635
1772363427140749600,8.66074951171875,-0.06332359439730643,0.07769289601147174,0.0738128397077322
1772363427150819300,8.6708193359375,-0.08915595479011536,0.0306301160633564,0.040223727708309884
1772363427160888300,8.680888427734375,-0.07315642162561416,-0.005503273591399192,0.03791121298223734
1772363427170958300,8.690958251953125,-0.010564648634195328,-0.020675123760104178,0.0429018608763814
1772363427181027300,8.70102734375,0.03250935393869877,-0.0032499417066574094,0.06985153486132621
1772363427191097300,8.711097412109375,0.032651392757892604,0.01969429602921009,0.07633329809606075
1772363427201167400,8.72116748046875,0.03652911097407341,0.021551906594634056,0.09258052241131663
1772363427211236400,8.731236328125,0.0901122326016426,0.0198158765822649,0.07649784100800752
1772363427221306400,8.741306396484376,0.1475035143405199,0.02087327668070793,0.06156959033682942
1772363427231375400,8.751375244140625,0.11557868229150771,-0.04606441656053066,-0.0016385609872639178
1772363427241445400,8.7614453125,0.045722471255064005,-0.10132511601150035,-0.05853109942376613
1772363427251514400,8.771514404296875,0.010575170028209686,-0.115234983420372,-0.08321253621578216
1772363427261584400,8.78158447265625,0.02501987496614456,-0.05278758733570575,-0.08091185805797577
1772363427271653400,8.7916533203125,0.03861000890135765,0.018355740901827813,-0.06039587038233876
1772363427281723100,8.80172314453125,0.004396773654222488,0.033842648369073865,-0.040497868474572894
1772363427291792400,8.81179248046875,-0.06733925977945328,0.018558569997549054,-0.06015402445048094
1772363427301862100,8.821862060546875,-0.09368599943518638,0.008919219514727591,-0.052679304655641315
1772363427311931400,8.831931396484375,-0.05833294650316238,0.01125204637646675,-0.012280366510897874
1772363427322001400,8.84200146484375,0.00021218144595623015,0.027052257576584814,0.014900485881417989
1772363427332070400,8.8520703125,0.0077162734657526015,0.03460954108834267,0.002395662964880466
1772363427342140400,8.862140380859374,-0.012620996642112732,0.028763153147697448,-0.0148499247379601
1772363427352209400,8.87220947265625,0.017220599392056463,0.038348727616667744,0.019173779286444186
1772363427362279400,8.882279541015626,0.04504208777546882,0.030716040781140326,0.08766133231818675
1772363427372348400,8.892348388671875,0.02242401325404644,0.0075362407237291335,0.11525441877320408
1772363427382418400,8.90241845703125,-0.06316343539953231,-0.06642156041264534,0.05949132275804877
1772363427392487200,8.912487060546875,-0.10679448733329773,-0.07863339173197746,0.0371568874835968
1772363427402557400,8.922557373046875,-0.0705231505125761,-0.044700142470002174,0.059715633033215997
1772363427412627500,8.93262744140625,-0.05976210252344608,-0.002235211706161499,0.07015607076585292
1772363427422696400,8.942696533203126,-0.047097266739606854,0.019972528448700903,0.06760507110878824
1772363427432766500,8.952766357421876,0.23634090470075605,0.03034603842496872,0.006630670186132192
1772363427442835500,8.96283544921875,0.17693419148623943,-0.015508534777164459,-0.01820829525515437
1772363427452905500,8.972905517578125,-0.02813420759439468,-0.047938393738865846,0.04261880615130067
1772363427462974200,8.98297412109375,-0.02493921094536781,-0.03512158226370811,0.040337417215853925
1772363427473044500,8.99304443359375,0.07319675363600253,-0.02576104872226715,-0.014360387655347584
1772363427483113200,9.00311328125,0.09406652318537234,-0.02717325360774994,-0.02961655510663986
1772363427493183500,9.01318359375,-0.04049100034236908,-0.054255906322598454,-0.07119593520760535
1772363427503252200,9.023252197265625,-0.04251695321202278,-0.04053425496220588,-0.020473317577689883
1772363427513322200,9.033322265625,0.05470365009009838,0.04944119951725006,0.0731263187482953
1772363427523391200,9.04339111328125,0.08116670960187912,0.10590367597341536,0.07098346150070428
1772363427533461200,9.053461181640625,0.0407166257917881,0.046829555714130396,0.012856705094128847
1772363427543530200,9.0635302734375,-0.025469372299313543,-0.00999766240119934,-0.03959595119878649
1772363427553600300,9.073600341796874,-0.03998948056101799,0.002167407166957855,-0.014400573535263538
1772363427563669500,9.08366943359375,0.0035018706411123275,0.08345628184378147,0.03323649916946888
1772363427573739300,9.0937392578125,0.009182838886976241,0.14176000225245952,0.012645108170062303
1772363427583808500,9.10380859375,0.00009878419935703278,0.11612111860513687,0.0007446808874607086
1772363427593878300,9.113878173828125,-0.021564181554317472,0.026064415583014488,0.009845394448935984
1772363427603947500,9.123947509765625,-0.06099719727635383,-0.04943243168890476,0.0020762217521667478
1772363427614017300,9.134017333984374,-0.0643622897952795,-0.12461071453094481,-0.008700023806095122
1772363427624086300,9.144086181640626,0.07568155618906021,-0.14587562087774275,-0.02647650351524353
1772363427634156300,9.15415625,0.16945991008281708,-0.18163550104498863,-0.10174684855490922
1772363427644226300,9.164226318359376,-0.17219254991710184,-0.10596037459671497,-0.11621288854181766
1772363427654295600,9.174295654296875,-0.15409399864673615,-0.0035918870121240615,0.0017184943556785583
1772363427664365000,9.184364990234375,0.14585399356782436,0.03293956204950809,0.04053790822401643
1772363427674434300,9.194434326171875,0.19261340665519236,0.044506081202626224,-0.016119798543304205
1772363427684504000,9.204504150390624,0.06104512807130813,0.032847207590937615,-0.08167860464677214
1772363427694573000,9.214572998046876,0.033606501525640486,-0.006254384219646454,-0.08836056662872434
1772363427704643300,9.224643310546876,0.037111294776201245,-0.013275661158561707,-0.05596241797953844
1772363427714712000,9.234712158203125,0.04277531188726425,-0.00990180081129074,-0.01645385280326009
1772363427724782300,9.2447822265625,0.10995558171272277,-0.00426467170715332,0.037338527660816904
1772363427734851000,9.25485107421875,0.1473860254406929,0.0038490766435861586,0.07678893290907145
1772363427744921000,9.264921142578125,0.11375263590812683,0.030301030239462852,0.08250409568548202
1772363427754990000,9.274989990234374,-0.008832710275053977,0.04365384828746319,0.08993234599009156
1772363427765060000,9.28506005859375,-0.10445639977455139,0.03672317224144935,0.07161196866258979
1772363427775129000,9.295129150390625,-0.10823825640082359,0.029485622203350065,0.06707388684153556
1772363427785199000,9.30519921875,-0.09524433479309082,-0.004153612548112869,0.052663960956037044
1772363427795268000,9.31526806640625,-0.06315642113685607,-0.04622574460208416,0.024174071791768073
1772363427805338000,9.325338134765625,-0.05632862094342708,-0.049208559805154796,-0.0002326397120952606
1772363427815407000,9.335406982421874,-0.06452887853384018,-0.025652327650785445,-0.03803542388379574
1772363427825477000,9.34547705078125,-0.06402268257737159,0.024777882903814313,-0.017664251506328582
1772363427835546000,9.355546142578126,-0.0961819079041481,0.048856093105673785,-0.021515520107001064
1772363427845616000,9.3656162109375,-0.17501988229751586,0.07058686339855194,0.006884791077673435
1772363427855685000,9.37568505859375,-0.034844518887996674,0.031218729606270788,-0.014407733928412199
1772363427865755100,9.385755126953125,0.12778934456706045,-0.004304419195652008,-0.1074802776403725
1772363427875824000,9.39582421875,0.04427987123131752,-0.015552958440780638,-0.0631599282681942
1772363427885894100,9.40589404296875,0.0552080924808979,0.038187399575114245,0.02108531199619174
1772363427895963100,9.415963134765626,0.13649521359205244,0.10902969903945922,0.09416355381906032
1772363427906033200,9.426033203125,0.14510405198335646,0.1030307508856058,0.07223214638754726
1772363427916103200,9.436103271484376,0.061979194051027295,0.013159925824403762,-0.013982494253665208
1772363427926172000,9.446171875,0.03745207103788852,-0.04306348117887974,-0.04181245820447802
1772363427936242200,9.4562421875,0.05323708466887474,-0.0767144063681364,-0.005103168357908725
1772363427946311200,9.466311279296875,0.039464579904079436,-0.024834581527113913,0.04668225619792938
1772363427956381200,9.476381103515624,0.486255576723814,0.10603811600804328,-0.020352321546524763
1772363427966450200,9.4864501953125,0.7623357866168021,0.03161795805692673,-0.20278467205762862
1772363427976520000,9.49652001953125,0.10683598838746547,-0.02305003619790077,-0.0792588301539421
1772363427986589200,9.506589111328125,-0.3555658345401287,-0.1161369006961584,-0.01131327504441142
1772363427996659000,9.516658935546875,-0.3841963012188673,-0.16672084050774574,0.050146717438101764
1772363428006728200,9.526728271484375,-0.644464024952054,-0.10573942532241344,0.08723550812155008
1772363428016798000,9.5367978515625,-0.6416355235278606,0.02560673494338989,0.16978914203718304
1772363428026867200,9.5468671875,-0.25150690965056416,0.20740122594237326,0.25742183278277514
1772363428036937200,9.556937255859374,-0.15837036079168318,0.2845937712162733,0.1725803801909089
1772363428047006200,9.567006103515626,-0.2856114238262176,0.1673188064008951,0.059090486872196195
1772363428057076200,9.577076171875,-0.20002689778208732,-0.031417467048764226,0.06510375581234693
1772363428067145200,9.587145263671875,-0.044914077481627464,-0.21740239547491072,0.0224791044421494
1772363428077215200,9.59721533203125,0.03438040850758552,-0.2263835743099451,0.0019223463647067545
1772363428087284000,9.607283935546874,0.2272550964474678,0.042355040648579596,0.21747750653773545
1772363428097354200,9.617354248046874,0.5354793340981007,0.11770751101374625,0.15628960899487138
