time,seconds_elapsed,z,y,x
1772364941684158700,0.10815869140625,-0.09683306528925895,0.0462719218313694,0.311705248166807
1772364941694229800,0.118229736328125,0.12864274652600288,0.1838882484078407,0.3349224941577762
1772364941704300000,0.128300048828125,0.37661154517829415,0.27141514069139955,0.2574657632560469
1772364941714369800,0.138369873046875,0.5026607680797577,0.3285603387147188,0.1632530000003986
1772364941724439800,0.148439697265625,0.3611334055393934,0.2376373742520809,0.10941367512205614
1772364941734509800,0.158509765625,0.1173223110884428,0.09895137261748313,0.11585575480037368
1772364941744580900,0.168580810546875,-0.05341068767011165,-0.06352525444924831,0.12797246431531384
1772364941754651000,0.17865087890625,-0.1100374147772789,-0.22414953164756296,0.1401720754738897
1772364941764721000,0.188720947265625,-0.07888765875399112,-0.3494932366281748,0.16970453249365092
1772364941774790700,0.198790771484375,0.01400046830177307,-0.38386253921985625,0.18842651289198548
1772364941784861700,0.20886181640625,0.08433364920020103,-0.26013036108911036,0.150458939213166
1772364941794932000,0.218931884765625,0.0818254657715559,-0.053958969202637666,0.14319114016727544
1772364941805001700,0.229001708984375,0.034413141733407974,0.14730945307314394,0.13104375238628127
1772364941815071700,0.23907177734375,-0.03221884655952453,0.3079465897530317,0.09186741483905352
1772364941825142800,0.249142822265625,-0.14777531701922417,0.36567864775359626,0.07367510260432027
1772364941835213000,0.259213134765625,-0.28453473450541494,0.29380758976340293,0.06491690060389228
1772364941845282800,0.26928271484375,-0.24077917940914628,0.14575462484657764,0.09289409100566991
1772364941855352800,0.279352783203125,0.007747837647795677,0.02968377512395382,0.13209800154641269
1772364941865422800,0.2894228515625,0.30530630437731743,-0.02517886492013931,0.14809182648933492
1772364941875494000,0.299493896484375,0.4398176506757736,-0.1106429794549942,0.1488566003167536
1772364941885564000,0.30956396484375,0.3577425940573215,-0.1709960336089134,0.1344710782201495
1772364941895634000,0.319634033203125,0.034012159717082976,-0.2363350594818592,0.13523861939338966
1772364941905703700,0.32970361328125,-0.23572248054146766,-0.1673497860610485,0.17376453020786867
1772364941915774700,0.339774658203125,-0.2043231336712837,-0.022317045748233795,0.1856756798138842
1772364941925845000,0.349844970703125,0.005106383228302001,0.019711831685900686,0.1486179875215981
1772364941935914800,0.359914794921875,0.1763900016069412,0.025794950991868973,0.14370576602537183
1772364941945984800,0.36998486328125,0.2279308037519455,0.009427169036865234,0.2043008487742394
1772364941956055800,0.380055908203125,0.16204992608726024,-0.017672434812784195,0.21678789857206865
1772364941966126000,0.3901259765625,0.06340016676485538,0.03766366796195507,0.18942710476927457
1772364941976195800,0.40019580078125,-0.11177227574586868,0.01925239748060703,0.12357206479874439
1772364941986265900,0.410265869140625,-0.24603578476309776,-0.036626141607761384,0.06961776263806968
1772364941996337000,0.4203369140625,-0.22735621873438358,0.00005143792629241943,0.10229472822863608
1772364942006407000,0.430406982421875,-0.10988134743273258,0.1021112979531288,0.17156206999383866
1772364942016477000,0.440476806640625,0.037060441371798515,0.20264906297922133,0.2099445902822539
1772364942026547000,0.450546875,0.09764905784726143,0.2521908002614975,0.22089991873446851
1772364942036617700,0.46061767578125,0.02875613888502121,0.16570903311669827,0.15527431273879483
1772364942046687700,0.470687744140625,-0.08706921164393425,0.03312017931342125,0.08650868255118839
1772364942056758000,0.480758056640625,-0.09642506901025771,-0.08929390195608139,0.1077932982454542
1772364942066827800,0.490827880859375,0.017637363499402998,-0.13733926320075987,0.17672573636732994
1772364942076898800,0.50089892578125,0.16330606362819672,-0.10029811105132103,0.21175332020465285
1772364942086968800,0.51096875,0.24097382519841193,-0.03041559652984142,0.2059041192524135
1772364942097038800,0.521038818359375,0.22497779916524885,0.050636546781659124,0.20605267914393915
1772364942107108900,0.53110888671875,0.14495207629203796,0.050851650837063785,0.14734625968588516
1772364942117180000,0.541179931640625,0.03988075948953628,0.01642740318775177,0.10084690404050052
1772364942127250000,0.55125,0.017111293798685073,-0.01572539239823818,0.09538598088664002
1772364942137319700,0.561319580078125,-0.026238018584251403,-0.1293126086115837,0.11751112079196609
1772364942147390000,0.571389892578125,-0.03936988735795021,-0.16881927409172057,0.16080043748281894
1772364942157461000,0.5814609375,-0.025881460231542586,-0.13155308101475238,0.18451982430964708
1772364942167530800,0.59153076171875,-0.00039221418797969816,-0.061868134891986844,0.21191839283956213
1772364942177600800,0.601600830078125,0.027743162450194356,0.02594458859562874,0.18099884710926561
1772364942187671000,0.611671142578125,0.021719664376974104,0.12366378906965254,0.14861846244563348
1772364942197741800,0.621741943359375,0.014240706798434257,0.16563070718348025,0.12574627616582437
1772364942207811800,0.631811767578125,-0.021888591203093527,0.16079729567766188,0.11965873641306533
1772364942217881900,0.6418818359375,-0.045541853991150856,0.12726210582256317,0.14495949241351336
1772364942227951900,0.651951904296875,-0.047291328006982804,0.03665887483358383,0.1639056004239246
1772364942238023000,0.66202294921875,-0.04520107772946357,-0.07835457479059696,0.16793536739666015
1772364942248093000,0.672093017578125,0.016679916644096373,-0.1037286700218916,0.19544947033133356
1772364942258162700,0.68216259765625,0.11949030277729034,-0.0494961445748806,0.20866686196401715
1772364942268232700,0.692232666015625,0.11680734730362892,-0.013754384586215019,0.20835706536248325
1772364942278303700,0.7023037109375,0.09374971232116222,0.04539864612817764,0.18745951275704428
1772364942288374000,0.7123740234375,0.0566284806728363,0.09883563728332519,0.1840811771640554
1772364942298443800,0.72244384765625,-0.005195230555534363,0.08732114057838916,0.1630817898856476
1772364942308513300,0.73251318359375,-0.019669746109843254,0.08004208948612213,0.15201312811891549
1772364942318584300,0.742584228515625,0.01811959405839443,0.06479483599364758,0.13732593792830594
1772364942328654300,0.752654296875,0.08541852182745933,0.044160044243931766,0.13731321544405073
1772364942338724000,0.76272412109375,-0.0067740241795778275,-0.010204583150148392,0.14889623820739797
1772364942348794000,0.772794189453125,-0.08308569496572017,-0.020894319468736648,0.14068345906212926
1772364942358865200,0.782865234375,-0.08365268119871616,-0.008171616017818451,0.15105940759065561
1772364942368935200,0.79293505859375,-0.0035796120524406432,0.04519698607623577,0.17215784392990172
1772364942379005200,0.803005126953125,0.0767407098531723,0.10619301430881023,0.16963917563986033
1772364942389076200,0.813076171875,0.13344517837166786,0.11339023233652114,0.13060056606288997
1772364942399146200,0.823146240234375,0.0808580820441246,0.08248305289745331,0.12046759597738273
1772364942409216300,0.83321630859375,0.03983049060702323,0.010559387937188148,0.1275038238902576
1772364942419286300,0.843286376953125,0.038439328509569166,-0.07723813798129558,0.14326431500134057
1772364942429357300,0.853357421875,0.0799865599066019,-0.14075287103652953,0.16749317658711224
1772364942439427000,0.863427001953125,0.18059154495000837,-0.13910978000462054,0.18556483985055236
1772364942449497300,0.873497314453125,0.2499672789931297,-0.0685796152293682,0.17728998265396803
1772364942459567400,0.8835673828125,0.19029227023124692,0.028761399582028387,0.15180559544861316
1772364942469638100,0.89363818359375,0.09773965874016284,0.0795639505803585,0.12499954031859524
1772364942479708200,0.903708251953125,0.036411037552356716,0.13276596393585205,0.08648198634050785
1772364942489778200,0.913778076171875,-0.08473696930408477,0.1365846454411745,0.05267734102741815
1772364942499848200,0.92384814453125,-0.2613397368788719,0.07911854490041732,0.050337490769848225
1772364942509919200,0.933919189453125,-0.24739538267850875,0.12007833179831504,0.10979985229489393
1772364942519989200,0.9439892578125,0.0386602777838707,0.12678045978546143,0.13625091084162705
1772364942530059300,0.954059326171875,0.26949907793700695,0.047670098191499706,0.11606986334193498
1772364942540130000,0.964130126953125,0.3658352996200323,0.04268763360381126,0.12470530661237425
1772364942550200300,0.974200439453125,0.3687941494256258,0.09843290170133114,0.12281532814730889
1772364942560270300,0.984270263671875,0.22672025891840455,0.10870762747824192,0.09082249976284801
1772364942570340000,0.994340087890625,-0.05843523783385753,-0.020862170764803886,0.07441791119510308
1772364942580411100,1.0044111328125,-0.3507201480746269,-0.1717331157118082,0.04191100494181737
1772364942590481400,1.0144814453125,-0.22729484393596647,-0.1154571017384529,0.11912912304839118
1772364942600551200,1.02455126953125,0.08183131099045277,-0.11010872644782066,0.15307366088936106
1772364942610622200,1.034622314453125,0.25560557714104654,-0.05510872375965118,0.18556445625806225
1772364942620692200,1.044692138671875,0.33831893166303634,0.023505963271856306,0.15976543187927453
1772364942630762200,1.05476220703125,0.23321195902526376,0.010056699112057685,0.0713238359035924
1772364942640832300,1.064832275390625,0.10652151561081409,-0.04917582657933235,0.037099293811153615
1772364942650903300,1.0749033203125,0.01047170965373516,-0.13406477157473565,0.004169056712416932
1772364942660973300,1.084973388671875,-0.006170213067531585,-0.17765782958567142,0.05201162539399229
1772364942671043000,1.09504296875,0.02613397368788719,-0.14174071303009986,0.1089058625972364
1772364942681113300,1.10511328125,0.0647895752966404,-0.040703181788325306,0.13441567650479264
1772364942691184400,1.115184326171875,0.10921031630337237,0.08535130181014537,0.14821756262769922
1772364942701254100,1.125254150390625,0.1347644442766905,0.17218261304497717,0.14675862339050508
1772364942711324200,1.13532421875,0.07708382420241833,0.21671032155752182,0.11020403091530315
1772364942721395200,1.145395263671875,-0.04457213217616081,0.23828151737451553,0.09022569378032348
1772364942731465200,1.15546533203125,-0.1421791044473648,0.19511866747438905,0.11965884601091965
1772364942741535200,1.16553515625,-0.17686697146892547,0.09441548275351523,0.15370653369911014
1772364942751605200,1.175605224609375,-0.20685294440984725,0.025705519142746925,0.20692292263982817
1772364942761676300,1.18567626953125,-0.26954993134140964,0.01775192978978157,0.2415080599392764
1772364942771746000,1.19574609375,-0.24782149913609025,0.09045476242899894,0.23631047302987426
1772364942781816300,1.20581640625,-0.19884499452114104,0.1313210258245468,0.23245454652039332
1772364942791887400,1.215887451171875,-0.0702618692278862,0.17912965570390224,0.23814567083409055
1772364942801957000,1.22595703125,0.07007949839830398,0.20377309857308865,0.229866575853806
1772364942812027100,1.236027099609375,0.1021685810983181,0.26946751375496386,0.19227283132290465
1772364942822097400,1.246097412109375,-0.00708323625922203,0.21624562665522098,0.1210775171698071
1772364942832168400,1.25616845703125,-0.2163707143396139,0.056086628881096834,0.040197479022201145
1772364942842238200,1.26623828125,-0.22761165480017662,-0.0022539164066314697,0.08933984172334894
1772364942852308200,1.27630810546875,-0.22891046243906019,0.010771569383144377,0.1498742985924706
1772364942862378200,1.286378173828125,-0.18350655561387538,0.034005145454406735,0.15612113882647827
1772364942872449300,1.29644921875,-0.04582183997631073,0.11711948199272156,0.15206430118372663
1772364942882519300,1.306519287109375,0.05906009173393249,0.2022398976564407,0.10239968644045293
1772364942892589300,1.31658935546875,0.056060909917950624,0.15011165101230142,0.07549449091805145
1772364942902660000,1.32666015625,0.022989830443263054,0.04921908119916916,0.052699580258689815
1772364942912730000,1.336730224609375,-0.12916414005160332,-0.0786269619911909,0.05837819215068593
1772364942922800400,1.34680029296875,-0.13405074304938316,-0.18499825547635554,0.08971669394541532
1772364942932870100,1.3568701171875,-0.08563713301420212,-0.15860533859133719,0.15354401834746823
1772364942942941200,1.366941162109375,0.06379179643094539,-0.06492752246260643,0.18771494882283732
1772364942953011200,1.37701123046875,0.14598083481788635,-0.03391396003961563,0.13901534318681805
1772364942963081200,1.387081298828125,0.0848971283018589,-0.015702011522650716,0.1453161238314584
1772364942973152300,1.39715234375,-0.022617489999532697,-0.07566986575126647,0.15462806899081916
1772364942983222300,1.40722216796875,-0.06294657777845859,-0.11917524547874926,0.1635035041627474
1772364942993292300,1.417292236328125,-0.06176584356129169,-0.12726678199768066,0.12598501682514324
1772364943003363000,1.427363037109375,-0.13424363527297972,-0.08541150756478309,0.14022523043323307
1772364943013433300,1.437433349609375,-0.14241525129079818,-0.027649054425954816,0.16496265346249564
1772364943023503400,1.44750341796875,-0.16319617351293564,0.0736690473228693,0.19544388084076345
1772364943033573000,1.457572998046875,-0.1686141069084406,0.13115443708598612,0.1905740280483849
1772364943043644200,1.46764404296875,-0.10777122341096401,0.11347323444485664,0.20253380256909875
1772364943053714200,1.477714111328125,-0.048424131429195404,0.14478957920670507,0.2658929432038218
1772364943063784200,1.4877841796875,0.014449965634942054,0.14471651397049426,0.27450229305177926
1772364943073855200,1.497855224609375,0.024199206233024597,0.14761106636822222,0.2772953213037923
1772364943083925200,1.50792529296875,-0.02253331884741783,0.14260463638305662,0.2446373892072588
1772364943093995300,1.517995361328125,-0.15840952375829218,0.05983809036910533,0.18572452392429112
1772364943104065300,1.528065185546875,-0.18999182597994804,0.04251753773391247,0.17259484710767864
1772364943114136300,1.53813623046875,-0.1343839205265045,0.04682429501712322,0.17283373389746992
1772364943124206300,1.548206298828125,-0.05735328781604766,0.11590016933083533,0.21394944200944155
1772364943134276000,1.558276123046875,0.07783844196200371,0.18020868311226368,0.24407409276869146
1772364943144347100,1.56834716796875,0.15544365969002247,0.16344693340361116,0.2321731905620545
1772364943154417200,1.578417236328125,0.17186638670265675,0.07811842794716357,0.21969927424043414
1772364943164487200,1.588487060546875,0.16658990760445594,-0.05357084666788578,0.17605357272680847
1772364943174558200,1.59855810546875,0.1505664090424776,-0.169985979783535,0.13931661855517885
1772364943184628200,1.608628173828125,0.13673954374194144,-0.17571838595569134,0.1530095644108951
1772364943194698200,1.6186982421875,0.13738251782059668,-0.09246844033896923,0.16835688074436037
1772364943204768300,1.628768310546875,0.10729542259275912,0.039919922456145285,0.19187694560680538
1772364943214839300,1.63883935546875,0.021148001968860623,0.150862177118659,0.1850617309003137
1772364943224909300,1.648909423828125,-0.09712532623410225,0.22159750907719133,0.1285343451149296
1772364943234979000,1.65897900390625,-0.18103227445483205,0.21271219183206558,0.09544773927754722
1772364943245050000,1.669050048828125,-0.21709026078581808,0.17253098809123038,0.12001450018133036
1772364943255120400,1.679120361328125,-0.133400170186162,0.12759879043102262,0.15271011567343956
1772364943265190100,1.689190185546875,0.0011363105535507202,0.11108780061304568,0.17485639883149415
1772364943275261200,1.69926123046875,0.14203180493116377,0.10162263765335082,0.15015778257581405
1772364943285331200,1.709331298828125,0.1605126335173845,0.14275544303059576,0.14810924341501666
1772364943295401200,1.719401123046875,0.029770868885517117,0.17626199131309986,0.1476362464752514
1772364943305472300,1.72947216796875,-0.13741934269964695,0.12001812604367733,0.14459201994114554
1772364943315543300,1.739543212890625,-0.20893208877146244,-0.001034019222855568,0.13792166619859636
1772364943325613300,1.74961328125,-0.0960556511759758,-0.06698211690485477,0.17431529595842585
1772364943335683000,1.75968310546875,0.13215864569246769,-0.10185293927788734,0.19517193203158675
1772364943345754000,1.769754150390625,0.260599147644639,-0.10774725801348685,0.20125147114098071
1772364943355824000,1.77982421875,0.2490180154442787,-0.05811024366319179,0.2035035243840888
1772364943365894100,1.78989404296875,0.10407470698058605,-0.037571898025274275,0.20006264494890347
1772364943375965200,1.799965087890625,-0.09597498715519905,-0.06091302612423896,0.205414929229673
1772364943386035200,1.81003515625,-0.18915479063391685,-0.045644145321846005,0.14405941090178676
1772364943396105000,1.82010498046875,-0.17444062110483646,0.003305471286177635,0.15544486526641993
1772364943406175200,1.83017529296875,-0.12223638661503791,0.0615910715162754,0.1486263808906078
1772364943416246300,1.840246337890625,-0.07483283040523529,0.11730769804120063,0.12449216618519275
1772364943426316000,1.85031591796875,-0.04209375936388969,0.1597375574916601,0.13176153613366187
1772364943436386000,1.860385986328125,-0.03519932367503643,0.2256242803752422,0.1569838018041104
1772364943446457000,1.87045703125,-0.07865794165134429,0.2452981181383133,0.15180104713765905
1772364943456527400,1.88052734375,-0.11576923642754554,0.18233225113749504,0.13316118293167092
1772364943466597000,1.89059716796875,-0.032495325413346286,0.1435562380194664,0.13032454386679454
1772364943476668200,1.900668212890625,0.1197667816311121,0.07656476876437664,0.0984790880637709
1772364943486738200,1.91073828125,0.2582452779948711,-0.004309679892659187,0.056188883679173886
1772364943496808000,1.920807861328125,0.3261842572331428,-0.09523089078962803,0.05181016627144999
1772364943506878200,1.930878173828125,0.2100140387892723,-0.18975977078974246,0.060114751886017614
1772364943516949200,1.94094921875,0.022103110736608506,-0.20830080513060092,0.07655331578860058
1772364943527019000,1.95101904296875,-0.09892506913244724,-0.2010463039577007,0.06958446315666661
1772364943537089000,1.961089111328125,-0.061762920951843256,-0.15463058974146843,0.03298991313041188
1772364943547160000,1.97116015625,-0.0041547815918922424,-0.09178805685937404,0.02572428777529858
1772364943557230300,1.981230224609375,0.04792962591052055,-0.06816518920958042,0.0482899379897397
1772364943567300000,1.991300048828125,0.030386370435357093,-0.05805120695233345,0.07589716256796382
1772364943577371100,2.00137109375,-0.08664952492713927,-0.11904898875057697,0.05494299353761598
1772364943587441200,2.011441162109375,-0.16055647265911102,-0.08866028022766113,0.0671726710408926
1772364943597511200,2.02151123046875,-0.11875497424006462,0.010538929671049118,0.10653168081180192
1772364943607582200,2.031582275390625,-0.08975976590216159,0.07844926733672618,0.12105972578478977
1772364943617652200,2.04165234375,-0.06805471457242965,0.153982354965806,0.1548168330285698
1772364943627722000,2.051721923828125,-0.07457680981755256,0.17922610181570053,0.1875642883057706
1772364943637792000,2.0617919921875,-0.09301789091527461,0.1610369496524334,0.17909381720554082
1772364943647863000,2.071863037109375,-0.06466857926547527,0.14602818109095095,0.17239062977246938
1772364943657933300,2.081933349609375,-0.023465046739578246,-0.0028472061246633527,0.1373648816992063
1772364943668003000,2.092003173828125,0.006822539496421813,-0.13529635919630525,0.14786042888625525
1772364943678074000,2.10207421875,0.07197334932088852,-0.10007891534268855,0.20498894063625483
1772364943688144100,2.11214404296875,0.10749883621037006,-0.018527590337395667,0.2236593187115155
1772364943698214100,2.122214111328125,0.09361702585220337,0.04405599934756756,0.17795451097730547
1772364943708285200,2.13228515625,0.04788870937824249,0.11479250034987926,0.19048666029218583
1772364943718355200,2.142355224609375,0.011688099706172942,0.08465630528330803,0.19602263057678937
1772364943728425000,2.152425048828125,-0.028641572594642638,-0.003175707426667213,0.17904687279127537
1772364943738496000,2.16249609375,-0.01057633907198906,-0.06499766508936881,0.2151278746716678
1772364943748566300,2.172566162109375,0.021739538121223447,-0.060444239568710326,0.2374719545572996
1772364943758636300,2.18263623046875,0.040617841592431064,-0.008363923719525337,0.23366876288205385
1772364943768707000,2.19270703125,0.04525719183087348,0.07208908465504646,0.20992000383026896
1772364943778777000,2.202777099609375,0.04808510873317718,0.12696575322449208,0.15983488038629293
1772364943788847000,2.21284716796875,0.03860416368246078,0.11266834780275821,0.11644230425036511
1772364943798917000,2.222917236328125,0.029201544564962385,0.11639525937139987,0.11545222463393583
1772364943808988200,2.23298828125,0.049335401055216783,0.092892218708992,0.11486377548780291
1772364943819058200,2.24305810546875,0.06875321823060512,0.05927402674555778,0.09259868825566954
1772364943829128000,2.2531279296875,0.07664134113192558,0.028517069432139396,0.10415358090307562
1772364943839199000,2.263198974609375,0.035492169141769406,0.0064963762819767,0.10442847972116433
1772364943849269200,2.273269287109375,-0.02835164973735809,-0.007645546317100524,0.11355967975244857
1772364943859339300,2.28333935546875,-0.020415011519193647,0.008716974940896034,0.13193976964424364
1772364943869410000,2.29341015625,0.004104512709379196,0.004603694403171539,0.11912599950954317
1772364943879480000,2.30347998046875,0.027154548907279967,-0.04898877957463264,0.09825331648387946
1772364943889550300,2.31355029296875,0.0032826749324798583,-0.07214636780023574,0.13889315071240999
1772364943899621400,2.323621337890625,-0.008992284750938415,0.002727379137277603,0.19004951098393646
1772364943909691100,2.333691162109375,-0.028100889846682547,0.09877250891923904,0.2063544568357989
1772364943919761200,2.34376123046875,-0.03869885622859001,0.14129180021882057,0.19661825838238
1772364943929831000,2.353830810546875,-0.03796118960380554,0.1141021799981594,0.1985422852475196
1772364943939902000,2.36390185546875,-0.01780161415040493,0.06669102500379086,0.20656311288410797
1772364943949972200,2.37397216796875,0.02767711147665977,0.014677344650030136,0.19317314116349443
1772364943960042200,2.384042236328125,0.032009003201127054,0.0031160861939191816,0.17770099287396296
1772364943970113000,2.394113037109375,-0.03756137663125991,0.020589783564209936,0.19793620911315082
1772364943980183000,2.40418310546875,-0.1450683961480856,0.04646306048929691,0.22576759783606976
1772364943990253300,2.41425341796875,-0.2438800680339336,0.07480477335453033,0.20638463277835398
1772364944000324400,2.424324462890625,-0.2768441800028086,0.08344809853732585,0.18830675896983592
1772364944010394000,2.43439404296875,-0.2653402046918869,0.0849538269251585,0.195168899824284
1772364944020464000,2.444464111328125,-0.09857260243296623,0.025507950744032858,0.18544030015543103
1772364944030535200,2.45453515625,0.2163748059928417,0.0068313073247671125,0.18161423906125126
1772364944040605200,2.464605224609375,0.4524737186312675,0.008338789278268813,0.17369268881436437
1772364944050675200,2.47467529296875,0.43233401692211626,-0.020161913540959357,0.1493367393833585
1772364944060746200,2.484746337890625,0.2475193013191223,-0.02596621590554714,0.14942955963280982
1772364944070816000,2.49481591796875,0.028130115941166878,-0.03460778752267361,0.1601965898381546
1772364944080886000,2.504885986328125,-0.1626391241520643,-0.0935977366298437,0.16184388212114573
1772364944090956300,2.514956298828125,-0.12506547256112097,-0.10312602795362472,0.17197213036576284
1772364944101027300,2.52502734375,0.1291822602301836,-0.06382569870054722,0.18782946031428874
1772364944111097000,2.53509716796875,0.3692717038094997,0.03795592890679836,0.24022782913669943
1772364944121167000,2.5451669921875,0.42702012842297554,0.06887070713043213,0.2248673610607162
1772364944131238100,2.555238037109375,0.15992811162769793,-0.050181204229593275,0.1533522221024148
1772364944141308200,2.56530810546875,-0.0681359631150961,-0.047917350950837136,0.13633360242270864
1772364944151378200,2.575378173828125,-0.2265536701798439,-0.0736123486995697,0.08858562582256271
1772364944161449200,2.58544921875,-0.3098375180661678,0.0035199908196926113,0.07264646280948073
1772364944171519000,2.59551904296875,-0.23787819727063178,0.1732616404533386,0.10963280689860694
1772364944181589200,2.60558935546875,-0.13292670745551585,0.23111761709451675,0.1392023719252087
1772364944191660300,2.615660400390625,-0.07433774036467075,0.17983575814664363,0.13451394011434167
1772364944201730300,2.625730224609375,-0.07366378662586212,0.10259411303400992,0.16153567468849941
1772364944211800000,2.635800048828125,-0.0646451983898878,0.004427168792486191,0.16511570686604826
1772364944221871000,2.64587109375,-0.045801966232061384,-0.03628419630229473,0.1581584350740537
1772364944231941000,2.655941162109375,-0.06635843204855918,-0.02538110949397087,0.14825184848979114
1772364944242011100,2.66601123046875,-0.11137246277332305,-0.06781038442254066,0.18270917642479761
1772364944252082200,2.676082275390625,0.020548867031931876,-0.055635377982258795,0.07640705745201558
1772364944262152200,2.686152099609375,0.09818915607333183,-0.01628302628099918,0.12584748065113088
1772364944272222000,2.696221923828125,0.045614919227361675,-0.05055003754198551,0.17972272622622548
1772364944282293000,2.70629296875,-0.06728782185316086,-0.01551847164928913,0.17290336506757883
1772364944292363300,2.71636328125,-0.1098889462172985,0.0045353053420782085,0.12308342276527545
1772364944302433300,2.726433349609375,-0.10189151772260666,0.009196282890439033,0.12038656663042492
1772364944312502800,2.736502685546875,-0.09668927290439605,-0.007319967624545097,0.15156226994572206
1772364944322573800,2.74657373046875,-0.08712707931101321,-0.0023848493099212645,0.17345550079131497
1772364944332644000,2.75664404296875,-0.09264555047154426,-0.015097031366825104,0.17910123332701622
1772364944342714000,2.766714111328125,-0.09694237088263034,-0.0009311433702707291,0.1670504925872199
1772364944352785000,2.776784912109375,-0.08290624674558639,0.023874796584248542,0.14813748312881214
1772364944362855000,2.78685498046875,-0.033138884013891215,0.0864478648751974,0.15097157404357567
1772364944372925000,2.796925048828125,0.021696868023276326,0.11637363206148146,0.13277009212169796
1772364944382996000,2.806995849609375,0.03129179484248161,0.10878419984579085,0.10934724055603146
1772364944393066000,2.81706591796875,0.022944822257757187,0.07006605439484119,0.10328916435977444
1772364944403136000,2.827135986328125,0.03898527195453644,0.04157353488206863,0.13156880830684675
1772364944413207000,2.83720703125,0.08751929349899291,0.025900749453902243,0.14810316986725663
1772364944423276800,2.84727685546875,0.1419341897755861,0.03544833000004291,0.14435652155168355
1772364944433347000,2.85734716796875,0.18284604587852954,0.059765025132894514,0.15926394863054155
1772364944443418000,2.867418212890625,0.17669453751146794,0.07392740599811076,0.1402484651783481
1772364944453487900,2.87748779296875,0.12657821521162985,0.07718553101122379,0.13884108259845523
1772364944463558000,2.887557861328125,0.07466974879801273,0.04771452185511589,0.12173778944313525
1772364944473629000,2.89762890625,0.06555705253779888,-0.00019055413603782652,0.11961797514441422
1772364944483699200,2.90769921875,0.04821604163646698,0.011804419562220572,0.12523958701901136
1772364944493769000,2.91776904296875,0.0685100571244955,0.11682137582898139,0.15673941685529424
1772364944503839000,2.9278388671875,0.024601357293128966,0.05637888982594013,0.11506212020465172
1772364944513910000,2.937909912109375,-0.03387888872623444,-0.00005669862329959869,0.13717488468559458
1772364944523979800,2.947979736328125,-0.07783610387444495,0.0015694412738084791,0.1565203672771342
1772364944534050000,2.958050048828125,-0.08532733641266822,0.006418050348758697,0.1672458507625386
1772364944544121000,2.96812109375,-0.11704290962517261,-0.01751052224934101,0.19279037065729498
1772364944554190800,2.97819091796875,-0.12686989163458345,-0.004091068705916404,0.20157091235369443
1772364944564260900,2.9882607421875,-0.15058511374294756,0.06235445710420608,0.19458298969510943
1772364944574332000,2.998331787109375,-0.18742460584044454,0.06864274359345436,0.18302421545702963
1772364944584402200,3.008402099609375,-0.2668511937767267,0.09534896421134471,0.20697132835881785
1772364944594472000,3.018471923828125,-0.31907237940132616,0.13594985466897486,0.3028091537993401
1772364944604543000,3.02854296875,-0.15561784721314906,0.0933107363820076,0.26663577919406817
1772364944614613000,3.038613037109375,-0.041189504000544545,0.112006669023633,0.21989103395286946
1772364944624683000,3.04868310546875,0.06905541604757308,0.09450316103696822,0.23115086177699268
1772364944634753000,3.0587529296875,0.057606970316171645,-0.017437457013130188,0.19607644312325864
1772364944644824000,3.068823974609375,-0.010762217032909393,-0.07079027701616286,0.1950743534086272
1772364944654893800,3.078893798828125,-0.04184884469211101,-0.10200900662243366,0.19451385171534494
1772364944664963800,3.0889638671875,-0.023684826970100402,-0.10709083993136882,0.21311092709237708
1772364944675035000,3.099034912109375,0.02117781258523464,-0.12494564557373523,0.21520532382205126
1772364944685105200,3.109105224609375,0.09368599943518638,-0.0668500149577856,0.2487372988067567
1772364944695175000,3.1191748046875,0.17946809387803075,0.0022474866658449173,0.23684538362417368
1772364944705246000,3.129245849609375,0.2006365541130304,0.06018704993724823,0.18064718412738293
1772364944715316000,3.13931591796875,0.09266016351878642,0.11052490603327751,0.15836115457192063
1772364944725386000,3.149385986328125,-0.08263736667633056,0.17922902442514896,0.14297151520038023
1772364944735457000,3.15945703125,-0.2009638863712549,0.23295535391569136,0.1386166261928156
1772364944745527000,3.169527099609375,-0.24245558818876742,0.21602993807792661,0.15793942202851174
1772364944755596800,3.1795966796875,-0.07971417270600795,0.09708207161426544,0.12364416192057542
1772364944765667800,3.189667724609375,0.15468085862398145,-0.07524258024990559,0.07941644100160337
1772364944775738000,3.199738037109375,0.3372738065242767,-0.120899000531435,0.1146639329336118
1772364944785808100,3.20980810546875,0.42546997637152667,-0.07235504211485386,0.1677872641628608
1772364944795878000,3.2198779296875,0.21649054132699966,0.01303892979323864,0.16331300482563674
1772364944805949000,3.229948974609375,-0.09035773179531097,0.11697568960785865,0.17322477904167025
1772364944816019000,3.24001904296875,-0.2221311775624752,0.14448270521461962,0.1893805987464264
1772364944826089000,3.2500888671875,-0.14422610010504722,0.13449381064176558,0.18520029912078753
1772364944836160000,3.260159912109375,0.004282207363843917,0.0699392131447792,0.16401501561515033
1772364944846230000,3.27022998046875,0.12778116126060485,0.02454056701660156,0.20209374891771004
1772364944856299800,3.2802998046875,0.18105214819908141,0.014964344897866248,0.26157188340062276
1772364944866370800,3.290370849609375,0.09953472546339034,0.06532265926003455,0.3021449177369475
1772364944876441000,3.300441162109375,-0.06669803926646709,0.12370762821137904,0.2667276404622942
1772364944886511000,3.310510986328125,-0.1926426327496767,0.17185820339620111,0.20070958281662313
1772364944896582000,3.320581787109375,-0.18673136287927627,0.16518997767865656,0.12602512963982299
1772364944906652000,3.33065185546875,-0.17916706510484218,0.10318974083960056,0.08428694224795326
1772364944916722200,3.34072216796875,-0.14312602990865705,0.013551555490493774,0.0889435906810686
1772364944926792000,3.3507919921875,-0.09280804755687713,-0.05158697937428951,0.13890119702154768
1772364944936863000,3.360863037109375,-0.023837971705198288,-0.05271627566516399,0.20303314865967256
1772364944946933000,3.37093310546875,0.053283261898159975,0.02574409758746624,0.2479263477500528
1772364944957002800,3.381002685546875,0.08103811478614807,0.05715864202678203,0.18732043307991697
1772364944967073800,3.39107373046875,0.07901683809161186,0.08224047631323338,0.11341551290825008
1772364944977144000,3.40114404296875,0.0476747743666172,0.05800269163548946,0.05895902881252113
1772364944987214000,3.411214111328125,0.031651860326528544,-0.021869886502623555,0.032511381499003615
1772364944997284900,3.421284912109375,0.03649988487958908,-0.08305237721800804,0.07136843309714458
1772364945007355000,3.43135498046875,-0.005059621477127075,-0.08843816190958023,0.13888800874641163
1772364945017425200,3.441425048828125,-0.018827450066804884,0.0008586626559495925,0.17266049622241406
1772364945027495000,3.451494873046875,-0.009878419935703276,0.11609949129521846,0.143591802523192
1772364945037566000,3.46156591796875,-0.051366614621877665,0.16187164691090583,0.10200180969666689
1772364945047636000,3.471635986328125,-0.09000526509582996,0.09473346266150474,0.08627004235656932
1772364945057706000,3.4817060546875,-0.18831191006898879,-0.005608487531542777,0.09465834246552549
1772364945067777000,3.491777099609375,-0.20976269437670705,-0.053332946258783334,0.08906128051029517
1772364945077847000,3.501846923828125,-0.14415361939072607,-0.13050386422276497,0.10470551569741218
1772364945087917000,3.5119169921875,-0.043111411973834037,-0.11054010360240936,0.1524194895632565
1772364945097987800,3.52198779296875,0.020069559082388878,0.016261983492970467,0.17449350206954403
1772364945108057900,3.532057861328125,0.051774610900878905,0.09147007695138454,0.165399802770745
1772364945118128000,3.542128173828125,0.020372925943136215,0.1240712008267641,0.1674476204123348
1772364945128199000,3.552198974609375,-0.030281741017103195,0.11469605423808098,0.16871137500414624
1772364945138269000,3.56226904296875,-0.05627718301713466,0.06628712037801743,0.17621480943681672
1772364945148339000,3.5723388671875,-0.03723579793870449,-0.008449263915419577,0.1760182274187915
1772364945158409000,3.582408935546875,0.014139584511518477,-0.06647299833893776,0.189865313523449
1772364945168480000,3.59247998046875,0.10286883832216262,-0.030079496443271635,0.18311717270379885
1772364945178550000,3.602550048828125,0.12877777108252048,0.014586743757128715,0.17782770625986158
1772364945188620000,3.6126201171875,0.11142565426528453,0.05270809235870838,0.17088095586188137
1772364945198690800,3.62269091796875,0.0716471861064434,0.10823474926948547,0.182169699253235
1772364945208761000,3.632760986328125,0.009256488645076751,0.10765665712058543,0.16626427411297334
1772364945218831000,3.6428310546875,-0.04201192629933357,0.07285656189620494,0.14159911260232327
1772364945228902000,3.65290185546875,-0.015368834045529365,0.06174538529515266,0.15397481098016724
1772364945238972000,3.662971923828125,0.020971476358175277,-0.009185761496424675,0.1595916462149471
1772364945249042000,3.6730419921875,-0.0036386487632989882,-0.05964578266739845,0.17821104302164167
1772364945259112000,3.68311181640625,0.02096387757360935,-0.047129415443539616,0.1828852636440657
1772364945269183000,3.693182861328125,0.06504734944999217,0.006927168914675712,0.16657182395849376
1772364945279253000,3.7032529296875,0.06271802971959113,0.06021393794417381,0.15935849504619837
1772364945289323000,3.713322998046875,0.08202829486727714,0.1052010806620121,0.14587018665079957
1772364945299393800,3.723393798828125,0.049905309897661204,0.1015273605853319,0.1249051582997199
1772364945309464300,3.73346435546875,-0.0684276395380497,0.06999941889941692,0.10741797126019373
1772364945319534300,3.743534423828125,-0.10672434470653533,0.029224340918660163,0.13294108304074034
1772364945329604000,3.75360400390625,-0.09185410783290862,0.014133154770731925,0.14529260595855303
1772364945339675100,3.763675048828125,-0.02092471460700035,0.01285889705121517,0.1314545890763402
1772364945349745200,3.7737451171875,0.07447218039929866,0.051363692012429234,0.14629757261686027
1772364945359815400,3.7838154296875,0.09689677817523479,0.07582944022715091,0.1602738380591385
1772364945369886200,3.79388623046875,0.09317220469415187,0.11514204443991184,0.12482835760330781
1772364945379956200,3.803956298828125,0.036647768917679784,0.06546645164489746,0.09245488673765212
1772364945390026200,3.814026123046875,-0.05205225879848003,-0.036507483664155,0.09705151207922026
1772364945400097300,3.82409716796875,-0.06414309408664703,-0.14928279897272587,0.1216724417224992
1772364945410167300,3.834167236328125,-0.002305938854813576,-0.18765724555253982,0.160736688064225
1772364945420237300,3.8442373046875,0.10774433540403842,-0.10198679479062557,0.19048388381320983
1772364945430307000,3.85430712890625,0.09393968193531035,-0.004852116206288337,0.18058431149162352
1772364945440378000,3.864378173828125,-0.04897825818061828,0.06714870564341545,0.17211977694183586
1772364945450448400,3.874448486328125,-0.16753566402196884,0.15766776548027991,0.18261811887416987
1772364945460518400,3.884518310546875,-0.2714899594932794,0.2020224555134773,0.1521566921749152
1772364945470589200,3.894589111328125,-0.29775018990933894,0.21612112349271773,0.1319727494652383
1772364945480659200,3.9046591796875,-0.21235680252313613,0.169624160733819,0.15110402305051684
1772364945490729200,3.914729248046875,0.005890811604261398,0.059814124971628184,0.16895300174029543
1772364945500798200,3.924798095703125,0.006909048736095428,0.059066521474719046,0.17292791498694568
1772364945510868200,3.9348681640625,0.27036241676807404,-0.055125090372562406,0.17584429562399162
1772364945520938200,3.944938232421875,0.41219665330052374,-0.09246317964196205,0.18989231112822888
1772364945531009300,3.95500927734375,0.3585831365346908,-0.04678980822563171,0.20148966381102798
1772364945541079300,3.965079345703125,0.11541676972806453,0.015373510220646857,0.1665903459958732
1772364945551149300,3.9751494140625,-0.13185527883172035,0.05656359874308109,0.1746414409065619
1772364945561220000,3.98522021484375,-0.2620306417524814,0.03614741818010807,0.20505670864284037
1772364945571290400,3.995290283203125,-0.1892658497929573,-0.02571311792731285,0.1831642815148458
1772364945581360400,4.0053603515625,0.047204818767309184,-0.046042789250612254,0.19352878620075062
1772364945591431400,4.015431396484375,0.15277648630738258,-0.035787937217950816,0.2705877499565482
1772364945601501200,4.025501220703125,0.16030571276843547,0.028047113832831382,0.30441861655628305
1772364945611571200,4.0355712890625,0.06960135949254036,0.08924714020490646,0.28849567402563986
1772364945621641200,4.04564111328125,-0.1065992570221424,0.12597031244635581,0.24740265266951172
1772364945631712300,4.055712158203125,-0.23976444940865038,0.12917290787994862,0.1889971158541739
1772364945641782300,4.0657822265625,-0.21526655248999593,0.13883330115079878,0.1714740629168227
1772364945651852300,4.075852294921875,-0.1912818657904863,0.11294599570035933,0.17188154773917047
1772364945661923000,4.085923095703125,-0.1894090576559305,0.0965916577488184,0.17612647356623784
1772364945671993300,4.095993408203125,-0.11851765835285186,0.10580489177405833,0.20035545388301834
1772364945682063400,4.1060634765625,-0.06390636272132397,0.11420797846019268,0.21251405717777086
1772364945692133000,4.116133056640625,-0.030082419052720067,0.06101940910816192,0.19323844321835784
1772364945702204200,4.1262041015625,-0.016124036327004432,-0.0005500350981950759,0.1570597713834606
1772364945712274400,4.1362744140625,-0.008014964151382446,-0.0021188918501138685,0.14129963646540417
1772364945722344200,4.14634423828125,0.060354807719588274,-0.006180734461545944,0.11716931248381733
1772364945732415200,4.156415283203125,0.1401519825339317,-0.003416530445218086,0.12600123730758203
1772364945742485200,4.1664853515625,0.18396540529727934,0.004667991811037064,0.14102011627112515
1772364945752555300,4.17655517578125,0.13154431318640708,-0.0040308629512786865,0.11715087264482862
1772364945762625300,4.186625244140625,0.003497778987884521,-0.0001426233410835266,0.12398430799460038
1772364945772696300,4.1966962890625,-0.11678396642804145,-0.04426408914029598,0.1041908989724703
1772364945782766300,4.206766357421875,-0.14072715207338332,-0.0517354479342699,0.10350642383964731
1772364945792836000,4.216836181640625,-0.0386906729221344,-0.014792495462298392,0.1399692281118594
1772364945802907100,4.2269072265625,0.004805938977003097,-0.0009422492861747741,0.15994246894661338
1772364945812977400,4.236977294921875,-0.01416296538710594,0.032523382464051245,0.16680418967595323
1772364945823047200,4.247047119140625,-0.0663835664898157,0.05281272177696228,0.15235152062727136
1772364945833117200,4.2571171875,-0.10934709442555904,0.05632628285586833,0.1273928012638353
1772364945843188200,4.267188232421875,-0.09813070388436317,0.0790980866342783,0.12256200184021145
1772364945853258500,4.277258544921875,-0.05567454094886779,0.07850771952569484,0.13451702712057156
1772364945863328300,4.287328369140625,-0.01749824728965759,0.04972995333075523,0.13587697209585456
1772364945873399300,4.2973994140625,-0.009846855753660202,0.031796237233281135,0.15932837390257046
1772364945883469300,4.30746923828125,0.017915011397004126,0.03591887012124061,0.1950633022916503
1772364945893539000,4.3175390625,0.023388474372029303,0.015106383717060088,0.20090148865953086
1772364945903609300,4.327609375,0.03519055584669113,0.014680267259478567,0.21959727517068384
1772364945913680400,4.337680419921875,0.03310790435373783,0.01575812562406063,0.23126193920234217
1772364945923750100,4.347750244140625,0.039969022294878954,0.042671266990900035,0.21276934711309148
1772364945933820200,4.357820068359375,0.004990647894144058,0.047391281250119204,0.18701169592430814
1772364945943891200,4.36789111328125,-0.0056850598990917205,0.03702829266786575,0.16885878411820157
1772364945953961500,4.37796142578125,-0.008956044393777847,0.013518822264671325,0.1701039618737064
1772364945964031200,4.38803125,0.0019084639698266981,-0.004579729005694389,0.18424550088029354
1772364945974101200,4.398101318359375,-0.006091302612423896,-0.0005962123274803161,0.19251054906891657
1772364945984172300,4.40817236328125,-0.017449147450923918,-0.0038853170007467266,0.1877036785101518
1772364945994242300,4.4182421875,-0.011656535524129867,0.02261398286819458,0.1889684925478883
1772364946004312300,4.428312255859375,-0.004907645785808563,0.0785141492664814,0.1915228349395096
1772364946014383400,4.43838330078125,-0.0100385789334774,0.10510346550643443,0.16986355898026376
1772364946024453000,4.448453125,-0.03874327989220619,0.08511223235726356,0.14216913104262202
1772364946034523100,4.458523193359375,0.007441548177599906,0.06530161647200584,0.1415614840056747
1772364946044593400,4.468593505859375,-0.0224649297863245,0.023295535391569137,0.14485849799076095
1772364946054664400,4.47866455078125,-0.054494975775480264,0.03338847486078739,0.16553634343091397
1772364946064734200,4.488734130859375,0.02717792978286743,0.05729892728030681,0.16930921303313223
1772364946074804200,4.49880419921875,0.06294365516901015,0.044333062723279,0.14792687258543447
1772364946084875300,4.508875244140625,-0.05202946244478225,-0.030849311771988866,0.12329775050254538
1772364946094946300,4.5189462890625,-0.034137247401475904,-0.03806640354394913,0.14135342161240988
1772364946105016300,4.529016357421875,-0.019003391155600548,-0.0637830286026001,0.141840401411755
1772364946115086300,4.53908642578125,-0.012571896803379059,-0.03378536522388458,0.19061386686842888
1772364946125157400,4.549157470703125,0.0018155249893665312,0.004288052582740783,0.21568417511386795
1772364946135227100,4.55922705078125,0.004081131833791733,0.06557867984771729,0.18950838984455912
1772364946145297400,4.56929736328125,-0.012432196071743964,0.11712006651461124,0.1750742063006386
1772364946155367400,4.579367431640625,0.01922024877667427,0.11429916387498378,0.18479003781946374
1772364946165438200,4.589438232421875,0.04927928695380687,0.04157295036017895,0.20086301981266586
1772364946175508200,4.59950830078125,0.06817103442847729,-0.04427461053431034,0.19943178143315016
1772364946185578200,4.609578125,0.07294365565776824,-0.06291267550885676,0.17676486280132084
1772364946195649300,4.619649169921875,0.030042087042331692,0.042511107993125914,0.2020287573901005
1772364946205719300,4.62971923828125,-0.09689034843444824,0.04281973555088043,0.1420432487737853
1772364946215789300,4.639789306640625,-0.25700199993550776,0.07101239533424376,0.07604790528342127
1772364946225859000,4.649859130859375,-0.2708464008927345,0.21633973467946052,0.10676315148011781
1772364946235930000,4.65993017578125,-0.2041056915283203,0.21459552136063575,0.11357062127157114
1772364946246000400,4.67000048828125,0.018899346259236335,0.14291443298459053,0.14589600607864558
1772364946256070400,4.6800703125,0.25084172374010083,0.06361176368892192,0.16145875526107847
1772364946266140200,4.69014013671875,0.367988093739748,-0.03700608083605766,0.1479297677954193
1772364946276211200,4.700211181640625,0.2940688710480928,-0.09200842161178588,0.19086974132563916
1772364946286281500,4.710281494140625,0.08637246155142783,-0.04708966795504093,0.10507432161034085
1772364946296351200,4.720351318359375,-0.1973123781263828,-0.011922492983937263,0.032751199870556594
1772364946306422300,4.73042236328125,-0.20947686317265032,0.06635550943911075,0.13747270772154443
1772364946316492000,4.740491943359375,-0.1372808110117912,0.10173018968105316,0.18989274951964616
1772364946326562000,4.75056201171875,0.019873159727454185,0.08808861781954765,0.1829503830358386
1772364946336632000,4.760632080078125,0.17936930967867373,0.060063131296634674,0.21174774898039175
1772364946346703000,4.770703125,0.15482932718396186,0.03288870864510536,0.23725166287012397
1772364946356772900,4.78077294921875,0.008187982630729675,0.024292145213484762,0.24236798297055065
1772364946366843000,4.7908427734375,-0.10414777221679687,0.029663901379704472,0.2096191577201709
1772364946376914000,4.800913818359375,-0.19785539896190166,-0.00978548095524311,0.12890451186788268
1772364946386984000,4.81098388671875,-0.29785423480570317,-0.052990416431427,0.04810164887602441
1772364946397054000,4.821053955078125,-0.23247604596614838,0.000043839141726493834,0.08856560594784095
1772364946407124000,4.8311240234375,-0.11074585530757904,0.07475450447201729,0.17344686082713304
1772364946417195000,4.841195068359375,-0.08374562017917632,0.09553776478171348,0.2170603953705169
1772364946427265000,4.85126513671875,-0.08605331259965895,0.10632160912454128,0.23412717417404055
1772364946437335000,4.8613349609375,-0.04863455930948257,0.09950140771567821,0.2151893956005573
1772364946447406000,4.871406005859375,-0.08651274680495262,0.02443126142323017,0.14283619838291778
1772364946457475800,4.881475830078125,-0.11558803464174269,-0.0338935017734766,0.1335237600332126
1772364946467546000,4.891546142578125,0.013906944799423218,-0.020692659416794774,0.12152121494985185
1772364946477616000,4.9016162109375,0.16322423056364058,-0.02593231363594532,0.11789798295139334
1772364946487687000,4.91168701171875,0.2193207963168621,-0.02435410453379154,0.128215808084514
1772364946497757000,4.9217568359375,0.16053776795864105,-0.06666355247497559,0.1255570280708838
1772364946507827000,4.931826904296875,0.05017828162014484,-0.06849661312103271,0.1262053541780915
1772364946517897000,4.94189697265625,-0.03316109584569931,-0.04367722916305065,0.07523455220707692
1772364946527968000,4.951968017578125,-0.06489537375867366,0.018052374041080475,0.04752072544922121
1772364946538038000,4.9620380859375,-0.07000760220587253,0.05241115523874759,0.06677781737125478
1772364946548107800,4.972107666015625,-0.03593640577793121,0.07837854018807411,0.08295914597660303
1772364946558178800,4.9821787109375,0.027621581897139546,0.09189093271195888,0.10950813020616769
1772364946568249000,4.9922490234375,0.06553776331543922,0.07495908713340758,0.08739924731589853
1772364946578319000,5.002319091796875,-0.0007148702710866927,0.003468552893400192,0.05760228500789962
1772364946588388900,5.012388916015625,-0.055149055770039555,-0.03272679608166218,0.048103731235256415
1772364946598460000,5.0224599609375,-0.03331599414646625,-0.013173369827866554,0.05334118436416611
1772364946608530000,5.032530029296875,0.004957914668321609,0.03318155411183834,0.07654733357238583
1772364946618600000,5.042599853515625,0.025686814442276953,0.04690320547223091,0.09902323227729648
1772364946628671000,5.0526708984375,0.025301614516973495,0.030258944663405417,0.11431121963895857
1772364946638741000,5.062740966796875,0.030676877814531326,0.022676526710391044,0.13507900838488712
1772364946648810800,5.072810791015625,-0.0035632454395294185,0.026731939581036566,0.14388504071556962
1772364946658881000,5.082881103515625,-0.02755611544549465,-0.005111643925309181,0.1571796166371554
1772364946668952000,5.0929521484375,-0.002537409523129463,0.007568973949551582,0.1923726567018777
1772364946679022000,5.10302197265625,0.022219430592656134,0.030613749450445173,0.24985305976262315
1772364946689091800,5.113091796875,-0.011773439902067183,0.017802198672294614,0.2416456783116795
1772364946699162000,5.123162109375,-0.06306231311261654,0.01190086567401886,0.22986379937482995
1772364946709233200,5.133233154296875,-0.08560849144160747,0.038348727616667744,0.23550386935472487
1772364946719303000,5.143302978515625,-0.08631693197190761,0.08246025654375552,0.24682638715151695
1772364946729373000,5.153373046875,-0.08465396719574927,0.08465455171763897,0.2576762824678793
1772364946739444000,5.16344384765625,-0.06753799722194671,0.06571662701368332,0.2649793902891688
1772364946749514000,5.173513916015625,-0.024907646763324735,0.055025137129426,0.288137362107262
1772364946759584000,5.183583984375,-0.005675707548856735,0.03374795582294464,0.26638076325338333
1772364946769654000,5.193654052734375,0.0010123919129371643,-0.004610124143958091,0.2290430941090919
1772364946779725000,5.20372509765625,0.005676876592636108,-0.00041501054167747495,0.21864013884263112
1772364946789794800,5.213794921875,0.011108838513493537,0.01509761588871479,0.21695108977714553
1772364946799865000,5.223864990234375,0.04041501249670982,0.001295300507545471,0.207182797418721
1772364946809935000,5.23393505859375,0.03628945699930191,0.017880524605512618,0.1858647361125797
1772364946820006000,5.244005859375,0.03116027741730213,0.0104220252931118,0.1612421899009496
1772364946830076000,5.254075927734375,0.018158172503113745,-0.00739478642642498,0.12641031129881738
1772364946840146200,5.264146240234375,0.03404255485534668,0.02709551219642162,0.12226454413044266
1772364946850217000,5.274217041015625,0.06231938579082489,0.08107435514330863,0.14819098514802753
1772364946860287000,5.284286865234375,0.0856289497077465,0.11989654549062251,0.14421097560115156
1772364946870357000,5.29435693359375,0.1363794782578945,0.10649112047255038,0.10095255637206137
1772364946880427000,5.304427001953125,0.11922142270803451,0.034139000967144964,0.04645310535086319
1772364946890498000,5.314498046875,0.096805008238554,-0.06925181540250777,0.029796916642226275
1772364946900568000,5.324568115234375,0.04995674782395362,-0.13640285913348196,0.04547582128392532
1772364946910638000,5.33463818359375,0.0066793316334486,-0.13825930065512657,0.08146863342421129
1772364946920707800,5.344707763671875,0.06062134970128536,-0.06766425395011902,0.11231845665285363
1772364946930779000,5.35477880859375,0.1409849262267351,-0.03406652025282383,0.10299767059991136
1772364946940849200,5.36484912109375,0.13310849376320838,-0.05151274509429931,0.08434792432072571
1772364946950919000,5.3749189453125,0.06793138045370578,-0.047692894545197484,0.09175222749416716
1772364946960990000,5.384989990234375,-0.05425298371315002,-0.005351297900080681,0.12607943537663668
1772364946971060000,5.39506005859375,-0.20504501820504664,-0.003233575093746185,0.13350450734347105
1772364946981130000,5.4051298828125,-0.3439011157095432,0.06335398953557014,0.0990891553866677
1772364946991200000,5.415199951171875,-0.3930570685446262,0.12344751597046852,0.12462118112603202
1772364947001271000,5.42527099609375,-0.31917817786335945,0.13414777368307113,0.1780799457215704
1772364947011340800,5.4353408203125,-0.14410568859577177,0.06550912174284458,0.1935949467721395
1772364947021410800,5.445410888671875,0.08394552666544913,-0.011016484054923057,0.2015397134978324
1772364947031481000,5.455481201171875,0.27478315581977364,-0.045298692885041236,0.24781552605303003
1772364947041552100,5.46555224609375,0.30292145506739615,-0.050469958043098444,0.26571422563605007
1772364947051622000,5.475621826171875,0.15919102952480316,-0.00033317747712135315,0.27909342023432254
1772364947061692000,5.48569189453125,-0.074100424477458,0.04209434388577938,0.27594704849999396
1772364947071763000,5.495762939453125,-0.271574715167284,0.03617489070892334,0.26767140585212035
1772364947081833000,5.5058330078125,-0.25508885979056356,-0.00405599739253521,0.30094763424377885
1772364947091903000,5.515903076171875,-0.04121814557313919,-0.034237785166502,0.3037495581883006
1772364947101973000,5.525972900390625,0.21096622494757175,-0.014575053319334983,0.343495567115955
1772364947112043800,5.536043701171875,0.3788753984570503,0.04441021961271763,0.3447068791344762
1772364947122114000,5.546114013671875,0.3399883261799812,0.12232231133282184,0.3256403961474076
1772364947132184000,5.55618408203125,0.1451847160041332,0.12482289597690105,0.2665138698474504
1772364947142253800,5.56625390625,-0.1030874495089054,0.08027706728577613,0.2034317195232026
1772364947152324900,5.576324951171875,-0.24140403330922125,0.039141339299082756,0.1729218505723402
1772364947162395000,5.586394775390625,-0.17959961130321025,0.04501110811531543,0.1715904741044156
1772364947172465200,5.596465087890625,-0.06007365269064903,0.10678396593928337,0.20515187611300498
1772364947182535000,5.606534912109375,0.05047229613065719,0.12876666516661645,0.21380048025911672
1772364947192606000,5.61660595703125,0.09069500092566013,0.1084732342004776,0.1982080483244732
1772364947202676000,5.626676025390625,0.09116495652496814,0.05869535007476806,0.17531126645952463
1772364947212746000,5.63674609375,0.0589507861405611,-0.02774433149397373,0.11874386832416058
1772364947222817000,5.646817138671875,-0.0014309095859527587,-0.0989788451462984,0.0716102424963843
1772364947232887000,5.656886962890625,0.03915536782443523,-0.04895370826125145,0.08164076598756946
1772364947242956800,5.666956787109375,0.1705032816559076,0.022435119169950484,0.08601012191190384
1772364947253027000,5.677027099609375,0.25061551376879215,0.04125789306163788,0.06765099260974675
1772364947263098000,5.68709814453125,0.1791314092695713,0.0069195701301097865,0.05331100842161104
1772364947273168100,5.697168212890625,0.02319032145142555,-0.06546060642600059,0.042183561105770054
1772364947283238000,5.70723779296875,-0.08935819936394691,-0.10966858146488666,0.03447558511090465
1772364947293308000,5.717307861328125,-0.10898059920072554,-0.12469079402983188,0.05192092403639108
1772364947303379000,5.72737890625,-0.02295066747665405,-0.09617372459769248,0.0722288904179586
1772364947313449000,5.737448974609375,-0.003614683365821838,-0.05527122084498405,0.06249629042742308
1772364947323519000,5.74751904296875,-0.04484627294242382,-0.029210312393307684,0.0454248674148228
1772364947333588700,5.757588623046875,-0.10836977382600307,-0.03693009299039841,0.02965650809111539
1772364947343659800,5.76765966796875,-0.17166998734772204,-0.012829086434841156,0.06135435385068413
1772364947353730000,5.77772998046875,-0.10503741453289984,0.08152852865159511,0.127560970038129
1772364947363799800,5.7877998046875,-0.0327735578328371,0.15968787313103674,0.1509602945977356
1772364947373870800,5.797870849609375,-0.00037993922829627987,0.1529723011404276,0.16226345924008637
1772364947383940900,5.80794091796875,-0.03620060967206955,0.05335340452492237,0.16852898590825496
1772364947394011000,5.818010986328125,-0.10009703552126883,-0.010014029014110564,0.177993162487261
1772364947404081000,5.828080810546875,-0.1003255835801363,-0.0768669665813446,0.18009060969054697
1772364947414152000,5.83815185546875,0.021379472637176513,-0.11957330488562583,0.19261179921999572
1772364947424222000,5.848221923828125,0.12412146970927715,-0.09538520456850529,0.21701812713136895
1772364947434291700,5.858291748046875,0.1419435421258211,-0.008968319353461264,0.2486194993796758
1772364947444362800,5.86836279296875,0.12795067260861395,0.055256607797741886,0.27607922351229935
1772364947454433000,5.87843310546875,0.049364627149701114,0.04264028733074665,0.28962265049526464
1772364947464502800,5.888502685546875,-0.04242050710022449,-0.026778701332211493,0.23512663354016838
1772364947474572800,5.89857275390625,-0.09516133268475532,-0.06790916862189769,0.17953549655843526
1772364947484643800,5.908643798828125,-0.004175824379920959,-0.019315525844693184,0.2272311858489178
1772364947494713900,5.9187138671875,0.07044365553557873,0.07536766793429851,0.2871612653504126
1772364947504784000,5.928783935546875,0.09825345348119735,0.16336977651417253,0.27608090401273216
1772364947514854000,5.93885400390625,0.08161445336937904,0.19500059405267237,0.256112430684641
1772364947524925000,5.948925048828125,0.009968436306715012,0.16317688429057597,0.21621530458219348
1772364947534995000,5.958994873046875,-0.010501520270109177,0.14246142852008342,0.1834020723260939
1772364947545065000,5.96906494140625,0.01641688179373741,0.11807459076046943,0.15864168854635208
1772364947555136000,5.979135986328125,0.06687222678959369,0.06828618524074553,0.1346077376113273
1772364947565205800,5.989205810546875,0.12639584438204765,-0.004433598533272743,0.11134623235352337
1772364947575275800,5.99927587890625,0.08281623037457465,-0.04004676370620727,0.1188040101467166
1772364947585346000,6.009345947265625,0.04806991116404533,-0.03130231623649597,0.11358609283533878
1772364947595416800,6.019416748046875,0.0639355888158083,-0.006390577819943428,0.0965101808772888
1772364947605486800,6.02948681640625,0.05481295568346977,0.052097266983985896,0.11125947651867754
1772364947615556900,6.039556884765625,0.036064416071772576,0.0558399606436491,0.09165341589534655
1772364947625628000,6.0496279296875,0.012265607333183288,0.043754970574378965,0.07625833316370845
1772364947635698000,6.059697998046875,0.006238017606735229,-0.016488193464279172,0.04455690264098812
1772364947645768000,6.069767822265625,-0.03780629130303859,-0.08632102362513541,0.04138113128223922
1772364947655839000,6.0798388671875,-0.03335164998173713,-0.11129413684010506,0.06337998249335214
1772364947665908700,6.08990869140625,-0.013781272593140602,-0.08656827638447284,0.08254424503277986
1772364947675979000,6.09997900390625,0.043241760355234145,-0.037135260173678394,0.10665478660166262
1772364947686049000,6.110049072265625,0.14685527956485747,0.036734278157353396,0.15488083817549048
1772364947696119800,6.120119873046875,0.1514461144864559,0.04692191017270088,0.1568207019305788
1772364947706189800,6.13018994140625,0.07614215943813324,-0.0009025017976760864,0.12097873297045007
1772364947716259800,6.140259765625,-0.0009942717343568801,-0.04674713812768459,0.07130272005032748
1772364947726331000,6.150330810546875,-0.060685062587261196,-0.03291442760825157,0.09203255140604451
1772364947736401000,6.16040087890625,-0.13770575842559338,0.037195465928316115,0.12524191597341558
1772364947746471000,6.170470947265625,-0.153424721083045,0.16197686085104943,0.16863149643465875
1772364947756540700,6.180540771484375,-0.10428747294843196,0.2242529920220375,0.19575669138329102
1772364947766611700,6.19061181640625,-0.021568857729434964,0.14309154311716557,0.18304313935320823
1772364947776682000,6.200681884765625,0.10201309827566146,-0.04542085795998573,0.1527230938860215
1772364947786752000,6.210751953125,0.2578495566755533,-0.11572422824203968,0.1952557926564477
1772364947796822800,6.22082275390625,0.3878852188646793,-0.09816928232908248,0.2518102034460753
1772364947806892800,6.230892822265625,0.31242519647181033,-0.03704056762754917,0.2930000727728009
1772364947816963000,6.240963134765625,0.0446247391462326,0.042673020556569095,0.27441280640373006
1772364947827034000,6.2510341796875,-0.1886597005933523,0.084626494666934,0.1678584845018573
1772364947837103900,6.261103759765625,-0.19436521875858306,0.06313947000205516,0.19299827778693288
1772364947847174000,6.271173828125,-0.05496376233100891,0.031469489496946335,0.2703871493505314
1772364947857245000,6.281244873046875,0.13857669604122638,-0.07678571803867816,0.2774455434294417
1772364947867314700,6.291314697265625,0.22483692938983438,-0.10322890380620955,0.2938815865813754
1772364947877385000,6.301385009765625,0.2664952199459076,-0.008903437423706055,0.3281194265468046
1772364947887456000,6.3114560546875,0.1650011771082878,0.11257599334418773,0.31667200372871007
1772364947897525800,6.32152587890625,-0.01583820512294769,0.1451116507679224,0.23085659153815358
1772364947907595800,6.331595703125,-0.1968950294971466,0.14155308150351048,0.1746420984936878
1772364947917666800,6.341666748046875,-0.2672802328437567,0.11409048956036567,0.13225266238516195
1772364947927737000,6.351737060546875,-0.17708616717755793,0.07710194438099861,0.11669904635725542
1772364947937806800,6.361806884765625,-0.03247136001586914,0.10185819997489452,0.15681816291362047
1772364947947876900,6.371876953125,0.024943887120485304,0.11324994708299636,0.17840735104503108
1772364947957948000,6.381947998046875,-0.011428571987152098,0.09254150557518005,0.1691111697103828
1772364947968018000,6.392017822265625,-0.018802315625548363,0.03149754654765129,0.13649899471802637
1772364947978088000,6.402087890625,0.025285832425951955,-0.01412029528915882,0.10371423963773994
1772364947988159000,6.412158935546875,0.10648936690688132,-0.026440263158082962,0.09365556776430457
1772364947998228700,6.422228759765625,0.1706955893576145,0.0019055413603782652,0.10845653879400342
1772364948008299800,6.4322998046875,0.1564531289935112,0.01712941397726536,0.09841741187125444
1772364948018369800,6.442369873046875,0.041085459104180336,-0.007075637474656104,0.07213916630789172
1772364948028440000,6.452440185546875,-0.09499532846808433,-0.08676409121751785,0.044765599788492545
1772364948038509800,6.462509765625,-0.08261340127885342,-0.09432897351384162,0.09685445513715966
1772364948048580900,6.472580810546875,0.008600070562958717,-0.02993336597084999,0.17418065499439833
1772364948058651000,6.48265087890625,0.09478431606590747,0.02245265482664108,0.1709848363614641
1772364948068722000,6.492721923828125,0.1281581778794527,0.05735913303494453,0.14674010135312565
1772364948078792000,6.5027919921875,0.08198387120366096,0.032142274191975594,0.11054038673019967
1772364948088862000,6.512862060546875,0.006543138033151626,-0.023086861076951026,0.08150480984929018
1772364948098933000,6.52293310546875,-0.014478607207536697,-0.04809387656152248,0.08498216710365376
1772364948109002800,6.533002685546875,0.0006242693781852722,-0.09192834211289883,0.10898450819086283
1772364948119073000,6.543072998046875,0.049126726740598675,-0.07709551464021205,0.17764560942491514
1772364948129144000,6.55314404296875,0.12426876922547817,0.016361352214217185,0.22843449722407386
1772364948139213800,6.5632138671875,0.25898586722910405,0.09463409394025803,0.2187510336048901
1772364948149283800,6.573283935546875,0.2754354822486639,0.09912439109683036,0.17162088750898838
1772364948159355000,6.58335498046875,0.14053893602490425,0.07623159128725528,0.14511929521826095
1772364948169425000,6.5934248046875,-0.009394435811042785,0.03846738556027412,0.16305302044888959
1772364948179495000,6.603494873046875,-0.08157587492465973,0.028208441874384878,0.2023714516142383
1772364948189566000,6.61356591796875,-0.008754384341835975,0.10163315904736518,0.23324761486053466
1772364948199636000,6.623635986328125,0.054959670677781104,0.14077332930266856,0.23852460541538892
1772364948209705700,6.633705810546875,0.06970189725756645,0.15824001241028307,0.20678461014768107
1772364948219776800,6.64377685546875,-0.003593640577793121,0.1359790807634592,0.17811572942100465
1772364948229847000,6.653846923828125,-0.08020107944011688,0.0716121147930622,0.16373318473277612
1772364948239918000,6.66391796875,-0.07454290754795075,0.0017009586989879606,0.17441682010414078
1772364948249987800,6.67398779296875,-0.03498948031663895,0.011971592822670936,0.216003031804692
1772364948260057900,6.684057861328125,-0.01047346321940422,0.06105038876831531,0.22007419023374095
1772364948270129000,6.69412890625,-0.04286825086772442,0.07637655271589755,0.19059927208749577
1772364948280199000,6.704198974609375,-0.04906359837651252,0.07126257070302963,0.15780605970611794
1772364948290269000,6.71426904296875,-0.07459083834290504,0.06283844122886657,0.1596045422291383
1772364948300340000,6.724340087890625,-0.10704583174586295,0.034734628772735594,0.15496022355463354
1772364948310410000,6.734409912109375,-0.10111644169688225,-0.006140402451157569,0.11291332640661858
1772364948320481000,6.74448095703125,-0.07867839991748332,-0.00047930794954299924,0.13939193054740318
1772364948330551000,6.754551025390625,-0.07634089688062667,0.015805471897125244,0.16409425486382095
1772364948340621300,6.764621337890625,-0.04402969586253166,0.03561199612915516,0.1589800901878625
1772364948350692000,6.774692138671875,-0.00460018727183342,0.024603695380687712,0.15066564989956094
1772364948360762000,6.78476220703125,-0.010973813956975937,0.003543371695280075,0.13858655071496032
1772364948370832100,6.79483203125,-0.025156653088331222,0.03225567143857479,0.14860371240107342
1772364948380903200,6.804903076171875,-0.011807342171669006,0.05580839646160602,0.14189493547743184
1772364948390973200,6.81497314453125,-0.019253566524386406,0.061599839344620703,0.10752914915024302
1772364948401044200,6.825044189453125,-0.0077507602572441095,0.006575871258974075,0.07971038244687952
1772364948411114200,6.8351142578125,0.05932721823751926,-0.01971826142668724,0.10275711244284175
1772364948421184000,6.84518408203125,0.12511457239985466,-0.013135375905036925,0.12229835506849922
1772364948431255000,6.855255126953125,0.14322189149856568,0.003163432466983795,0.14827104638060554
1772364948441325300,6.8653251953125,0.12553659720420837,0.00990881507396698,0.15823153684288263
1772364948451396400,6.875396240234375,0.15343933413028715,-0.021499884146451948,0.16321330731082706
1772364948461466000,6.885466064453125,0.14645663563609124,-0.07058510983288288,0.13883365734382533
1772364948471536000,6.8955361328125,0.15469371810555457,-0.09984393754303454,0.1345981660653837
1772364948481607200,6.905607177734375,0.16487141324877738,-0.050067806982994074,0.14729240147364325
1772364948491677000,6.915677001953125,0.11684943287968635,0.025344284614920616,0.15578947745300828
1772364948501748000,6.925748046875,0.0027215339183807373,0.06963643080592155,0.16791567631550133
1772364948511818200,6.935818359375,-0.13366788121163845,0.07994505885243415,0.16570041141882538
1772364948521889300,6.94588916015625,-0.21215631151497363,0.07651917605698108,0.16191906624920666
1772364948531959000,6.955958984375,-0.2051110691785812,0.06946282780468463,0.1803086728880182
1772364948542029000,6.966029052734375,-0.08527706753015518,0.07813362551629544,0.21607739394884556
1772364948552100000,6.97610009765625,0.1372983466684818,0.12941606898605823,0.22155429098997265
1772364948562170000,6.986170166015625,0.32097441363036633,0.15530337443649767,0.19684865133846177
1772364948572241200,6.9962412109375,0.2913666263520717,0.08405074060559273,0.1884961440620944
1772364948582311200,7.006311279296875,0.14885259086191654,0.004161211332678795,0.15956373529471457
1772364948592381200,7.016381103515625,-0.044590252354741094,-0.09668108959794044,0.14023375166640617
1772364948602452000,7.026451904296875,-0.24815292304754255,-0.12306699222028254,0.23512634127922355
1772364948612522200,7.036522216796875,-0.20692776321172712,-0.04417524181306362,0.2768961476520635
1772364948622593300,7.04659326171875,0.024634090518951414,0.07100771915912628,0.275132261518389
1772364948632663300,7.056663330078125,0.17005612241029738,0.16642448790967462,0.22250490624569355
1772364948642734000,7.066734130859375,0.1096148054510355,0.149873750603199,0.17396575186839328
1772364948652804000,7.07680419921875,0.006193009421229362,0.05767126772403717,0.1637873443391174
1772364948662874000,7.0868740234375,-0.04770575402677059,-0.03583703705668449,0.19297619381928816
1772364948672945200,7.096945068359375,-0.0930529622286558,-0.06445347521007061,0.22406846576798706
1772364948683015200,7.10701513671875,-0.14409049102663993,-0.015548282265663146,0.20911800326500088
1772364948693086200,7.117086181640625,-0.01861585314273834,0.07447276492118834,0.1790187426753342
1772364948703156200,7.12715625,-0.006435586005449295,0.08201192825436592,0.1354773874521721
1772364948713227000,7.13722705078125,-0.0538619385689497,0.09890110373497009,0.12101628850186243
1772364948723297000,7.147297119140625,-0.09251227948069572,0.06477554677128791,0.12567164916018955
1772364948733367300,7.1573671875,-0.07578969273865223,0.01120937627851963,0.13788189131063408
1772364948743438300,7.167438232421875,0.0066869304180145256,-0.04304185386896133,0.16292630706299097
1772364948753508000,7.177508056640625,0.04520107772946357,-0.06918284181952476,0.17257318326514212
1772364948763579100,7.1875791015625,0.07437748785316943,-0.02161561948060989,0.1560313233848661
1772364948773649200,7.197649169921875,0.15096154583990573,0.01953472155332565,0.142951330928877
1772364948783720200,7.20772021484375,0.16135434503853321,0.08454349255859851,0.1452155221343506
1772364948793790200,7.217790283203125,0.03470189554691314,0.09307809666991233,0.14673743447200394
1772364948803861200,7.227861328125,-0.06029927814006805,0.05094575886130333,0.12373112781797535
1772364948813931300,7.23793115234375,-0.071459554579854,-0.016685177341103554,0.12118902385341934
1772364948824002000,7.248001953125,-0.021089549779891966,-0.06637012248635292,0.12590065387678331
1772364948834072000,7.258072021484375,0.08637012346386909,-0.08805763815939426,0.14714968680101445
1772364948844142000,7.26814208984375,0.17605565508604049,-0.09739829795658587,0.1741904457360506
1772364948854213000,7.278213134765625,0.1825000089198351,-0.030295185020565985,0.2047766861250624
1772364948864283100,7.288283203125,0.07469137610793113,0.026836568999290464,0.16837854458689688
1772364948874354200,7.298354248046875,-0.030759879922866818,0.05747603741288185,0.10052901546405628
1772364948884424200,7.308424072265625,-0.06410685372948646,0.07212824762165546,0.08412144948793575
1772364948894495200,7.3184951171875,-0.021873978155851362,0.06392389837801456,0.09154483182118274
1772364948904565000,7.32856494140625,0.04315174398422241,0.02220832467675209,0.12195861998642794
1772364948914636000,7.338635986328125,0.10084405449628829,-0.006937105786800384,0.1554922663384117
1772364948924706300,7.348706298828125,0.16145780541300772,0.0396446126461029,0.18744100898597388
1772364948934777300,7.35877734375,0.1700508617132902,0.035867432194948194,0.1795702390782535
1772364948944847000,7.36884716796875,0.13137129470705985,0.026128128468990323,0.13934843846554867
1772364948954918100,7.378918212890625,0.0759217946857214,0.017591770792007445,0.11546804325757548
1772364948964988200,7.38898828125,0.0416401703774929,0.006387070688605308,0.10667195693217217
1772364948975058200,7.39905810546875,0.021335633495450017,0.016684592819213865,0.12256099719321355
1772364948985129200,7.409129150390625,0.01809212152957916,0.012053425887227057,0.14617419283236377
1772364948995199200,7.41919921875,0.014646949511766432,-0.0033510639935731886,0.13423384453132747
1772364949005270300,7.429270263671875,0.0029226094484329224,-0.02508008072078228,0.15769005037732423
1772364949015340000,7.439340087890625,-0.014853870260715484,-0.026181319960951802,0.1737368932822719
1772364949025411000,7.4494111328125,-0.01860533174872398,0.014461071550846099,0.1708758778279647
1772364949035481000,7.459481201171875,-0.025207506492733955,0.02873860322833061,0.1687877829749137
1772364949045552000,7.46955224609375,-0.013882979401946067,0.018455694144964216,0.1584629344459623
1772364949055622100,7.4796220703125,-0.02427694764435291,0.025767478463053703,0.1943918875698
1772364949065693200,7.489693115234375,-0.040595045238733286,0.028316578423976897,0.22389851602856067
1772364949075763200,7.49976318359375,-0.024497312396764753,0.007377250769734382,0.19576872888095675
1772364949085834000,7.509833984375,0.026754151412844655,-0.00319850378036499,0.1979718284158036
1772364949095904000,7.519904052734375,0.032242227435112,-0.00788578481376171,0.20005720158880574
1772364949105975000,7.52997509765625,0.04644143317937851,0.004829319852590561,0.2066630478609353
1772364949116045300,7.54004541015625,0.07047288163006306,0.07990005066692829,0.21661285253241658
1772364949126116000,7.5501162109375,0.07657587468028068,0.07340133629739284,0.18471078030448407
1772364949136186000,7.56018603515625,0.059663902845978736,0.03013502602279186,0.14862566850455478
1772364949146257200,7.570257080078125,0.031602760487794875,-0.02321954754590988,0.17718666840996591
1772364949156327200,7.5803271484375,-0.047885202246904374,-0.08207213400900364,0.15452139374595134
1772364949166398000,7.59039794921875,-0.023225392764806747,-0.09913198988139629,0.14358221271093935
1772364949176468200,7.60046826171875,0.03607376842200756,-0.06531389143168925,0.22691450284887105
1772364949186539300,7.610539306640625,0.011449614775180816,0.03226210117936134,0.31215277273859826
1772364949196609300,7.620609375,-0.058519993507862085,0.13621230499744413,0.32478750564511866
1772364949206680000,7.63068017578125,0.012674772655963897,0.14323416645824907,0.2515063616612926
1772364949216750000,7.64075,0.057062195914983745,0.16156068126559256,0.19326987953623756
1772364949226821000,7.650821044921875,0.06335515857934951,0.10392974555194377,0.173849559876509
1772364949236891100,7.66089111328125,0.061443187478184697,0.08620061211585998,0.2102280468661338
1772364949246962200,7.670962158203125,0.0435965651422739,0.05359715015292167,0.30342969685047866
1772364949257032200,7.6810322265625,0.10332593443989753,0.049693712973594664,0.22636508880518375
1772364949267103200,7.691103271484375,0.22128829699754712,0.02476853055357933,0.09969677502415142
1772364949277173000,7.701173095703125,0.28481705857813355,0.006280103182792663,0.12124673625687137
1772364949287244000,7.711244140625,0.18451368682980537,-0.06428454838395119,0.1327130281722173
1772364949297314000,7.72131396484375,-0.020153730234503744,-0.10564590182006359,0.12884032405787146
1772364949307385000,7.731385009765625,-0.2465729603797197,-0.05537701930701732,0.14158891086871736
1772364949317454300,7.741454345703125,-0.28416414762735365,0.03162380327582359,0.12716318462588824
1772364949327525400,7.751525390625,-0.16512626479268072,0.09635726447105407,0.110972330140369
1772364949337595400,7.761595458984375,0.0407733244150877,0.05596329476237297,0.12092352305133826
1772364949347666400,7.77166650390625,0.25544308005571364,0.004520692294836044,0.13811166321220808
1772364949357737200,7.7817373046875,0.35742929032444953,-0.030902503263950346,0.15763475825982168
1772364949367807500,7.791807373046875,0.24014497315883634,-0.03902385039925575,0.16130922725517302
1772364949377878500,7.80187841796875,-0.027478958556056022,0.0030851065337657926,0.13977515771132892
1772364949387948300,7.8119482421875,-0.2774655267715454,0.0076017071753740305,0.10506053968016058
1772364949398019300,7.822019287109375,-0.3330740167468786,0.023940847557783126,0.1191817391516175
1772364949408089300,7.83208935546875,-0.19727029255032538,-0.008220715856552124,0.15535947027159855
1772364949418160400,7.842160400390625,-0.008640987095236778,0.006512158372998237,0.2120731998087838
1772364949428230400,7.85223046875,0.215376442605257,0.09815408475995063,0.2608844856583513
1772364949438301400,7.862301513671875,0.2705021174997091,0.1438356394827366,0.2302512460561469
1772364949448371500,7.872371337890625,0.11931319264471531,0.12080664607286452,0.1491414451401215
1772364949458442500,7.8824423828125,-0.10236264236569403,0.09332944108247757,0.12048821864030324
1772364949468512300,7.89251220703125,-0.20004443343877792,0.06152677410840988,0.11997505408693104
1772364949478583300,7.902583251953125,-0.18100655549168584,0.03123743430674076,0.1060432853735052
1772364949488653300,7.9126533203125,-0.14321020106077192,-0.007255670216679572,0.11014501247075385
1772364949498724400,7.922724365234375,-0.01957096191048622,0.035523733323812486,0.11408884559255093
1772364949508794400,7.93279443359375,-0.02115267814397812,0.03672667937278747,0.11414135209792294
1772364949518864400,7.942864501953125,0.05102408479452133,0.06493512124717235,0.10127909404584207
1772364949528935400,7.952935302734375,0.05498071346580982,0.08452946403324603,0.1328594509055838
1772364949539005200,7.963005126953125,0.034871406894922255,0.0670031596928835,0.14225258980868383
1772364949549076200,7.973076171875,0.020682138022780416,0.003406593573093414,0.09844417201401665
1772364949559146500,7.983146484375,0.047559039032459255,-0.03617956688404083,0.065769891570881
1772364949569217500,7.993217529296875,0.11163257501423358,-0.026312837386131285,0.06902105712024495
1772364949579287300,8.003287353515624,0.17948212240338324,-0.029049568873643874,0.07068696277216076
1772364949589358300,8.0133583984375,0.17115969973802567,-0.04790332242548465,0.06232904866831377
1772364949599429400,8.023429443359374,0.08750935662686825,-0.04675239882469177,0.07929188304017297
1772364949609499400,8.03349951171875,0.006675239980220795,-0.0669242492377758,0.07061429026159458
1772364949619570400,8.0435703125,-0.015945757150650025,-0.07460311330258845,0.04608239974179305
1772364949629640400,8.053640380859376,0.015233224967122077,-0.021969255223870277,0.06882194521841593
1772364949639711500,8.06371142578125,0.028220716834068297,0.03383212697505951,0.12097744519566185
1772364949649781500,8.073781494140626,0.008646247792243957,0.10222995589673518,0.1704807410305366
1772364949659852500,8.0838525390625,-0.01390636027753353,0.13179331951141357,0.14264179005566985
1772364949669922300,8.09392236328125,-0.09295359350740909,0.09757540808916092,0.0978358491236344
1772364949679993300,8.103993408203126,-0.11924889523684978,0.050068391504883764,0.08528431012169457
1772364949690064400,8.114064453125,-0.07962006468176841,0.029693127474188803,0.11180584008875302
1772364949700134400,8.124134521484375,0.006067337214946746,0.019351181679964063,0.15878928032349796
1772364949710205400,8.134205322265625,0.09279284998774529,0.009856208103895188,0.19140417699590323
1772364949720275500,8.144275390625,0.12424714191555976,0.024590251377224922,0.18734741241838782
1772364949730346500,8.154346435546875,0.09791267721951007,0.05157704250216484,0.19903828860353678
1772364949740416300,8.164416259765625,0.0422024804353714,0.04459960470497608,0.18915811510216443
1772364949750487300,8.1744873046875,-0.03247486714720726,0.033117256703972815,0.18349493824131785
1772364949760557300,8.184557373046875,-0.04538461760282516,0.027685879305005073,0.19914638862051068
1772364949770628400,8.19462841796875,-0.014586159235239027,-0.03275719121992588,0.2073575694637373
1772364949780699400,8.204699462890625,0.04420739051699638,-0.03601940788626671,0.24230668123736976
1772364949790769400,8.214769287109375,0.07399696410298347,-0.011961655950546263,0.25526545846648513
1772364949800840400,8.22484033203125,0.07995791833400726,0.06448503939211368,0.23623777311984448
1772364949810910500,8.234910400390625,0.06252747558355332,0.12442659013569354,0.19593480616286396
1772364949820981500,8.2449814453125,0.034112697482109065,0.16675766538679598,0.18514398408997804
1772364949831051300,8.25505126953125,0.028183307433128354,0.17423019322454927,0.17566882945923135
1772364949841122300,8.265122314453125,0.013120762857794762,0.10764029050767421,0.17830012781089172
1772364949851193300,8.275193359375,0.018989947152137754,0.056221653437614434,0.19912991240974515
1772364949861263400,8.285263427734375,0.028785364979505536,0.013193243572115897,0.20406035454925148
1772364949871334400,8.29533447265625,0.07226853287518024,0.023452771779894827,0.22715276858415454
1772364949881404400,8.305404296875,0.09057634298205375,0.0711029962271452,0.20452369774468243
1772364949891475500,8.315475341796875,0.05745265653729439,0.0779039084136486,0.15279221359947695
1772364949901546500,8.32554638671875,0.030047347739338873,0.05011573777794838,0.12280071510006672
1772364949911616300,8.3356162109375,0.009526537758111953,-0.007637363010644912,0.07776713942461647
1772364949921687300,8.345687255859374,0.013341712132096289,-0.028010873475670814,0.0924829529215116
1772364949931757600,8.355757568359374,0.043563831916451454,0.01967909846007824,0.11575927215595729
1772364949941828600,8.36582861328125,0.054445875936746595,0.044947979751229286,0.1169230278388597
1772364949951898400,8.3758984375,0.01672375578582287,0.05560848997533321,0.12062984646754339
1772364949961969400,8.385969482421874,-0.013257540979981422,0.05284019430577755,0.10477338416869751
1772364949972040400,8.39604052734375,-0.0200771578669548,0.04916004448831081,0.09753082916191778
1772364949982110500,8.4061103515625,0.011870470535755157,0.04801555062830448,0.08712976445844396
1772364949992181200,8.41618115234375,0.02309796699285507,0.029189269605278966,0.10908203201489522
1772364950002251300,8.426251220703126,0.0410609091848135,0.01926116530895233,0.13970082296663894
1772364950012322300,8.436322265625,0.07116144841611385,-0.004674421551823616,0.16988140516420824
1772364950022393300,8.446393310546876,0.10611527289748192,-0.022823826226592063,0.17361900252364576
1772364950032463400,8.45646337890625,0.11634966666400431,-0.04506722221672535,0.16107141817761583
1772364950042534400,8.466534423828126,0.11406418607532977,-0.1139414364784956,0.12276705942563712
1772364950052604400,8.4766044921875,0.049506665968894956,-0.0916898571819067,0.11162889435295946
1772364950062675500,8.486675537109376,0.012512275570631027,0.043296705412864685,0.1725670092526823
1772364950072746200,8.496746337890626,-0.11955460018515586,0.03793722420632839,0.14479541529244744
1772364950082818600,8.506818603515624,-0.22635317917168138,0.15904606809616087,0.17143813308691605
1772364950092888300,8.516888427734376,-0.15560089607834815,0.2050298206359148,0.17850476527120918
1772364950102959400,8.52695947265625,0.03379237948656082,0.11543781251609325,0.1385688689277973
1772364950113030400,8.537030517578126,0.11550737062096596,0.025253099200129508,0.1093369657571893
1772364950123100200,8.54710009765625,0.24969606083631515,0.0019406126737594603,0.11733896996229887
1772364950133171200,8.557171142578126,0.302791106685996,-0.017857143729925154,0.1466211511485744
1772364950143241500,8.567241455078126,0.19922376470565795,-0.03273264130055904,0.13513374337996356
1772364950153312500,8.5773125,-0.05260112485289573,0.0030208091259002682,0.14892561043235472
1772364950163383600,8.587383544921876,-0.19868834265470503,0.011387655454874038,0.18661657739318907
1772364950173453300,8.597453369140625,-0.19746260025203227,0.019324293673038482,0.15767835993953047
1772364950183524400,8.6075244140625,-0.025763386809825897,0.05287351205348968,0.15281069910423828
1772364950193594400,8.617594482421875,0.12993746251165866,0.031252631875872613,0.16175919951237738
1772364950203665400,8.62766552734375,0.18216507787704467,0.05309270776212215,0.19377978355344383
1772364950213736200,8.637736083984375,0.08708031755983829,0.06277122121155261,0.18831110635139048
1772364950223806500,8.647806396484375,-0.03502513615190982,0.053769584110379215,0.1597976901810616
1772364950233877500,8.65787744140625,-0.2168891852557659,0.04789630816280842,0.11817730221627279
1772364950243947500,8.667947509765625,-0.2496066289871931,0.049154783791303634,0.09293209406165405
1772364950254018300,8.678018310546875,-0.14282207852602005,0.04317044868469238,0.11242617307733743
1772364950264089300,8.68808935546875,-0.029509587600827215,0.03498012796640396,0.13383499967316165
1772364950274159400,8.698159423828125,0.012034721186757087,0.024077041158080098,0.1383422114319168
1772364950284230400,8.70823046875,-0.03903086466193199,-0.005800210711359977,0.13471110665425656
1772364950294301400,8.718301513671875,-0.088578447163105,-0.051986207824945445,0.11472281438084318
1772364950304371500,8.728371337890625,-0.08376023322641848,-0.024008652096986768,0.12129978161836043
1772364950314447000,8.738447021484374,-0.0189051914781332,0.043726329001784324,0.11433883829824626
1772364950324517000,8.74851708984375,0.053853755262494085,0.09711363579630851,0.09441745551489293
1772364950334588200,8.758588134765626,0.11102876390218734,0.09543956510424613,0.11832557898000813
1772364950344659200,8.7686591796875,0.09205226075351237,0.04682604858279228,0.13349526459109037
1772364950354729200,8.778729248046876,0.028759646016359327,-0.04901449853777885,0.12568229841836728
1772364950364800300,8.78880029296875,-0.007077391040325165,-0.10565876130163669,0.12980389012671076
1772364950374870000,8.7988701171875,0.005652326673269271,-0.08361877892911433,0.1591673381219618
1772364950384941000,8.808941162109376,0.0487684148222208,-0.03547287991940975,0.15385098367109895
1772364950395012000,8.81901220703125,0.048485506227612496,0.007996843972802162,0.1509748711123597
1772364950405082000,8.82908203125,0.02052431711256504,0.07457330268621444,0.1727930365609005
1772364950415153200,8.839153076171876,-0.029179917255043982,0.11772972284555434,0.17297485940121113
1772364950425224200,8.84922412109375,-0.07281096918880939,0.10849719959795474,0.15111011486458592
1772364950435294200,8.859294189453125,-0.1003425347149372,0.0529424856364727,0.128659423666168
1772364950445365200,8.869365234375,-0.06863339124321938,-0.0040402153015136714,0.13572356249927542
1772364950455435000,8.87943505859375,0.06047463470697403,-0.003026654344797134,0.1771277412969619
1772364950465506000,8.889506103515625,0.11323708760142326,0.009734627550840378,0.1808374094698578
1772364950475577000,8.8995771484375,0.11385609628260135,0.02458382163643837,0.1519487850452773
1772364950485647000,8.909647216796875,0.09228431594371796,0.03818272339999675,0.15371888172402978
1772364950495718000,8.9197177734375,0.05002864401638508,0.023258125990629194,0.15415475239064544
1772364950505789000,8.929788818359375,0.018718144473433493,0.03604395780563354,0.1525544410545379
1772364950515859200,8.939859130859375,0.03258592630624771,0.03634089492559433,0.1689650209716521
1772364950525930200,8.94993017578125,0.07625847929418086,0.05124035789370537,0.20659115166850386
1772364950536000000,8.96,0.09586042086482048,0.05075052855014801,0.2302937700236216
1772364950546071000,8.970071044921875,0.08465981241464614,0.03153729403614998,0.18403644297318533
1772364950556142000,8.98014208984375,0.04198211568295956,0.026496377259492873,0.1692177353573963
1772364950566212000,8.990212158203125,0.011118775385618208,0.014164134430885314,0.17105748147256672
1772364950576283100,9.000283203125,-0.01312953068614006,0.0260550632327795,0.17968871435876935
1772364950586354000,9.01035400390625,0.008776011651754378,0.07171849777698516,0.21003177537536247
1772364950596424200,9.020424072265625,0.02304652906656265,0.08610650409162043,0.21076763363555073
1772364950606495200,9.0304951171875,-0.002022445738315582,0.050509705531597136,0.19153872662838548
1772364950616566300,9.040566162109375,-0.05565466720461845,-0.00502455016374588,0.18032010759748518
1772364950626636000,9.050635986328125,-0.0567722730576992,-0.014414894321560859,0.18445781019041313
1772364950636707000,9.06070703125,-0.03487959020137787,-0.002793430110812187,0.1903378994712606
1772364950646777000,9.070777099609375,-0.007263853523135185,0.0674468118071556,0.2242483523795381
1772364950656848100,9.08084814453125,0.029456980630755424,0.11176935313642024,0.22994568723831324
1772364950666919000,9.0909189453125,0.0019686697244644166,0.0935848771482706,0.19111476559527218
1772364950676989200,9.1009892578125,-0.04684124615192413,0.034417817908525467,0.15100769566972738
1772364950687060200,9.111060302734375,-0.018058803781867028,-0.01156184297800064,0.15296897667217998
1772364950697131300,9.12113134765625,0.036378888848423954,-0.0022591771036386487,0.15894384983070195
1772364950707201000,9.131200927734374,0.060331426844000814,0.006900865429639816,0.15443707646336405
1772364950717272000,9.14127197265625,0.05338847583830356,0.022990999487042425,0.13533259042031132
1772364950727343000,9.151343017578125,0.03849836522042751,0.07021686104238033,0.1408123278724961
1772364950737413000,9.1614130859375,0.01777063449025154,0.10237199471592903,0.13573402909436263
1772364950747484200,9.171484130859374,-0.006914309433102607,0.09141863902509212,0.10550636548520996
1772364950757555000,9.181554931640624,-0.022106033346056937,0.03673077102601528,0.08039003527411259
1772364950767625200,9.191625244140624,-0.0035609073519706725,0.0028366847306489943,0.07044673340865411
1772364950777696300,9.2016962890625,0.04518646468222141,-0.034814708271622655,0.09510723701049573
1772364950787767300,9.211767333984374,0.07633154453039169,-0.03839607388973236,0.13515076758000066
1772364950797837000,9.221837158203124,0.11028408301472663,0.006893851166963577,0.16091167930494993
1772364950807908000,9.231908203125,0.12254033799767493,0.012290157252550124,0.14618008371703325
1772364950817979100,9.241979248046874,0.09034837944507598,-0.02182487831711769,0.13375250902147962
1772364950828049200,9.252049072265624,0.08951134409904479,-0.08728139308989047,0.11907818744559771
1772364950838120000,9.262119873046874,0.1232347500026226,-0.09529460367560386,0.13056318406141362
1772364950848190000,9.27218994140625,0.12983517118096352,-0.06548515634536743,0.13054814175590873
1772364950858261000,9.282260986328126,0.02662497207522392,-0.006453706184029579,0.15029387571141123
1772364950868332000,9.29233203125,-0.09797522106170654,0.08022972101271152,0.1391529158934485
1772364950878402000,9.302402099609376,-0.22039514755010603,0.10916180098652839,0.07716168434475548
1772364950888473000,9.31247314453125,-0.23940964462161063,0.13936463154852388,0.04884054847666994
1772364950898544000,9.322544189453126,-0.11037059225440024,0.10864975981116294,0.09303468678644858
1772364950908614100,9.3326142578125,0.05299450808465481,0.03619125732183456,0.12186221040724776
1772364950918685200,9.342685302734376,0.1964589761674404,-0.02517594231069088,0.15900173576408996
1772364950928756000,9.352755859375,0.2906920880913734,-0.03704933545589447,0.18972643477572126
1772364950938826000,9.362825927734375,0.22716858720779418,-0.017693477600812912,0.14776637566094286
1772364950948897000,9.37289697265625,0.01573942092359066,0.029670915642380714,0.10115290124975145
1772364950958968000,9.382968017578126,-0.19867899030447006,0.06164017135500908,0.11583419142253697
1772364950969038000,9.3930380859375,-0.26754209865033624,0.03768938692510128,0.1267855469525326
1772364950979109000,9.403109130859375,-0.10580547629594803,0.038002690657973286,0.14557908561658114
1772364950989180200,9.41318017578125,0.10265022713541984,0.03214987297654152,0.1952903342468664
1772364950999250200,9.423250244140625,0.1940805565983057,0.015203414350748061,0.21079769998025147
1772364951009321200,9.4333212890625,0.13760989683568478,-0.015639467680454253,0.20212162330532446
1772364951019392000,9.44339208984375,-0.006136310797929764,-0.0249877262622118,0.14598160200286656
1772364951029462000,9.4534619140625,-0.132999188169837,0.015788520762324332,0.10134102596668526
1772364951039533000,9.463532958984375,-0.17040040580332277,0.027156302472949027,0.0753831212317571
1772364951049604000,9.47360400390625,-0.10928104345202445,0.061544309765100474,0.08494241961515508
1772364951059674000,9.483674072265625,-0.0342027138531208,0.05977613104879856,0.1044696428486146
1772364951069745200,9.4937451171875,0.021679916888475415,0.035707857719063756,0.1357425777269993
1772364951079816200,9.503816162109375,0.05392214432358741,0.037220600369572636,0.15339991543535142
1772364951089886200,9.51388623046875,0.03097147684693336,0.037813305565714835,0.15794417126886545
1772364951099957000,9.52395703125,0.00855856950879097,0.02902092730104923,0.14230596396373585
1772364951110028000,9.534028076171875,-0.01761865879893303,0.029934535014629362,0.1273005564031191
1772364951120098000,9.54409814453125,-0.021472996139526367,0.04441781839728355,0.10446002563689835
1772364951130169000,9.554169189453125,0.015661094990372656,0.024567455023527144,0.1082312969370745
1772364951140240100,9.564240234375,0.08052899622023105,-0.00019172317981719968,0.15254420278831385
1772364951150310100,9.57431005859375,0.10684475621581077,-0.020026304462552068,0.17992926338268442
1772364951160381200,9.584381103515625,0.07171966682076454,-0.03501461475789547,0.1776910925344564
1772364951170452200,9.5944521484375,0.001527355697751045,-0.04285656042993068,0.14799951769653708
1772364951180522200,9.604522216796875,-0.026470658296346664,-0.02308452298939228,0.10837014828533865
1772364951190593000,9.614593017578125,-0.035728315985202784,0.010578677159547805,0.11876608928912319
1772364951200664000,9.6246640625,0.006286532923579216,0.004365793994069099,0.13873148474413902
1772364951210734000,9.634734130859375,0.059656888583302495,0.003615852409601211,0.19835560356900095
1772364951220805000,9.64480517578125,0.06070084467828273,0.03084522011876106,0.22339191821329293
1772364951230876200,9.654876220703125,0.030726562175154685,0.09129179777503013,0.18806297680921852
1772364951240947000,9.664947021484375,-0.00911971052289009,0.10583762499988078,0.14170705735567024
1772364951251017200,9.675017333984375,-0.03151099055111408,0.07240238838791847,0.11651698605492711
1772364951261088300,9.685088134765625,-0.02988835778534412,0.02246843691766262,0.11465179497124627
1772364951271159300,9.6951591796875,0.02894903110861778,0.021019991675019264,0.15211882611624897
1772364951281229000,9.70522900390625,0.08462591014504432,0.02941957122981548,0.17900869620535523
1772364951291300000,9.715300048828125,0.12451719102859496,0.01620294678211212,0.16638384537203235
1772364951301371100,9.72537109375,0.13325462423563003,-0.020769231784343718,0.15526066780593245
1772364951311436300,9.735436279296875,0.09683832598626613,-0.024640520259737966,0.1547249900266528
1772364951321507300,9.74550732421875,0.06124035838246345,-0.014314941078424452,0.16149901420623064
1772364951331578400,9.755578369140625,0.027700492352247235,0.0004927519530057906,0.14776823882446624
1772364951341648600,9.765648681640625,0.009922843599319458,0.05862228483855724,0.15334045859938486
1772364951351719700,9.7757197265625,-0.02727203780710697,0.07946633542478083,0.16935173700060693
1772364951361790500,9.78579052734375,-0.037760114073753355,0.08241992453336715,0.14636940487721004
1772364951371860500,9.795860595703125,-0.044134909802675246,0.04653671024739742,0.1282715477265883
1772364951381931500,9.805931640625,-0.04863455930948257,-0.016672902381420135,0.12146036987439729
1772364951392002600,9.81600244140625,-0.04862286887168884,-0.07653729623556137,0.13013974361810832
1772364951402072300,9.826072265625,-0.013349310916662216,-0.09166180013120175,0.14422084854119457
1772364951412143400,9.836143310546875,0.02220949372053146,-0.009561024549603461,0.17043043561540544
1772364951422214400,9.84621435546875,0.003849661165475845,0.07141337735056877,0.1617627066437155
1772364951432284700,9.85628466796875,-0.05779051018953323,0.11967968786954879,0.13086445942977443
1772364951442355700,9.866355712890625,-0.11570376997590065,0.1058329488247633,0.1036175651970785
1772364951452426500,9.876426513671875,-0.0934720644235611,0.061299395093321794,0.0937422231344506
1772364951462497500,9.88649755859375,-0.03463292196393013,0.019997662889957427,0.11036609874237328
1772364951472567600,9.896567626953125,0.05162321973145008,0.007584756040573119,0.11591699260147288
1772364951482638600,9.906638671875,0.09959142408668994,0.016472411373257636,0.12887709413799456
1772364951492709400,9.91670947265625,0.07818038726747036,0.0036959319084882733,0.12223400286170653
1772364951502779400,9.926779296875,0.042429859450459476,0.001972176855802536,0.09791837630793451
1772364951512850400,9.936850341796875,-0.0016167875468730926,-0.00812193165719509,0.08971126885162665
1772364951522921500,9.94692138671875,-0.03560790447592735,-0.06218903740942478,0.06712424705559387
1772364951532991500,9.956991455078125,0.09220482096672057,-0.04827390930354595,0.07507229258376173
1772364951543062500,9.9670625,0.05758885013759136,-0.007441548177599906,0.11353007006547414
1772364951553133600,9.977133544921875,-0.027503508475422857,0.07826455841958523,0.11855204467964357
1772364951563203600,9.98720361328125,0.013071663019061089,0.17934242167174816,0.07441426706644706
1772364951573274600,9.997274658203125,0.04157587296962738,0.17394903819561003,0.06837296847505495
1772364951583345400,10.007345458984375,0.027676526954770086,0.10525661024153232,0.0880647254873067
1772364951593416400,10.01741650390625,0.0340372941583395,-0.0029530045866966244,0.10760463467240333
1772364951603486500,10.027486572265625,0.06514613364934921,-0.09191489810943602,0.12217692064591683
1772364951613557500,10.0375576171875,0.14423779054284094,-0.13483049525022506,0.1122540861797519
1772364951623628500,10.047628662109375,0.19165128362476824,-0.15999708521068096,0.10729909412087872
1772364951633698600,10.057698486328125,0.1089735849380493,-0.12139116796255112,0.10583306755577214
1772364951643769600,10.06776953125,0.10697101294398308,0.002924363014101982,0.09988776755160651
1772364951653840600,10.077840576171875,0.06750526399612426,0.08737900824546814,0.0911814053362701
1772364951663910700,10.08791064453125,-0.09290858532190323,0.09637655369341373,0.1004521508355625
1772364951673981400,10.0979814453125,-0.22684417755901812,0.10381342569589615,0.0950572147231549
1772364951684052500,10.108052490234375,-0.2525350836545229,0.13934943397939203,0.09968757793754339
1772364951694123500,10.11812353515625,-0.15687807640731333,0.13198621173501013,0.14294082780117168
1772364951704193500,10.128193603515625,0.023923311901092526,0.10648293716609478,0.19009192535355687
1772364951714264600,10.1382646484375,0.1718985354065895,0.08774024277329444,0.17462500122841446
1772364951724335400,10.14833544921875,0.09954173972606659,0.03220774064362049,0.1995899311369285
1772364951734405600,10.158405517578124,-0.012917933762073517,0.1324585054218769,0.22528432609746232
1772364951744476700,10.1684765625,0.6683668785870075,0.34371231513917444,0.1097347237699665
1772364951754547700,10.178547607421875,0.7254460256367922,-0.04412555745244026,0.0364978481861297
1772364951764617500,10.188617431640624,0.1579565192937851,-0.2652536954522133,0.21635548023786394
1772364951774688500,10.1986884765625,-0.16450608706772327,-0.12555004120767116,0.2859202340470627
1772364951784759600,10.208759521484374,-0.19174714521467684,-0.05747896002233028,0.327152992667444
1772364951794830600,10.21883056640625,-0.2140659445285797,-0.04171908083260059,0.3497973341412842
1772364951804900400,10.228900390625,-0.3774778066188097,-0.06648936495184898,0.33198885185867544
1772364951814971400,10.238971435546874,-0.5882178215950727,-0.2175783365637064,0.25664704901799557
1772364951825042400,10.24904248046875,-0.6190396608382464,-0.5175701679199933,0.20878120905868708
1772364951835112400,10.259112548828124,-0.5587047268629074,-0.43629181463718414,0.3057229588868096
1772364951845183500,10.26918359375,-0.3738338971585035,0.08255027291476726,0.33880401176624
1772364951855254500,10.279254638671874,-0.0615782120347023,0.44552667597234247,0.23226106977490707
1772364951865325600,10.28932568359375,0.23570085323154924,0.8600164086461066,0.14827323833769188
1772364951875395600,10.2993955078125,0.48419104540944097,1.2211299404412508,0.11442238839585334
1772364951885466600,10.309466552734374,0.6302770941674709,0.8242150274246931,0.1819002346620895
1772364951895537700,10.31953759765625,0.30290859558582306,0.4287240097314119,0.3645849707653746
