time,seconds_elapsed,z,y,x
1772364955123417900,0.10441796875,-0.02660580538213253,-0.09640813618898392,-0.03455672785639763
1772364955133487600,0.114487548828125,-0.026285959407687187,-0.13204815983772278,-0.0356515534222126
1772364955143558700,0.12455859375,-0.03543413430452347,-0.13665859401226044,-0.03356701880693436
1772364955153629000,0.13462890625,-0.05329595506191254,-0.14876799285411835,-0.02383236587047577
1772364955163700000,0.144699951171875,-0.04361265152692795,-0.1647959202528,-0.02207876741886139
1772364955173770800,0.154770751953125,-0.052143290638923645,-0.17169563472270966,-0.022523514926433563
1772364955183840800,0.1648408203125,-0.050451166927814484,-0.15603655576705933,-0.019404860213398933
1772364955193910800,0.174910888671875,-0.04955048859119415,-0.14259184896945953,-0.007999606430530548
1772364955203981800,0.18498193359375,-0.0452960841357708,-0.11538577824831009,-0.0026074955239892006
1772364955214052600,0.195052490234375,-0.03629646450281143,-0.08799783140420914,-0.005607812665402889
1772364955224123000,0.205122802734375,-0.028075236827135086,-0.06338167190551758,0.006298459134995937
1772364955234194000,0.21519384765625,-0.00829940102994442,-0.05992196127772331,-0.0016875611618161201
1772364955244263700,0.225263671875,0.0028802365995943546,-0.0773979052901268,-0.01615534909069538
1772364955254334700,0.235334716796875,0.014210122637450695,-0.09370124340057373,-0.013818957842886448
1772364955264404700,0.24540478515625,0.025046784430742264,-0.10041484236717224,-0.006346050184220076
1772364955274475800,0.255475830078125,0.014651669189333916,-0.09749707579612732,-0.0005227820947766304
1772364955284545500,0.265545654296875,0.01898553967475891,-0.08414068073034286,0.006410229951143265
1772364955294616600,0.275616455078125,0.00904875248670578,-0.08389434218406677,0.0005725808441638947
1772364955304686800,0.285686767578125,0.0029048859141767025,-0.08745764195919037,0.0023317625746130943
1772364955314758000,0.2957578125,0.0071382466703653336,-0.09729642421007156,-0.0006507113575935364
1772364955324822800,0.30582275390625,0.0032507763244211674,-0.08703584969043732,0.00573261734098196
1772364955334893800,0.315893798828125,0.010666614398360252,-0.0691484585404396,0.004640188999474049
1772364955344964000,0.325964111328125,0.01590718701481819,-0.0678943544626236,0.00015410222113132477
1772364955355035100,0.33603515625,0.009221854619681835,-0.08293215930461884,-0.011953959241509438
1772364955365105000,0.34610498046875,0.006121664308011532,-0.10433574765920639,-0.016546856611967087
1772364955375176000,0.356176025390625,0.00017242878675460815,-0.10636293888092041,-0.020977023988962173
1772364955385246000,0.366245849609375,-0.009945929981768131,-0.09752889722585678,-0.012921045534312725
1772364955395317000,0.37631689453125,-0.014951341785490513,-0.10141977667808533,-0.0011144531890749931
1772364955405387000,0.386386962890625,-0.02167513221502304,-0.11046372354030609,0.007957334630191326
1772364955415458000,0.3964580078125,-0.021328389644622803,-0.1132776215672493,0.015208323486149311
1772364955425528000,0.406528076171875,-0.01875167340040207,-0.10351730138063431,0.021561650559306145
1772364955435599000,0.41659912109375,-0.010852738283574581,-0.08853381872177124,0.027691712602972984
1772364955445668900,0.4266689453125,-0.014977552928030491,-0.06988970190286636,0.02886047586798668
1772364955455740000,0.436739990234375,-0.008567324839532375,-0.04173077270388603,0.031595274806022644
1772364955465810200,0.44681005859375,-0.005162682384252548,-0.034490883350372314,0.026599816977977753
1772364955475881200,0.456881103515625,-0.003242276608943939,-0.034250400960445404,0.03026299551129341
1772364955485951000,0.466950927734375,-0.004663604311645031,-0.03329963982105255,0.03354205936193466
1772364955496022000,0.47702197265625,-0.006357908248901367,-0.031058326363563538,0.04446954280138016
1772364955506092000,0.487092041015625,-0.004481124691665173,-0.0254182331264019,0.0565718337893486
1772364955516163000,0.4971630859375,-0.003945031203329563,-0.028516819700598717,0.06940747052431107
1772364955526232800,0.50723291015625,-0.007535455748438835,-0.026096779853105545,0.0725603774189949
1772364955536303900,0.517303955078125,-0.014941705390810966,-0.009838182479143143,0.07153559476137161
1772364955546374100,0.5273740234375,-0.01490053441375494,-0.00876583531498909,0.06655725091695786
1772364955556445200,0.537445068359375,-0.018979962915182114,-0.004534072242677212,0.06041494384407997
1772364955566515000,0.547514892578125,-0.016678782179951668,-0.01655273698270321,0.051285527646541595
1772364955576586000,0.5575859375,-0.016121117398142815,-0.011581947095692158,0.040098655968904495
1772364955586656000,0.567656005859375,-0.01461472362279892,0.014476952143013477,0.026824845001101494
1772364955596726800,0.577726806640625,-0.011076714843511581,0.025074999779462814,0.012161213904619217
1772364955606797000,0.587797119140625,-0.007905050180852413,0.024668168276548386,0.004272839054465294
1772364955616868000,0.5978681640625,-0.005543891340494156,0.02558722347021103,0.010020740330219269
1772364955626938000,0.607938232421875,-0.010733697563409805,0.03709891811013222,0.02821093425154686
1772364955637009000,0.6180087890625,-0.0040318528190255165,0.04559147357940674,0.047326572239398956
1772364955647079000,0.628078857421875,-0.0021616769954562187,0.038925398141145706,0.06428051739931107
1772364955657150000,0.63814990234375,0.0041582705453038216,0.030395295470952988,0.07942777872085571
1772364955667220200,0.64822021484375,0.003099554218351841,0.005545736290514469,0.08343139290809631
1772364955677291000,0.658291015625,0.007527592126280069,-0.015473795123398304,0.06715601682662964
1772364955687361000,0.668361083984375,0.0056172022596001625,-0.03860236704349518,0.03787349909543991
1772364955697431000,0.67843115234375,-0.0053345151245594025,-0.011262888088822365,0.02010968141257763
1772364955707501800,0.688501708984375,-0.011313575319945812,0.0440744124352932,-0.005994442850351334
1772364955717572900,0.69857275390625,-0.004406135529279709,0.08906240016222,-0.019303323701024055
1772364955727643100,0.70864306640625,-0.0015061143785715103,0.09153363108634949,-0.011501866392791271
1772364955737713200,0.718713134765625,0.00785569567233324,0.045603420585393906,0.015115629881620407
1772364955747784000,0.728783935546875,0.01291815098375082,0.016556650400161743,0.032485831528902054
1772364955757854000,0.73885400390625,0.01926925778388977,0.02098468877375126,0.040554679930210114
1772364955767925000,0.748925048828125,0.018521228805184364,0.031962282955646515,0.04184799641370773
1772364955777995000,0.7589951171875,0.013754170387983322,0.03963857889175415,0.034937627613544464
1772364955788065800,0.769065673828125,0.010238800197839737,0.04035311937332153,0.026979217305779457
1772364955798136000,0.779135986328125,0.008258206769824028,0.022515535354614258,0.020659269765019417
1772364955808207000,0.78920703125,0.005607240833342075,0.0007092300802469254,0.02046014927327633
1772364955818277000,0.799277099609375,0.0018639015033841133,-0.020572088658809662,0.024461815133690834
1772364955828348000,0.809347900390625,-0.0019493158906698227,-0.03442353755235672,0.03218977898359299
1772364955838418000,0.81941796875,-0.007981376722455025,-0.04039887338876724,0.031817737966775894
1772364955848489000,0.829489013671875,-0.005631140433251858,-0.038281433284282684,0.029925815761089325
1772364955858559000,0.83955908203125,0.002951428759843111,-0.024136852473020554,0.028439238667488098
1772364955868630000,0.849630126953125,0.011843089945614338,-0.008206414058804512,0.021951615810394287
1772364955878700000,0.859699951171875,0.02006906270980835,-0.0027128455694764853,0.009557263925671577
1772364955888771000,0.86977099609375,0.02909243293106556,-0.005626586265861988,-0.008161554113030434
1772364955898840800,0.8798408203125,0.029629327356815338,-0.004204991273581982,-0.022550346329808235
1772364955908911900,0.889911865234375,0.025429949164390564,-0.0031464810017496347,-0.03994069620966911
1772364955918982100,0.899982177734375,0.02720361389219761,0.0022485507652163506,-0.05275023356080055
1772364955929053200,0.91005322265625,0.024899179115891457,0.0073721930384635925,-0.06426485627889633
1772364955939123000,0.920123046875,0.024786794558167458,0.015619470737874508,-0.06649232655763626
1772364955949194000,0.930194091796875,0.024441860616207123,0.017037808895111084,-0.06767184287309647
1772364955959264000,0.940263916015625,0.022964604198932648,0.005396067164838314,-0.06285125762224197
1772364955969335000,0.9503349609375,0.016454720869660378,-0.0011508436873555183,-0.05405590310692787
1772364955979404800,0.96040478515625,0.017702678218483925,-0.0031873630359768867,-0.04527599364519119
1772364955989475800,0.970475830078125,0.010488606058061123,-0.004755489993840456,-0.029522759839892387
1772364955999546000,0.980546142578125,0.0010540913790464401,0.0006411396898329258,-0.01151260081678629
1772364956009617200,0.9906171875,-0.010733968578279018,0.005102865863591433,-0.00003908853977918625
1772364956019687000,1.00068701171875,-0.008322740904986858,-0.010099522769451141,0.0029037054628133774
1772364956029758000,1.010758056640625,-0.013631700538098812,-0.018407471477985382,0.0006302511319518089
1772364956039828000,1.020827880859375,-0.015463423915207386,-0.004448780324310064,0.004048151895403862
1772364956049899000,1.03089892578125,-0.014835291542112827,0.008771827444434166,0.00017218105494976044
1772364956059969000,1.040968994140625,-0.015710406005382538,0.01433756947517395,0.004567728377878666
1772364956070040000,1.0510400390625,-0.014981284737586975,0.008387233130633831,0.014684108085930347
1772364956080110000,1.061110107421875,-0.015316842123866081,0.004879317246377468,0.01839042827486992
1772364956090181000,1.07118115234375,-0.01232829224318266,-0.0012180129997432232,0.017981907352805138
1772364956100251000,1.0812509765625,-0.00686135608702898,-0.0003903028555214405,0.01565510407090187
1772364956110322000,1.091322021484375,-0.006689209491014481,0.004629320465028286,0.007124110125005245
1772364956120392200,1.10139208984375,-0.002963181585073471,0.017157096415758133,-0.0001684240996837616
1772364956130463200,1.111463134765625,-0.0013697044923901558,0.02129869908094406,-0.003315477631986141
1772364956140533000,1.121532958984375,-0.0028235241770744324,0.017541777342557907,-0.000702916644513607
1772364956150604000,1.13160400390625,-0.0074403295293450356,0.004572473932057619,0.010300190187990665
1772364956160674000,1.141674072265625,-0.01587056741118431,-0.009503664448857307,0.018520571291446686
1772364956170744000,1.151744140625,-0.019476808607578278,-0.017990155145525932,0.016524795442819595
1772364956180815000,1.161815185546875,-0.016761712729930878,-0.021990757435560226,0.009557966142892838
1772364956190886100,1.17188623046875,-0.013467597775161266,-0.016997545957565308,0.0014324821531772614
1772364956200956200,1.1819560546875,-0.014652439393103123,-0.01207575760781765,-0.002738560549914837
1772364956211026000,1.19202587890625,-0.02181341126561165,0.0022741653956472874,-0.010086840018630028
1772364956221097000,1.202096923828125,-0.025088563561439514,0.007692366372793913,-0.00962052121758461
1772364956231167000,1.2121669921875,-0.025743385776877403,0.009985662996768951,-0.002902342937886715
1772364956241238000,1.222238037109375,-0.025137247517704964,0.008833578787744045,0.004731074906885624
1772364956251308000,1.23230810546875,-0.022600475698709488,0.0046176849864423275,0.014614079147577286
1772364956261379000,1.242379150390625,-0.017511975020170212,0.0036541535519063473,0.025322915986180305
1772364956271449000,1.252448974609375,-0.012193010188639164,0.014931092038750648,0.03108518198132515
1772364956281519900,1.262519775390625,-0.010321074165403843,0.027104666456580162,0.037191011011600494
1772364956291590000,1.27258984375,-0.007535670883953571,0.029580621048808098,0.0398908406496048
1772364956301661000,1.282660888671875,-0.0034152287989854813,0.031904760748147964,0.04374895989894867
1772364956311731200,1.292731201171875,-0.002834872342646122,0.038863129913806915,0.044932737946510315
1772364956321802200,1.30280224609375,-0.0016401782631874084,0.03931640088558197,0.04425176978111267
1772364956331872300,1.312872314453125,0.002995903603732586,0.031276073306798935,0.03813714161515236
1772364956341943300,1.322943359375,0.00620607752352953,0.020266830921173096,0.0234663188457489
1772364956352013300,1.333013427734375,0.008677066303789616,0.009471562691032887,0.00048857182264328
1772364956362084000,1.343083984375,0.012600701302289963,0.011511011980473995,-0.03212130069732666
1772364956372154000,1.353154052734375,0.012143755331635475,0.022846007719635963,-0.0615968182682991
1772364956382225200,1.36322509765625,0.01142230536788702,0.04327324777841568,-0.07551902532577515
1772364956392295400,1.37329541015625,0.016471177339553833,0.05085981637239456,-0.07425190508365631
1772364956402366200,1.3833662109375,0.01914925128221512,0.055622879415750504,-0.06255876272916794
1772364956412436200,1.393436279296875,0.015190350823104382,0.04133033752441406,-0.03814326599240303
1772364956422507300,1.40350732421875,0.016570933163166046,0.026889346539974213,-0.009605364874005318
1772364956432577300,1.413577392578125,0.016569236293435097,0.008457574993371964,0.006658577360212803
1772364956442648000,1.42364794921875,0.012023220770061016,-0.009202112443745136,0.006516364403069019
1772364956452718300,1.43371826171875,0.021102093160152435,-0.01290030125528574,-0.013818472623825073
1772364956462789400,1.443789306640625,0.018569692969322205,-0.0007922393269836903,-0.030543655157089233
1772364956472859100,1.453859130859375,0.022746331989765167,0.042682014405727386,-0.04013139009475708
1772364956482930200,1.46393017578125,0.026215098798274994,0.061152104288339615,-0.052974216639995575
1772364956493000200,1.474000244140625,0.024679679423570633,0.0619373582303524,-0.04083295539021492
1772364956503070500,1.484070556640625,0.029266707599163055,0.05439369007945061,-0.013590148650109768
1772364956513141200,1.494141357421875,0.026766639202833176,0.05034206435084343,0.00061044842004776
1772364956523211300,1.504211181640625,0.024702422320842743,0.045133985579013824,0.001466122455894947
1772364956533282300,1.5142822265625,0.020772553980350494,0.03859793394804001,-0.003412792459130287
1772364956543352300,1.524352294921875,0.016254501417279243,0.05184023827314377,-0.004540907219052315
1772364956553423000,1.534423095703125,0.019101951271295547,0.06665883213281631,-0.0025521554052829742
1772364956563493400,1.544493408203125,0.020129133015871048,0.05580245703458786,0.002052449621260166
1772364956573564400,1.554564453125,0.015016715973615646,0.0418451726436615,0.015178556554019451
1772364956583634200,1.56463427734375,0.008188105188310146,0.03251824900507927,0.029020067304372787
1772364956593705200,1.574705322265625,0.002288085874170065,0.0314372256398201,0.042931802570819855
1772364956603775200,1.584775146484375,-0.009988821111619473,0.0314425528049469,0.058768823742866516
1772364956613846300,1.59484619140625,-0.010637885890901089,0.03260975331068039,0.07309369742870331
1772364956623916000,1.604916015625,-0.009159033186733723,0.027534566819667816,0.08150209486484528
1772364956633987000,1.614987060546875,-0.008483975194394588,0.01681714691221714,0.07662610709667206
1772364956644057300,1.625057373046875,-0.008685310371220112,0.009311826899647713,0.07152296602725983
1772364956654128400,1.63512841796875,-0.0050704944878816605,-0.001478112069889903,0.06292948126792908
1772364956664198100,1.6451982421875,-0.00810303632169962,0.0014529628679156303,0.04392542690038681
1772364956674269200,1.655269287109375,-0.002328077331185341,-0.00023798784241080284,0.014452400617301464
1772364956684339200,1.665339111328125,-0.006519625894725323,-0.00040629971772432327,-0.008593795821070671
1772364956694410200,1.67541015625,-0.010527954436838627,0.0011300486512482166,-0.014947395771741867
1772364956704480300,1.685480224609375,-0.013610296882689,0.00003921752795577049,-0.016799092292785645
1772364956714551300,1.69555126953125,-0.014294945634901524,-0.009238440543413162,-0.01065244060009718
1772364956724621300,1.705621337890625,-0.0197906456887722,-0.030657446011900902,-0.011235406622290611
1772364956734691000,1.715691162109375,-0.019214600324630737,-0.044349271804094315,-0.014991347678005695
1772364956744762000,1.72576220703125,-0.01971874013543129,-0.050610098987817764,-0.016936253756284714
1772364956754832400,1.735832275390625,-0.02552517130970955,-0.04349163919687271,-0.0210062637925148
1772364956764903400,1.7459033203125,-0.03161688521504402,-0.031543634831905365,-0.012769373133778572
1772364956774973200,1.75597314453125,-0.03714066371321678,-0.002995522227138281,0.0027725519612431526
1772364956785044200,1.766044189453125,-0.035776857286691666,0.011506987735629082,0.007321763783693314
1772364956795114200,1.7761142578125,-0.03449784219264984,-0.008214044384658337,0.017743701115250587
1772364956805185300,1.786185302734375,-0.029657013714313507,-0.026570148766040802,0.01715221256017685
1772364956815255000,1.796255126953125,-0.02768920361995697,-0.07459545880556107,0.02033335715532303
1772364956825326000,1.806326171875,-0.009681014344096184,-0.05667166784405708,0.03599701449275017
1772364956835396400,1.816396240234375,-0.011876048520207405,0.008978085592389107,0.05428829789161682
1772364956845467400,1.82646728515625,-0.015433499589562416,0.02465078793466091,0.06266634166240692
1772364956855537200,1.836537109375,-0.015238766558468342,0.013267451897263527,0.060127731412649155
1772364956865608200,1.846608154296875,-0.007654084824025631,0.008557651191949844,0.056044306606054306
1772364956875678200,1.85667822265625,-0.009014694020152092,0.013440540060400963,0.04889274388551712
1772364956885748200,1.866748291015625,-0.00978621281683445,0.012244781479239464,0.037845686078071594
1772364956895819300,1.8768193359375,-0.00936197116971016,-0.0004513063468039036,0.03658653795719147
1772364956905889300,1.88688916015625,-0.01526034064590931,-0.003155479906126857,0.03400007635354996
1772364956915960300,1.896960205078125,-0.010797468945384026,-0.010862997733056545,0.03058111108839512
1772364956926030000,1.907030029296875,-0.017401043325662613,-0.013355184346437454,0.03539690375328064
1772364956936101000,1.91710107421875,-0.014261436648666859,-0.01992061361670494,0.041391875594854355
1772364956946171400,1.92717138671875,-0.00933272298425436,-0.01973392441868782,0.036640796810388565
1772364956956242400,1.937242431640625,-0.00965806469321251,-0.023331061005592346,0.03843218833208084
1772364956966312200,1.947312255859375,-0.005457460880279541,-0.032048653811216354,0.038161877542734146
1772364956976383200,1.95738330078125,-0.006590419448912144,-0.02255130000412464,0.03918374329805374
1772364956986453200,1.967453369140625,-0.0010614311322569847,-0.013025704771280289,0.03746440261602402
1772364956996524300,1.977524169921875,0.001230699010193348,-0.017327820882201195,0.03601422160863876
1772364957006594300,1.98759423828125,-0.0038522109389305115,-0.02964414283633232,0.03118831105530262
1772364957016665300,1.997665283203125,-0.0014000283554196358,-0.034603845328092575,0.01361214742064476
1772364957026735400,2.0077353515625,-0.005218468606472015,-0.030557438731193542,-0.001955626532435417
1772364957036805000,2.01780517578125,-0.008102882653474808,-0.01620849408209324,-0.01664712280035019
1772364957046876200,2.027876220703125,-0.008496230468153954,-0.0076397741213440895,-0.02849739044904709
1772364957056946200,2.0379462890625,-0.008764411322772503,-0.004536675289273262,-0.02583068236708641
1772364957067017200,2.048017333984375,0.0006724996492266655,-0.011877944692969322,-0.013462428003549576
1772364957077087200,2.058087158203125,-0.003818761557340622,-0.018260303884744644,0.0023818733170628548
1772364957087158300,2.068158203125,-0.00437829177826643,0.000628964975476265,0.03114188089966774
1772364957097228300,2.078228271484375,-0.0018668249249458313,0.0109392199665308,0.053336843848228455
1772364957107299300,2.08829931640625,-0.004931590519845486,-0.03508047014474869,0.07226525992155075
1772364957117369000,2.098369140625,-0.009888377040624619,-0.0473274290561676,0.0728464424610138
1772364957127440100,2.108440185546875,-0.014988062903285027,-0.04413749650120735,0.0620928630232811
1772364957137510400,2.118510498046875,-0.02493630163371563,-0.02990107238292694,0.049974046647548676
1772364957147580200,2.128580078125,-0.025041231885552406,0.003443834837526083,0.03905642032623291
1772364957157651200,2.138651123046875,-0.010871825739741325,-0.008202580735087395,0.02061990275979042
1772364957167721200,2.14872119140625,0.000017573125660419464,-0.04119488596916199,0.022285446524620056
1772364957177792300,2.158792236328125,0.007124699652194977,-0.058406125754117966,0.03239063918590546
1772364957187862300,2.1688623046875,0.016068393364548683,-0.06357132643461227,0.035748351365327835
1772364957197933300,2.178933349609375,0.013866063207387924,-0.07171120494604111,0.02770719677209854
1772364957208003300,2.18900341796875,0.011571483686566353,-0.0778987929224968,0.014854514971375465
1772364957218074400,2.199074462890625,0.006304708309471607,-0.07574842125177383,0.001222054474055767
1772364957228144000,2.20914404296875,-0.003722625784575939,-0.06447286158800125,-0.006675282958894968
1772364957238215200,2.219215087890625,-0.011447448283433914,-0.0667787492275238,-0.0007875831797719002
1772364957248285200,2.22928515625,-0.02543703466653824,-0.07761035114526749,0.0027317842468619347
1772364957258355200,2.239355224609375,-0.01108232606202364,-0.09879282861948013,0.024174325168132782
1772364957268426200,2.24942626953125,-0.019435595721006393,-0.08933967351913452,0.038387082517147064
1772364957278496300,2.259496337890625,-0.032381169497966766,-0.055984869599342346,0.0510835200548172
1772364957288567300,2.2695673828125,-0.028628243133425713,-0.07259660959243774,0.03852139413356781
1772364957298637000,2.279636962890625,-0.01930169388651848,-0.08236945420503616,0.0452875941991806
1772364957308708000,2.2897080078125,-0.018157068639993668,-0.08317958563566208,0.051811546087265015
1772364957318782200,2.2997822265625,-0.024083876982331276,-0.06630118191242218,0.06776006519794464
1772364957328853200,2.309853271484375,-0.02807595767080784,-0.05602724105119705,0.07619775831699371
1772364957338923300,2.31992333984375,-0.03455788642168045,-0.061527881771326065,0.06797638535499573
1772364957348994300,2.329994384765625,-0.040773168206214905,-0.057554446160793304,0.0534973107278347
1772364957359064000,2.34006396484375,-0.04265329986810684,-0.04387976601719856,0.04249199479818344
1772364957369134000,2.350134033203125,-0.03782925009727478,-0.059040606021881104,0.02473723143339157
1772364957379205000,2.360205078125,-0.036862097680568695,-0.07876168936491013,0.0069946302101016045
1772364957389275100,2.370275146484375,-0.03484475612640381,-0.08436871320009232,-0.00308117363601923
1772364957399346200,2.38034619140625,-0.033475473523139954,-0.06640144437551498,-0.014115131460130215
1772364957409416200,2.390416259765625,-0.030782481655478477,-0.051855530589818954,-0.025519054383039474
1772364957419487200,2.4004873046875,-0.030301136896014214,-0.04052431136369705,-0.029577411711215973
1772364957429557000,2.410556884765625,-0.021340131759643555,-0.049279987812042236,-0.02276371419429779
1772364957439628000,2.4206279296875,-0.011002648621797562,-0.04727080464363098,-0.006468200124800205
1772364957449698300,2.4306982421875,-0.007792472839355469,-0.04601059854030609,0.006277156062424183
1772364957459769300,2.440769287109375,-0.007066335529088974,-0.041841503232717514,0.021884173154830933
1772364957469839000,2.450839111328125,-0.007639449089765549,-0.03573940321803093,0.036057248711586
1772364957479909000,2.4609091796875,-0.005873667076230049,-0.016803976148366928,0.03803987801074982
1772364957489980200,2.470980224609375,-0.013069260865449905,-0.0009658900089561939,0.03317508101463318
1772364957500050200,2.48105029296875,-0.015133160166442394,0.008415650576353073,0.026710961014032364
1772364957510121200,2.491121337890625,-0.008323456160724163,0.01428978517651558,0.017678318545222282
1772364957520191200,2.501191162109375,-0.001645202748477459,0.004841617774218321,0.007204925641417503
1772364957530262300,2.51126220703125,0.003651025705039501,0.0016239862889051437,0.0012077530845999718
1772364957540332000,2.52133203125,0.012801642529666424,0.003970168065279722,-0.010373281314969063
1772364957550403000,2.531403076171875,0.01401018537580967,0.001616466324776411,-0.020388098433613777
1772364957560473000,2.54147314453125,0.013071689754724503,0.011997243389487267,-0.02209269255399704
1772364957570543400,2.55154345703125,0.0075666699558496475,0.028060367330908775,-0.01728462055325508
1772364957580614100,2.5616142578125,0.011148510500788689,0.03336545079946518,-0.010698642581701279
1772364957590684200,2.57168408203125,0.012642277404665947,0.02555333450436592,-0.003057500347495079
1772364957600755200,2.581755126953125,0.00890602357685566,0.012948239222168922,0.013609452173113823
1772364957610825000,2.591824951171875,0.003856936004012823,0.0036335657350718975,0.029307721182703972
1772364957620896000,2.60189599609375,0.008639121428132057,0.0021442826837301254,0.030772371217608452
1772364957630966300,2.61196630859375,0.009531812742352486,0.006602680776268244,0.028448497876524925
1772364957641036300,2.622036376953125,0.007558465003967285,-0.0004876311868429184,0.016135558485984802
1772364957651107000,2.632107177734375,0.015496550127863884,-0.003315642010420561,-0.0009712567552924156
1772364957661177000,2.642177001953125,0.01326162088662386,-0.0047828685492277145,-0.024002470076084137
1772364957671248100,2.652248046875,0.009708696976304054,-0.011608550325036049,-0.03778299689292908
1772364957681318400,2.662318359375,0.004440913442522287,-0.01004449650645256,-0.05615844577550888
1772364957691389200,2.67238916015625,0.0020480630919337273,-0.010664213448762894,-0.07854045182466507
1772364957701459200,2.682459228515625,-0.002023909240961075,-0.010015178471803665,-0.09476024657487869
1772364957711530200,2.6925302734375,-0.014459806494414806,0.007197364699095488,-0.09481218457221985
1772364957721600000,2.70260009765625,-0.005904986523091793,0.019035624340176582,-0.0823996290564537
1772364957731670000,2.712669921875,0.01547939796000719,-0.022058814764022827,-0.05250031501054764
1772364957741741000,2.722740966796875,0.02438787929713726,-0.027067873626947403,-0.0027935970574617386
1772364957751811300,2.732811279296875,0.013420183211565018,-0.0005185543559491634,0.03232284635305405
1772364957761882000,2.742882080078125,0.013259278610348701,-0.009118670597672462,0.04294878989458084
1772364957771952000,2.7529521484375,0.01050849910825491,-0.018750526010990143,0.04872385412454605
1772364957782023200,2.763023193359375,0.0113062197342515,-0.01024355087429285,0.039598338305950165
1772364957792093200,2.77309326171875,0.0040363227017223835,0.02011542022228241,0.033890653401613235
1772364957802163200,2.7831630859375,0.009239502251148224,0.028044922277331352,0.019633160904049873
1772364957812234200,2.793234130859375,0.01728571020066738,0.001372829545289278,0.006170881912112236
1772364957822304300,2.80330419921875,0.027278687804937363,-0.016881084069609642,0.007386866025626659
1772364957832375300,2.813375244140625,0.02634551376104355,-0.0270405113697052,0.011200512759387493
1772364957842445000,2.823445068359375,0.023086875677108765,-0.04010668024420738,0.011468358337879181
1772364957852516000,2.83351611328125,0.01861516200006008,-0.04116102680563927,-0.0054666828364133835
1772364957862586400,2.84358642578125,0.01125178299844265,-0.032358843833208084,-0.031724851578474045
1772364957872656100,2.85365625,-0.001497034914791584,-0.03330506384372711,-0.045684609562158585
1772364957882727200,2.86372705078125,-0.005762937478721142,-0.026332126930356026,-0.04994263872504234
1772364957892797200,2.873797119140625,-0.00022329669445753098,-0.05199514701962471,-0.04963184893131256
1772364957902868200,2.8838681640625,0.00798818375915289,-0.07076322287321091,-0.04358507692813873
1772364957912938200,2.893938232421875,0.009036137722432613,-0.0812787190079689,-0.03281605616211891
1772364957923009300,2.90400927734375,0.005774625111371279,-0.07267695665359497,-0.02364053577184677
1772364957933079300,2.914079345703125,0.003045950550585985,-0.047318074852228165,-0.027863243594765663
1772364957943149000,2.924149169921875,0.0024425825104117393,-0.029952069744467735,-0.03434725105762482
1772364957953220000,2.93422021484375,0.003944605588912964,-0.021114103496074677,-0.038238126784563065
1772364957963290000,2.9442900390625,0.010090061463415623,-0.010458622127771378,-0.03476501628756523
1772364957973361200,2.954361083984375,0.009550238028168678,-0.008288145996630192,-0.032270967960357666
1772364957983431200,2.96443115234375,0.016198817640542984,-0.014379086904227734,-0.02667185291647911
1772364957993502200,2.974502197265625,0.015484558418393135,-0.018039334565401077,-0.029935292899608612
1772364958003572200,2.984572265625,0.014439374208450317,-0.00929659977555275,-0.03322447091341019
1772364958013642000,2.99464208984375,0.01277463324368,0.0026607271283864975,-0.03427961468696594
1772364958023713000,3.004713134765625,0.011884074658155441,0.010109396651387215,-0.03098474070429802
1772364958033783300,3.014783203125,0.012010308913886547,0.011413546279072762,-0.028023304417729378
1772364958043854300,3.024854248046875,0.0071373600512743,0.01894550956785679,-0.021253123879432678
1772364958053924000,3.034924072265625,-0.006136101670563221,0.0293121300637722,-0.009506452828645706
1772364958063995100,3.0449951171875,-0.013955408707261086,0.033659182488918304,-0.0022007860243320465
1772364958074065200,3.055065185546875,-0.024058908224105835,0.03428901731967926,0.010427657514810562
1772364958084135200,3.06513525390625,-0.025891751050949097,0.032772310078144073,0.02289196476340294
1772364958094206200,3.075206298828125,-0.02741454541683197,0.03269907087087631,0.0333656445145607
1772364958104276200,3.085276123046875,-0.023837175220251083,0.03969113156199455,0.04135459288954735
1772364958114347300,3.09534716796875,-0.023972198367118835,0.046273134648799896,0.051009614020586014
1772364958124417000,3.1054169921875,-0.019001837819814682,0.05117468163371086,0.0484376922249794
1772364958134488000,3.115488037109375,-0.005282296799123287,0.04718899354338646,0.04079894721508026
1772364958144558000,3.12555810546875,-0.010142670013010502,0.03828439489006996,0.0369805172085762
1772364958154628400,3.13562841796875,-0.004668809473514557,0.06535995006561279,0.05193869397044182
1772364958164699100,3.14569921875,-0.005983450450003147,0.0817900076508522,0.05291474610567093
1772364958174769200,3.15576904296875,-0.0025285305455327034,0.057305168360471725,0.03839679807424545
1772364958184840200,3.165840087890625,-0.003280607983469963,0.04005749523639679,0.02979736588895321
1772364958194910200,3.17591015625,-0.0004925448447465897,0.042679909616708755,0.025788506492972374
1772364958204981000,3.18598095703125,-0.0033831950277090073,0.03728821873664856,0.013408968225121498
1772364958215051300,3.19605126953125,-0.0030300598591566086,0.017581358551979065,-0.0028791921213269234
1772364958225121300,3.206121337890625,-0.005862437188625336,0.008533450774848461,-0.007775320205837488
1772364958235192000,3.216192138671875,-0.007826518267393112,0.01643584854900837,-0.002252723090350628
1772364958245262000,3.226261962890625,-0.006650308147072792,0.014883351512253284,0.008620426058769226
1772364958255333000,3.2363330078125,-0.010859433561563492,-0.0024362504482269287,0.0183327067643404
1772364958265403400,3.2464033203125,-0.009662555530667305,-0.023652520030736923,0.025722716003656387
1772364958275473200,3.25647314453125,-0.004877653904259205,-0.03278849273920059,0.032271161675453186
1772364958285544200,3.266544189453125,-0.006851004436612129,-0.03973746672272682,0.02809017151594162
1772364958295614200,3.2766142578125,-0.003643493168056011,-0.02769411914050579,0.020040765404701233
1772364958305685200,3.286685302734375,0.0026223394088447094,-0.015959741547703743,0.005051609128713608
1772364958315755000,3.296755126953125,0.00965308491140604,-0.004080178216099739,-0.011373437009751797
1772364958325822700,3.30682275390625,0.015330038964748383,0.0063074263744056225,-0.03119054064154625
1772364958335893000,3.31689306640625,0.019255539402365685,-0.0029212257359176874,-0.05608204007148743
1772364958345963000,3.326962890625,0.030074629932641983,-0.02030027285218239,-0.0796644315123558
1772364958356033800,3.33703369140625,0.03181234002113342,-0.03006608411669731,-0.09500903636217117
1772364958366103800,3.347103759765625,0.025538787245750427,-0.025586046278476715,-0.09571849554777145
1772364958376174800,3.3571748046875,0.019870780408382416,-0.007902654819190502,-0.07641644030809402
1772364958386244900,3.367244873046875,0.01876375824213028,0.0016279816627502441,-0.047009825706481934
1772364958396316000,3.37731591796875,0.02026764303445816,-0.0059218136593699455,-0.009386816993355751
1772364958406386000,3.387385986328125,0.017473777756094933,-0.024804266169667244,0.030088704079389572
1772364958416456000,3.3974560546875,0.019649315625429153,-0.03800236061215401,0.06158990412950516
1772364958426526700,3.407526611328125,0.02247050404548645,-0.03817227482795715,0.0709976777434349
1772364958436597000,3.417596923828125,0.019055265933275223,-0.024145405739545822,0.06029549986124039
1772364958446668000,3.42766796875,0.016170531511306763,-0.0010704156011343002,0.039011966437101364
1772364958456738000,3.437738037109375,0.017067216336727142,0.014088296331465244,0.018659554421901703
1772364958466807800,3.447807861328125,0.02345971204340458,0.02902909368276596,0.010989491827785969
1772364958476878800,3.45787890625,0.0342567004263401,0.042178720235824585,0.023885048925876617
1772364958486948900,3.467948974609375,0.03954844921827316,0.03599422052502632,0.03205932676792145
1772364958497019600,3.47801953125,0.04295063763856888,0.024780714884400368,0.03733158856630325
1772364958507090000,3.48808984375,0.05071796476840973,0.015262095257639885,0.022534728050231934
1772364958517160000,3.498159912109375,0.04944363981485367,0.023091521114110947,0.0064518991857767105
1772364958527231000,3.50823095703125,0.04137415438890457,0.034409575164318085,-0.009251520037651062
1772364958537300700,3.51830078125,0.03988092020153999,0.03673984110355377,-0.018108127638697624
1772364958547371800,3.528371826171875,0.04577513411641121,0.030825220048427582,-0.01643284223973751
1772364958557442000,3.538442138671875,0.04017184302210808,0.021887117996811867,-0.008089691400527954
1772364958567513000,3.54851318359375,0.035048291087150574,0.008149282075464725,-0.00020496360957622528
1772364958577582800,3.558582763671875,0.03333108499646187,-0.006625403184443712,-0.0005714148283004761
1772364958587652900,3.56865283203125,0.03350036218762398,-0.005384328309446573,0.0065131522715091705
1772364958597724000,3.578723876953125,0.03049418330192566,0.006597766187041998,0.012213381007313728
1772364958607794000,3.5887939453125,0.030337374657392502,0.011824231594800949,0.016052765771746635
1772364958617865000,3.598864990234375,0.029864400625228882,0.0058515602722764015,0.01451772078871727
1772364958627935000,3.60893505859375,0.034315552562475204,-0.009565786458551884,0.014529617503285408
1772364958638004700,3.619004638671875,0.029911484569311142,-0.015942726284265518,0.013210820034146309
1772364958648075800,3.62907568359375,0.027156496420502663,-0.013556789606809616,0.012148122303187847
1772364958658145800,3.639145751953125,0.020442400127649307,-0.0013094437308609486,0.008391733281314373
1772364958668216800,3.649216796875,0.017097361385822296,0.02441887930035591,0.008140490390360355
1772364958678286800,3.659286865234375,0.011207514442503452,0.04097415506839752,0.012430042959749699
1772364958688356900,3.66935693359375,0.0100648058578372,0.035961657762527466,0.017877725884318352
1772364958698428000,3.679427978515625,0.009442958049476147,0.02135794796049595,0.02876712568104267
1772364958708498000,3.689497802734375,0.006432414520531893,0.009090814739465714,0.03138590604066849
1772364958718568700,3.699568603515625,0.0004533519968390465,0.0044249556958675385,0.03710637614130974
1772364958728639000,3.709638916015625,-0.00404233206063509,0.008944275788962841,0.049651630222797394
1772364958738709000,3.719708984375,-0.010449099354445934,0.022671006619930267,0.05617744103074074
1772364958748779800,3.72977978515625,-0.01480571087449789,0.03254517912864685,0.06578610837459564
1772364958758849800,3.739849853515625,-0.017099492251873016,0.02989586628973484,0.07442700862884521
1772364958768920800,3.7499208984375,-0.008131292648613453,0.02354765124619007,0.07537849247455597
1772364958778991000,3.7599912109375,0.0059584276750683784,0.025549815967679024,0.06680311262607574
1772364958789062000,3.770061767578125,0.02837558276951313,0.027907950803637505,0.046928200870752335
1772364958799132000,3.7801318359375,0.03888734430074692,-0.006946435198187828,0.009143535979092121
1772364958809202000,3.790201904296875,0.04215819016098976,0.004414600320160389,0.014444123022258282
1772364958819273000,3.80027294921875,0.05185289308428764,0.04326426237821579,0.010913037694990635
1772364958829342700,3.8103427734375,0.05019539222121239,0.05451519042253494,-0.0020179711282253265
1772364958839413800,3.820413818359375,0.044156141579151154,0.04276985675096512,-0.011017590761184692
1772364958849484000,3.830484130859375,0.04389515146613121,0.026825876906514168,-0.013657299801707268
1772364958859553800,3.8405537109375,0.045258957892656326,0.010105486959218979,-0.017081325873732567
1772364958869624800,3.850624755859375,0.04330025613307953,-0.005448866635560989,-0.02168867364525795
1772364958879694800,3.86069482421875,0.04240969568490982,-0.009233751334249973,-0.010009647347033024
1772364958889766000,3.870765869140625,0.04143508896231651,-0.008275168016552925,-0.00014174729585647583
1772364958899836000,3.8808359375,0.036816634237766266,-0.020731303840875626,0.002048702910542488
1772364958909906000,3.890906005859375,0.03735986351966858,-0.0403897687792778,-0.004624117165803909
1772364958919977000,3.90097705078125,0.03280878812074661,-0.05162644386291504,-0.0017995685338974
1772364958930046700,3.911046630859375,0.025813564658164978,-0.038554903119802475,0.000726679340004921
1772364958940117800,3.92111767578125,0.02035994455218315,-0.024837227538228035,0.002990633249282837
1772364958950188000,3.93118798828125,0.01714913547039032,-0.027160512283444405,0.005460740067064762
1772364958960257800,3.9412578125,0.018485775217413902,-0.02869635820388794,0.00936014112085104
1772364958970328800,3.951328857421875,0.01592237316071987,-0.02734961360692978,0.01017140131443739
1772364958980398800,3.96139892578125,0.010516955517232418,-0.023908011615276337,0.0065907808020710945
1772364958990470000,3.971469970703125,0.0081029599532485,-0.020384958013892174,0.00018934998661279678
1772364959000540000,3.981539794921875,0.0022735665552318096,-0.008181022480130196,-0.005208344664424658
1772364959010609000,3.99160888671875,0.004039457533508539,0.0028104023076593876,0.0008373111486434937
1772364959020679000,4.001678955078125,0.002717197872698307,0.009940749034285545,0.006793203763663769
1772364959030749700,4.011749755859375,0.01162515114992857,0.012347375974059105,0.024961818009614944
1772364959040820000,4.021820068359375,0.017275046557188034,0.010759333148598671,0.04887780174612999
1772364959050890000,4.031889892578125,0.023062467575073242,0.0029749232344329357,0.06903401017189026
1772364959060960800,4.041960693359375,0.025416968390345573,-0.008403964340686798,0.07467032223939896
1772364959071030800,4.05203076171875,0.022511355578899384,-0.0278650913387537,0.062321875244379044
1772364959081101800,4.062101806640625,0.01850995421409607,-0.020272953435778618,0.023981407284736633
1772364959091172000,4.072172119140625,0.02124805748462677,0.0024298769421875477,-0.012515958398580551
1772364959101241900,4.082241943359375,0.023993244394659996,0.03432203084230423,-0.03355652838945389
1772364959111313000,4.09231298828125,0.02294960431754589,0.06016725301742554,-0.03878422826528549
1772364959121383000,4.1023828125,0.0354723185300827,0.04271715506911278,-0.03622918948531151
1772364959131454000,4.112453857421875,0.036980096250772476,0.002611431758850813,-0.030522925779223442
1772364959141523700,4.122523681640625,0.0385550893843174,-0.014918293803930283,-0.03238154575228691
1772364959151594000,4.132593994140625,0.03383207693696022,-0.011765670031309128,-0.04196663945913315
1772364959161665000,4.1426650390625,0.03051884099841118,-0.01790585368871689,-0.05600415915250778
1772364959171734800,4.15273486328125,0.01842057891190052,-0.01608182303607464,-0.06470655649900436
1772364959181805800,4.162805908203125,0.011336037889122963,-0.0040054526180028915,-0.0673082023859024
1772364959191875800,4.172875732421875,0.0005416097119450569,-0.0015808609314262867,-0.045455873012542725
1772364959201945900,4.18294580078125,-0.002344457432627678,-0.0184935312718153,-0.028302185237407684
1772364959212017000,4.193016845703125,-0.0156560055911541,-0.02220827154815197,-0.009961910545825958
1772364959222087000,4.2030869140625,-0.01920493319630623,-0.021327298134565353,-0.0005638813599944115
1772364959232157000,4.213156982421875,-0.021800238639116287,-0.016706708818674088,0.006240907125174999
1772364959242227700,4.223227783203125,-0.019129889085888863,-0.010988369584083557,0.013676452450454235
1772364959252298000,4.233298095703125,-0.021358631551265717,-0.012078514322638512,0.016671013087034225
1772364959262369000,4.243369140625,-0.027786705642938614,-0.009309625253081322,0.011302082799375057
1772364959272438800,4.253438720703125,-0.026038389652967453,-0.003939026966691017,0.0010211458429694176
1772364959282508800,4.2635087890625,-0.019691012799739838,-0.002750457962974906,-0.0031075533479452133
1772364959292579800,4.273579833984375,-0.020845601335167885,0.003338179085403681,-0.010006744414567947
1772364959302649900,4.28364990234375,-0.016811978071928024,0.01842711679637432,-0.023057298734784126
1772364959312721000,4.293720947265625,-0.012049498036503792,0.0396544374525547,-0.022442977875471115
1772364959322791000,4.303791015625,-0.009619362652301788,0.05395534634590149,-0.022435788065195084
1772364959332860700,4.313860595703125,-0.005835226736962795,0.039535898715257645,-0.021336980164051056
1772364959342931700,4.323931640625,-0.0003954535350203514,0.019305197522044182,-0.01564447395503521
1772364959353001700,4.334001708984375,-0.0025390861555933952,0.003810741938650608,-0.012907030992209911
1772364959363072800,4.34407275390625,-0.010259058326482773,-0.006585173774510622,-0.013605844229459763
1772364959373142800,4.354142822265625,-0.013971664011478424,-0.007295363582670689,-0.015133793465793133
1772364959383212800,4.364212890625,-0.021672993898391724,-0.009741210378706455,-0.01731119304895401
1772364959393283800,4.374283935546875,-0.01798003911972046,-0.015354126691818237,-0.020793896168470383
1772364959403353600,4.384353515625,-0.017475105822086334,-0.024978790432214737,-0.018086260184645653
1772364959413424600,4.394424560546875,-0.01883518137037754,-0.020200738683342934,-0.012529741041362286
1772364959423495000,4.404494873046875,-0.020059170201420784,-0.015318898484110832,-0.008102502673864365
1772364959433564700,4.414564697265625,-0.020157653838396072,-0.013864470645785332,-0.001938079483807087
1772364959443635700,4.4246357421875,-0.0212990865111351,-0.011530476622283459,0.009582756087183952
1772364959453705700,4.434705810546875,-0.02532365545630455,-0.0070089977234601974,0.030101696029305458
1772364959463776800,4.44477685546875,-0.02651461958885193,-0.0003023594617843628,0.049951568245887756
1772364959473846800,4.4548466796875,-0.03159923478960991,-0.0049978927709162235,0.06243264302611351
1772364959483916800,4.464916748046875,-0.034345485270023346,-0.01819758489727974,0.07333590090274811
1772364959493987800,4.47498779296875,-0.04196404293179512,-0.04141426086425781,0.07688792794942856
1772364959504057600,4.4850576171875,-0.054885171353816986,-0.042157817631959915,0.06969153881072998
1772364959514127600,4.495127685546875,-0.06328914314508438,-0.044412337243556976,0.05533655732870102
1772364959524198700,4.50519873046875,-0.06904210150241852,-0.03996938467025757,0.04047825187444687
1772364959534269000,4.51526904296875,-0.0713447853922844,-0.030554156750440598,0.02268798276782036
1772364959544339700,4.525339599609375,-0.06797615438699722,-0.028316834941506386,0.0060831718146800995
1772364959554409700,4.53540966796875,-0.058361176401376724,-0.016298294067382812,0.011297385208308697
1772364959564479700,4.545479736328125,-0.04341764748096466,-0.024625733494758606,0.005737769417464733
1772364959574550800,4.55555078125,-0.02992676943540573,-0.051070161163806915,0.006721164099872112
1772364959584620800,4.565620849609375,-0.023754362016916275,-0.04829035699367523,0.02177974209189415
1772364959594691800,4.57569189453125,-0.014723260886967182,-0.03289926052093506,0.03530071675777435
1772364959604763600,4.585763671875,-0.017098266631364822,-0.005447661969810724,0.028134416788816452
1772364959614834700,4.595834716796875,-0.012034480459988117,-0.00442383112385869,0.01925775408744812
1772364959624905000,4.605905029296875,-0.015294722281396389,-0.03533593937754631,0.0021480079740285873
1772364959634975700,4.615975830078125,-0.017224129289388657,-0.0238377396017313,-0.009450686164200306
1772364959645045800,4.626045654296875,-0.02037171833217144,0.010735150426626205,-0.0179874487221241
1772364959655115800,4.63611572265625,-0.018028030171990395,0.03255557268857956,-0.009933611378073692
1772364959665186600,4.6461865234375,-0.015153948217630386,0.028505170717835426,0.007293844595551491
1772364959675256800,4.6562568359375,-0.01765870302915573,0.012165608815848827,0.02782478556036949
1772364959685328000,4.666327880859375,-0.021527480334043503,-0.0008657700382173061,0.04774469509720802
1772364959695398000,4.67639794921875,-0.023925337940454483,-0.013443690724670887,0.05306203290820122
1772364959705467600,4.686467529296875,-0.02401082217693329,-0.01704827882349491,0.041369952261447906
1772364959715538700,4.69653857421875,-0.026674995198845863,-0.004935233388096094,0.012356700375676155
1772364959725608700,4.706608642578125,-0.024103714153170586,0.021795978769659996,-0.024343257769942284
1772364959735678700,4.7166787109375,-0.01624472439289093,0.04928535968065262,-0.048146240413188934
1772364959745749800,4.726749755859375,-0.006147616542875767,0.06277266889810562,-0.047013066709041595
1772364959755819800,4.73681982421875,0.0033538504503667355,0.0739641860127449,-0.02726004272699356
1772364959765890800,4.746890869140625,0.012316452339291573,0.05229058116674423,0.004694960080087185
1772364959775960600,4.756960693359375,0.018167469650506973,0.02198784425854683,0.029148723930120468
1772364959786030800,4.76703076171875,0.017686504870653152,0.0049329595640301704,0.03491712734103203
1772364959796102000,4.777101806640625,0.010390239767730236,-0.0022516069002449512,0.03268599882721901
1772364959806171600,4.787171630859375,0.001605004072189331,-0.020474553108215332,0.032295312732458115
1772364959816242700,4.79724267578125,-0.018756140023469925,0.01395734678953886,0.02560955286026001
1772364959826312700,4.807312744140625,-0.022056858986616135,0.06338082253932953,0.023838017135858536
1772364959836383000,4.817383056640625,-0.015840988606214523,0.024911610409617424,0.0034247245639562607
1772364959846453800,4.827453857421875,-0.0037483740597963333,-0.043494343757629395,0.016494719311594963
1772364959856523800,4.837523681640625,-0.01343583595007658,-0.05260627716779709,0.027709826827049255
1772364959866594800,4.8475947265625,-0.02815299481153488,-0.027466831728816032,0.03933985158801079
1772364959876664600,4.85766455078125,-0.03208009526133537,-0.011867402121424675,0.04310671240091324
1772364959886734800,4.86773486328125,-0.030594583600759506,-0.010426633059978485,0.03780701756477356
1772364959896806000,4.877805908203125,-0.03958498686552048,-0.012346507981419563,0.026010524481534958
1772364959906876000,4.8878759765625,-0.05102859064936638,0.010878121480345726,0.025257382541894913
1772364959916945700,4.897945556640625,-0.03378957509994507,0.0027007274329662323,0.020682379603385925
1772364959927016700,4.9080166015625,-0.028338085860013962,-0.019056767225265503,0.0111099136993289
1772364959937086700,4.918086669921875,-0.03757515177130699,-0.021493054926395416,0.007148615084588528
1772364959947157800,4.92815771484375,-0.041258569806814194,0.0015858989208936691,0.00975078996270895
1772364959957227800,4.938227783203125,-0.02506127581000328,-0.006940213497728109,-0.0030373455956578255
1772364959967297800,4.9482978515625,-0.015023824758827686,-0.03860732913017273,-0.010712842456996441
1772364959977368800,4.958368896484375,-0.017543282359838486,-0.05811692774295807,-0.009091150015592575
1772364959987438600,4.9684384765625,-0.019112948328256607,-0.04265434667468071,-0.011129266582429409
1772364959997509600,4.978509521484375,-0.019603343680500984,-0.03899946063756943,-0.017590569332242012
1772364960007580000,4.988579833984375,-0.02108379639685154,-0.03894353285431862,-0.019040394574403763
1772364960017649700,4.998649658203125,-0.01689394935965538,-0.034611329436302185,-0.021661899983882904
1772364960027720700,5.008720703125,-0.015900056809186935,-0.029069826006889343,-0.011012719012796879
1772364960037790700,5.018790771484375,-0.012924776412546635,-0.014081709086894989,0.0037684235721826553
1772364960047861800,5.02886181640625,-0.008123629726469517,0.006409983616322279,0.02041690982878208
1772364960057931800,5.038931884765625,0.0020632296800613403,0.04117526859045029,0.023194072768092155
1772364960068001800,5.049001708984375,0.014717239886522293,0.030099717900156975,0.005147693678736687
1772364960078072800,5.05907275390625,0.01860870234668255,0.015548698604106903,-0.002279876731336117
1772364960088142800,5.069142822265625,0.029586784541606903,0.009479088708758354,0.007827351801097393
1772364960098213600,5.079213623046875,0.03137717768549919,0.014430354349315166,0.008371916599571705
1772364960108283600,5.08928369140625,0.02571343258023262,0.017413094639778137,-0.0030919257551431656
1772364960118354000,5.09935400390625,0.023052506148815155,0.014980228617787361,-0.007522656116634607
1772364960128424700,5.1094248046875,0.017649484798312187,0.020139571279287338,0.005873044021427631
1772364960138494700,5.11949462890625,0.01936919428408146,0.012641170993447304,0.0005073798820376396
1772364960148564700,5.129564697265625,0.022472843527793884,-0.0014703867491334677,-0.008638447150588036
1772364960158635800,5.1396357421875,0.020031895488500595,-0.01949199289083481,-0.003925159573554993
1772364960168705800,5.149705810546875,0.018755177035927773,-0.02528783120214939,-0.00020552240312099457
1772364960178776800,5.15977685546875,0.020196959376335144,-0.03186564892530441,-0.006692987866699696
1772364960188846800,5.169846923828125,0.01406210195273161,-0.029997708275914192,-0.007033339701592922
1772364960198916600,5.17991650390625,0.008640704676508904,-0.019128549844026566,-0.010524744167923927
1772364960208987600,5.189987548828125,0.01141465362161398,-0.04037737846374512,-0.030239859595894814
1772364960219058000,5.200057861328125,0.007100759539753199,-0.07194063067436218,-0.03676893562078476
1772364960229129000,5.21012890625,-0.0008341288194060326,-0.08511688560247421,-0.04569665342569351
1772364960239198700,5.22019873046875,-0.004747060127556324,-0.08204729855060577,-0.054395467042922974
1772364960249268700,5.230268798828125,-0.005732962861657143,-0.07266178727149963,-0.07249137759208679
1772364960259339800,5.24033984375,-0.011786061339080334,-0.06678029894828796,-0.08307937532663345
1772364960269409500,5.250409423828125,-0.013407659716904163,-0.04888785257935524,-0.08019011467695236
1772364960279479800,5.260479736328125,-0.01498505100607872,-0.025423577055335045,-0.06185629218816757
1772364960289550800,5.27055078125,-0.011523474007844925,-0.014655617997050285,-0.028101526200771332
1772364960299620900,5.280620849609375,-0.015194054692983627,-0.015837224200367928,0.021029885858297348
1772364960309691600,5.290691650390625,-0.021965140476822853,-0.026339666917920113,0.06535181403160095
1772364960319761400,5.300761474609375,-0.03160940855741501,-0.023199114948511124,0.08105701208114624
1772364960329831700,5.310831787109375,-0.028448235243558884,-0.004333547782152891,0.10215084254741669
1772364960339902500,5.32090234375,-0.024042246863245964,-0.0014886825811117887,0.07883620262145996
1772364960349972500,5.330972412109375,-0.009745333343744278,0.0032599996775388718,0.028438810259103775
1772364960360042500,5.34104248046875,0.00919384229928255,0.009179405868053436,0.014185111969709396
1772364960370113500,5.351113525390625,0.011918256059288979,0.03568771108984947,0.0196299459785223
1772364960380183600,5.36118359375,0.005922095384448767,0.045427918434143066,0.014828710816800594
1772364960390254600,5.371254638671875,0.003143352922052145,0.040617719292640686,0.00156377162784338
1772364960400324600,5.38132470703125,0.003966429270803928,0.015622157603502274,0.016243724152445793
1772364960410394400,5.391394287109375,0.010351357981562614,-0.00038850074633955956,0.008032133802771568
1772364960420465400,5.40146533203125,0.013246588408946991,-0.0253582913428545,-0.013939985074102879
1772364960430535700,5.41153564453125,-0.0007097078487277031,-0.02685418911278248,-0.031707264482975006
1772364960440606700,5.421606689453125,0.002093162387609482,-0.02224068157374859,-0.04502813518047333
1772364960450676500,5.431676513671875,-0.0021151648834347725,-0.02266412414610386,-0.048179991543293
1772364960460746500,5.44174658203125,0.0001471368595957756,-0.032731253653764725,-0.04803317040205002
1772364960470817500,5.451817626953125,-0.0034697018563747406,-0.04950464516878128,-0.033383652567863464
1772364960480887300,5.46188720703125,-0.005584625527262688,-0.0465756319463253,-0.026115544140338898
1772364960490957600,5.47195751953125,-0.0070309871807694435,-0.03508169576525688,-0.018332188948988914
1772364960501028600,5.482028564453125,-0.0010152794420719147,-0.02654442936182022,-0.010045485571026802
1772364960511098600,5.4920986328125,0.0038511143065989017,-0.022557677701115608,-0.0057431492023169994
1772364960521169400,5.50216943359375,0.007224913686513901,-0.015053799375891685,-0.00523581076413393
1772364960531239400,5.512239501953125,0.010361052118241787,-0.0060009160079061985,-0.000499112531542778
1772364960541309700,5.522309814453125,0.015492163598537445,-0.0038928817957639694,-0.005104800686240196
1772364960551380500,5.53238037109375,0.004558822605758905,-0.004246283322572708,-0.012121430598199368
1772364960561450500,5.542450439453125,0.005546642933040857,0.013631637208163738,-0.019147993996739388
1772364960571520500,5.5525205078125,0.007382626179605722,0.01105050090700388,-0.023486550897359848
1772364960581591600,5.562591552734375,0.0015498772263526917,0.0004959763027727604,-0.02604256197810173
1772364960591661600,5.57266162109375,-0.0006419047713279724,-0.02094886265695095,-0.03372418135404587
1772364960601732600,5.582732666015625,0.0013995682820677757,-0.02679838426411152,-0.04234723746776581
1772364960611802600,5.592802734375,0.0028296862728893757,-0.015561443753540516,-0.05090450868010521
1772364960621872400,5.602872314453125,-0.0012980541214346886,-0.006345115136355162,-0.05971308425068855
1772364960631943400,5.612943359375,0.0012977290898561478,-0.0014598122797906399,-0.06240900233387947
1772364960642013400,5.623013427734375,0.009785649366676807,-0.0014369424898177385,-0.061807919293642044
1772364960652083500,5.63308349609375,0.01199394278228283,0.00834378320723772,-0.05285916477441788
1772364960662154500,5.643154541015625,0.019108310341835022,0.02388932928442955,-0.041030220687389374
1772364960672224500,5.653224609375,0.025159278884530067,0.02334924042224884,-0.02594980224967003
1772364960682295600,5.663295654296875,0.02544301189482212,0.02558659017086029,-0.014481178484857082
1772364960692365300,5.673365234375,0.02815331146121025,0.02517007291316986,-0.00929200928658247
1772364960702435600,5.683435546875,0.030289005488157272,0.031033487990498543,-0.013659135438501835
1772364960712506600,5.693506591796875,0.03630135953426361,0.032917678356170654,-0.016380086541175842
1772364960722576600,5.70357666015625,0.04464893043041229,0.04066713526844978,-0.021041058003902435
1772364960732647400,5.7136474609375,0.04762661084532738,0.043501805514097214,-0.028616420924663544
1772364960742717400,5.723717529296875,0.0470503568649292,0.04159661382436752,-0.032136231660842896
1772364960752787700,5.73378759765625,0.05624678358435631,0.0344843752682209,-0.033953841775655746
1772364960762858500,5.7438583984375,0.057443879544734955,0.04283955320715904,-0.04156976565718651
1772364960772928500,5.753928466796875,0.0635979101061821,0.059294428676366806,-0.039975862950086594
1772364960782998500,5.76399853515625,0.07209381461143494,0.03613949939608574,-0.0321255698800087
1772364960793069600,5.774069580078125,0.07429599016904831,0.017145833000540733,-0.023259907960891724
1772364960803139300,5.784139404296875,0.07470643520355225,0.0065282550640404224,-0.007717365399003029
1772364960813209600,5.794209716796875,0.07987163960933685,-0.0009256666526198387,0.004572590813040733
1772364960823280600,5.80428076171875,0.07208657264709473,-0.0077642472460865974,0.010926269926130772
1772364960833350400,5.814350341796875,0.06164778396487236,-0.01857881247997284,0.00917044747620821
1772364960843421400,5.82442138671875,0.05723561346530914,-0.02610817179083824,-0.007041451055556536
1772364960853491500,5.834491455078125,0.05855387821793556,-0.051831912249326706,-0.015445321798324585
1772364960863561500,5.8445615234375,0.04723421856760979,-0.05508094280958176,-0.043928373605012894
1772364960873632500,5.854632568359375,0.03751474991440773,-0.023779742419719696,-0.06562674045562744
1772364960883702500,5.86470263671875,0.028555981814861298,-0.018021296709775925,-0.08900423347949982
1772364960893773600,5.874773681640625,0.03309027850627899,-0.031017523258924484,-0.11879168450832367
1772364960903843300,5.88484326171875,0.010555462911725044,-0.0202424768358469,-0.11402905732393265
1772364960913913600,5.89491357421875,-0.013436688110232353,-0.006710422690957785,-0.08444506675004959
1772364960923984600,5.904984619140625,-0.028594069182872772,-0.005432863719761372,-0.04190194606781006
1772364960934054700,5.9150546875,-0.037215255200862885,-0.02730380743741989,0.00686133187264204
1772364960944124400,5.92512451171875,-0.03508856147527695,-0.04806703329086304,0.050234101712703705
1772364960954195500,5.935195556640625,-0.0343942753970623,-0.0469953790307045,0.07799329608678818
1772364960964265500,5.945265380859375,-0.03443332016468048,-0.03200547769665718,0.08607464283704758
1772364960974335500,5.95533544921875,-0.030853498727083206,-0.014041123911738396,0.07913631200790405
1772364960984406500,5.965406494140625,-0.029376983642578125,0.0014773933216929436,0.06198194622993469
1772364960994476500,5.9754765625,-0.056881844997406006,-0.04280698299407959,0.028044218197464943
1772364961004547600,5.985547607421875,-0.013978640548884869,-0.040250156074762344,0.03265707939863205
1772364961014617300,5.995617431640625,-0.030045758932828903,0.02132798731327057,0.029427194967865944
1772364961024687600,6.0056875,-0.03939158841967583,0.0005960003472864628,0.04153728857636452
1772364961034758700,6.015758544921875,-0.017117710784077644,-0.009768756106495857,0.05234013497829437
1772364961044828400,6.025828369140625,-0.040060680359601974,0.0418926440179348,0.048440009355545044
1772364961054898400,6.0358984375,-0.03866651654243469,0.07334776967763901,0.039965830743312836
1772364961064969500,6.045969482421875,-0.04140947014093399,0.04312698543071747,0.027671722695231438
1772364961075039700,6.056039794921875,-0.043710969388484955,0.03581554442644119,0.03214503824710846
1772364961085110500,6.066110595703125,-0.04273790493607521,0.011097910813987255,0.03192657232284546
1772364961095180500,6.0761806640625,-0.05313755199313164,-0.01428893767297268,0.055726971477270126
1772364961105250600,6.08625048828125,-0.062133919447660446,-0.03296968340873718,0.07927002012729645
1772364961115321300,6.0963212890625,-0.06778807938098907,-0.05716023966670036,0.09853319823741913
1772364961125391400,6.106391357421875,-0.0705638900399208,-0.06831777840852737,0.11402019113302231
1772364961135462400,6.11646240234375,-0.06920222193002701,-0.06737182289361954,0.11685992032289505
1772364961145532700,6.12653271484375,-0.05678299069404602,-0.06369995325803757,0.10284154862165451
1772364961155602400,6.1366025390625,-0.053552575409412384,-0.05859360471367836,0.0774616226553917
1772364961165673500,6.146673583984375,-0.047830671072006226,-0.057751890271902084,0.054803721606731415
1772364961175743500,6.156743408203125,-0.044280409812927246,-0.053964342921972275,0.03093860112130642
1772364961185813500,6.1668134765625,-0.04598957300186157,-0.05212969705462456,0.003724459558725357
1772364961195884500,6.176884521484375,-0.04318606108427048,-0.04719033092260361,-0.013115240260958672
1772364961205954600,6.18695458984375,-0.04129532724618912,-0.024587005376815796,-0.028948603197932243
1772364961216025600,6.197025634765625,-0.040560293942689896,-0.0006944565102458,-0.02747827209532261
1772364961226095400,6.207095458984375,-0.03759736567735672,0.0063865878619253635,-0.025256119668483734
1772364961236165600,6.21716552734375,-0.033700890839099884,-0.002289724303409457,-0.013357914984226227
1772364961246236700,6.227236572265625,-0.02820785716176033,-0.0028674860950559378,-0.003317016176879406
1772364961256306400,6.237306396484375,-0.024501800537109375,0.0031315507367253304,0.007352939806878567
1772364961266376400,6.24737646484375,-0.02736278623342514,0.004367683082818985,0.01800675317645073
1772364961276447500,6.257447509765625,-0.030654985457658768,0.004387923516333103,0.027057770639657974
1772364961286517500,6.267517578125,-0.03935153782367706,0.002207648940384388,0.034103043377399445
1772364961296588500,6.277588623046875,-0.04101388156414032,-0.007339517120271921,0.039339616894721985
1772364961306658600,6.287658447265625,-0.04273572191596031,-0.010880441404879093,0.04407864063978195
1772364961316728600,6.297728515625,-0.03976283594965935,-0.008015412837266922,0.044157736003398895
1772364961326800000,6.3077998046875,-0.034321144223213196,-0.007615514099597931,0.039658963680267334
1772364961336870000,6.317869873046875,-0.026795851066708565,-0.004073243588209152,0.024091720581054688
1772364961346941000,6.32794091796875,-0.021930202841758728,0.0016778083518147469,0.007668260484933853
1772364961357011000,6.338010986328125,-0.017111744731664658,0.003752144519239664,-0.008860116824507713
1772364961367081000,6.3480810546875,-0.011541049927473068,0.013783891685307026,-0.019431624561548233
1772364961377152000,6.358152099609375,-0.011632131412625313,0.023966755717992783,-0.025476733222603798
1772364961387221800,6.3682216796875,-0.012434541247785091,0.021990114822983742,-0.024418843910098076
1772364961397291800,6.378291748046875,-0.011468346230685711,0.016103995963931084,-0.017673855647444725
1772364961407362800,6.38836279296875,-0.006423573940992355,0.009188836440443993,-0.001033262349665165
1772364961417432800,6.398432861328125,-0.005429415963590145,0.00015779165551066399,0.01888212189078331
1772364961427503900,6.40850390625,-0.002130771055817604,0.01954071782529354,0.030740179121494293
1772364961437574000,6.418573974609375,-0.0007776189595460892,0.020895734429359436,0.041109465062618256
1772364961447644000,6.428643798828125,0.0054605696350336075,0.01135672815144062,0.046363819390535355
1772364961457714700,6.438714599609375,0.006054454483091831,0.027762867510318756,0.05741726979613304
1772364961467785000,6.448784912109375,0.005354576278477907,0.03970246762037277,0.055896349251270294
1772364961477855000,6.45885498046875,0.008600437082350254,0.029184311628341675,0.050613969564437866
1772364961487925800,6.46892578125,0.009295680560171604,0.033780038356781006,0.04539698362350464
1772364961497995800,6.478995849609375,0.01303289458155632,0.04084114357829094,0.029981005936861038
1772364961508066800,6.48906689453125,0.017042391002178192,0.06307696551084518,0.012247806414961815
1772364961518137000,6.49913720703125,0.02901037037372589,0.06748849153518677,0.0006172489374876022
1772364961528206800,6.509206787109375,0.027257956564426422,0.06232711672782898,-0.031607333570718765
1772364961538278000,6.51927783203125,0.03500749170780182,0.05703434720635414,-0.047668322920799255
1772364961548348000,6.529347900390625,0.035126958042383194,0.06878640502691269,-0.039723239839076996
1772364961558418000,6.53941796875,0.030552711337804794,0.07833943516016006,-0.02591927908360958
1772364961568489000,6.549489013671875,0.030607998371124268,0.07130812853574753,-0.004369235597550869
1772364961578559000,6.55955908203125,0.03275637328624725,0.06285072863101959,0.018015699461102486
1772364961588630000,6.569630126953125,0.032974112778902054,0.06832029670476913,0.04021395742893219
1772364961598699800,6.57969970703125,0.03879471868276596,0.07471667975187302,0.041558586061000824
1772364961608769800,6.589769775390625,0.04422026872634888,0.044001221656799316,0.016995180398225784
1772364961618840800,6.5998408203125,0.03937677666544914,0.028926929458975792,0.001027665100991726
1772364961628910800,6.609910888671875,0.038669653236866,0.04522179067134857,-0.009032946079969406
1772364961638980900,6.61998095703125,0.03485654294490814,0.07197724282741547,-0.005227821413427591
1772364961649052000,6.630052001953125,0.030818123370409012,0.09381131082773209,0.010798266157507896
1772364961659122000,6.640121826171875,0.039916280657052994,0.07844007760286331,0.01911531761288643
1772364961669192700,6.650192626953125,0.050702884793281555,0.06642305105924606,0.03433243930339813
1772364961679263000,6.660262939453125,0.04947702959179878,0.05971693992614746,0.027346698567271233
1772364961689333000,6.6703330078125,0.04699389636516571,0.04227256774902344,0.00874742865562439
1772364961699404000,6.680404052734375,0.04095864295959473,0.04092580825090408,-0.0062405746430158615
1772364961709473800,6.690473876953125,0.029449259862303734,0.05230100452899933,-0.012922492809593678
1772364961719543800,6.700543701171875,0.020915959030389786,0.05766008421778679,-0.012087325565516949
1772364961729614800,6.71061474609375,0.02147463709115982,0.040060557425022125,-0.006148599088191986
1772364961739684900,6.720684814453125,0.017095068469643593,0.02546750381588936,0.008233003318309784
1772364961749756000,6.730755859375,0.01774013787508011,0.013994374312460423,0.019036203622817993
1772364961759826000,6.740825927734375,0.016931602731347084,0.014351236633956432,0.029284846037626266
1772364961769895700,6.750895751953125,0.015030106529593468,0.019231919199228287,0.036810874938964844
1772364961779966700,6.760966796875,0.017118025571107864,0.02070571482181549,0.0350571870803833
1772364961790037000,6.771037109375,0.017440691590309143,0.02254549041390419,0.03340956196188927
1772364961800106800,6.781106689453125,0.0172478798776865,0.03608260676264763,0.03131232038140297
1772364961810177800,6.791177734375,0.01177870575338602,0.025836244225502014,0.019807910546660423
1772364961820247800,6.801247802734375,0.015687160193920135,0.012601399794220924,0.010173391550779343
1772364961830318000,6.811318115234375,0.011382641270756721,0.007570737041532993,0.0034984592348337173
1772364961840388900,6.821388916015625,0.013439666479825974,0.004285462200641632,-0.002738663926720619
1772364961850459000,6.831458984375,0.00537518784403801,-0.008838921785354614,-0.015805311501026154
1772364961860530000,6.841530029296875,0.006315017584711313,-0.027686111629009247,-0.021958544850349426
1772364961870600000,6.851599853515625,0.010283926501870155,-0.03842020407319069,-0.015293532982468605
1772364961880670000,6.861669921875,-0.004827648401260376,-0.022814348340034485,-0.011287606321275234
1772364961890741000,6.871740966796875,-0.017750795930624008,-0.000057831406593322754,-0.011450420133769512
1772364961900811000,6.88181103515625,-0.020456833764910698,-0.015059417113661766,-0.01562492549419403
1772364961910880800,6.891880859375,-0.02211763709783554,-0.04296903684735298,-0.012195594608783722
1772364961920951800,6.901951904296875,-0.026354458183050156,-0.04848630726337433,0.0015220819041132927
1772364961931021800,6.912021728515625,-0.02975483611226082,-0.01185548398643732,0.019797423854470253
1772364961941092900,6.9220927734375,-0.01120272371917963,-0.02674015611410141,0.014717178419232368
1772364961951163000,6.932162841796875,0.005282403901219368,-0.0329158753156662,0.021267667412757874
1772364961961233000,6.94223291015625,-0.008415565825998783,0.013763743452727795,0.027368169277906418
1772364961971304000,6.952303955078125,-0.0033454392105340958,0.03493401035666466,0.02377663180232048
1772364961981373700,6.962373779296875,-0.0002596341073513031,0.03049469366669655,0.007307806983590126
1772364961991444000,6.97244384765625,0.005832985509186983,0.026529990136623383,-0.012194064445793629
1772364962001515000,6.982514892578125,0.024186693131923676,0.016179878264665604,-0.010741310194134712
1772364962011585000,6.9925849609375,0.021011564880609512,0.0344531312584877,-0.02298145368695259
1772364962021654800,7.00265478515625,0.026434559375047684,0.03743906691670418,-0.04934142529964447
1772364962031725800,7.012725830078125,0.02861206606030464,0.018310096114873886,-0.059053897857666016
1772364962041796000,7.022796142578125,0.024228770285844803,0.01586797647178173,-0.05667969211935997
1772364962051865900,7.032865966796875,0.01408803928643465,0.022646822035312653,-0.051133036613464355
1772364962061937000,7.04293701171875,-0.0024829478934407234,0.021987956017255783,-0.03972964733839035
1772364962072007000,7.0530068359375,-0.008532905019819736,0.014159293845295906,-0.026196349412202835
1772364962082078000,7.063077880859375,-0.015652865171432495,0.007525092456489801,-0.015739448368549347
1772364962092147700,7.073147705078125,-0.019507259130477905,-0.0008474481292068958,0.0005890903994441032
1772364962102218000,7.083218017578125,-0.02297363057732582,-0.004890659358352423,0.007066430523991585
1772364962112289000,7.0932890625,-0.016901355236768723,-0.0028560045175254345,0.008346879854798317
1772364962122358800,7.10335888671875,-0.016314394772052765,0.009027820080518723,0.0022474415600299835
1772364962132428800,7.1134287109375,-0.015345537103712559,0.01270906999707222,-0.00358396302908659
1772364962142499800,7.123499755859375,-0.012914602644741535,0.020246347412467003,-0.011830175295472145
1772364962152569900,7.13356982421875,-0.010910307057201862,0.024084314703941345,-0.01885233446955681
1772364962162641000,7.143640869140625,-0.015023560263216496,0.02219054102897644,-0.02976037561893463
1772364962172711000,7.1537109375,-0.011874586343765259,0.030616911128163338,-0.037802133709192276
1772364962182781000,7.163781005859375,-0.008321397006511688,0.039444226771593094,-0.04518095776438713
1772364962192851700,7.173851806640625,-0.003369620069861412,0.05561308190226555,-0.04988927021622658
1772364962202922000,7.183921875,-0.0005730343982577324,0.059573736041784286,-0.03960547223687172
1772364962212992000,7.193991943359375,0.002185467164963484,0.06252461671829224,-0.021643679589033127
1772364962223063000,7.20406298828125,0.010080408304929733,0.057282447814941406,0.0026336973533034325
1772364962233132800,7.2141328125,0.012901335023343563,0.04626257345080376,0.030377432703971863
1772364962243202800,7.224202880859375,0.013658737763762474,0.033380065113306046,0.053618837147951126
1772364962253273900,7.23427392578125,0.015660902485251427,0.01853960007429123,0.049231015145778656
1772364962263343900,7.24434375,0.020207718014717102,0.010893396101891994,0.030224833637475967
1772364962273415000,7.254414794921875,0.02247806265950203,0.007407219149172306,0.005322844721376896
1772364962283485000,7.26448486328125,0.06250990182161331,0.016887806355953217,-0.05114149674773216
1772364962293554700,7.2745546875,0.056346386671066284,0.05210321769118309,-0.07203052192926407
1772364962303625700,7.284625732421875,0.038444884121418,0.0629366934299469,-0.06337045878171921
1772364962313696000,7.294696044921875,0.03454548493027687,0.04495193064212799,-0.04578017815947533
1772364962323766000,7.30476611328125,0.028009023517370224,-0.0052755544893443584,-0.0328446701169014
1772364962333836800,7.3148369140625,0.024407096207141876,-0.040979575365781784,-0.03055654838681221
1772364962343906800,7.32490673828125,0.028967227786779404,-0.034184519201517105,-0.03838331252336502
1772364962353977000,7.33497705078125,0.023635845631361008,-0.005383776035159826,-0.052456557750701904
1772364962364048000,7.3450478515625,0.01980409026145935,0.005108812358230352,-0.06452866643667221
1772364962374118000,7.355117919921875,0.015056844800710678,0.0067239184863865376,-0.05916691571474075
1772364962384188000,7.36518798828125,0.014895456843078136,0.00231612054631114,-0.041793517768383026
1772364962394259000,7.375259033203125,0.013290369883179665,-0.002556665102019906,-0.01876889541745186
1772364962404328700,7.38532861328125,0.009639441967010498,-0.012724347412586212,0.00246635265648365
1772364962414399700,7.395399658203125,0.009018020704388618,-0.01751021295785904,0.019263168796896935
1772364962424470000,7.405469970703125,0.008912825956940651,-0.013274189084768295,0.02923324517905712
1772364962434539800,7.415539794921875,0.010360040701925755,-0.0015572630800306797,0.03327059745788574
1772364962444610800,7.42561083984375,0.010240464471280575,0.005612765438854694,0.0276087187230587
1772364962454680800,7.435680908203125,0.007316420786082745,0.0096282958984375,0.029466528445482254
1772364962464750800,7.445750732421875,0.007806442677974701,0.010514596477150917,0.03408578038215637
1772364962474822000,7.45582177734375,0.00642884336411953,0.010003462433815002,0.03465168923139572
1772364962484892000,7.465891845703125,0.00001808255910873413,0.004630535375326872,0.032270289957523346
1772364962494962000,7.4759619140625,0.0007174797356128693,0.0022033527493476868,0.026882655918598175
1772364962505032700,7.48603271484375,-0.000283069908618927,0.0025285244919359684,0.02323412522673607
1772364962515103000,7.49610302734375,-0.00030155107378959656,0.006952300667762756,0.015277822501957417
1772364962525173000,7.506173095703125,0.011013953946530819,-0.02034376934170723,0.01361867319792509
1772364962535244000,7.516244140625,0.004503430798649788,-0.0175803042948246,-0.0010404232889413834
1772364962545313800,7.526313720703125,0.006932499818503857,-0.0022636663634330034,-0.005694031249731779
1772364962555383800,7.5363837890625,0.0057335966266691685,-0.006457915995270014,-0.007849304005503654
1772364962565454800,7.546454833984375,0.005647842772305012,-0.015453541651368141,-0.010390758514404297
1772364962575524900,7.55652490234375,0.004691288806498051,-0.017911750823259354,-0.010279105044901371
1772364962585595000,7.566594970703125,0.004447876010090113,-0.021595168858766556,-0.007169598713517189
1772364962595666000,7.576666015625,0.006110114976763725,-0.022041315212845802,-0.006688003893941641
1772364962605735700,7.586735595703125,0.004283186513930559,-0.018509432673454285,-0.0026578428223729134
1772364962615806700,7.596806640625,0.006661761552095413,-0.012215200811624527,-0.0040812138468027115
1772364962625877000,7.606876953125,0.00868603028357029,-0.004233174026012421,-0.006878331769257784
1772364962635947000,7.616947021484375,0.011992080137133598,-0.0033616218715906143,-0.010976504534482956
1772364962646017800,7.627017822265625,0.009465805254876614,-0.007607233244925737,-0.010857727378606796
1772364962656087800,7.637087890625,0.009536592289805412,-0.010373758152127266,-0.015538319945335388
1772364962666158000,7.647157958984375,0.006403915584087372,-0.009104762226343155,-0.019540518522262573
1772364962676229000,7.65722900390625,0.00376648036763072,-0.007504318840801716,-0.0238482728600502
1772364962686299000,7.667298828125,-0.0014692945405840874,-0.005831321235746145,-0.027187077328562737
1772364962696369000,7.677368896484375,-0.0023712534457445145,-0.009982040151953697,-0.020481498911976814
1772364962706440000,7.68743994140625,-0.005963858217000961,-0.015056160278618336,-0.013347956351935863
1772364962716509700,7.697509765625,-0.010130956768989563,-0.010362958535552025,-0.0034946519881486893
1772364962726580000,7.707580078125,-0.008395109325647354,-0.0038536610081791878,0.01217272412031889
1772364962736651000,7.717651123046875,-0.0124245285987854,-0.007583614904433489,0.023251347243785858
1772364962746720800,7.727720703125,-0.01441231183707714,-0.010447844862937927,0.03169329836964607
1772364962756790800,7.737790771484375,-0.015126463025808334,-0.004314137622714043,0.036913249641656876
1772364962766861800,7.74786181640625,-0.018147019669413567,-0.0012341919355094433,0.04006430134177208
1772364962776932000,7.75793212890625,-0.020349187776446342,-0.00471697049215436,0.04044390469789505
1772364962787001900,7.768001953125,-0.02569601498544216,-0.006897566840052605,0.0395813062787056
1772364962797073000,7.778072998046875,-0.020887836813926697,-0.011543490923941135,0.03907084837555885
1772364962807143000,7.788142822265625,-0.022101175040006638,-0.018122829496860504,0.03002408891916275
1772364962817213700,7.798213623046875,-0.01816640794277191,-0.03459744155406952,0.016521774232387543
1772364962827284000,7.808283935546875,-0.02020079642534256,-0.03821428120136261,-0.002643928863108158
1772364962837354000,7.81835400390625,-0.01719493791460991,-0.027300521731376648,-0.02535289153456688
1772364962847425000,7.828425048828125,-0.01894570142030716,-0.01606970652937889,-0.04196462407708168
1772364962857494800,7.838494873046875,-0.01874292641878128,0.001334325410425663,-0.05001244321465492
1772364962867564800,7.848564697265625,-0.012528439052402973,0.00537753663957119,-0.04806487262248993
1772364962877635800,7.8586357421875,-0.010001633316278458,0.00042650941759347916,-0.0275128073990345
1772364962887705900,7.868705810546875,-0.010461827740073204,-0.0038318848237395287,-0.003023711033165455
1772364962897775900,7.87877587890625,-0.007781355641782284,-0.019320085644721985,0.016272570937871933
1772364962907847000,7.888846923828125,-0.011196327395737171,-0.04390852153301239,0.025244228541851044
1772364962917916700,7.898916748046875,-0.011659611016511917,-0.05529741197824478,0.02272976189851761
1772364962927987000,7.908987060546875,-0.009558910503983498,-0.05076391249895096,0.009881873615086079
1772364962938058000,7.91905810546875,-0.010503635741770267,-0.03837917745113373,-0.0025416174903512
1772364962948128000,7.9291279296875,-0.007819968275725842,-0.01955941505730152,-0.01581374742090702
1772364962958197800,7.93919775390625,-0.003299947828054428,-0.0036656991578638554,-0.01342736091464758
1772364962968268800,7.949268798828125,-0.0020874105393886566,0.006425550673156977,-0.009114904329180717
1772364962978339000,7.959339111328125,0.001277918927371502,-0.008510204963386059,-0.00587710365653038
1772364962988408800,7.969408935546875,0.001531718298792839,-0.021087782457470894,-0.003785190172493458
1772364962998480000,7.97947998046875,-0.0005689309909939766,-0.033985383808612823,-0.016241056844592094
1772364963008550000,7.9895498046875,-0.004828657954931259,-0.034600041806697845,-0.025039343163371086
1772364963018617900,7.999617919921875,-0.01088606845587492,-0.020104121416807175,-0.03073941171169281
1772364963028688000,8.00968798828125,-0.011165966279804707,-0.0020532154012471437,-0.022289734333753586
1772364963038759000,8.019759033203124,-0.0067554013803601265,0.005155444610863924,-0.008700578473508358
1772364963048829000,8.029828857421874,-0.011440967209637165,-0.0013969966676086187,0.016073210164904594
1772364963058899000,8.03989892578125,-0.009269475936889648,-0.013254974037408829,0.03561493009328842
1772364963068970000,8.049969970703126,-0.007100332528352737,-0.023879123851656914,0.05610182508826256
1772364963079039700,8.060039794921876,-0.007648410275578499,-0.01987506076693535,0.0687989741563797
1772364963089110000,8.070110107421876,-0.0025252876803278923,-0.011909810826182365,0.0686088353395462
1772364963099181000,8.08018115234375,0.0018406454473733902,-0.00430784747004509,0.06103311851620674
1772364963109250800,8.090250732421875,0.00304412841796875,-0.0004015229642391205,0.04695804789662361
1772364963119320800,8.10032080078125,-0.000012755393981933594,0.00799323059618473,0.038956671953201294
1772364963129391900,8.110391845703125,-0.0011475281789898872,-0.009565788321197033,0.030638817697763443
1772364963139462000,8.1204619140625,-0.00059561338275671,-0.02815837785601616,0.01718079298734665
1772364963149532000,8.130531982421875,-0.0035368092358112335,-0.0321938656270504,0.005794978700578213
1772364963159603000,8.14060302734375,-0.005007035098969936,-0.029240187257528305,-0.002914964221417904
1772364963169673000,8.1506728515625,-0.005042721517384052,-0.03479341045022011,-0.01125864777714014
1772364963179742700,8.16074267578125,-0.0023644855245947838,-0.046774350106716156,-0.01319903414696455
1772364963189813800,8.170813720703125,-0.0029152268543839455,-0.04992566630244255,-0.02020101808011532
1772364963199884000,8.180884033203125,-0.0017817839980125427,-0.0482613667845726,-0.023722536861896515
1772364963209953800,8.190953857421874,-0.0029655583202838898,-0.0450059212744236,-0.0294741652905941
1772364963220024800,8.20102490234375,-0.004340284503996372,-0.037863679230213165,-0.024920139461755753
1772364963230094800,8.2110947265625,-0.00549929216504097,-0.02182931825518608,-0.013115677051246166
1772364963240165000,8.2211650390625,-0.006124440580606461,-0.014995081350207329,-0.004413459450006485
1772364963250236000,8.23123583984375,0.0005377223715186119,-0.014009978622198105,0.006858370266854763
1772364963260306000,8.241305908203126,0.00029921066015958786,-0.013765973970293999,0.01782144419848919
1772364963270376000,8.2513759765625,0.00861759390681982,-0.007113930303603411,0.024361103773117065
1772364963280446700,8.26144677734375,0.008527310565114021,0.009946398437023163,0.02500009909272194
1772364963290516700,8.271516845703125,0.008870059624314308,0.020364683121442795,0.025026462972164154
1772364963300587000,8.2815869140625,0.003928135149180889,0.022013520821928978,0.02105092629790306
1772364963310658000,8.291657958984375,0.005869313608855009,0.022817527875304222,0.018536634743213654
1772364963320727800,8.301727783203125,0.0022829966619610786,0.024588249623775482,0.02215522900223732
1772364963330798000,8.311798095703125,0.004262258298695087,0.027302540838718414,0.021885983645915985
1772364963340869000,8.321869140625,0.005099716130644083,0.026763133704662323,0.02275887504220009
1772364963350939400,8.331939453125,0.004071469884365797,0.02572689764201641,0.02012128010392189
1772364963361009200,8.342009033203125,0.004617789294570684,0.027613390237092972,0.019386786967515945
1772364963371080200,8.352080078125,0.003422562498599291,0.0341154970228672,0.022960219532251358
1772364963381150200,8.362150146484375,0.001472489908337593,0.040285658091306686,0.026338346302509308
1772364963391220000,8.372219970703124,0.0028647901490330696,0.037036068737506866,0.02394229918718338
1772364963401291000,8.382291015625,0.0030786413699388504,0.03260648623108864,0.02531002089381218
1772364963411361300,8.392361328125,0.0028368262574076653,0.024232443422079086,0.029259756207466125
1772364963421431000,8.40243115234375,0.0034218207001686096,0.017862021923065186,0.022591518238186836
1772364963431502000,8.412502197265624,0.002778933849185705,0.014744792133569717,0.020421309396624565
1772364963441572000,8.422572021484376,0.006824058946222067,0.01870139129459858,0.01584663800895214
1772364963451642400,8.432642333984376,0.0064006163738667965,0.01876663975417614,0.009805789217352867
1772364963461713200,8.442713134765626,0.00933531392365694,0.013226672075688839,0.0043908776715397835
1772364963471783200,8.452783203125,0.00918617658317089,0.010314770974218845,-0.0025514503940939903
1772364963481853200,8.462853271484375,0.009319604374468327,0.004725889302790165,-0.005196175072342157
1772364963491924200,8.47292431640625,0.00880375038832426,-0.0030721125658601522,-0.015437627211213112
1772364963501994200,8.482994140625,0.007951749488711357,-0.005359410308301449,-0.026558704674243927
1772364963512064300,8.493064208984375,0.006843874230980873,0.0025645592249929905,-0.0412130132317543
1772364963522135300,8.50313525390625,0.011695784516632557,0.01726570725440979,-0.05729781836271286
1772364963532205000,8.513205078125,0.010134373791515827,0.031555429100990295,-0.058769214898347855
1772364963542275000,8.523275146484375,0.012560668401420116,0.03904755786061287,-0.05145765841007233
1772364963552346000,8.53334619140625,0.016141021624207497,0.04273470491170883,-0.02976008504629135
1772364963562416000,8.543416015625,0.01508294977247715,0.03725220263004303,0.006405005231499672
1772364963572486100,8.553486083984374,0.015003854408860207,0.02931918017566204,0.041455935686826706
1772364963582557200,8.56355712890625,0.020072542130947113,0.011586667969822884,0.055008139461278915
1772364963592627200,8.573627197265624,0.016426941379904747,-0.001393579412251711,0.05504835024476051
1772364963602697200,8.583697265625,0.018684767186641693,-0.003271846566349268,0.04713521897792816
1772364963612768300,8.593768310546874,0.01764453761279583,0.01844623126089573,0.02426772192120552
1772364963622838300,8.60383837890625,0.02099761739373207,0.040199343115091324,0.0005308752879500389
1772364963632908000,8.613907958984376,0.025038696825504303,0.055371906608343124,-0.009216826409101486
1772364963642979000,8.62397900390625,0.02523209899663925,0.058514080941677094,-0.011501568369567394
1772364963653049300,8.63404931640625,0.030901703983545303,0.05298588424921036,-0.012598258443176746
1772364963663119000,8.644119140625,0.03387805074453354,0.03215384483337402,-0.005921180825680494
1772364963673190100,8.654190185546875,0.03370388224720955,0.010088487528264523,-0.010280508548021317
1772364963683260200,8.66426025390625,0.038012877106666565,-0.028382739052176476,-0.015159420669078827
1772364963693330200,8.674330078125,0.02890033833682537,0.011269599199295044,-0.028998270630836487
1772364963703401200,8.684401123046875,0.021873319521546364,0.052292462438344955,-0.029989581555128098
1772364963713471200,8.69447119140625,0.02147917076945305,0.05472446233034134,-0.023648593574762344
1772364963723541200,8.704541259765625,0.01928744465112686,0.0344093032181263,-0.018746081739664078
1772364963733612000,8.714612060546875,0.018351610749959946,0.014548513107001781,-0.008926739916205406
1772364963743682000,8.72468212890625,0.017456356436014175,0.015186965465545654,0.011412118561565876
1772364963753752300,8.73475244140625,0.009458085522055626,0.02267684042453766,0.019540883600711823
1772364963763823400,8.7448232421875,0.009695111773908138,0.02668032981455326,0.023995961993932724
1772364963773893000,8.75489306640625,0.01108634751290083,0.02065279893577099,0.026362713426351547
1772364963783963100,8.764963134765624,0.01138728391379118,0.024516576901078224,0.030419692397117615
1772364963794034200,8.7750341796875,0.0084729865193367,0.032817915081977844,0.04162920266389847
1772364963804104200,8.785104248046874,0.004124576225876808,0.030998505651950836,0.049339503049850464
1772364963814174200,8.79517431640625,0.0031453315168619156,0.016738876700401306,0.04792456701397896
1772364963824245200,8.805245361328126,0.00170136708766222,0.00723345996811986,0.04142094403505325
1772364963834315000,8.81531494140625,0.0022976486943662167,0.011564025655388832,0.03196911886334419
1772364963844385000,8.825385009765625,0.0022180210798978806,0.021369455382227898,0.02516135945916176
1772364963854456000,8.8354560546875,0.007113443687558174,0.019589930772781372,0.012931592762470245
1772364963864526300,8.8455263671875,0.010830257087945938,0.014864601194858551,0.0024222368374466896
1772364963874596000,8.85559619140625,0.007693852297961712,0.00965226162225008,-0.017419379204511642
1772364963884667100,8.865667236328125,0.005865111947059631,0.005831515416502953,-0.03984425961971283
1772364963894737200,8.875737060546875,-0.0005935858935117722,0.0008716443553566933,-0.05103538930416107
1772364963904807200,8.88580712890625,-0.003774094395339489,-0.004056354984641075,-0.05235391482710838
1772364963914878200,8.895878173828125,-0.004553069360554218,-0.004124798346310854,-0.04314284026622772
1772364963924948200,8.9059482421875,-0.006573877297341824,-0.0036953205708414316,-0.02647249586880207
1772364963935018000,8.91601806640625,-0.0072862738743424416,0.002221158239990473,-0.013279462233185768
1772364963945088300,8.926088134765624,-0.006673898547887802,0.007681928109377623,0.0005648443475365639
1772364963955159300,8.9361591796875,-0.004168663173913956,0.006308270152658224,0.010910958983004093
1772364963965229300,8.946229248046874,-0.0019616521894931793,0.010146369226276875,0.016405966132879257
1772364963975299000,8.956299072265624,0.002755338791757822,0.012234820052981377,0.020603375509381294
1772364963985370000,8.9663701171875,0.009109213948249817,0.014521591365337372,0.022145885974168777
1772364963995440000,8.976440185546876,0.014201976358890533,0.021637557074427605,0.02792441099882126
1772364964005510100,8.98651025390625,0.013412407599389553,0.0319293849170208,0.02534022554755211
1772364964015581200,8.996581298828126,0.01661485806107521,0.04237590357661247,0.02415085956454277
1772364964025651200,9.006651123046876,0.01635301299393177,0.04578011482954025,0.023414164781570435
1772364964035721000,9.016720947265625,0.022298254072666168,0.03807425871491432,0.025019783526659012
1772364964045792000,9.0267919921875,0.020336944609880447,0.036407314240932465,0.02066771313548088
1772364964055862300,9.0368623046875,0.02210129052400589,0.03974425420165062,0.01568733900785446
1772364964065932300,9.046932373046875,0.022702576592564583,0.03658045828342438,0.008747770451009274
1772364964076003000,9.057003173828125,0.02028655633330345,0.03245176002383232,0.003840097226202488
1772364964086073000,9.067072998046875,0.019517328590154648,0.03348879888653755,0.00665294099599123
1772364964096143400,9.077143310546875,0.014465844258666039,0.013528140261769295,0.014675981365144253
1772364964106214400,9.08721435546875,0.015460486523807049,0.0019829915836453438,0.01843748614192009
1772364964116284200,9.0972841796875,0.011488914489746094,-0.009124254807829857,0.023584309965372086
1772364964126354200,9.107354248046875,0.012338783591985703,-0.01696244440972805,0.01978486403822899
1772364964136425200,9.11742529296875,0.006766651291400194,-0.0237649567425251,0.013109651394188404
1772364964146495000,9.127494873046874,0.007837772369384766,-0.016626819968223572,0.0048918528482317924
1772364964156565200,9.137565185546874,0.003237161785364151,-0.007959827780723572,-0.0008888039737939835
1772364964166636300,9.14763623046875,0.005620475858449936,-0.0008024252019822598,-0.006699100136756897
1772364964176706000,9.1577060546875,0.007056718692183495,-0.003682900220155716,-0.010493571870028973
1772364964186776000,9.167776123046876,0.00984824076294899,-0.005658778827637434,-0.018298208713531494
1772364964196846300,9.177846435546876,0.008815733715891838,-0.0011673578992486,-0.02429484948515892
1772364964206917400,9.18791748046875,0.011513249948620796,-0.005193852819502354,-0.03563211113214493
1772364964216987100,9.197987060546875,0.00946128461509943,-0.006682826206088066,-0.049160439521074295
1772364964227057200,9.20805712890625,0.01184194628149271,-0.0022154711186885834,-0.0552704855799675
1772364964237128200,9.218128173828125,0.00888850074261427,0.00954185239970684,-0.047609902918338776
1772364964247198200,9.2281982421875,0.008286569267511368,-0.007715056650340557,-0.030610129237174988
1772364964257268200,9.238268310546875,0.013812894932925701,-0.0172001700848341,0.003977942280471325
1772364964267339300,9.24833935546875,0.006839617621153593,-0.015677805989980698,0.03645547851920128
1772364964277409000,9.258408935546875,0.009526214562356472,-0.03297556936740875,0.05708671733736992
1772364964287479000,9.26847900390625,0.012628582306206226,-0.05358002707362175,0.0622747465968132
1772364964297550000,9.278550048828125,0.012627516873180866,-0.054625317454338074,0.0516817569732666
1772364964307620400,9.288620361328125,0.009880525059998035,-0.026024794206023216,0.030587270855903625
1772364964317690000,9.298690185546874,0.006763028912246227,0.0020332057029008865,0.004395878873765469
1772364964327761400,9.308761474609375,0.004646881017833948,0.005949650425463915,-0.02118644490838051
1772364964337831200,9.3188310546875,0.008483431302011013,0.030443275347352028,-0.0026777423918247223
1772364964347901400,9.3289013671875,0.006962659768760204,0.037649400532245636,0.012048647738993168
1772364964357972500,9.338972412109374,0.00717597920447588,0.002245871350169182,0.016132071614265442
1772364964368042200,9.349042236328126,0.00511532835662365,-0.0381268635392189,0.012473349459469318
1772364964378112300,9.3591123046875,-0.002753780223429203,-0.04558424651622772,0.005824235267937183
1772364964388183300,9.369183349609376,-0.017302945256233215,-0.024637315422296524,-0.012427928857505322
1772364964398253300,9.37925341796875,-0.009166191332042217,-0.015727974474430084,-0.010301927104592323
1772364964408323300,9.3893232421875,-0.0202464796602726,-0.048439498990774155,-0.022312453016638756
1772364964418393300,9.399393310546875,-0.01846162974834442,-0.06561315804719925,-0.013223882764577866
1772364964428464400,9.40946435546875,-0.02531256154179573,-0.04566078633069992,0.008329719305038452
1772364964438534100,9.4195341796875,-0.02199453115463257,-0.035688579082489014,0.02456727996468544
1772364964448604400,9.4296044921875,-0.01614425517618656,-0.037196408957242966,0.03185838833451271
1772364964458675500,9.439675537109375,-0.011800374835729599,-0.034903429448604584,0.044285763055086136
1772364964468745200,9.4497451171875,-0.0047955699265003204,-0.025759249925613403,0.04472953826189041
1772364964478815200,9.459815185546875,-0.005833404138684273,-0.01694738306105137,0.04309595748782158
1772364964488886300,9.46988623046875,-0.004024420864880085,-0.00629952410236001,0.04178948327898979
1772364964498956300,9.479956298828125,0.0019152266904711723,0.0023746578954160213,0.03465460613369942
1772364964509026300,9.4900263671875,0.005467668641358614,-0.005184028297662735,0.026812054216861725
1772364964519097300,9.500097412109374,0.00852337945252657,-0.010734322480857372,0.012454153969883919
1772364964529167400,9.51016748046875,0.004746433347463608,-0.03252340480685234,-0.009206856600940228
1772364964539237400,9.5202373046875,0.0017051035538315773,-0.032726336270570755,-0.009145338088274002
1772364964549307400,9.530307373046876,-0.009276173077523708,-0.012276792898774147,-0.00477287732064724
1772364964559378400,9.54037841796875,-0.007106228731572628,-0.011480508372187614,-0.009627819992601871
1772364964569448200,9.5504482421875,-0.006029835902154446,-0.0330486074090004,-0.009965410456061363
1772364964579518200,9.560518310546875,-0.008432007394731045,-0.04397901892662048,-0.009009601548314095
1772364964589589200,9.57058935546875,-0.014024222269654274,-0.03649338707327843,-0.009961669333279133
1772364964599659300,9.5806591796875,-0.014271629974246025,-0.024203432723879814,-0.003308827057480812
1772364964609729300,9.590729248046875,-0.015390530228614807,-0.022571567445993423,-0.0044450219720602036
1772364964619800300,9.60080029296875,-0.013917535543441772,-0.03279197961091995,-0.001029517501592636
1772364964629870300,9.610870361328125,-0.014085417613387108,-0.03737466782331467,0.00503902044147253
1772364964639940400,9.6209404296875,-0.006994485855102539,-0.03602311760187149,0.007587398402392864
1772364964650011400,9.631011474609375,-0.007388627156615257,-0.02270972728729248,0.013070641085505486
1772364964660081400,9.641081298828125,-0.008358817547559738,-0.013937540352344513,0.008652988821268082
1772364964670151200,9.651151123046875,-0.006386116147041321,-0.014118960127234459,0.0022680088877677917
1772364964680221400,9.661221435546874,-0.0017777811735868454,-0.009443780407309532,-0.0007482878863811493
1772364964690292500,9.67129248046875,-0.0018419642001390457,-0.001767751993611455,-0.0013395091518759727
1772364964700362200,9.6813623046875,-0.002811354584991932,0.0017319079488515854,-0.003430357202887535
1772364964710432300,9.691432373046876,-0.0024462323635816574,-0.00003923103213310242,-0.005648074671626091
1772364964720503300,9.70150341796875,-0.0011537997052073479,-0.00866121519356966,-0.008101112209260464
1772364964730573300,9.7115732421875,-0.0013467185199260712,0.006726675201207399,0.005555753596127033
1772364964740643300,9.721643310546876,-0.0016902666538953781,0.016658136621117592,-0.0011452920734882355
1772364964750714400,9.73171435546875,-0.0008381623774766922,0.009038249030709267,-0.0067428965121507645
1772364964760784400,9.741784423828125,-0.00009780377149581909,0.016900965943932533,-0.00265334639698267
1772364964770854100,9.751854248046875,0.0016176998615264893,0.026899879798293114,-0.0023652007803320885
1772364964780925200,9.76192529296875,0.007330979220569134,0.029723627492785454,-0.0030312566086649895
1772364964790995500,9.771995361328125,0.007413748651742935,0.024806944653391838,0.0035995813086628914
1772364964801065200,9.782065185546875,0.00979088619351387,0.02277122437953949,0.009199409745633602
1772364964811135200,9.79213525390625,0.011564496904611588,0.01807498000562191,0.014668923802673817
1772364964821206300,9.802206298828125,0.007939934730529785,0.017758063971996307,0.009365237317979336
1772364964831276500,9.812276611328125,0.007166191469877958,0.010416240431368351,0.007997038774192333
1772364964841346300,9.82234619140625,0.005501183215528727,0.015961740165948868,0.00247284397482872
1772364964851417300,9.832417236328125,0.01002887636423111,0.02192271687090397,-0.008612744510173798
1772364964861487400,9.8424873046875,0.008785978890955448,0.007317407988011837,-0.017382800579071045
1772364964871557000,9.85255712890625,0.013954469934105873,0.005292700137943029,-0.025867044925689697
1772364964881628200,9.862628173828124,0.004681343212723732,0.017878267914056778,-0.04267612099647522
1772364964891698400,9.872698486328124,0.010269725695252419,0.014582130126655102,-0.06122133135795593
1772364964901768200,9.882768310546876,0.011489985510706902,0.010794316418468952,-0.07060577720403671
1772364964911839200,9.892839111328126,0.011620854958891869,0.013411721214652061,-0.0734860822558403
1772364964921909200,9.9029091796875,0.016529327258467674,0.01839982159435749,-0.06566357612609863
1772364964931979500,9.9129794921875,0.028738055378198624,-0.009853316470980644,-0.060519494116306305
1772364964942049300,9.92304931640625,0.018637750297784805,-0.025820031762123108,-0.03047717548906803
1772364964952120300,9.933120361328125,0.010417367331683636,-0.0001472868025302887,0.005733128637075424
1772364964962190300,9.9431904296875,0.016642773523926735,0.024487219750881195,0.020254814997315407
1772364964972260400,9.95326025390625,0.01295376755297184,0.027938466519117355,0.021643098443746567
1772364964982331400,9.963331298828125,0.014354323968291283,0.006440629716962576,0.002099757082760334
1772364964992401400,9.9734013671875,0.014758860692381859,-0.003301094751805067,-0.005186754744499922
1772364965002471200,9.98347119140625,0.01446165144443512,0.015488038770854473,-0.01733636111021042
1772364965012542200,9.993542236328125,0.01974402740597725,0.03622469678521156,-0.022727377712726593
1772364965022612200,10.0036123046875,0.022296667098999023,0.048206791281700134,-0.02065996453166008
1772364965032682200,10.01368212890625,0.02298722229897976,0.04560095816850662,-0.015063947066664696
1772364965042752300,10.023752197265624,0.02203807234764099,0.037980321794748306,-0.015295641496777534
1772364965052823300,10.0338232421875,0.019300241023302078,0.02116398885846138,-0.018349867314100266
1772364965062893300,10.043893310546874,0.010393831878900528,0.008726493455469608,-0.030208390206098557
1772364965072963300,10.05396337890625,0.005180684849619865,0.009298162534832954,-0.03775015100836754
1772364965083034400,10.064034423828126,-0.004061548970639706,0.012443888932466507,-0.04330231249332428
1772364965093104400,10.0741044921875,-0.027259591966867447,0.026955612003803253,-0.03908833488821983
1772364965103174100,10.084174072265625,-0.005369474180042744,0.04209728166460991,-0.026111816987395287
1772364965113245200,10.0942451171875,-0.008823114447295666,0.010687935166060925,-0.011481561698019505
1772364965123315500,10.1043154296875,-0.014488724060356617,-0.0230705626308918,-0.003912325948476791
1772364965133385200,10.11438525390625,-0.019068077206611633,-0.03090616688132286,0.008666557259857655
1772364965143455200,10.124455322265625,-0.01718388870358467,-0.006173122674226761,0.021814849227666855
1772364965153526300,10.1345263671875,-0.018923306837677956,0.017047923058271408,0.030560312792658806
1772364965163596300,10.14459619140625,-0.014083810150623322,0.004134786780923605,0.02601536177098751
1772364965173666300,10.154666259765625,-0.012459809891879559,-0.015556782484054565,0.02413666434586048
1772364965183737300,10.1647373046875,-0.01234795618802309,-0.017837246879935265,0.0290126483887434
1772364965193807400,10.174807373046875,-0.010754755698144436,-0.007755156606435776,0.029538385570049286
1772364965203877000,10.184877197265624,-0.01535509992390871,0.0013027866370975971,0.022151842713356018
1772364965213948200,10.1949482421875,-0.018893111497163773,-0.0052022505551576614,0.014195648953318596
1772364965224018400,10.205018310546874,-0.013109522871673107,-0.009082742035388947,0.01037587784230709
1772364965234088200,10.215088134765624,-0.01103918720036745,-0.013392054475843906,0.010579098016023636
1772364965244158200,10.225158203125,-0.013815266080200672,-0.024713419377803802,0.008371071889996529
1772364965254229200,10.235229248046876,-0.012362504377961159,-0.022862277925014496,0.0025673052296042442
1772364965264299500,10.245299560546876,-0.010767271742224693,-0.02493634819984436,-0.007130063604563475
1772364965274369300,10.255369384765626,-0.01216165442019701,-0.022501442581415176,-0.015605999156832695
1772364965284440300,10.2654404296875,-0.015487142838537693,-0.026354238390922546,-0.01833920180797577
1772364965294510300,10.27551025390625,-0.013376213610172272,-0.021931210532784462,-0.01240470726042986
1772364965304580000,10.285580078125,-0.013796195387840271,-0.02444097399711609,-0.009062440134584904
1772364965314651100,10.295651123046875,-0.015260719694197178,-0.0435880608856678,-0.008306454867124557
1772364965324721400,10.305721435546875,-0.0035161804407835007,-0.029877575114369392,0.01105765625834465
1772364965334790400,10.315790283203125,-0.008103103376924992,-0.02005784586071968,0.012424747459590435
1772364965344860700,10.325860595703125,-0.012259763665497303,-0.02059394121170044,0.009957327507436275
1772364965354931700,10.335931640625,-0.010308944620192051,-0.01319645531475544,0.012643211521208286
1772364965365001500,10.34600146484375,-0.011111355386674404,-0.0006047631613910198,0.00767109077423811
1772364965375071500,10.356071533203124,-0.01400833111256361,-0.003071228042244911,0.000730498693883419
1772364965385142500,10.366142578125,-0.012811773456633091,-0.007268902845680714,-0.0017430447041988373
1772364965395212300,10.37621240234375,-0.013813874684274197,-0.006825157906860113,-0.0015310300514101982
1772364965405282600,10.386282470703126,-0.017079178243875504,-0.005362816154956818,0.0050704143941402435
1772364965415352600,10.3963525390625,-0.018531983718276024,-0.003027321770787239,0.006113037467002869
1772364965425423600,10.406423583984376,-0.018949568271636963,-0.007380524650216103,0.009236926212906837
1772364965435493400,10.416493408203126,-0.020354755222797394,-0.01807304657995701,0.010972229763865471
1772364965445563600,10.426563720703125,-0.02088179439306259,-0.022795364260673523,0.01434166170656681
1772364965455634700,10.436634765625,-0.015614225529134274,-0.024430006742477417,0.011379888281226158
1772364965465704400,10.446704345703125,-0.015183326788246632,-0.04554807394742966,0.002708902582526207
1772364965475774500,10.4567744140625,-0.021855443716049194,-0.017876584082841873,0.01309245452284813
1772364965485845500,10.466845458984375,-0.02152334526181221,0.005230333656072617,0.017358306795358658
1772364965495915500,10.47691552734375,-0.00922247301787138,0.036019403487443924,0.03584490343928337
1772364965505985500,10.486985595703125,-0.013429469428956509,0.01920926570892334,0.03191674128174782
1772364965516055600,10.4970556640625,-0.002769269049167633,-0.0006838589906692505,0.039927296340465546
1772364965526126600,10.507126708984375,-0.0021639326587319374,-0.002127558458596468,0.051667578518390656
1772364965536196400,10.5171962890625,-0.005540285259485245,0.004602900706231594,0.04985173046588898
1772364965546266600,10.5272666015625,-0.003125331364572048,0.002060913946479559,0.04169446974992752
1772364965556337700,10.537337646484374,0.004766200669109821,-0.002585671842098236,0.024508027359843254
1772364965566407400,10.547407470703124,0.0031589833088219166,-0.008104007691144943,0.0034213848412036896
1772364965576477400,10.5574775390625,0.00025896262377500534,-0.009426463395357132,-0.018783528357744217
1772364965586547700,10.567547607421876,0.0006816061213612556,-0.017549637705087662,-0.03565944731235504
1772364965596618500,10.577618408203126,0.0027285683900117874,-0.023610511794686317,-0.05846712365746498
1772364965606688500,10.5876884765625,-0.0005897302180528641,-0.028762664645910263,-0.06974614411592484
1772364965616758500,10.597758544921875,0.0032521947287023067,-0.024136578664183617,-0.07363736629486084
1772364965626829600,10.60782958984375,0.010138596408069134,-0.009363491088151932,-0.0693022757768631
1772364965636899600,10.617899658203125,0.013774130493402481,-0.0067649465054273605,-0.055188845843076706
1772364965646969600,10.627969482421875,0.013808751478791237,-0.005091682076454163,-0.037070829421281815
1772364965657039400,10.638039306640625,0.009764857590198517,-0.004320965148508549,-0.010762028396129608
1772364965667110400,10.6481103515625,0.008391998708248138,-0.00393826887011528,0.015127625316381454
1772364965677180400,10.658180419921875,-0.0022326409816741943,-0.05406459793448448,-0.012060722336173058
1772364965687250700,10.668250732421875,0.007888436317443848,-0.13630834221839905,-0.019550062716007233
1772364965697321500,10.678321533203125,0.0022648596204817295,-0.1221608892083168,0.07158620655536652
1772364965707391500,10.6883916015625,-0.005368292331695557,0.02395424246788025,0.1449754685163498
1772364965717461500,10.69846142578125,-0.008730374276638031,0.1511451005935669,0.0534537211060524
1772364965727532500,10.708532470703124,-0.029460685327649117,0.1700170636177063,-0.002347225323319435
1772364965737602600,10.7186025390625,0.025223489850759506,0.1486067920923233,-0.05455174669623375
1772364965747672600,10.728672607421874,0.06685508787631989,0.1098916232585907,-0.07481574267148972
1772364965757742300,10.738742431640626,0.05828876048326492,0.06104867532849312,-0.043879903852939606
1772364965767813400,10.7488134765625,0.04846436157822609,-0.03938871622085571,0.0040711089968681335
1772364965777883600,10.758883544921876,0.051232606172561646,-0.14119091629981995,0.013396425172686577
1772364965787953700,10.76895361328125,0.04796997457742691,-0.19250816106796265,-0.0018650852143764496
1772364965798024400,10.7790244140625,0.0041117118671536446,-0.16159316897392273,-0.02772698551416397
1772364965808094500,10.789094482421875,0.01136270072311163,-0.09675078839063644,-0.04233335703611374
1772364965818164500,10.79916455078125,0.01679416373372078,-0.05397671088576317,0.001038532704114914
1772364965828234500,10.809234375,-0.02591867744922638,-0.0032562753185629845,0.03740159794688225
1772364965838305500,10.819305419921875,-0.04904850572347641,-0.00691142026335001,0.03563506528735161
1772364965848375600,10.82937548828125,-0.0741991400718689,-0.06198985129594803,0.032852064818143845
