time,seconds_elapsed,z,y,x
1772363418601788200,0.1217880859375,0.0005982816219329834,-0.03236787021160126,0.02600010111927986
1772363418611858200,0.131858154296875,-0.00990963913500309,-0.012557024136185646,0.026181500405073166
1772363418621927200,0.14192724609375,-0.018679428845643997,-0.006710053887218237,0.026306137442588806
1772363418631997200,0.1519970703125,-0.010826276615262032,-0.009244676679372787,0.035599563270807266
1772363418642066200,0.162066162109375,-0.014404499903321266,-0.0028578839264810085,0.04880111664533615
1772363418652136400,0.172136474609375,-0.02581535466015339,-0.02330489456653595,0.04694283753633499
1772363418662204200,0.1822041015625,-0.022342856973409653,-0.0504012294113636,0.050759412348270416
1772363418672274400,0.1922744140625,-0.018936775624752045,-0.005671180319041014,0.04881414398550987
1772363418682343200,0.20234326171875,-0.01373881846666336,0.024265680462121964,0.008330103941261768
1772363418692413400,0.212413330078125,-0.011951173655688763,-0.007739153690636158,-0.0019561881199479103
1772363418702482200,0.222482177734375,-0.00543814804404974,-0.019185952842235565,-0.006395677570253611
1772363418712552200,0.23255224609375,-0.0022635445930063725,0.0055561363697052,-0.016149019822478294
1772363418722621200,0.24262109375,0.004390896297991276,0.032054588198661804,-0.0024382686242461205
1772363418732691200,0.252691162109375,0.016330033540725708,0.07860281318426132,-0.020268341526389122
1772363418742760200,0.26276025390625,0.013209608383476734,0.05191394314169884,-0.06551545113325119
1772363418752830200,0.272830322265625,0.017746353521943092,-0.008094392716884613,-0.06093325838446617
1772363418762899200,0.282899169921875,0.015454702079296112,0.018179023638367653,-0.03333359211683273
1772363418772969200,0.29296923828125,0.011654285714030266,0.056562069803476334,-0.008835133165121078
1772363418783038200,0.3030380859375,0.008320541121065617,0.0270643662661314,-0.0009130276739597321
1772363418793108200,0.313108154296875,0.008179579861462116,-0.008954187855124474,0.0063308235257864
1772363418803178200,0.32317822265625,0.002667901571840048,-0.014428049325942993,0.023264534771442413
1772363418813247200,0.333247314453125,-0.004372660536319017,-0.0023291539400815964,0.04003366827964783
1772363418823317200,0.343317138671875,-0.0010889829136431217,0.005276301875710487,0.03395553305745125
1772363418833386200,0.35338623046875,-0.005177093204110861,0.03479337692260742,0.046022605150938034
1772363418843456300,0.363456298828125,0.008612754754722118,0.038119133561849594,0.013740300200879574
1772363418853525200,0.373525146484375,0.014090949669480324,0.007048343308269978,0.009617474861443043
1772363418863595300,0.38359521484375,-0.0013846796937286854,-0.024448595941066742,0.015576831065118313
1772363418873664300,0.393664306640625,-0.009344637393951416,-0.01897888444364071,0.021568937227129936
1772363418883734300,0.403734375,-0.013331122696399689,-0.013979066163301468,0.010046770796179771
1772363418893803300,0.41380322265625,-0.013676196336746216,-0.02549532987177372,-0.0025070905685424805
1772363418903873300,0.423873291015625,-0.017111940309405327,-0.042319584637880325,-0.009628916159272194
1772363418913942300,0.4339423828125,-0.02088935673236847,-0.05504311993718147,-0.018566802144050598
1772363418924012300,0.44401220703125,-0.023742401972413063,-0.059255439788103104,-0.02067895606160164
1772363418934081300,0.454081298828125,-0.028341714292764664,-0.042014025151729584,-0.023012692108750343
1772363418944151000,0.464151123046875,-0.033586278557777405,-0.02190369740128517,-0.009129101410508156
1772363418954220300,0.47422021484375,-0.03667386621236801,-0.007775527890771627,-0.0025631291791796684
1772363418964290000,0.4842900390625,-0.03872743248939514,-0.015515739098191261,-0.0017750998958945274
1772363418974359300,0.494359375,-0.0345134474337101,-0.03671930730342865,0.0014378214254975319
1772363418984429300,0.50442919921875,-0.035094812512397766,-0.058842986822128296,0.005336955189704895
1772363418994498300,0.514498291015625,-0.03661075979471207,-0.06395097076892853,0.005073553882539272
1772363419004568300,0.524568359375,-0.034919653087854385,-0.05952932685613632,0.003592570312321186
1772363419014638000,0.53463818359375,-0.03468356654047966,-0.04170508310198784,0.00634697824716568
1772363419024707300,0.544707275390625,-0.03384866565465927,-0.029210863634943962,0.01109539344906807
1772363419034777000,0.554777099609375,-0.03008902259171009,-0.03487241640686989,0.015340538695454597
1772363419044846300,0.564846435546875,-0.027483118698000908,-0.04331756755709648,0.016815131530165672
1772363419054916000,0.574916015625,-0.027463076636195183,-0.045189592987298965,0.02144753560423851
1772363419064985300,0.5849853515625,-0.025988483801484108,-0.03729518502950668,0.029478829354047775
1772363419075055400,0.595055419921875,-0.02690897136926651,-0.04352205991744995,0.031661197543144226
1772363419085124400,0.605124267578125,-0.02311370149254799,-0.05367136746644974,0.020686578005552292
1772363419095194400,0.6151943359375,-0.024540651589632034,-0.05698923021554947,0.003024417906999588
1772363419105263400,0.625263427734375,-0.029495995491743088,-0.04822130501270294,-0.008945425972342491
1772363419115333400,0.63533349609375,-0.02528740093111992,-0.031995996832847595,-0.019973309710621834
1772363419125402000,0.645402099609375,-0.020014341920614243,-0.018769674003124237,-0.028025910258293152
1772363419135472400,0.655472412109375,-0.010815509594976902,-0.01671552285552025,-0.030754918232560158
1772363419145541000,0.665541015625,-0.005381062626838684,-0.00299598160199821,-0.034946467727422714
1772363419155611400,0.675611328125,0.0021002315916121006,0.0063864076510071754,-0.035815343260765076
1772363419165680000,0.68568017578125,0.008681435137987137,0.010197124443948269,-0.031364668160676956
1772363419175750100,0.695750244140625,0.012699121609330177,0.010188950225710869,-0.023239610716700554
1772363419185819100,0.705819091796875,0.015741784125566483,0.006156924180686474,-0.019047262147068977
1772363419195889200,0.71588916015625,0.016805697232484818,-0.001430995762348175,-0.017521679401397705
1772363419205958400,0.72595849609375,0.025032466277480125,0.006147295702248812,-0.019616521894931793
1772363419216028200,0.736028076171875,0.02601783722639084,0.015096047893166542,-0.010030739940702915
1772363419226098200,0.74609814453125,0.029916437342762947,0.0327080674469471,-0.005887127481400967
1772363419236167200,0.756167236328125,0.03281322121620178,0.048050254583358765,0.00020546931773424149
1772363419246237200,0.7662373046875,0.04100697115063667,0.0870559811592102,0.009117204695940018
1772363419256306200,0.77630615234375,0.05636906996369362,0.07796131819486618,-0.03733501210808754
1772363419266376200,0.786376220703125,0.061336666345596313,0.019310254603624344,-0.047909628599882126
1772363419276445200,0.796445068359375,0.06832005083560944,0.004791045095771551,-0.05130060762166977
1772363419286515200,0.80651513671875,0.06985136866569519,0.03194570168852806,-0.06256018579006195
1772363419296584400,0.81658447265625,0.06706546247005463,0.03210212662816048,-0.05993929132819176
1772363419306654200,0.826654296875,0.06363344937562943,0.025337964296340942,-0.049865350127220154
1772363419316723500,0.836723388671875,0.06000027433037758,0.015526585280895233,-0.047311075031757355
1772363419326793200,0.846793212890625,0.05128294974565506,-0.0028758582193404436,-0.028913957998156548
1772363419336862200,0.8568623046875,0.04998026788234711,-0.01535407081246376,-0.013947959989309311
1772363419346932200,0.86693212890625,0.05106816813349724,-0.02925523929297924,-0.0014481469988822937
1772363419357001200,0.877001220703125,0.049720510840415955,-0.03861958533525467,0.010212677530944347
1772363419367071200,0.8870712890625,0.047674406319856644,-0.0468844398856163,0.016907863318920135
1772363419377140200,0.89714013671875,0.05083635821938515,-0.05204842612147331,0.0025479700416326523
1772363419387210500,0.90721044921875,0.057511571794748306,-0.06178733706474304,-0.005880934651941061
1772363419397279200,0.917279296875,0.05932893976569176,-0.055244382470846176,-0.004055529832839966
1772363419407349200,0.927349365234375,0.0618690624833107,-0.03113425523042679,-0.015405922196805477
1772363419417418200,0.937418212890625,0.06357798725366592,-0.022115558385849,-0.02014775574207306
1772363419427488300,0.94748828125,0.06839697808027267,-0.025111613795161247,-0.02773803099989891
1772363419437557200,0.95755712890625,0.07099827378988266,-0.019949577748775482,-0.03362284600734711
1772363419447627300,0.967627197265625,0.07997685670852661,-0.010708675719797611,-0.04532957077026367
1772363419457697300,0.977697265625,0.08231644332408905,-0.005471835378557444,-0.049869462847709656
1772363419467766300,0.987766357421875,0.08432313799858093,0.006573375780135393,-0.05020182579755783
1772363419477836300,0.997836181640625,0.0857914462685585,0.01749219372868538,-0.04348023235797882
1772363419487905300,1.0079052734375,0.08812757581472397,0.01737554743885994,-0.03940639644861221
1772363419497975300,1.017975341796875,0.0887550488114357,0.007742514833807945,-0.032547153532505035
1772363419508044300,1.028044189453125,0.08392833173274994,-0.0038265236653387547,-0.023509714752435684
1772363419518114300,1.0381142578125,0.08216249197721481,-0.002379221376031637,-0.01880514807999134
1772363419528183300,1.048183349609375,0.0788726955652237,0.009793289005756378,-0.010066516697406769
1772363419538253300,1.05825341796875,0.06940167397260666,0.017126264050602913,0.0060638366267085075
1772363419548322300,1.068322265625,0.06408120691776276,0.02596236579120159,0.011410932056605816
1772363419558392300,1.078392333984375,0.05584271252155304,0.018844477832317352,0.01046371553093195
1772363419568461000,1.0884609375,0.044212423264980316,0.01344491820782423,0.002648136578500271
1772363419578531300,1.09853125,0.02966897189617157,0.005499685648828745,-0.006685163360089064
1772363419588600000,1.10860009765625,0.015438105911016464,-0.005061079282313585,-0.025892678648233414
1772363419598670300,1.11867041015625,-0.003995593637228012,-0.0049890074878931046,-0.033662132918834686
1772363419608739300,1.1287392578125,-0.016475966200232506,-0.007664152421057224,-0.03853704780340195
1772363419618809300,1.138809326171875,-0.03114001266658306,-0.01629653573036194,-0.037260640412569046
1772363419628878300,1.14887841796875,-0.042533282190561295,-0.023733943700790405,-0.03709019720554352
1772363419638948000,1.158947998046875,-0.05275111272931099,-0.02636418305337429,-0.03296038135886192
1772363419649017300,1.169017333984375,-0.054779376834630966,-0.021175812929868698,-0.020952187478542328
1772363419659087600,1.179087646484375,-0.05674581229686737,-0.016220789402723312,-0.00014816783368587494
1772363419669156900,1.189156982421875,-0.05591011047363281,-0.01530546136200428,0.014539697207510471
1772363419679227000,1.199226806640625,-0.05929628759622574,-0.032462187111377716,0.033218055963516235
1772363419689296000,1.2092958984375,-0.06661784648895264,-0.03701432794332504,0.04123044013977051
1772363419699366000,1.219365966796875,-0.07375296205282211,-0.03088529221713543,0.04418322816491127
1772363419709435600,1.229435546875,-0.08429242670536041,-0.020741842687129974,0.04877398535609245
1772363419719505000,1.2395048828125,-0.08278658986091614,-0.007483934983611107,0.04328162595629692
1772363419729574700,1.24957470703125,-0.07679953426122665,-0.019160831347107887,0.04217854514718056
1772363419739644000,1.259643798828125,-0.06320498138666153,-0.03604409843683243,0.04563385248184204
1772363419749713700,1.269713623046875,-0.057460278272628784,-0.03508403152227402,0.04496486857533455
1772363419759783000,1.279782958984375,-0.0545157715678215,-0.03145654872059822,0.042769841849803925
1772363419769853000,1.28985302734375,-0.05761302635073662,-0.031615808606147766,0.030255116522312164
1772363419779921700,1.299921630859375,-0.05905994027853012,-0.028775660321116447,0.018450528383255005
1772363419789992000,1.309991943359375,-0.05857177823781967,-0.035808268934488297,0.0037165889516472816
1772363419800060700,1.320060791015625,-0.06081661954522133,-0.038812510669231415,-0.01477895025163889
1772363419810131000,1.330130859375,-0.055677782744169235,-0.03945939242839813,-0.022178543731570244
1772363419820199700,1.34019970703125,-0.04963366314768791,-0.03384300693869591,-0.025823064148426056
1772363419830269700,1.350269775390625,-0.03555512800812721,-0.024997850880026817,-0.0333145372569561
1772363419840338700,1.360338623046875,-0.025157921016216278,-0.03316245973110199,-0.03325195983052254
1772363419850408700,1.37040869140625,-0.018582575023174286,-0.029404208064079285,-0.029998108744621277
1772363419860477700,1.380477783203125,-0.012228308245539665,-0.01549733430147171,-0.021035514771938324
1772363419870547700,1.390547607421875,-0.004600748885422945,-0.01257238443940878,-0.004674917086958885
1772363419880616700,1.40061669921875,-0.004698640201240778,-0.016617069020867348,0.015178452245891094
1772363419890686700,1.410686767578125,-0.0034626671113073826,-0.010353846475481987,0.03088231384754181
1772363419900755700,1.420755615234375,0.0026596453972160816,-0.009073764085769653,0.03901340067386627
1772363419910825700,1.43082568359375,0.005103894509375095,-0.0038132215850055218,0.03947998955845833
1772363419920895700,1.440895751953125,0.011419359594583511,0.00218362919986248,0.043034449219703674
1772363419930964700,1.45096484375,0.017560875043272972,0.004392721690237522,0.03554191440343857
1772363419941034800,1.46103466796875,0.01963690295815468,0.003958975430577993,0.027714774012565613
1772363419951103700,1.471103759765625,0.017736203968524933,0.0018928954377770424,0.02461911365389824
1772363419961173800,1.481173828125,0.016264189034700394,0.007825061678886414,0.021084873005747795
1772363419971242800,1.49124267578125,0.01720561645925045,0.012968158349394798,0.012170739471912384
1772363419981312800,1.501312744140625,0.013374954462051392,0.01333976723253727,0.011731394566595554
1772363419991381800,1.5113818359375,0.01504741981625557,0.0028157527558505535,0.010808075778186321
1772363420001451800,1.52145166015625,0.01371699757874012,0.009863624349236488,0.006092045456171036
1772363420011520800,1.531520751953125,0.010671140626072884,0.011890023946762085,0.012331565842032433
1772363420021590800,1.5415908203125,0.006554901599884033,0.0206977017223835,0.027563361451029778
1772363420031659800,1.55165966796875,-0.00027504144236445427,0.03520287573337555,0.029241686686873436
1772363420041729800,1.561729736328125,-0.0037588304840028286,0.03723546862602234,0.028085850179195404
1772363420051798800,1.571798828125,-0.008067557588219643,0.030094467103481293,0.03576188161969185
1772363420061868500,1.58186865234375,-0.013533568009734154,0.022514283657073975,0.044580306857824326
1772363420071937800,1.591937744140625,-0.018314741551876068,0.014498967677354813,0.04851166531443596
1772363420082007600,1.602007568359375,-0.01763797551393509,0.009047141298651695,0.04714135453104973
1772363420092076800,1.612076904296875,-0.018470479175448418,0.005877180956304073,0.048980534076690674
1772363420102146800,1.622146728515625,-0.017239615321159363,0.008878691121935844,0.04172612726688385
1772363420112215800,1.6322158203125,-0.018083037808537483,0.015243379399180412,0.03828079625964165
1772363420122285800,1.642285888671875,-0.02014097012579441,0.0259938295930624,0.03987787291407585
1772363420132354800,1.652354736328125,-0.02404649741947651,0.03158673644065857,0.039788391441106796
1772363420142424800,1.6624248046875,-0.03191010281443596,0.03654226288199425,0.034733016043901443
1772363420152493800,1.672493896484375,-0.028047190979123116,0.034067388623952866,0.018011029809713364
1772363420162563800,1.682563720703125,-0.02466207556426525,0.0319809690117836,0.0006628567352890968
1772363420172633600,1.692633544921875,-0.017646774649620056,0.03458154574036598,-0.017617879435420036
1772363420182702800,1.702702880859375,-0.01381556037813425,0.035837966948747635,-0.04088105633854866
1772363420192772900,1.71277294921875,-0.014695734716951847,0.030000317841768265,-0.045618556439876556
1772363420202841900,1.722841796875,-0.012939848005771637,0.018760433420538902,-0.041605617851018906
1772363420212911900,1.732911865234375,-0.009378137066960335,0.014182725921273232,-0.029697827994823456
1772363420222980900,1.74298095703125,-0.008122759871184826,0.0059731099754571915,-0.014649909920990467
1772363420233051000,1.75305078125,-0.0008366163820028305,-0.003886178368702531,-0.003167690709233284
1772363420243119600,1.76311962890625,0.002688976936042309,-0.001467621186748147,0.0001839892938733101
1772363420253190000,1.77318994140625,0.007974286563694477,0.006590304896235466,0.009303185157477856
1772363420263258600,1.783258544921875,0.011255582794547081,0.016147706657648087,0.015902893617749214
1772363420273329000,1.793328857421875,0.017437579110264778,0.02893194369971752,0.01966540701687336
1772363420283397600,1.803397705078125,0.014497550204396248,0.03211775794625282,0.021606408059597015
1772363420293467600,1.813467529296875,0.011112671345472336,0.03938392922282219,0.015703514218330383
1772363420303536600,1.82353662109375,0.002826000563800335,0.0431416854262352,-0.002094777300953865
1772363420313606700,1.833606689453125,0.00045285793021321297,0.03172178566455841,-0.014077138155698776
1772363420323676000,1.843676025390625,-0.0038203857839107513,0.017616871744394302,-0.023571757599711418
1772363420333745700,1.85374560546875,-0.00438364502042532,0.0012850365601480007,-0.034502435475587845
1772363420343815000,1.86381494140625,-0.0026015937328338623,-0.012302173301577568,-0.048169877380132675
1772363420353884700,1.873884765625,-0.004885254427790642,-0.01634272187948227,-0.048776011914014816
1772363420363954000,1.883953857421875,0.00007701339200139046,-0.00822301022708416,-0.04502015560865402
1772363420374023700,1.894023681640625,-0.0036423569545149803,0.005062435287982225,-0.037340134382247925
1772363420384093000,1.904093017578125,-0.001145289745181799,0.005582442507147789,-0.025717955082654953
1772363420394162700,1.91416259765625,-0.0015245242975652218,0.00489534717053175,-0.01204129122197628
1772363420404231700,1.924231689453125,-0.006080610677599907,0.0033468552865087986,0.00707670021802187
1772363420414302000,1.934302001953125,-0.005128264427185059,0.003808381501585245,0.014910121448338032
1772363420424371700,1.944371826171875,-0.005906396079808474,0.010259568691253662,0.015696756541728973
1772363420434441000,1.95444091796875,-0.004466158803552389,0.009318673983216286,0.019931182265281677
1772363420444510700,1.9645107421875,-0.004437210038304329,0.005954201333224773,0.015408391132950783
1772363420454579700,1.974579833984375,-0.005642822943627834,0.008428012020885944,0.00919257290661335
1772363420464649700,1.984649658203125,0.0009728358127176762,0.009513124823570251,0.009699731133878231
1772363420474718700,1.99471875,0.0027563548646867275,0.01413131132721901,0.017768044024705887
1772363420484788700,2.004788818359375,0.006312905810773373,0.013724240474402905,0.016965007409453392
1772363420494857700,2.014857666015625,0.002701392862945795,0.0010097767226397991,0.012147350236773491
1772363420504928000,2.024927978515625,0.0030423863790929317,-0.008492983877658844,0.003319794312119484
1772363420514996700,2.034996826171875,-0.0004660617560148239,-0.019079580903053284,-0.003884056583046913
1772363420525066800,2.045066650390625,-0.013952849432826042,-0.020449835807085037,-0.0059828259982168674
1772363420535135700,2.0551357421875,-0.012703027576208115,-0.014339211396872997,-0.01425300631672144
1772363420545205800,2.065205810546875,-0.017265908420085907,-0.008899730630218983,-0.020239489153027534
1772363420555274800,2.075274658203125,-0.016710638999938965,-0.0169664453715086,-0.02556714415550232
1772363420565344800,2.0853447265625,-0.0174782145768404,-0.012915248051285744,-0.0301178228110075
1772363420575413800,2.095413818359375,-0.015991104766726494,-0.0034575634635984898,-0.03366515412926674
1772363420585483800,2.10548388671875,-0.014187050983309746,-0.0038910277653485537,-0.032495949417352676
1772363420595552800,2.115552734375,-0.014203563332557678,-0.006656454410403967,-0.023645199835300446
1772363420605622800,2.125622802734375,-0.014845633879303932,-0.011148294433951378,-0.015719769522547722
1772363420615691800,2.13569189453125,-0.015097303315997124,-0.01389854121953249,-0.0024745380505919456
1772363420625761800,2.14576171875,-0.009110763669013977,-0.007823830470442772,0.010335943661630154
1772363420635830500,2.15583056640625,-0.006583422888070345,0.0000878884457051754,0.022699404507875443
1772363420645900800,2.16590087890625,-0.004627763293683529,0.0033607869409024715,0.03221896290779114
1772363420655969800,2.1759697265625,-0.004878100007772446,0.004901159089058638,0.031598713248968124
1772363420666040000,2.1860400390625,-0.001992630772292614,0.012464551255106926,0.024369746446609497
1772363420676108800,2.19610888671875,0.0035222433507442474,0.01290823332965374,0.013112829998135567
1772363420686178800,2.2061787109375,0.005126891657710075,0.00932583399116993,0.004989015869796276
1772363420696248800,2.216248779296875,0.007909095846116543,0.007832598872482777,-0.0070641846396028996
1772363420706317800,2.22631787109375,0.00892416387796402,0.009811622090637684,-0.01685439795255661
1772363420716387800,2.236387939453125,0.007205359637737274,0.015991752967238426,-0.01860249787569046
1772363420726456800,2.246456787109375,0.008995487354695797,0.017862752079963684,-0.021107686683535576
1772363420736526800,2.25652685546875,0.00737442122772336,0.018099240958690643,-0.02299347147345543
1772363420746595800,2.266595947265625,0.008926091715693474,0.015940342098474503,-0.0298292338848114
1772363420756665900,2.276665771484375,0.007413416635245085,0.008234484121203423,-0.02476443722844124
1772363420766734800,2.28673486328125,0.0074568260461091995,0.0046341572888195515,-0.02536631003022194
1772363420776804900,2.296804931640625,0.002017053309828043,-0.0047074127942323685,-0.023534588515758514
1772363420786873900,2.306873779296875,-0.006415313575416803,-0.010842537507414818,-0.008967096917331219
1772363420796944000,2.31694384765625,-0.004974010866135359,-0.004591831937432289,0.009563176892697811
1772363420807012900,2.327012939453125,-0.006719164550304413,0.0018656477332115173,0.02117282710969448
1772363420817083000,2.337082763671875,-0.006138329394161701,-0.00013704923912882805,0.028824353590607643
1772363420827152000,2.34715185546875,-0.005195714067667723,-0.009617988020181656,0.03588702529668808
1772363420837222000,2.357221923828125,-0.0022715632803738117,-0.008036069571971893,0.038863107562065125
1772363420847291000,2.367290771484375,-0.000626981258392334,0.002585248090326786,0.026662318035960197
1772363420857361000,2.37736083984375,0.004388283472508192,0.014754828065633774,0.021111490204930305
1772363420867429600,2.3874296875,0.00044584041461348534,0.015137666836380959,0.014811606146395206
1772363420877500000,2.3975,0.0006959112361073494,0.02242780290544033,0.006633304990828037
1772363420887569000,2.40756884765625,0.0006385724991559982,0.023467933759093285,-0.007822812534868717
1772363420897639000,2.417638916015625,-0.002251223661005497,0.02619767375290394,-0.021501606330275536
1772363420907708000,2.4277080078125,0.00446768943220377,0.030523354187607765,-0.0359468013048172
1772363420917777700,2.437777587890625,0.0009091733954846859,0.03655381500720978,-0.044513922184705734
1772363420927847000,2.447846923828125,0.0010648444294929504,0.03668266534805298,-0.03852648660540581
1772363420937916700,2.457916748046875,-0.0031139212660491467,0.039919205009937286,-0.02687595784664154
1772363420947987000,2.467987060546875,0.001269051805138588,0.03440359979867935,-0.013182666152715683
1772363420958055700,2.4780556640625,-0.0014926460571587086,0.012206422165036201,0.0008466001600027084
1772363420968125700,2.488125732421875,-0.0010804696939885616,-0.0030714329332113266,0.012432201765477657
1772363420978195000,2.49819482421875,0.003976340871304274,-0.0015670133288949728,0.023213475942611694
1772363420988264700,2.5082646484375,0.006109981331974268,0.013577557168900967,0.030428815633058548
1772363420998334000,2.518333984375,0.012205423787236214,0.028592195361852646,0.03176918625831604
1772363421008403700,2.52840380859375,0.013828599825501442,0.032387688755989075,0.029816944152116776
1772363421018473000,2.538472900390625,0.01454072818160057,0.030117079615592957,0.025310873985290527
1772363421028542700,2.548542724609375,0.016211112961173058,0.02704526111483574,0.014264837838709354
1772363421038612000,2.558612060546875,0.011046444065868855,0.023181546479463577,0.002900596708059311
1772363421048681700,2.568681640625,0.010153332725167274,0.011560702696442604,-0.011900151148438454
1772363421058751000,2.5787509765625,0.009264370426535606,0.0021371077746152878,-0.02175411395728588
1772363421068821000,2.588821044921875,0.009785633534193039,-0.005293944384902716,-0.030020706355571747
1772363421078889700,2.5988896484375,0.009614658541977406,-0.00642046146094799,-0.04235087335109711
1772363421088960000,2.6089599609375,0.006945701315999031,0.00184530857950449,-0.05354476720094681
1772363421099028700,2.61902880859375,-0.0012613623403012753,0.011831896379590034,-0.05240706726908684
1772363421109099000,2.62909912109375,-0.0021547009237110615,0.012444300577044487,-0.0506315752863884
1772363421119167700,2.639167724609375,-0.007477560546249151,0.0052423132583498955,-0.039721667766571045
1772363421129238000,2.649238037109375,-0.015647750347852707,-0.006190190557390451,-0.017896028235554695
1772363421139306800,2.659306640625,-0.018451526761054993,-0.006565696094185114,-0.007216752506792545
1772363421149376800,2.669376708984375,-0.024249717593193054,-0.009839307516813278,-0.0035749413073062897
1772363421159445800,2.67944580078125,-0.02939467877149582,-0.013011399656534195,0.0065908776596188545
1772363421169515800,2.689515869140625,-0.02819279208779335,-0.015275618061423302,0.01240429189056158
1772363421179586000,2.6995859375,-0.030522260814905167,-0.01802985928952694,0.014658390544354916
1772363421189654800,2.70965478515625,-0.02790120616555214,-0.012830400839447975,0.0167587511241436
1772363421199724800,2.719724853515625,-0.024040687829256058,0.0007658349350094795,0.020465336740016937
1772363421209793800,2.729793701171875,-0.018913419917225838,0.0044708349741995335,0.01927362009882927
1772363421219863800,2.73986376953125,-0.0201288852840662,-0.008667869493365288,0.01358697097748518
1772363421229932800,2.749932861328125,-0.017891015857458115,-0.015864413231611252,0.010826201178133488
1772363421240002800,2.7600029296875,-0.01786518469452858,-0.013800730928778648,0.01635465770959854
1772363421250071800,2.77007177734375,-0.025038352236151695,-0.01717609353363514,0.01464798953384161
1772363421260141800,2.780141845703125,-0.026221325621008873,-0.021727435290813446,0.005476062186062336
1772363421270210800,2.7902109375,-0.02955528162419796,-0.021882768720388412,-0.0030347146093845367
1772363421280280800,2.80028076171875,-0.027059899643063545,-0.014054407365620136,-0.01502826064825058
1772363421290350000,2.81035009765625,-0.020266709849238396,-0.01519397459924221,-0.025401804596185684
1772363421300419800,2.820419921875,-0.01414862833917141,-0.010420790873467922,-0.03737244755029678
1772363421310488800,2.83048876953125,-0.017069648951292038,-0.0030049383640289307,-0.04527786001563072
1772363421320558800,2.840558837890625,-0.01518972311168909,0.0022417553700506687,-0.057278864085674286
1772363421330627800,2.8506279296875,-0.013198763132095337,0.006906508002430201,-0.05956985801458359
1772363421340697900,2.86069775390625,-0.009780596941709518,0.006432199385017157,-0.04971429705619812
1772363421350766800,2.870766845703125,-0.006892241071909666,0.0066122980788350105,-0.03701477125287056
1772363421360836900,2.8808369140625,0.00029243482276797295,0.011976169422268867,-0.023330118507146835
1772363421370905900,2.89090576171875,0.0017670346423983574,0.01616671122610569,-0.010233558714389801
1772363421380975600,2.9009755859375,-0.002458336763083935,0.0185832642018795,0.005164838396012783
1772363421391044900,2.911044921875,-0.0015858928672969341,0.019858594983816147,0.009981767274439335
1772363421401115000,2.921114990234375,0.0005718003958463669,0.022552914917469025,0.017949946224689484
1772363421411185000,2.931184814453125,0.002100326120853424,0.01845274120569229,0.026124879717826843
1772363421421254000,2.94125390625,0.005887341219931841,0.024967633187770844,0.025122735649347305
1772363421431323600,2.95132373046875,0.008804178796708584,0.031135864555835724,0.02220873162150383
1772363421441393000,2.961392822265625,0.010708605870604515,0.034389182925224304,0.018518390133976936
1772363421451462700,2.971462646484375,0.007427252363413572,0.03337074816226959,0.010994146578013897
1772363421461532000,2.981531982421875,0.0033273156732320786,0.03191346675157547,0.008060942403972149
1772363421471601700,2.9916015625,-0.0007717572152614594,0.031347792595624924,0.0016356166452169418
1772363421481671000,3.0016708984375,0.002926575019955635,0.02700364775955677,-0.0012246174737811089
1772363421491741000,3.011740966796875,0.0041182031854987144,0.01826338842511177,-0.006191512104123831
1772363421501810000,3.021809814453125,-0.00464892340824008,0.01305398065596819,0.0005841022357344627
1772363421511880000,3.0318798828125,-0.001572879496961832,0.01485755667090416,0.0051638344302773476
1772363421521949000,3.041948974609375,-0.005096774082630873,0.009904342703521252,0.006936167366802692
1772363421532019000,3.05201904296875,-0.007845436222851276,0.004016377963125706,0.013593323528766632
1772363421542087700,3.062087646484375,-0.009663576260209084,-0.00010353187099099159,0.01388254202902317
1772363421552158000,3.072157958984375,-0.010582827031612396,-0.0005556927062571049,0.014864464290440083
1772363421562226700,3.082226806640625,-0.0065385508351027966,-0.004098229575902224,0.01902884989976883
1772363421572297000,3.092296875,-0.0022047627717256546,-0.00811883807182312,0.024192877113819122
1772363421582365700,3.10236572265625,-0.0019536269828677177,-0.010569478385150433,0.029584180563688278
1772363421592435700,3.112435791015625,0.0007529598660767078,-0.01458115316927433,0.030730005353689194
1772363421602504700,3.122504638671875,-0.0009115161374211311,-0.01036803238093853,0.027493197470903397
1772363421612574700,3.13257470703125,-0.001632987055927515,-0.006360280327498913,0.01904577575623989
1772363421622645000,3.14264501953125,0.00007463153451681137,0.0006414363160729408,0.010176649317145348
1772363421632713700,3.152713623046875,-0.0020407247357070446,0.004254489205777645,0.0011352868750691414
1772363421642784000,3.162783935546875,0.002379590179771185,0.0009668171405792236,-0.008162608370184898
1772363421652852700,3.172852783203125,-0.0011064880527555943,0.0005012964829802513,-0.01989676058292389
1772363421662926600,3.182926513671875,-0.0015043639577925205,-0.0010798224247992039,-0.03183677792549133
1772363421672995600,3.19299560546875,0.0013482277281582355,-0.00048370566219091415,-0.02779628522694111
1772363421683065600,3.203065673828125,-0.006442050915211439,0.01066961232572794,-0.020207341760396957
1772363421693134600,3.213134521484375,-0.007902313955128193,0.017357338219881058,-0.007521242834627628
1772363421703204600,3.22320458984375,-0.008605919778347015,0.013515196740627289,0.010506226681172848
1772363421713273600,3.233273681640625,-0.00906933844089508,-0.010298620909452438,0.02859034575521946
1772363421723343600,3.243343505859375,-0.008478382602334023,-0.015883270651102066,0.04158630967140198
1772363421733412900,3.253412841796875,-0.004613056778907776,-0.008408192545175552,0.04804859310388565
1772363421743482600,3.263482666015625,-0.00006650853902101517,0.0019400520250201225,0.04851144924759865
1772363421753551600,3.273551513671875,-0.0021774815395474434,0.014400307089090347,0.04575458541512489
1772363421763621600,3.28362158203125,0.0009394818916916847,0.023167166858911514,0.04093879088759422
1772363421773690600,3.293690673828125,-0.005920474883168936,0.02031422220170498,0.03395193815231323
1772363421783760600,3.3037607421875,-0.01571611501276493,0.009380348026752472,0.02840430475771427
1772363421793829600,3.31382958984375,-0.021275047212839127,0.0033538909628987312,0.014842735603451729
1772363421803899600,3.323899658203125,-0.022005286067724228,-0.0008911876939237118,0.003452662378549576
1772363421813968600,3.33396875,-0.019890179857611656,-0.00666048564016819,-0.0025007762014865875
1772363421824038700,3.34403857421875,-0.020540257915854454,-0.0064636776223778725,-0.01022314466536045
1772363421834107600,3.354107666015625,-0.013820165768265724,-0.0057280841283500195,-0.01724819839000702
1772363421844177700,3.364177734375,-0.011434771120548248,-0.008074861019849777,-0.02092708833515644
1772363421854247700,3.37424755859375,-0.013779284432530403,-0.008751409128308296,-0.012898539192974567
1772363421864316700,3.384316650390625,-0.011729981750249863,-0.0037337476387619972,-0.001577175222337246
1772363421874386400,3.394386474609375,-0.008614536374807358,-0.002861995715647936,0.012661097571253777
1772363421884455700,3.40445556640625,-0.007999079301953316,0.0004885271191596985,0.025351060554385185
1772363421894525400,3.414525390625,-0.00023412937298417091,0.0008367723785340786,0.032734863460063934
1772363421904594700,3.4245947265625,0.0017086467705667019,-0.001555279130116105,0.04012486711144447
1772363421914664700,3.434664794921875,0.0012819641269743443,-0.005720941349864006,0.03832463175058365
1772363421924733700,3.444733642578125,-0.0011369846761226654,0.00474075460806489,0.037226077169179916
1772363421934803700,3.4548037109375,0.0012716427445411682,0.014986719936132431,0.032556310296058655
1772363421944872700,3.464872802734375,0.006979329511523247,0.026741644367575645,0.02595752850174904
1772363421954942700,3.474942626953125,0.006106921937316656,0.026412157341837883,0.032286468893289566
1772363421965011700,3.48501171875,0.006465649697929621,0.023042727261781693,0.028300516307353973
1772363421975081700,3.495081787109375,0.0030431929044425488,0.005364300217479467,0.02400290034711361
1772363421985150500,3.505150390625,-0.0009350371547043324,-0.013204855844378471,0.0135332141071558
1772363421995220700,3.515220703125,-0.0060325865633785725,-0.025774385780096054,0.004126059822738171
1772363422005289500,3.52528955078125,-0.007428615819662809,-0.021627042442560196,-0.010026777163147926
1772363422015359700,3.53535986328125,-0.00627866992726922,-0.01650824211537838,-0.01872938498854637
1772363422025428500,3.545428466796875,-0.010077670216560364,-0.011083648540079594,-0.02245248481631279
1772363422035498500,3.55549853515625,-0.006246971432119608,-0.0016195140779018402,-0.030466537922620773
1772363422045567700,3.565567626953125,-0.0017145373858511448,-0.0015555983409285545,-0.036922305822372437
1772363422055637500,3.575637451171875,0.003422859124839306,0.004547635093331337,-0.03643683344125748
1772363422065707800,3.585707763671875,0.003935517743229866,0.009778349660336971,-0.0297861211001873
1772363422075776500,3.595776611328125,-0.000011892057955265045,0.01438078097999096,-0.0193454809486866
1772363422085846800,3.6058466796875,-0.0008896705694496632,0.015417816117405891,-0.007548210211098194
1772363422095915500,3.61591552734375,0.003935970366001129,0.020535821095108986,0.0021478962153196335
1772363422105985500,3.625985595703125,0.003439823165535927,0.0237587783485651,0.014238114468753338
1772363422116054500,3.636054443359375,0.0023813610896468163,0.018874894827604294,0.021349847316741943
1772363422126124500,3.64612451171875,0.004319077357649803,0.01867355965077877,0.025706779211759567
1772363422136193800,3.65619384765625,0.0007942174561321735,0.019949886947870255,0.029101071879267693
1772363422146263600,3.666263671875,0.003400120884180069,0.01727474108338356,0.02824726141989231
1772363422156332800,3.676332763671875,0.0032685534097254276,0.016729801893234253,0.02287626825273037
1772363422166402600,3.686402587890625,0.006847043056041002,0.022163182497024536,0.012972505763173103
1772363422176471800,3.696471923828125,0.004769094288349152,0.023579441010951996,0.008149471133947372
1772363422186541600,3.70654150390625,0.007772074546664953,0.03069833666086197,0.0025283368304371834
1772363422196610800,3.71661083984375,0.0006906208582222462,0.028079986572265625,-0.00602442491799593
1772363422206680600,3.7266806640625,-0.0014982311986386776,0.01720416732132435,-0.011248747818171978
1772363422216749600,3.73674951171875,-0.008056409657001495,0.005744499620050192,-0.01190711185336113
1772363422226819600,3.746819580078125,-0.009683068841695786,-0.0027350052259862423,-0.017840635031461716
1772363422236888600,3.756888671875,-0.01593741588294506,-0.0033164802007377148,-0.012596993707120419
1772363422246958800,3.766958740234375,-0.017124120146036148,-0.003517016302794218,-0.007674140855669975
1772363422257028600,3.777028564453125,-0.016547702252864838,-0.008402652107179165,-0.00036534108221530914
1772363422267097600,3.78709765625,-0.015599085949361324,-0.01887659914791584,0.012466833926737309
1772363422277167600,3.797167724609375,-0.010119149461388588,-0.025349417701363564,0.017912067472934723
1772363422287236600,3.807236572265625,-0.003396266605705023,-0.028959065675735474,0.013941559940576553
1772363422297306600,3.817306640625,-0.00047872215509414673,-0.027984607964754105,0.016081541776657104
1772363422307375600,3.827375732421875,0.001776176504790783,-0.01532607153058052,0.009448939003050327
1772363422317445600,3.837445556640625,0.007912350818514824,-0.002508661476895213,-0.003247274085879326
1772363422327514600,3.8475146484375,0.015278121456503868,0.0023633255623281,-0.0153657216578722
1772363422337584600,3.857584716796875,0.015737416222691536,0.008790723979473114,-0.025533495470881462
1772363422347653600,3.867653564453125,0.017419734969735146,0.014070173725485802,-0.038063935935497284
1772363422357723600,3.8777236328125,0.01728605106472969,0.015213261358439922,-0.05192922055721283
1772363422367792600,3.887792724609375,0.016612539067864418,0.016825273633003235,-0.05803212150931358
1772363422377862700,3.897862548828125,0.017677342519164085,0.013398360460996628,-0.059572476893663406
1772363422387931600,3.907931640625,0.017669087275862694,0.008097605779767036,-0.050547026097774506
1772363422398001700,3.918001708984375,0.02097306214272976,0.00992552563548088,-0.03676847368478775
1772363422408070700,3.928070556640625,0.02489669807255268,0.011358040384948254,-0.024933386594057083
1772363422418140700,3.938140625,0.021320229396224022,-0.002319354796782136,-0.011557948775589466
1772363422428209700,3.948209716796875,0.023253951221704483,-0.0019635565113276243,-0.007709148805588484
1772363422438279700,3.95827978515625,0.024418991059064865,0.003691317979246378,-0.00022502802312374115
1772363422448349700,3.968349609375,0.026901323348283768,0.015076598152518272,0.005090908147394657
1772363422458418700,3.978418701171875,0.025628842413425446,0.011202193796634674,-0.0003119930624961853
1772363422468488700,3.98848876953125,0.01921169087290764,-0.003021217416971922,-0.003247595392167568
1772363422478557700,3.9985576171875,0.0166088305413723,-0.008928912691771984,-0.003461499698460102
1772363422488626700,4.008626708984375,0.012813294306397438,-0.0028068379033356905,-0.004352593794465065
1772363422498696400,4.018696533203125,0.004748724400997162,-0.009108434431254864,-0.006379570811986923
1772363422508765700,4.028765625,-0.0034143966622650623,-0.021609844639897346,-0.011289108544588089
1772363422518835500,4.03883544921875,0.0029854741878807545,-0.027573630213737488,-0.014232357032597065
1772363422528904700,4.04890478515625,-0.00010033044964075089,-0.03524326905608177,-0.018831903114914894
1772363422538974500,4.058974365234375,-0.005832373630255461,-0.03743309527635574,-0.023083612322807312
1772363422549043700,4.069043701171875,-0.0064936368726193905,-0.03628314286470413,-0.027932696044445038
1772363422559113700,4.07911376953125,-0.004738584626466036,-0.017763160169124603,-0.030189912766218185
1772363422569182700,4.0891826171875,-0.0085985716432333,-0.00925835594534874,-0.029659945517778397
1772363422579252700,4.099252685546875,-0.008572356775403023,-0.006815849803388119,-0.02482253685593605
1772363422589321700,4.10932177734375,-0.00694649713113904,-0.017404578626155853,-0.020762547850608826
1772363422599391700,4.119391845703125,-0.003786260262131691,-0.026102617383003235,-0.01166404876857996
1772363422609460500,4.12946044921875,0.0003709341399371624,-0.019481468945741653,-0.009450696408748627
1772363422619530800,4.13953076171875,-0.003086497075855732,-0.013197200372815132,-0.0013112258166074753
1772363422629599500,4.149599609375,-0.007502283900976181,-0.012572422623634338,0.002740240655839443
1772363422639669800,4.159669677734375,-0.005811522714793682,-0.012515533715486526,0.0039523011073470116
1772363422649739800,4.16973974609375,0.000010946299880743027,-0.012062262743711472,0.011391309089958668
1772363422659808300,4.179808349609375,0.005216117016971111,-0.009460178203880787,0.011090961284935474
1772363422669878300,4.189878173828125,0.008526159450411797,-0.005973301362246275,0.005233072675764561
1772363422679947300,4.199947265625,0.0118882916867733,-0.007313604466617107,-0.0032477853819727898
1772363422690017300,4.210017333984375,0.012212399393320084,-0.008344247937202454,-0.010471876710653305
1772363422700086300,4.220086181640625,0.008880813606083393,-0.004067913629114628,-0.015756577253341675
1772363422710156300,4.23015625,0.003571801818907261,-0.006222677417099476,-0.018115604296326637
1772363422720225300,4.240225341796875,0.0004140338860452175,-0.01252843625843525,-0.02289693057537079
1772363422730295300,4.25029541015625,0.0002899304963648319,-0.02173498272895813,-0.022580547258257866
1772363422740364300,4.2603642578125,0.000865505076944828,-0.029800647869706154,-0.032350536435842514
1772363422750434000,4.27043408203125,0.00013180449604988098,-0.026540672406554222,-0.037538107484579086
1772363422760503300,4.28050341796875,0.004983464255928993,-0.01587127149105072,-0.04478054121136665
1772363422770573000,4.290572998046875,0.004421004559844732,0.006289158947765827,-0.0439847894012928
1772363422780642300,4.300642333984375,0.010430002585053444,0.02579367533326149,-0.04068794846534729
1772363422790712300,4.31071240234375,0.01498400792479515,0.030587630346417427,-0.03606283664703369
1772363422800782000,4.320781982421875,0.017505956813693047,0.017680104821920395,-0.025686979293823242
1772363422810851300,4.330851318359375,0.016225242987275124,0.009068772196769714,-0.008526899851858616
1772363422820921000,4.340921142578125,0.015302767977118492,0.005121915135532618,0.006631483323872089
1772363422830990300,4.350990234375,0.015097171068191528,0.013694630935788155,0.01265741791576147
1772363422841060000,4.36106005859375,0.009790757670998573,0.01695009507238865,0.015710381790995598
1772363422851129300,4.37112939453125,0.009743086993694305,0.018371157348155975,0.013415802270174026
1772363422861199000,4.38119921875,0.009087510406970978,0.01369392778724432,0.00755221676081419
1772363422871268400,4.391268310546875,0.012033233419060707,0.012105085887014866,0.002762521617114544
1772363422881338400,4.40133837890625,0.0142931267619133,0.009737284854054451,-0.001991839148104191
1772363422891407400,4.411407470703125,0.009793449193239212,0.0028048097155988216,-0.003471757285296917
1772363422901477400,4.421477294921875,0.010409971699118614,-0.001671964069828391,-0.002142307348549366
1772363422911546000,4.431546142578125,0.010373486205935478,0.0025613969191908836,0.00033336691558361053
1772363422921616400,4.441616455078125,0.002673359587788582,-0.0014911056496202946,0.003006214275956154
1772363422931685000,4.45168505859375,-0.0012691845186054707,-0.010118415579199791,-0.007220324128866196
1772363422941755400,4.46175537109375,0.0004634251818060875,-0.010374292731285095,-0.015589512884616852
1772363422951825200,4.4718251953125,0.001347061712294817,0.00041443854570388794,-0.017336014658212662
1772363422961894400,4.481894287109375,0.00008917786180973053,0.00500556081533432,-0.015043672174215317
1772363422971964400,4.49196435546875,-0.002201673574745655,0.0021354719065129757,-0.012381310574710369
1772363422982033200,4.502033203125,-0.004226984456181526,-0.009541123174130917,-0.005595958326011896
1772363422992103400,4.512103515625,-0.00632582139223814,-0.02228088676929474,0.0070540569722652435
1772363423002172200,4.522172119140625,-0.009467892348766327,-0.03148161992430687,0.014502106234431267
1772363423012242400,4.532242431640625,-0.012670077383518219,-0.03974008187651634,0.02698434144258499
1772363423022311200,4.542311279296875,-0.00848369486629963,-0.04252461716532707,0.02614009752869606
1772363423032381200,4.552381103515625,-0.008827243000268936,-0.043800804764032364,0.022035103291273117
1772363423042450200,4.5624501953125,-0.006914157420396805,-0.040298983454704285,0.01639489084482193
1772363423052520200,4.572520263671875,-0.005002274177968502,-0.029883895069360733,0.011896546930074692
1772363423062589200,4.582589111328125,-0.003468322567641735,-0.016251536086201668,0.004281960427761078
1772363423072659200,4.5926591796875,-0.0005010282620787621,-0.010203496553003788,0.0037226956337690353
1772363423082729200,4.602729248046875,-0.002552684396505356,-0.005565652623772621,-0.0032431334257125854
1772363423092798200,4.612798095703125,0.0004481654614210129,-0.006743036210536957,-0.014744793996214867
1772363423102868200,4.6228681640625,-0.0019956943579018116,-0.007875502109527588,-0.02764783427119255
1772363423112937200,4.632937255859375,-0.006861822213977575,-0.02353515475988388,-0.03824348747730255
1772363423123007200,4.64300732421875,-0.009785866364836693,-0.03151112049818039,-0.040331918746232986
1772363423133076200,4.653076171875,-0.01331828348338604,-0.03279609978199005,-0.030273690819740295
1772363423143146200,4.663146240234375,-0.01871991530060768,-0.025584330782294273,-0.015249314717948437
1772363423153215200,4.67321533203125,-0.012800771743059158,-0.02267136611044407,-0.004214506596326828
1772363423163285200,4.68328515625,-0.013974536210298538,-0.01853913813829422,0.0012851674109697342
1772363423173354200,4.693354248046875,-0.010335858911275864,-0.009463352151215076,0.01230346318334341
1772363423183424300,4.70342431640625,-0.0019072415307164192,0.003532037604600191,0.01702163740992546
1772363423193493200,4.7134931640625,-0.00040761567652225494,0.00856781005859375,0.016705520451068878
1772363423203563300,4.723563232421875,0.004414828959852457,0.012714026495814323,0.021021243184804916
1772363423213632300,4.73363232421875,0.0007471237331628799,0.011556349694728851,0.022802632302045822
1772363423223702300,4.743702392578125,0.00035352958366274834,-0.00007429346442222595,0.015175659209489822
1772363423233772300,4.753772216796875,-0.005756827536970377,-0.008493078872561455,0.009210444986820221
1772363423243841300,4.76384130859375,-0.008457913994789124,-0.0024076909758150578,0.004296093247830868
1772363423253911300,4.773911376953125,-0.0081923957914114,0.0039878906682133675,-0.007975752465426922
1772363423263980000,4.78397998046875,-0.01091509684920311,-0.005377530585974455,-0.024462807923555374
1772363423274050300,4.79405029296875,-0.012257860973477364,-0.018142061308026314,-0.03492077440023422
1772363423284119300,4.804119384765625,-0.015754874795675278,-0.019343923777341843,-0.03763661906123161
1772363423294189300,4.814189208984375,-0.01396363228559494,-0.010365341790020466,-0.03906220942735672
1772363423304258300,4.82425830078125,-0.02092237025499344,-0.0020486819557845592,-0.023563586175441742
1772363423314328300,4.834328369140625,-0.022421997040510178,-0.0035999733954668045,-0.008701016195118427
1772363423324397300,4.844397216796875,-0.02005002647638321,-0.010052746161818504,0.0012916773557662964
1772363423334467000,4.854467041015625,-0.02192169800400734,-0.017820920795202255,0.0067527564242482185
1772363423344536300,4.864536376953125,-0.015193989500403404,-0.015841562300920486,0.007420221343636513
1772363423354606000,4.874606201171875,-0.01396414265036583,-0.006394266150891781,-0.00018523447215557098
1772363423364676400,4.88467626953125,-0.010035309009253979,0.0012863203883171082,-0.0028869137167930603
1772363423374745300,4.894745361328125,-0.010328791104257107,0.010291000828146935,0.002926500514149666
1772363423384815000,4.904815185546875,-0.011773289181292057,-0.002106813248246908,0.013136527501046658
1772363423394884400,4.91488427734375,-0.009879515506327152,-0.014120332896709442,0.020427197217941284
1772363423404954000,4.9249541015625,-0.006164318881928921,-0.012462492100894451,0.02711702138185501
1772363423415023400,4.9350234375,-0.013242735527455807,-0.01706070639193058,0.029808413237333298
1772363423425093000,4.945093017578125,-0.014813920482993126,-0.029227521270513535,0.03171251714229584
1772363423435162400,4.955162353515625,-0.017705582082271576,-0.03655893728137016,0.025699101388454437
1772363423445232000,4.965232177734375,-0.024255692958831787,-0.03697091341018677,0.020177751779556274
1772363423455301400,4.97530126953125,-0.02626771107316017,-0.03426460921764374,0.010403416119515896
1772363423465371400,4.985371337890625,-0.02511014975607395,-0.0269723329693079,0.004647044464945793
1772363423475440400,4.9954404296875,-0.021110080182552338,-0.02136957459151745,-0.0021472126245498657
1772363423485510400,5.005510498046875,-0.012470835819840431,-0.01551874354481697,-0.010479935444891453
1772363423495580200,5.015580078125,-0.013235962018370628,-0.018390962854027748,-0.025193102657794952
1772363423505649400,5.0256494140625,-0.013852087780833244,-0.011786353774368763,-0.04052741453051567
1772363423515719200,5.03571923828125,-0.009528446942567825,-0.0052304500713944435,-0.05302909016609192
1772363423525788400,5.045788330078125,-0.00794924981892109,-0.0015075425617396832,-0.05511903017759323
1772363423535858200,5.055858154296875,-0.001547010149806738,0.0046731214970350266,-0.04472364857792854
1772363423545927200,5.06592724609375,0.004600192420184612,0.0011373236775398254,-0.02859431505203247
1772363423555997400,5.07599755859375,0.005394080653786659,0.0001676664687693119,-0.0032404903322458267
1772363423566066200,5.086066162109375,0.0008926326408982277,0.0028516813181340694,0.019373372197151184
1772363423576136400,5.096136474609375,-0.0017287163063883781,0.010420385748147964,0.02914956957101822
1772363423586205200,5.106205078125,-0.0037477235309779644,0.01064383890479803,0.035290200263261795
1772363423596275500,5.116275390625,-0.0061198011972010136,0.003708168864250183,0.03993795067071915
1772363423606344200,5.12634423828125,-0.005583657417446375,-0.005568676628172398,0.0421045646071434
1772363423616414200,5.136414306640625,-0.0053335861302912235,-0.004886641167104244,0.03449111804366112
1772363423626484200,5.146484130859375,-0.0008317204192280769,-0.00032365648075938225,0.022288138046860695
1772363423636553200,5.15655322265625,-0.003847484476864338,0.004945407621562481,0.015416914597153664
1772363423646623500,5.16662353515625,-0.0005629071965813637,0.013953158631920815,0.007336442358791828
1772363423656692200,5.176692138671875,-0.0007914062589406967,0.023336540907621384,0.005152915604412556
1772363423666758700,5.186758544921875,-0.002104640007019043,0.021131880581378937,0.000059011392295360565
1772363423676827600,5.19682763671875,0.0006621181964874268,0.0131178954616189,-0.007802639622241259
1772363423686897700,5.206897705078125,-0.0038195503875613213,0.008367206901311874,0.0020184731110930443
1772363423696966700,5.216966552734375,-0.012509710155427456,0.00807159673422575,0.010181594640016556
1772363423707036700,5.22703662109375,-0.01165798120200634,0.002838350832462311,0.014512387104332447
1772363423717105700,5.237105712890625,-0.006410755682736635,0.0009768013842403889,0.023877393454313278
1772363423727175700,5.24717578125,-0.005681740120053291,-0.009593350812792778,0.03292976692318916
1772363423737244700,5.25724462890625,0.001983370166271925,-0.011532132513821125,0.035953786224126816
1772363423747314700,5.267314697265625,0.0017650844529271126,-0.002141213044524193,0.03353286534547806
1772363423757384000,5.277384033203125,0.0044000158086419106,0.0018913457170128822,0.030680354684591293
1772363423767453700,5.28745361328125,0.0024432693608105183,0.004419041331857443,0.030688103288412094
1772363423777523700,5.297523681640625,0.003259794320911169,0.010772544890642166,0.02958555519580841
1772363423787592700,5.3075927734375,0.003438391722738743,0.015362095087766647,0.02321225218474865
1772363423797662700,5.317662841796875,0.00235395273193717,0.02110387198626995,0.01684570126235485
1772363423807731700,5.327731689453125,0.004363005980849266,0.0169071052223444,-0.0000360831618309021
1772363423817801700,5.3378017578125,0.0071212416514754295,0.015279913321137428,-0.009757686406373978
1772363423827870700,5.34787060546875,0.007195715792477131,0.019332099705934525,-0.022197740152478218
1772363423837940700,5.357940673828125,0.005838835146278143,0.01954701729118824,-0.025806855410337448
1772363423848009700,5.368009765625,-0.0003006928600370884,0.013105805963277817,-0.023080872371792793
1772363423858079700,5.378079833984375,-0.004024857189506292,0.01944013498723507,-0.01559419371187687
1772363423868148700,5.388148681640625,-0.004705583676695824,0.013871162198483944,-0.002635667100548744
1772363423878218800,5.39821875,-0.0015073930844664574,0.004442506469786167,0.006819620728492737
1772363423888287700,5.408287841796875,0.004878384061157703,0.007658406160771847,0.02135804295539856
1772363423898357500,5.418357421875,0.01237757969647646,0.01967618614435196,0.03449514880776405
1772363423908427800,5.428427734375,0.012253613211214542,0.02522224932909012,0.03736213967204094
1772363423918496500,5.43849658203125,0.008311602286994457,0.027116820216178894,0.031752459704875946
1772363423928566800,5.44856689453125,0.00452200323343277,0.026107855141162872,0.03143468499183655
1772363423938635800,5.4586357421875,0.002870843280106783,0.018478430807590485,0.02271309867501259
1772363423948705800,5.468705810546875,-0.004392755683511496,0.005188644863665104,0.014938104897737503
1772363423958774800,5.47877490234375,-0.0025589033029973507,-0.0003403434529900551,0.004229001700878143
1772363423968844500,5.488844482421875,-0.007977334782481194,-0.0005797487683594227,-0.0031678276136517525
1772363423978913800,5.498913818359375,-0.009740347042679787,-0.006770000327378511,-0.01316932961344719
1772363423988983600,5.508983642578125,-0.014876706525683403,-0.015138348564505577,-0.017837639898061752
1772363423999052800,5.519052734375,-0.018380360677838326,-0.02100076526403427,-0.027897197753190994
1772363424009122600,5.52912255859375,-0.02324972301721573,-0.014914000406861305,-0.02968898043036461
1772363424019191800,5.53919189453125,-0.02144702896475792,-0.007039032410830259,-0.024194344878196716
1772363424029261800,5.54926171875,-0.02724456414580345,-0.005501464009284973,-0.018763719126582146
1772363424039331600,5.55933154296875,-0.03078443557024002,-0.006081766448915005,-0.012905031442642212
1772363424049400800,5.56940087890625,-0.029476789757609367,-0.01195254921913147,-0.010217095725238323
1772363424059470600,5.579470703125,-0.025598959997296333,-0.011915264651179314,-0.008870335295796394
1772363424069539800,5.589539794921875,-0.02296891063451767,-0.018604880198836327,-0.005604999139904976
1772363424079609600,5.599609619140625,-0.022039998322725296,-0.016193654388189316,-0.005122967064380646
1772363424089678800,5.609678955078125,-0.02705794759094715,-0.01154288835823536,-0.0037509622052311897
1772363424099748600,5.61974853515625,-0.02836955524981022,-0.01275489293038845,0.0034041516482830048
1772363424109817900,5.62981787109375,-0.027697935700416565,-0.013672981411218643,0.013678818009793758
1772363424119888000,5.639887939453125,-0.02634957805275917,-0.019031792879104614,0.01955694705247879
1772363424129956600,5.64995654296875,-0.022277500480413437,-0.025320975109934807,0.014635249972343445
1772363424140027000,5.66002685546875,-0.020420480519533157,-0.034274257719516754,0.014233378693461418
1772363424150095600,5.670095703125,-0.026357946917414665,-0.03969058394432068,0.014079846441745758
1772363424160166000,5.680165771484375,-0.02571825496852398,-0.035203687846660614,0.008037133142352104
1772363424170234600,5.690234619140625,-0.02927275374531746,-0.03454452380537987,-0.0036292262375354767
1772363424180304600,5.7003046875,-0.02868925780057907,-0.032718125730752945,-0.01713305152952671
1772363424190374700,5.710374755859375,-0.02506648562848568,-0.028707094490528107,-0.022912098094820976
1772363424200443600,5.720443603515625,-0.020579593256115913,-0.025623952969908714,-0.02841046079993248
1772363424210514000,5.730513916015625,-0.01955508254468441,-0.025491386651992798,-0.036210790276527405
1772363424220582700,5.740582763671875,-0.020017139613628387,-0.023016776889562607,-0.04208332672715187
1772363424230653000,5.75065283203125,-0.018806517124176025,-0.025794053450226784,-0.04818272218108177
1772363424240721700,5.7607216796875,-0.02599811926484108,-0.0302180964499712,-0.04388198256492615
1772363424250791700,5.770791748046875,-0.025777824223041534,-0.028116198256611824,-0.0347905233502388
1772363424260860700,5.780860595703125,-0.02424464374780655,-0.018195657059550285,-0.014941453002393246
1772363424270930700,5.7909306640625,-0.02818031795322895,-0.00962073728442192,0.007595127448439598
1772363424280999700,5.800999755859375,-0.03004186786711216,-0.0053607444278895855,0.026945387944579124
1772363424291069700,5.811069580078125,-0.027355719357728958,0.010331953875720501,0.03025646135210991
1772363424301138700,5.821138671875,-0.022838464006781578,0.019829850643873215,0.03176700696349144
1772363424311208700,5.831208740234375,-0.0208134762942791,0.025482449680566788,0.032242078334093094
1772363424321278700,5.84127880859375,-0.022050514817237854,0.019940944388508797,0.026195906102657318
1772363424331347700,5.85134765625,-0.021582473069429398,0.021200794726610184,0.021533749997615814
1772363424341417700,5.861417724609375,-0.020561683923006058,0.02527889423072338,0.010575640015304089
1772363424351486700,5.87148681640625,-0.017177093774080276,0.029626062139868736,0.0023485450074076653
1772363424361556700,5.881556640625,-0.01738082617521286,0.02772110141813755,-0.0037895087152719498
1772363424371625700,5.891625732421875,-0.020447982475161552,0.02780131995677948,-0.010967063717544079
1772363424381695700,5.90169580078125,-0.017743540927767754,0.029988840222358704,-0.011013668961822987
1772363424391764700,5.9117646484375,-0.01292218454182148,0.02551143988966942,-0.005357456859201193
1772363424401834800,5.921834716796875,-0.018531600013375282,0.01847510039806366,0.021578285843133926
1772363424411903700,5.93190380859375,-0.03702696040272713,0.03292417898774147,0.037043604999780655
1772363424421973800,5.941973876953125,-0.03709780052304268,0.04296775534749031,0.02431289479136467
1772363424432042500,5.95204248046875,-0.03318779915571213,0.03750494867563248,0.016538105905056
1772363424442112800,5.96211279296875,-0.030621306970715523,0.023063424974679947,0.04393031448125839
1772363424452182800,5.972182861328125,-0.03144027292728424,0.050129182636737823,0.07120248675346375
1772363424462251800,5.982251708984375,-0.028411459177732468,0.05087593197822571,0.03541598841547966
1772363424472321800,5.99232177734375,-0.017964622005820274,0.003117924090474844,0.03249438852071762
1772363424482390500,6.002390625,-0.026211896911263466,-0.011977671645581722,0.03794880956411362
1772363424492460800,6.012460693359375,-0.02723100408911705,-0.0058357263915240765,0.032193586230278015
1772363424502529500,6.022529541015625,-0.016626296564936638,0.016804339364171028,0.01615682989358902
1772363424512599800,6.032599853515625,-0.017577791586518288,0.029431048780679703,-0.0029681669548153877
1772363424522668500,6.04266845703125,-0.00874888151884079,0.018611427396535873,-0.019464585930109024
1772363424532738600,6.052738525390625,-0.009044801816344261,0.0040373303927481174,-0.027577579021453857
1772363424542807800,6.062807861328125,-0.004583741072565317,0.00962970219552517,-0.032370470464229584
1772363424552877600,6.072877685546875,-0.00045833876356482506,0.027223609387874603,-0.03694836050271988
1772363424562946800,6.08294677734375,-0.00021998537704348564,0.033854350447654724,-0.027718376368284225
1772363424573016600,6.0930166015625,0.0034406804479658604,0.03322052210569382,-0.013830739073455334
1772363424583086800,6.1030869140625,0.0068497927859425545,0.02764945477247238,0.0004629790782928467
1772363424593155600,6.113155517578125,0.011635406874120235,0.00899505615234375,0.012827004306018353
1772363424603225600,6.1232255859375,0.013310801237821579,0.000933400820940733,0.019539233297109604
1772363424613294600,6.133294677734375,0.02355060540139675,0.013566895388066769,0.025836948305368423
1772363424623364600,6.143364501953125,0.023451268672943115,0.023014724254608154,0.02557622268795967
1772363424633433900,6.153433837890625,0.022745704278349876,0.019027626141905785,0.02763681858778
1772363424643503600,6.163503662109375,0.016796201467514038,0.009937724098563194,0.028576646000146866
1772363424653572900,6.17357275390625,0.008808583952486515,0.0030779545195400715,0.02378082647919655
1772363424663643000,6.183642822265625,-0.001102370209991932,-0.0006038662977516651,0.01211271807551384
1772363424673712000,6.193712158203125,-0.005584031343460083,-0.004886309150606394,-0.00336467195302248
1772363424683782000,6.203781982421875,-0.0027693361043930054,-0.006875690538436174,-0.021109845489263535
1772363424693851000,6.213850830078125,0.00003254693001508713,-0.007136776112020016,-0.021234292536973953
1772363424703921200,6.223921142578125,0.000302325002849102,0.00030196551233530045,-0.017884569242596626
1772363424713990000,6.233989990234375,0.004436112474650145,0.006065940950065851,-0.024531742557883263
1772363424724060200,6.24406005859375,0.0012208782136440277,0.005106936674565077,-0.017098061740398407
1772363424734130000,6.2541298828125,-0.004149279091507196,0.004558792803436518,-0.005302367266267538
1772363424744199000,6.264198974609375,-0.008746160194277763,0.006201429758220911,0.008547934703528881
1772363424754269000,6.27426904296875,-0.009523199871182442,0.0051797437481582165,0.019155146554112434
1772363424764338000,6.284337890625,-0.012589829042553902,0.006334489677101374,0.03147253394126892
1772363424774408000,6.294407958984375,-0.018125368282198906,0.010849427431821823,0.0416790209710598
1772363424784477000,6.304476806640625,-0.016186054795980453,0.02587045356631279,0.038523707538843155
1772363424794547200,6.314547119140625,-0.012289143167436123,0.027153868228197098,0.026752740144729614
1772363424804616000,6.324615966796875,-0.014815949834883213,0.014156312681734562,0.017647922039031982
1772363424814686000,6.33468603515625,-0.014349717646837234,0.0063726711086928844,0.010873406194150448
1772363424824755000,6.3447548828125,-0.011776838451623917,0.005654416512697935,0.011698187328875065
1772363424834825000,6.354824951171875,-0.007199504412710667,0.012174699455499649,0.016502242535352707
1772363424844895000,6.36489501953125,-0.005544083192944527,0.00862949900329113,0.016192518174648285
1772363424854964000,6.3749638671875,-0.0021715862676501274,0.002961522899568081,0.010251635685563087
1772363424865034000,6.385033935546875,-0.009056922979652882,-0.007829339243471622,0.008614590391516685
1772363424875103000,6.39510302734375,-0.010149862617254257,-0.011288749054074287,0.004161668010056019
1772363424885173000,6.405173095703125,-0.015851423144340515,-0.015164447948336601,0.007261320017278194
1772363424895242000,6.415241943359375,-0.01462639681994915,-0.011870479211211205,0.009613613598048687
1772363424905312000,6.42531201171875,-0.011944061145186424,-0.005209381226450205,0.007644739933311939
1772363424915381000,6.435381103515625,-0.011279193684458733,-0.00456294184550643,-0.00028453022241592407
1772363424925451000,6.445450927734375,-0.010894101113080978,-0.0017567689064890146,-0.00856136903166771
1772363424935520000,6.45552001953125,-0.007006893865764141,-0.0035369014367461205,-0.023139622062444687
1772363424945590000,6.465590087890625,-0.0050292303785681725,-0.007981184870004654,-0.029814036563038826
1772363424955659000,6.475658935546875,-0.0020327488891780376,-0.006335817277431488,-0.02825184538960457
1772363424965729000,6.48572900390625,-0.003946496639400721,-0.0062543246895074844,-0.021304192021489143
1772363424975799000,6.495799072265625,-0.0044405413791537285,-0.008219034411013126,-0.016818441450595856
1772363424985868000,6.505867919921875,-0.0016295742243528366,-0.012850005179643631,-0.0065255905501544476
1772363424995938000,6.51593798828125,0.002871908713132143,-0.011609962210059166,-0.0013570832088589668
1772363425006007000,6.526007080078125,0.010346602648496628,-0.009756403043866158,0.003325819969177246
1772363425016077000,6.5360771484375,0.011562436819076538,0.0056157708168029785,0.011331372894346714
1772363425026146000,6.54614599609375,0.015926025807857513,0.01988871768116951,0.014219305478036404
1772363425036216000,6.556216064453125,0.016017135232686996,0.031060241162776947,0.014478241093456745
1772363425046284800,6.566284912109375,0.016053088009357452,0.03239954262971878,0.013217766769230366
1772363425056355000,6.57635498046875,0.011590644717216492,0.025262262672185898,0.011932659894227982
1772363425066423800,6.586423828125,0.00854505319148302,0.025907814502716064,0.008639393374323845
1772363425076494000,6.596494140625,0.009707573801279068,0.02560528740286827,0.00028945133090019226
1772363425086564000,6.606564208984375,0.008259613066911697,0.018450705334544182,-0.007502158638089895
1772363425096632800,6.6166328125,0.00925092026591301,0.0141290333122015,-0.016203830018639565
1772363425106703000,6.626703125,0.01238013431429863,0.02038826048374176,-0.02266732230782509
1772363425116771800,6.636771728515625,0.00644694222137332,0.022774171084165573,-0.018107373267412186
1772363425126842000,6.646842041015625,0.001048448495566845,0.01993737369775772,-0.00767523841932416
1772363425136910800,6.656910888671875,-0.004804264288395643,0.008470447733998299,0.006059795618057251
1772363425146981000,6.666981201171875,-0.005769393872469664,-0.010396716184914112,0.013345936313271523
1772363425157049900,6.6770498046875,-0.006708287168294191,-0.016931816935539246,0.015219035558402538
1772363425167120000,6.687119873046875,-0.009586898609995842,-0.01779281720519066,0.01474952045828104
1772363425177188900,6.69718896484375,-0.007984007708728313,-0.019615735858678818,0.017287693917751312
1772363425187259000,6.7072587890625,-0.013612865470349789,-0.0003341836854815483,0.015214957296848297
1772363425197329200,6.7173291015625,-0.00869806483387947,0.009004471823573112,0.008330865763127804
1772363425207398000,6.72739794921875,-0.00535473320633173,0.006438250187784433,0.000926479697227478
1772363425217468000,6.737468017578125,-0.0050193690694868565,-0.0015253550373017788,-0.007553543895483017
1772363425227537000,6.747536865234375,0.0029983441345393658,-0.011855490505695343,-0.01852949522435665
1772363425237607000,6.75760693359375,0.0027764523401856422,-0.019043903797864914,-0.03397489711642265
1772363425247676000,6.767676025390625,0.009303860366344452,-0.020682547241449356,-0.03328700363636017
1772363425257746000,6.777745849609375,0.00614599883556366,-0.0184369757771492,-0.02053130976855755
1772363425267815000,6.78781494140625,0.008285315707325935,-0.004737409297376871,-0.009011540561914444
1772363425277885000,6.797885009765625,0.016674071550369263,0.0036323582753539085,-0.004026550799608231
1772363425287954000,6.807953857421875,0.021741801872849464,0.00005200458690524101,-0.007865497842431068
1772363425298024000,6.81802392578125,0.028377369046211243,-0.0044938549399375916,-0.008031139150261879
1772363425308093200,6.82809326171875,0.03035716339945793,0.010300537571310997,-0.0024912310764193535
1772363425318163000,6.838162841796875,0.03675101697444916,0.027764780446887016,0.0031174831092357635
1772363425328233000,6.84823291015625,0.035344865173101425,0.0340849906206131,0.0011933492496609688
1772363425338302000,6.858302001953125,0.034020449966192245,0.02659369260072708,-0.000682394951581955
1772363425348372000,6.8683720703125,0.03502232953906059,0.015045426785945892,-0.009338467381894588
1772363425358441000,6.87844091796875,0.03264183923602104,0.005825352855026722,-0.016379481181502342
1772363425368511000,6.888510986328125,0.02626117132604122,0.003063121810555458,-0.02365177497267723
1772363425378580000,6.898580078125,0.026632465422153473,0.0011397958733141422,-0.032670438289642334
1772363425388650000,6.90864990234375,0.022971417754888535,-0.0074965693056583405,-0.04268286004662514
1772363425398719000,6.918718994140625,0.022912655025720596,-0.006864787545055151,-0.048944056034088135
1772363425408789000,6.9287890625,0.013485864736139774,0.001150262076407671,-0.049416765570640564
1772363425418858000,6.93885791015625,0.007242710795253515,0.014765487983822823,-0.04940435290336609
1772363425428928000,6.948927978515625,0.005763324908912182,0.025678589940071106,-0.04707009345293045
1772363425438998000,6.958998046875,0.0001100306399166584,0.019787928089499474,-0.03838224336504936
1772363425449066800,6.969066650390625,0.00012254761531949043,0.012997666373848915,-0.027861960232257843
1772363425459137000,6.979136962890625,-0.0032764310017228127,0.0030756480991840363,-0.014806220307946205
1772363425469205800,6.989205810546875,-0.0046719275414943695,-0.004130333662033081,-0.006620995234698057
1772363425479276000,6.999276123046875,-0.00570693239569664,-0.00315229594707489,-0.006719890516251326
1772363425489345000,7.009344970703125,-0.00826676283031702,0.003781510517001152,-0.006094580516219139
1772363425499415000,7.0194150390625,-0.01702120713889599,0.002372823655605316,-0.0023753000423312187
1772363425509484000,7.029484130859375,-0.013676542788743973,-0.006333848461508751,-0.00016221310943365097
1772363425519553800,7.0395537109375,-0.013071667402982712,-0.00702835526317358,0.009521852247416973
1772363425529623000,7.049623046875,-0.012569393962621689,-0.0026109698228538036,0.019564367830753326
1772363425539692800,7.05969287109375,-0.014708761125802994,-0.010824434459209442,0.02117225155234337
1772363425549762000,7.069761962890625,-0.018571143969893456,-0.022298663854599,0.012873576954007149
1772363425559831800,7.079831787109375,-0.018960922956466675,-0.02577362209558487,0.00842212326824665
1772363425569901800,7.08990185546875,-0.02043551579117775,-0.020566876977682114,0.0011927057057619095
1772363425579971000,7.09997119140625,-0.02663395181298256,-0.015235715545713902,-0.007042573299258947
1772363425590040800,7.110040771484375,-0.02278435230255127,-0.024384737014770508,-0.017335424199700356
1772363425600110000,7.120110107421875,-0.019550612196326256,-0.032034434378147125,-0.021622680127620697
1772363425610179800,7.130179931640625,-0.01794419437646866,-0.032089028507471085,-0.02705579437315464
1772363425620249000,7.1402490234375,-0.02139095775783062,-0.0221268143504858,-0.0246310792863369
1772363425630318800,7.15031884765625,-0.02271454781293869,-0.00776758324354887,-0.025092869997024536
1772363425640388000,7.16038818359375,-0.018087226897478104,0.003668136429041624,-0.0318421795964241
1772363425650457900,7.170457763671875,-0.012764899991452694,0.004907304886728525,-0.031903430819511414
1772363425660527000,7.180527099609375,-0.008557918481528759,0.005502133164554834,-0.024809423834085464
1772363425670597400,7.190597412109375,0.00011519808322191238,0.013911064714193344,-0.014472365379333496
1772363425680666400,7.200666259765625,0.0026520611718297005,0.019800394773483276,-0.0011643683537840843
1772363425690736400,7.210736328125,0.00948173739016056,0.021843839436769485,0.0013664336875081062
1772363425700806400,7.220806396484375,0.005479359067976475,0.022794874384999275,0.009229382500052452
1772363425710875400,7.23087548828125,0.008739600889384747,0.022852398455142975,0.010628074407577515
1772363425720945400,7.2409453125,0.005185828078538179,0.01857815869152546,0.010203341953456402
1772363425731014100,7.25101416015625,0.0023056194186210632,0.010583882220089436,0.010465930216014385
1772363425741084400,7.26108447265625,0.004816238768398762,0.006786405574530363,0.008067376911640167
1772363425751153200,7.271153076171875,0.008376618847250938,0.011200329288840294,0.0022928444668650627
1772363425761223400,7.281223388671875,0.008742976933717728,0.019629953429102898,0.0006508426740765572
1772363425771292400,7.29129248046875,0.0037040095776319504,0.026695851236581802,-0.004525809548795223
1772363425781362200,7.301362060546875,0.0031356331892311573,0.027982765808701515,-0.012880834750831127
1772363425791431400,7.311431396484375,0.0008557010442018509,0.022140588611364365,-0.012839023023843765
1772363425801501200,7.321501220703125,-0.0008865967392921448,0.01178043894469738,-0.0044334447011351585
1772363425811570400,7.3315703125,-0.002008853480219841,0.004136099945753813,0.0031592287123203278
1772363425821640200,7.34164013671875,-0.0038875616155564785,-0.0011092592030763626,0.015846580266952515
1772363425831710500,7.35171044921875,0.00005737878382205963,-0.006234246306121349,0.013473703525960445
1772363425841779200,7.361779296875,0.0009473790414631367,-0.01466298010200262,0.007903625257313251
1772363425851849200,7.37184912109375,-0.0000206800177693367,-0.016651827841997147,0.005351782776415348
1772363425861918500,7.38191845703125,-0.0015031392686069012,-0.012309635058045387,0.010328407399356365
1772363425871988200,7.39198828125,0.0003568124957382679,-0.00950133241713047,0.0033304179087281227
1772363425882057500,7.402057373046875,-0.003765387460589409,-0.01318295020610094,-0.0006973259150981903
1772363425892127200,7.412127197265625,-0.0006228573620319366,-0.01510575320571661,-0.00810251198709011
1772363425902196500,7.422196533203125,-0.0012577329762279987,-0.011651331558823586,-0.0227819737046957
1772363425912266200,7.432266357421875,0.0010991650633513927,-0.0067945243790745735,-0.03559071198105812
1772363425922335500,7.44233544921875,0.009389866143465042,-0.003036417765542865,-0.04534707963466644
1772363425932405200,7.4524052734375,0.005186066031455994,0.002194829750806093,-0.038269996643066406
1772363425942474200,7.46247412109375,0.006940922699868679,0.006654167082160711,-0.02717490866780281
1772363425952544500,7.47254443359375,0.01143287681043148,0.0010974821634590626,-0.015761665999889374
1772363425962614300,7.4826142578125,0.014943888410925865,-0.012738846242427826,0.0005775345489382744
1772363425972683500,7.49268359375,0.021735748276114464,-0.007135555148124695,0.01342595461755991
1772363425982753300,7.502753173828125,0.027348482981324196,0.008181525394320488,0.021977074444293976
1772363425992822500,7.512822509765625,0.02502940222620964,0.019234707579016685,0.02826719358563423
1772363426002892300,7.522892333984375,0.025854557752609253,0.0235484316945076,0.023880988359451294
1772363426012961300,7.532961181640625,0.02480793371796608,0.024626746773719788,0.023456744849681854
1772363426023031300,7.54303125,0.02030748687684536,0.018751109018921852,0.015415406785905361
1772363426033100300,7.553100341796875,0.010189872235059738,0.010886795818805695,0.01724020391702652
1772363426043170600,7.563170654296875,0.0035677491687238216,0.016751687973737717,0.015478953719139099
1772363426053239300,7.5732392578125,0.0024923644959926605,0.021504100412130356,0.0043298956006765366
1772363426063309300,7.583309326171875,0.001040265429764986,0.015324944630265236,-0.010344683192670345
1772363426073378300,7.59337841796875,0.0044435192830860615,0.0023771882988512516,-0.020860973745584488
1772363426083448300,7.6034482421875,-0.00028711045160889626,0.0007162480615079403,-0.0334504209458828
1772363426093518300,7.613518310546875,-0.0017406637780368328,0.003954652231186628,-0.03700707480311394
1772363426103587300,7.62358740234375,-0.00903419777750969,0.00398766016587615,-0.03740299865603447
1772363426113657300,7.6336572265625,-0.012004954740405083,0.002220652997493744,-0.029879305511713028
1772363426123726300,7.643726318359375,-0.017118455842137337,-0.011176755651831627,-0.01777150109410286
1772363426133796400,7.65379638671875,-0.02490926720201969,-0.018990736454725266,0.003806494176387787
1772363426143865300,7.663865234375,-0.022362694144248962,-0.009714221581816673,0.014219607226550579
1772363426153935400,7.673935302734375,-0.01579214259982109,-0.004570592660456896,0.017010599374771118
1772363426164004400,7.68400439453125,-0.014292697422206402,-0.010197954252362251,0.029862619936466217
1772363426174074400,7.694074462890625,-0.010921933688223362,-0.004497725050896406,0.04330013319849968
1772363426184143400,7.704143310546875,-0.007780519779771566,0.003920785617083311,0.05537664145231247
1772363426194213400,7.71421337890625,0.00008778972551226616,0.006330946926027536,0.06364495307207108
1772363426204282400,7.724282470703125,0.0073065608739852905,0.010748656466603279,0.06550990045070648
1772363426214352400,7.734352294921875,0.011248571798205376,0.00655897194519639,0.05946025997400284
1772363426224421400,7.74442138671875,0.013483172282576561,0.0025856103748083115,0.04999309778213501
1772363426234491400,7.754491455078125,0.012964388355612755,-0.0025255284272134304,0.04426224157214165
1772363426244561400,7.7645615234375,0.008013392798602581,-0.002189149847254157,0.03494301065802574
1772363426254630400,7.77463037109375,0.004708143882453442,0.000848717987537384,0.020953956991434097
1772363426264700400,7.784700439453125,0.0022988542914390564,0.00346292182803154,-0.0003321431577205658
1772363426274769400,7.794769287109375,0.002341464627534151,0.0059694889932870865,-0.012256446294486523
1772363426284839400,7.80483935546875,0.006199385039508343,0.004563058260828257,-0.026280835270881653
1772363426294908200,7.814908203125,0.013273539021611214,0.011772766709327698,-0.046237763017416
1772363426304978400,7.824978515625,0.01411712821573019,0.013870399445295334,-0.055279020220041275
1772363426315047200,7.835047119140625,0.010326385498046875,0.012156922370195389,-0.055158112198114395
1772363426325117400,7.845117431640625,0.010143187828361988,0.017542995512485504,-0.049486301839351654
1772363426335186200,7.855186279296875,0.012243889272212982,0.018700670450925827,-0.031091317534446716
1772363426345256400,7.86525634765625,0.011359489522874355,0.01692929118871689,-0.006771588232368231
1772363426355325400,7.875325439453125,0.015471143648028374,0.010304411873221397,0.01633186638355255
1772363426365395200,7.885395263671875,0.013854791410267353,0.01174854300916195,0.041168294847011566
1772363426375464400,7.89546435546875,0.012350372038781643,0.02282329834997654,0.051933854818344116
1772363426385534200,7.9055341796875,0.008565926924347878,0.040154002606868744,0.056045617908239365
1772363426395604500,7.9156044921875,0.012685837224125862,0.039557453244924545,0.05013259872794151
1772363426405673200,7.925673095703125,0.013775262981653214,0.02755800634622574,0.04323553293943405
1772363426415743200,7.9357431640625,0.011205313727259636,0.02250119484961033,0.041034162044525146
1772363426425812200,7.945812255859375,0.009526126086711884,0.02061569131910801,0.02815077267587185
1772363426435882200,7.95588232421875,0.009600427933037281,0.01760525442659855,0.016036318615078926
1772363426445951200,7.965951171875,0.009358043782413006,0.01595660299062729,0.0064318859949707985
1772363426456021200,7.976021240234375,0.008173204027116299,0.01831350103020668,0.006736018694937229
1772363426466090500,7.986090576171875,-0.00210381206125021,0.01669221930205822,0.012573015876114368
1772363426476160300,7.99616015625,-0.008982757106423378,0.012042075395584106,0.015843112021684647
1772363426486229500,8.0062294921875,-0.010782665573060513,0.0033345124684274197,0.01435464434325695
1772363426496299300,8.01629931640625,-0.010939260013401508,-0.009434545412659645,0.018069753423333168
1772363426506368500,8.026368408203124,-0.016093965619802475,-0.019402023404836655,0.020450640469789505
1772363426516438300,8.036438232421874,-0.01588543877005577,-0.02358345314860344,0.019657552242279053
1772363426526507300,8.04650732421875,-0.013021081686019897,-0.020793821662664413,0.014436060562729836
1772363426536577300,8.056577392578125,-0.010514514520764351,-0.019583681598305702,0.0122301634401083
1772363426546647300,8.066647216796875,-0.008705240674316883,-0.02326693758368492,0.005135557614266872
1772363426556716500,8.076716552734375,-0.009944410063326359,-0.03100954368710518,-0.0027737636119127274
1772363426566786300,8.086786376953125,-0.008462756872177124,-0.038135603070259094,-0.010487246327102184
1772363426576855300,8.096855224609374,-0.00795782171189785,-0.026889339089393616,-0.01277223788201809
1772363426586925300,8.10692529296875,-0.008183024823665619,-0.013400554656982422,-0.008625870570540428
1772363426596994300,8.116994384765626,-0.004862062633037567,-0.00023282086476683617,-0.00012985430657863617
1772363426607064300,8.127064208984375,-0.0038649747148156166,-0.005282174330204725,0.005400999449193478
1772363426617133300,8.13713330078125,0.002948989160358906,-0.021428387612104416,0.010447689332067966
1772363426627203300,8.147203369140625,0.009321033954620361,-0.02150469459593296,0.01749245636165142
1772363426637272300,8.157272216796875,0.010673120617866516,-0.00874495692551136,0.02104191854596138
1772363426647342300,8.16734228515625,0.013967587612569332,0.003550886642187834,0.028886359184980392
1772363426657411300,8.177411376953126,0.01067778468132019,0.012644249945878983,0.0333266444504261
1772363426667481300,8.1874814453125,0.011192718520760536,0.016392473131418228,0.030296264216303825
1772363426677550300,8.19755029296875,0.008186275139451027,0.00972072221338749,0.023115316405892372
1772363426687620400,8.207620361328125,0.00259219016879797,0.0011256425641477108,0.012041407637298107
1772363426697689300,8.217689453125,-0.00740957772359252,-0.002378544770181179,0.0014540115371346474
1772363426707759400,8.22775927734375,-0.006684780586510897,0.0023561716079711914,-0.007972557097673416
1772363426717829000,8.2378291015625,-0.00736548425629735,-0.0003434745594859123,-0.015894396230578423
1772363426727898400,8.2478984375,-0.007642676588147879,-0.01577002741396427,-0.031776390969753265
1772363426737968400,8.257968505859376,-0.011975638568401337,-0.029202746227383614,-0.03716423362493515
1772363426748037400,8.268037353515625,-0.018637903034687042,-0.022273072972893715,-0.030934393405914307
1772363426758107400,8.278107421875,-0.018819265067577362,-0.00499075697734952,-0.020682822912931442
1772363426768176400,8.28817626953125,-0.01880636066198349,0.0021000895649194717,-0.014339733868837357
1772363426778246400,8.298246337890625,-0.020768577232956886,-0.007799413055181503,0.0020887739956378937
1772363426788315400,8.3083154296875,-0.019487811252474785,-0.013551836833357811,0.010904238559305668
1772363426798385400,8.318385498046876,-0.018229734152555466,-0.011590685695409775,0.02004314213991165
1772363426808454400,8.328454345703125,-0.02206123061478138,-0.00576028460636735,0.027717111632227898
1772363426818524400,8.3385244140625,-0.018242791295051575,0.003569833468645811,0.02340385504066944
1772363426828593200,8.34859326171875,-0.011156673543155193,0.0036688647232949734,0.014839248731732368
1772363426838663400,8.358663330078125,-0.010555864311754704,-0.005797341000288725,0.012709518894553185
1772363426848732200,8.368732177734374,-0.004058320075273514,-0.012921185232698917,0.009434622712433338
1772363426858802400,8.378802490234374,-0.0023789312690496445,-0.008954674005508423,0.005408721975982189
1772363426868871400,8.388871337890626,-0.0022820355370640755,-0.0002002776600420475,0.0024825027212500572
1772363426878941200,8.398941162109375,-0.005371036008000374,-0.00964491255581379,-0.0059448047541081905
1772363426889011500,8.409011474609375,-0.013005124405026436,-0.021405726671218872,-0.002153361216187477
1772363426899080200,8.419080078125,-0.01917433738708496,-0.02886071428656578,0.006615896709263325
1772363426909150500,8.429150390625,-0.01877206191420555,-0.0234368909150362,0.0040250057354569435
1772363426919219200,8.43921923828125,-0.02015370875597,-0.0172295942902565,-0.00002912525087594986
1772363426929289200,8.449289306640624,-0.014483267441391945,-0.010754834860563278,-0.006842801347374916
1772363426939358200,8.459358154296876,-0.011100253090262413,-0.007888208143413067,-0.015782499685883522
1772363426949428200,8.46942822265625,-0.002783112693578005,-0.002001401735469699,-0.03202497214078903
1772363426959497500,8.47949755859375,0.003482772968709469,-0.0011422659736126661,-0.046662505716085434
1772363426969567200,8.489567138671875,0.002854274120181799,-0.011398041620850563,-0.05092363432049751
1772363426979636500,8.499636474609375,0.0006102947518229485,-0.01381805632263422,-0.047751009464263916
1772363426989706200,8.509706298828124,0.006580245215445757,-0.011145235039293766,-0.03978511691093445
1772363426999775500,8.519775390625,0.012826689518988132,-0.0067030820064246655,-0.02690420299768448
1772363427009845200,8.52984521484375,0.013737252913415432,-0.001863223034888506,-0.011678035371005535
1772363427019914500,8.53991455078125,0.017523203045129776,0.003344587981700897,-0.00021579023450613022
1772363427029984300,8.549984375,0.020943298935890198,0.008123349398374557,0.008168722502887249
1772363427040053200,8.56005322265625,0.019284415990114212,0.016412971541285515,0.012944038026034832
1772363427050123500,8.57012353515625,0.021494241431355476,0.019752856343984604,0.01649581268429756
1772363427060192300,8.580192138671874,0.025449836626648903,0.02562432736158371,0.011057370342314243
1772363427070262500,8.590262451171874,0.028597252443432808,0.03400830924510956,0.0020203599706292152
1772363427080332300,8.600332275390626,0.030822057276964188,0.03214196488261223,-0.010359077714383602
1772363427090402300,8.61040234375,0.031054457649588585,0.026070140302181244,-0.022660113871097565
1772363427100471300,8.62047119140625,0.03505852073431015,0.029023319482803345,-0.031558532267808914
1772363427110541300,8.630541259765625,0.028618276119232178,0.029365770518779755,-0.029131030663847923
1772363427120610300,8.6406103515625,0.023669056594371796,0.021247124299407005,-0.013803206384181976
1772363427130680300,8.650680419921875,0.019359257072210312,0.02188129909336567,-0.002153492532670498
1772363427140749600,8.66074951171875,0.017875079065561295,0.022921262308955193,0.007314577698707581
1772363427150819300,8.6708193359375,0.010860418900847435,0.009275555610656738,0.013829311355948448
1772363427160888300,8.680888427734375,0.007694186642765999,-0.0012298154179006815,0.019698385149240494
1772363427170958300,8.690958251953125,0.004718328360468149,-0.00410051504150033,0.018614456057548523
1772363427181027300,8.70102734375,0.0027872701175510883,-0.008169026114046574,0.015096153132617474
1772363427191097300,8.711097412109375,-0.0011455919593572617,-0.014357331208884716,0.01018038485199213
1772363427201167400,8.72116748046875,-0.0049605704843997955,-0.01820932701230049,-0.0005185995250940323
1772363427211236400,8.731236328125,-0.008296547457575798,-0.015627799555659294,-0.004518224857747555
1772363427221306400,8.741306396484376,-0.01492994837462902,-0.008506507612764835,-0.014500550925731659
1772363427231375400,8.751375244140625,-0.010104401037096977,-0.0036410524044185877,-0.028705410659313202
1772363427241445400,8.7614453125,-0.004750116262584925,-0.009906938299536705,-0.03660168498754501
1772363427251514400,8.771514404296875,0.0008154511451721191,-0.01256202720105648,-0.030426185578107834
1772363427261584400,8.78158447265625,0.001891634427011013,0.002757274080067873,-0.016947394236922264
1772363427271653400,8.7916533203125,0.006295207422226667,0.008729834109544754,0.00003851950168609619
1772363427281723100,8.80172314453125,0.0049087656661868095,0.004944150801748037,0.007624267600476742
1772363427291792400,8.81179248046875,0.007077377755194902,-0.0071258279494941235,0.011930066160857677
1772363427301862100,8.821862060546875,0.00963614322245121,-0.012571725994348526,0.014599618501961231
1772363427311931400,8.831931396484375,0.012528674677014351,-0.01875048130750656,0.017935242503881454
1772363427322001400,8.84200146484375,0.014262393116950989,-0.019981928169727325,0.020089205354452133
1772363427332070400,8.8520703125,0.0175926610827446,-0.026721438392996788,0.01656411960721016
1772363427342140400,8.862140380859374,0.01356888934969902,-0.025666294619441032,0.008211114443838596
1772363427352209400,8.87220947265625,0.008182323537766933,-0.024962348863482475,-0.000413418747484684
1772363427362279400,8.882279541015626,-0.0019629886373877525,-0.018176348879933357,-0.008377868682146072
1772363427372348400,8.892348388671875,-0.0008239336311817169,-0.01646016724407673,-0.022896211594343185
1772363427382418400,8.90241845703125,0.0003422643058001995,-0.0217761043459177,-0.03736943006515503
1772363427392487200,8.912487060546875,0.003885571612045169,-0.03585153818130493,-0.04628896340727806
1772363427402557400,8.922557373046875,0.00453058909624815,-0.038512568920850754,-0.05145443230867386
1772363427412627500,8.93262744140625,-0.0028781802393496037,-0.05490397289395332,-0.06528286635875702
1772363427422696400,8.942696533203126,0.006677241995930672,-0.0401948019862175,-0.03935006633400917
1772363427432766500,8.952766357421876,-0.001356284599751234,0.013458164408802986,-0.019736241549253464
1772363427442835500,8.96283544921875,-0.006930547300726175,0.017981011420488358,-0.011567528359591961
1772363427452905500,8.972905517578125,-0.010160299949347973,-0.008746235631406307,-0.01563533954322338
1772363427462974200,8.98297412109375,-0.008921929635107517,-0.009142780676484108,-0.009952153079211712
1772363427473044500,8.99304443359375,-0.007978508248925209,0.00876881368458271,0.003798181191086769
1772363427483113200,9.00311328125,-0.0070149763487279415,0.009216491132974625,-0.0027167098596692085
1772363427493183500,9.01318359375,-0.0015663225203752518,-0.01659398525953293,-0.0027008382603526115
1772363427503252200,9.023252197265625,-0.008494536392390728,-0.022959470748901367,0.005128055810928345
1772363427513322200,9.033322265625,-0.007416488602757454,-0.016317281872034073,0.018362103030085564
1772363427523391200,9.04339111328125,-0.011194449849426746,0.0006537120789289474,0.02524610608816147
1772363427533461200,9.053461181640625,-0.007555771619081497,0.005721707828342915,0.02099783346056938
1772363427543530200,9.0635302734375,-0.009339290671050549,-0.0056904698722064495,0.017509358003735542
1772363427553600300,9.073600341796874,-0.009037325158715248,-0.018626928329467773,0.024302273988723755
1772363427563669500,9.08366943359375,-0.010081816464662552,-0.022316206246614456,0.023750200867652893
1772363427573739300,9.0937392578125,-0.014262381941080093,-0.019816843792796135,0.018925171345472336
1772363427583808500,9.10380859375,-0.018283754587173462,-0.015922769904136658,0.015198077075183392
1772363427593878300,9.113878173828125,-0.019275572150945663,-0.015565835870802402,0.003923965618014336
1772363427603947500,9.123947509765625,-0.017194580286741257,-0.018937664106488228,-0.013662484474480152
1772363427614017300,9.134017333984374,-0.013684605248272419,-0.013246530666947365,-0.02478465996682644
1772363427624086300,9.144086181640626,-0.00887759868055582,0.014373911544680595,-0.009060025215148926
1772363427634156300,9.15415625,0.003605774138122797,0.02510809153318405,-0.055638693273067474
1772363427644226300,9.164226318359376,0.0014201179146766663,-0.03166650980710983,-0.06084863841533661
1772363427654295600,9.174295654296875,-0.0014029541052877903,-0.05362818017601967,-0.03589186072349548
1772363427664365000,9.184364990234375,-0.0013598115183413029,-0.010516662150621414,-0.02105645462870598
1772363427674434300,9.194434326171875,0.001655791886150837,0.008004625327885151,-0.009782923385500908
1772363427684504000,9.204504150390624,0.0049959286116063595,0.0030034752562642097,0.0013075442984700203
1772363427694573000,9.214572998046876,0.005790934897959232,-0.0016200370155274868,0.011024492792785168
1772363427704643300,9.224643310546876,0.012249899096786976,-0.012031665071845055,0.01464852225035429
1772363427714712000,9.234712158203125,0.01271059736609459,-0.008981910534203053,0.01377093605697155
1772363427724782300,9.2447822265625,0.010095372796058655,0.0012038815766572952,0.012112850323319435
1772363427734851000,9.25485107421875,0.01184751559048891,0.013087576255202293,0.007336159236729145
1772363427744921000,9.264921142578125,0.01168985664844513,0.02106907032430172,0.007646149955689907
1772363427754990000,9.274989990234374,0.010683972388505936,0.01731209270656109,0.00467279925942421
1772363427765060000,9.28506005859375,0.009953467175364494,0.009109025821089745,0.003609931096434593
1772363427775129000,9.295129150390625,0.003764599794521928,0.001154429279267788,0.0021280208602547646
1772363427785199000,9.30519921875,-0.0005052466876804829,0.0012878538109362125,-0.006245490163564682
1772363427795268000,9.31526806640625,-0.004891796503216028,0.00003943592309951782,-0.011978896334767342
1772363427805338000,9.325338134765625,-0.003049155231565237,-0.0038575674407184124,-0.01611798070371151
1772363427815407000,9.335406982421874,-0.0032234061509370804,-0.007861197926104069,-0.007119372021406889
1772363427825477000,9.34547705078125,-0.002431914210319519,-0.006868105381727219,0.009171984158456326
1772363427835546000,9.355546142578126,-0.004472940694540739,-0.014387233182787895,0.014773019589483738
1772363427845616000,9.3656162109375,-0.008260754868388176,-0.038632117211818695,0.021994180977344513
1772363427855685000,9.37568505859375,0.007272628135979176,-0.016146935522556305,0.025523394346237183
1772363427865755100,9.385755126953125,0.0067756823264062405,0.004078972153365612,0.015537339262664318
1772363427875824000,9.39582421875,0.008268794976174831,-0.00881383940577507,0.009545791894197464
1772363427885894100,9.40589404296875,0.0021523134782910347,-0.013235485181212425,0.0077305808663368225
1772363427895963100,9.415963134765626,-0.005264388397336006,0.0005237502045929432,0.009518010541796684
1772363427906033200,9.426033203125,0.0018017771653831005,0.012649654410779476,-0.0032012462615966797
1772363427916103200,9.436103271484376,0.006641467567533255,0.008123038336634636,-0.010834148153662682
1772363427926172000,9.446171875,0.01210307888686657,0.002421476412564516,-0.0175639558583498
1772363427936242200,9.4562421875,0.006930097006261349,-0.00321476673707366,-0.03297289088368416
1772363427946311200,9.466311279296875,0.005358565598726273,-0.012640759348869324,0.0018356898799538612
1772363427956381200,9.476381103515624,0.012156232260167599,0.06950497627258301,0.07356513291597366
1772363427966450200,9.4864501953125,-0.007776462472975254,0.16192491352558136,0.07654041051864624
1772363427976520000,9.49652001953125,-0.012022865936160088,0.10573919862508774,0.06560007482767105
1772363427986589200,9.506589111328125,0.002317990642040968,0.0543668232858181,0.06597211956977844
1772363427996659000,9.516658935546875,0.025108717381954193,0.03429507464170456,0.03575056046247482
1772363428006728200,9.526728271484375,0.030117057263851166,-0.05355728417634964,0.01527005061507225
1772363428016798000,9.5367978515625,0.019647445529699326,-0.13702602684497833,0.007325590588152409
1772363428026867200,9.5468671875,-0.0017473245970904827,-0.13557355105876923,-0.018719060346484184
1772363428036937200,9.556937255859374,-0.019417766481637955,-0.13378217816352844,-0.05652964487671852
1772363428047006200,9.567006103515626,-0.035304054617881775,-0.15152069926261902,-0.08047918975353241
1772363428057076200,9.577076171875,-0.030573664233088493,-0.1570112258195877,-0.1045752540230751
1772363428067145200,9.587145263671875,-0.02085818722844124,-0.14873360097408295,-0.11731661856174469
1772363428077215200,9.59721533203125,-0.026196099817752838,-0.17129912972450256,-0.08433053642511368
1772363428087284000,9.607283935546874,-0.03584233671426773,-0.15398246049880981,-0.03956812620162964
1772363428097354200,9.617354248046874,-0.0207456536591053,-0.03314041346311569,-0.02646522969007492
