time,seconds_elapsed,z,y,x
1772363475041803000,0.127802978515625,0.008486892096698284,0.025228705257177353,-0.030793773010373116
1772363475051871700,0.137871826171875,0.003493998199701309,0.032333485782146454,-0.025857869535684586
1772363475061941800,0.147941650390625,-0.006690099835395813,0.03277231752872467,-0.019272860139608383
1772363475072010800,0.1580107421875,-0.008951122872531414,0.030994126573204994,-0.010875381529331207
1772363475082080800,0.168080810546875,-0.009063705801963806,0.024251718074083328,0.000185355544090271
1772363475092149800,0.178149658203125,-0.003562946803867817,0.016409507021307945,0.009029713459312916
1772363475102219800,0.1882197265625,0.00261717289686203,0.012418506667017937,0.01545784156769514
1772363475112288800,0.198288818359375,0.005451042205095291,0.013857146725058556,0.02504069358110428
1772363475122358800,0.20835888671875,0.01163073442876339,0.03273078799247742,0.037340931594371796
1772363475132428000,0.218427978515625,0.009714324027299881,0.051613666117191315,0.02719774842262268
1772363475142497800,0.228497802734375,0.01042713038623333,0.019027575850486755,0.013441221788525581
1772363475152566800,0.23856689453125,0.01680620014667511,0.004361015744507313,0.017013851553201675
1772363475162636800,0.24863671875,0.01714780367910862,0.030704108998179436,0.02336527779698372
1772363475172705800,0.258705810546875,0.018218927085399628,0.0476338192820549,0.01741470769047737
1772363475182775800,0.26877587890625,0.012381333857774734,0.03824238106608391,0.013679510913789272
1772363475192844800,0.2788447265625,0.007761548273265362,0.02297048456966877,0.013372448273003101
1772363475202914800,0.288914794921875,0.004491525702178478,0.022387292236089706,0.019543271511793137
1772363475212984800,0.29898486328125,0.0003580334596335888,0.020093247294425964,0.03552676737308502
1772363475223053800,0.3090537109375,0.0004422334022819996,0.011456026695668697,0.04110683128237724
1772363475233123800,0.319123779296875,-0.004530155099928379,0.0019275019876658916,0.04992828518152237
1772363475243192800,0.32919287109375,-0.002679476048797369,0.002779056318104267,0.04889972507953644
1772363475253262800,0.339262939453125,-0.008148277178406715,0.0010754321701824665,0.043169133365154266
1772363475263331800,0.349331787109375,-0.01973489299416542,-0.0071769049391150475,0.03410133719444275
1772363475273401900,0.35940185546875,-0.01521763764321804,-0.00667942687869072,0.01629277877509594
1772363475283470800,0.369470947265625,-0.015187066048383713,-0.0037816364783793688,-0.003130330704152584
1772363475293540600,0.37954052734375,-0.018494712188839912,-0.0011501670815050602,-0.01083379052579403
1772363475303609900,0.38960986328125,-0.014918464235961437,0.013725053519010544,-0.024732859805226326
1772363475313680000,0.399679931640625,0.002410725224763155,0.016840685158967972,-0.030913256108760834
1772363475323748900,0.409748779296875,0.0038495459593832493,0.01104561984539032,-0.022451024502515793
1772363475333819000,0.41981884765625,0.0074996743351221085,0.017139198258519173,-0.011706766672432423
1772363475343888000,0.429887939453125,0.007769262883812189,0.02121913433074951,0.0033893883228302
1772363475353958000,0.4399580078125,0.012422338128089905,0.021343505010008812,0.022381721064448357
1772363475364027000,0.45002685546875,0.009475473314523697,0.009651720523834229,0.040176939219236374
1772363475374097000,0.460096923828125,0.013987401500344276,0.007973129861056805,0.03936360776424408
1772363475384166000,0.470165771484375,0.015985075384378433,0.007687261328101158,0.03668394312262535
1772363475394236000,0.48023583984375,0.016704395413398743,0.0021481523290276527,0.036828286945819855
1772363475404304600,0.4903046875,0.01957756280899048,0.009579984471201897,0.031030360609292984
1772363475414375000,0.500375,0.01429038867354393,0.009823663160204887,0.02102246880531311
1772363475424443600,0.510443603515625,0.00789839867502451,-0.001782420091331005,0.0065837763249874115
1772363475434514000,0.520513916015625,0.003698593471199274,-0.019812019541859627,-0.0067847599275410175
1772363475444582700,0.530582763671875,-0.006236513610929251,-0.024026108905673027,-0.013518081977963448
1772363475454652700,0.540652587890625,-0.007320686709135771,-0.02422877587378025,-0.01906225085258484
1772363475464722000,0.550721923828125,-0.00970520917326212,-0.023927532136440277,-0.018412424251437187
1772363475474791700,0.560791748046875,-0.00570966862142086,-0.02936011180281639,-0.01451249048113823
1772363475484861000,0.57086083984375,-0.004501780495047569,-0.024551955983042717,-0.015603290870785713
1772363475494930700,0.5809306640625,0.0026922165416181087,-0.0193441454321146,-0.010721983388066292
1772363475505000000,0.591,0.005940019153058529,-0.014584040269255638,-0.0007745148614048958
1772363475515069700,0.601069580078125,0.004518956411629915,-0.008978618308901787,0.0011791801080107689
1772363475525139000,0.611138916015625,0.008076140657067299,-0.005892015062272549,0.00004467274993658066
1772363475535208700,0.621208740234375,0.0007002498023211956,-0.013047662563621998,0.0019336529076099396
1772363475545278000,0.63127783203125,0.005828109569847584,-0.00924486480653286,0.0012474730610847473
1772363475555348000,0.641347900390625,0.008668636903166771,-0.010105066001415253,-0.003827447071671486
1772363475565417700,0.651417724609375,0.018799100071191788,0.00408983463421464,-0.01717326231300831
1772363475575487000,0.661487060546875,0.02115786261856556,0.004268533084541559,-0.023933961987495422
1772363475585556700,0.671556640625,0.0322720892727375,0.00503172492608428,-0.02986360527575016
1772363475595626000,0.6816259765625,0.033424437046051025,0.005393116269260645,-0.026484854519367218
1772363475605695700,0.69169580078125,0.03380187228322029,0.01570965349674225,-0.01684679090976715
1772363475615764700,0.7017646484375,0.03976256027817726,0.023383818566799164,-0.014802016317844391
1772363475625834800,0.711834716796875,0.03495115786790848,0.009787822142243385,-0.01168115809559822
1772363475635903700,0.72190380859375,0.03026479110121727,-0.007032969035208225,-0.00687388563528657
1772363475645974000,0.73197412109375,0.024427546188235283,-0.011923570185899734,-0.00803199503570795
1772363475656042800,0.742042724609375,0.016542458906769753,-0.010354436002671719,-0.01139663252979517
1772363475666113000,0.752113037109375,0.01267520897090435,-0.014922063797712326,-0.019578412175178528
1772363475676181800,0.762181640625,0.011253347620368004,-0.019199632108211517,-0.03666924685239792
1772363475686251800,0.772251708984375,0.006687419023364782,-0.023080870509147644,-0.05479518324136734
1772363475696320800,0.78232080078125,0.011122114956378937,-0.02076525241136551,-0.06787370145320892
1772363475706390800,0.792390869140625,0.010917486622929573,-0.006533526815474033,-0.07028553634881973
1772363475716460800,0.802460693359375,0.005996763706207275,-0.0009219800122082233,-0.0633741021156311
1772363475726530800,0.81253076171875,-0.000893814954906702,0.002701816149055958,-0.06347614526748657
1772363475736599800,0.822599853515625,-0.002623272594064474,0.0003193523734807968,-0.052675433456897736
1772363475746669800,0.832669921875,0.001355459913611412,0.0014029573649168015,-0.03677883744239807
1772363475756738600,0.842738525390625,0.002135499846190214,-0.00008308654651045799,-0.020998012274503708
1772363475766808800,0.852808837890625,0.011015652678906918,0.004037287086248398,-0.016211487352848053
1772363475776877800,0.8628779296875,0.016401629894971848,0.00771990604698658,-0.010790890082716942
1772363475786947800,0.87294775390625,0.01404124591499567,0.008797254413366318,-0.006445207167416811
1772363475797016800,0.883016845703125,0.01641145907342434,0.010049471631646156,-0.008230590261518955
1772363475807086600,0.893086669921875,0.016581706702709198,0.011688955128192902,-0.004836908541619778
1772363475817155800,0.90315576171875,0.019226759672164917,0.014288200065493584,-0.004403611645102501
1772363475827225600,0.9132255859375,0.02051311358809471,0.02093559503555298,-0.009745164774358273
1772363475837294800,0.923294921875,0.016340207308530807,0.015489429235458374,-0.015005174092948437
1772363475847364600,0.933364501953125,0.017480019479990005,0.011152427643537521,-0.023876570165157318
1772363475857433900,0.943433837890625,0.014381698332726955,0.012691468000411987,-0.027185015380382538
1772363475867503900,0.95350390625,0.00817456841468811,0.009876899421215057,-0.025545930489897728
1772363475877572900,0.96357275390625,0.006420876830816269,0.0015854137018322945,-0.02621118724346161
1772363475887643000,0.973642822265625,0.006044628098607063,-0.004576943349093199,-0.024923667311668396
1772363475897711900,0.9837119140625,0.0036286083050072193,-0.008856376633048058,-0.018178947269916534
1772363475907782000,0.993781982421875,-0.0012981947511434555,-0.015437904745340347,-0.013185843825340271
1772363475917850600,1.0038505859375,-0.004858574829995632,-0.022685430943965912,-0.01375362928956747
1772363475927921000,1.0139208984375,-0.009000984951853752,-0.026350978761911392,-0.011360946111381054
1772363475937989600,1.02398974609375,-0.015500960871577263,-0.02374507486820221,-0.008071675896644592
1772363475948060000,1.034059814453125,-0.01400681771337986,-0.020808745175600052,-0.017706701532006264
1772363475958128600,1.044128662109375,-0.014514416456222534,-0.02164124883711338,-0.02646131068468094
1772363475968198700,1.05419873046875,-0.01598026603460312,-0.019707471132278442,-0.0407232791185379
1772363475978269000,1.06426904296875,-0.006715928204357624,-0.013038916513323784,-0.04794124513864517
1772363475988337700,1.074337646484375,-0.003169578965753317,0.0020079752430319786,-0.044033363461494446
1772363475998408000,1.084407958984375,0.008102250285446644,0.012108281254768372,-0.034825220704078674
1772363476008476700,1.0944765625,0.013311116024851799,0.015255081467330456,-0.02394082024693489
1772363476018547000,1.104546875,0.017329294234514236,-0.0008535808883607388,-0.010596785694360733
1772363476028615700,1.11461572265625,0.018230289220809937,-0.010914593935012817,-0.0024957647547125816
1772363476038685700,1.124685791015625,0.018879033625125885,-0.003824193263426423,0.008064467459917068
1772363476048754700,1.134754638671875,0.020083876326680183,0.007890086621046066,0.014877705834805965
1772363476058824700,1.14482470703125,0.01934218779206276,0.013721344992518425,0.016727272421121597
1772363476068893700,1.154893798828125,0.016978144645690918,0.009606434032320976,0.019655359908938408
1772363476078963700,1.164963623046875,0.018161652609705925,0.007243412081152201,0.015374595299363136
1772363476089033000,1.175032958984375,0.012833263725042343,0.003347726073116064,0.006239503622055054
1772363476099102700,1.185102783203125,0.011086496524512768,-0.001802561106160283,-0.008582052774727345
1772363476109172000,1.195171875,0.011359140276908875,-0.010492708534002304,-0.018702149391174316
1772363476119241700,1.20524169921875,0.013869436457753181,-0.011848789639770985,-0.03474316745996475
1772363476129310700,1.215310791015625,0.014035717584192753,-0.005827242974191904,-0.05574662610888481
1772363476139380700,1.225380615234375,0.009201547130942345,-0.0041300104930996895,-0.07117325812578201
1772363476149449700,1.23544970703125,0.007706163451075554,0.004154241643846035,-0.07900868356227875
1772363476159519700,1.245519775390625,0.00046023447066545486,0.013103794306516647,-0.07475081831216812
1772363476169588700,1.255588623046875,-0.0044808825477957726,0.009849274531006813,-0.06275564432144165
1772363476179659000,1.265658935546875,-0.008821303024888039,-0.003980520647019148,-0.0459713377058506
1772363476189727700,1.275727783203125,-0.008992691524326801,-0.015371676534414291,-0.02764696627855301
1772363476199797800,1.2857978515625,-0.00742169376462698,-0.02577850967645645,-0.012951643206179142
1772363476209866800,1.29586669921875,-0.009819859638810158,-0.027227280661463737,-0.0017879968509078026
1772363476219936800,1.305936767578125,-0.019086327403783798,-0.03115597553551197,0.007266484200954437
1772363476230005800,1.316005859375,-0.016021084040403366,-0.024047398939728737,0.014692826196551323
1772363476240075800,1.32607568359375,-0.012398120947182178,-0.01581902988255024,0.019704094156622887
1772363476250144800,1.336144775390625,-0.009665992110967636,-0.006760608404874802,0.03030620887875557
1772363476260214800,1.34621484375,-0.009836167097091675,-0.008042920380830765,0.031658560037612915
1772363476270283800,1.35628369140625,-0.010245496407151222,-0.021451404318213463,0.031421273946762085
1772363476280353800,1.366353759765625,-0.014792842790484428,-0.030383380129933357,0.02911071479320526
1772363476290422800,1.3764228515625,-0.021641969680786133,-0.0323973149061203,0.024775417521595955
1772363476300492800,1.386492919921875,-0.02728147991001606,-0.045176759362220764,0.016339588910341263
1772363476310561500,1.3965615234375,-0.025746114552021027,-0.05131082236766815,0.00260101817548275
1772363476320631800,1.4066318359375,-0.02601083368062973,-0.04828067868947983,-0.01942998170852661
1772363476330700800,1.41670068359375,-0.02088061161339283,-0.044263917952775955,-0.034393906593322754
1772363476340770800,1.426770751953125,-0.0195010956376791,-0.0369279719889164,-0.04127898067235947
1772363476350839800,1.43683984375,-0.021075721830129623,-0.02469593472778797,-0.042655475437641144
1772363476360909800,1.446909912109375,-0.015561911277472973,-0.014176448807120323,-0.05110861361026764
1772363476370978800,1.456978759765625,-0.018409747630357742,-0.010921517387032509,-0.055316902697086334
1772363476381048600,1.467048583984375,-0.014612879604101181,-0.01658020168542862,-0.05007500201463699
1772363476391117800,1.477117919921875,-0.014807840809226036,-0.017282254993915558,-0.03861662745475769
1772363476401187600,1.4871875,-0.010704442858695984,-0.01610540598630905,-0.024088282138109207
1772363476411256800,1.4972568359375,-0.009449275210499763,-0.017984487116336823,-0.008712115697562695
1772363476421326800,1.507326904296875,-0.01250285655260086,-0.018725112080574036,0.009284993633627892
1772363476431395800,1.517395751953125,-0.010824019089341164,-0.01401455793529749,0.017254896461963654
1772363476441465900,1.5274658203125,-0.009752096608281136,-0.011323433369398117,0.02144138514995575
1772363476451534800,1.537534912109375,-0.004771856591105461,-0.01495894230902195,0.018755221739411354
1772363476461604900,1.54760498046875,-0.0033289557322859764,-0.019618408754467964,0.01301317848265171
1772363476471673600,1.557673583984375,-0.001644717063754797,-0.016017351299524307,0.009706747718155384
1772363476481744000,1.567743896484375,-0.005862365011125803,-0.00962736178189516,0.011044719256460667
1772363476491812600,1.5778125,-0.00866593886166811,-0.007149809040129185,0.007573738694190979
1772363476501883000,1.5878828125,-0.009882205165922642,-0.00733410008251667,0.008018752560019493
1772363476511951600,1.59795166015625,-0.010416269302368164,-0.009116427041590214,0.008214669302105904
1772363476522022000,1.60802197265625,-0.008538208901882172,-0.010541750118136406,0.004894506186246872
1772363476532090600,1.618090576171875,-0.004186364822089672,-0.011631082743406296,0.007322169840335846
1772363476542160600,1.62816064453125,-0.0052433740347623825,-0.028050536289811134,0.011404795572161674
1772363476552230000,1.63822998046875,-0.005398956127464771,-0.03431268781423569,0.012213187292218208
1772363476562299600,1.648299560546875,-0.0071507832035422325,-0.03840170428156853,0.010809434577822685
1772363476572369000,1.658368896484375,-0.012921780347824097,-0.05066472291946411,0.008798766881227493
1772363476582438700,1.668438720703125,-0.015508774667978287,-0.05263333022594452,0.007148405537009239
1772363476592508000,1.6785078125,-0.018054986372590065,-0.04930981993675232,-0.0015792977064847946
1772363476602577700,1.68857763671875,-0.01862783171236515,-0.04293794184923172,-0.005499736871570349
1772363476612647000,1.69864697265625,-0.018327007070183754,-0.038170211017131805,-0.015575839206576347
1772363476622716700,1.708716552734375,-0.015913916751742363,-0.04318494349718094,-0.029957972466945648
1772363476632786000,1.718785888671875,-0.008479472249746323,-0.03470033034682274,-0.04985711723566055
1772363476642856000,1.72885595703125,-0.00616358732804656,-0.022590670734643936,-0.06506136804819107
1772363476652924700,1.738924560546875,0.00035484833642840385,-0.006703756749629974,-0.07411323487758636
1772363476662995000,1.748994873046875,0.005216182675212622,0.01143689826130867,-0.058520957827568054
1772363476673063700,1.759063720703125,0.004351252689957619,0.022432276979088783,-0.026683319360017776
1772363476683134000,1.769134033203125,0.007399240508675575,0.019717717543244362,-0.003193971700966358
1772363476693202700,1.77920263671875,0.008906763046979904,-0.0012784642167389393,0.014355303719639778
1772363476703272700,1.789272705078125,0.00876401737332344,-0.0073784347623586655,0.03131084889173508
1772363476713341200,1.799341064453125,0.007275686599314213,-0.0007493658922612667,0.03658872842788696
1772363476723411200,1.8094111328125,0.003194392193108797,0.014509214088320732,0.037794340401887894
1772363476733480200,1.819480224609375,0.0029571247287094593,0.024392250925302505,0.04015510901808739
1772363476743550000,1.829550048828125,0.0009946413338184357,0.02189447171986103,0.035929206758737564
1772363476753619200,1.839619140625,-0.00010732002556324005,0.011044420301914215,0.028012840077280998
1772363476763689000,1.84968896484375,0.006943931337445974,0.004691982641816139,0.013605671003460884
1772363476773759200,1.85975927734375,0.01128156017512083,0.011633538641035557,-0.002337241545319557
1772363476783828200,1.869828125,0.016254480928182602,0.021837174892425537,-0.017145482823252678
1772363476793897200,1.879897216796875,0.017241042107343674,0.03072471171617508,-0.030151935294270515
1772363476803967200,1.88996728515625,0.01123454887419939,0.0320536307990551,-0.040994465351104736
1772363476814036200,1.9000361328125,0.007852042093873024,0.02370951510965824,-0.045904070138931274
1772363476824106200,1.910106201171875,0.0006178314797580242,0.016881169751286507,-0.04064246267080307
1772363476834175200,1.92017529296875,-0.006578598637133837,0.019194774329662323,-0.02436043694615364
1772363476844245200,1.930245361328125,-0.003283469472080469,0.026135504245758057,-0.012068616226315498
1772363476854314000,1.94031396484375,-0.0001086164265871048,0.028198856860399246,0.0006350139155983925
1772363476864384300,1.95038427734375,0.0038637544494122267,0.02227545529603958,0.016637947410345078
1772363476874454300,1.960454345703125,0.006818469613790512,0.021759282797574997,0.020880021154880524
1772363476884523300,1.970523193359375,0.004833349026739597,0.01786600612103939,0.02162783592939377
1772363476894593300,1.98059326171875,0.007096696645021439,0.010254919528961182,0.01991913467645645
1772363476904662000,1.990662109375,0.006435700226575136,-0.00150906085036695,0.016996581107378006
1772363476914732300,2.000732177734375,0.010240841656923294,-0.007774573750793934,0.021764572709798813
1772363476924801000,2.010801025390625,0.0070346626453101635,0.005479979328811169,0.026396609842777252
1772363476934870300,2.020870361328125,0.013087430968880653,0.015408730134367943,0.026041530072689056
1772363476944940000,2.03093994140625,0.009202145971357822,0.016636181622743607,0.016042426228523254
1772363476955009300,2.04100927734375,0.007055406924337149,0.011417930014431477,0.010255117900669575
1772363476965079000,2.0510791015625,0.005732615012675524,0.0016678315587341785,0.005811366252601147
1772363476975149000,2.061149169921875,0.0022544171661138535,-0.003989716060459614,0.0015401635318994522
1772363476985218000,2.071218017578125,-0.0022617713548243046,-0.004016880411654711,-0.002439664676785469
1772363476995288000,2.0812880859375,-0.0010056677274405956,-0.00877481047064066,-0.018955284729599953
1772363477005357300,2.091357421875,-0.002622473519295454,-0.008528467267751694,-0.022214461117982864
1772363477015427000,2.101427001953125,0.005831731483340263,-0.0041576880030334,-0.03340506553649902
1772363477025496300,2.111496337890625,0.0073966048657894135,-0.00013338495045900345,-0.047251105308532715
1772363477035566000,2.121566162109375,0.001386676449328661,0.0004398273304104805,-0.04716953635215759
1772363477045635300,2.13163525390625,-0.0008993805386126041,-0.003969568759202957,-0.042488232254981995
1772363477055705000,2.141705078125,0.0006662281230092049,0.0004185349680483341,-0.03167534992098808
1772363477065774000,2.151774169921875,0.0036705401726067066,0.005100638139992952,-0.015156559646129608
1772363477075844000,2.161843994140625,0.01164594478905201,0.012815703637897968,0.0007893918082118034
1772363477085913000,2.1719130859375,0.018959252163767815,0.02260361984372139,0.02084219641983509
1772363477095982000,2.181982177734375,0.021290168166160583,0.022592680528759956,0.03766561299562454
1772363477106052000,2.192052001953125,0.019184140488505363,0.0237551499158144,0.0458521693944931
1772363477116121000,2.20212109375,0.017325863242149353,0.021813685074448586,0.048265013843774796
1772363477126191000,2.212191162109375,0.01568109355866909,0.027241205796599388,0.05291862413287163
1772363477136261000,2.22226123046875,0.014902209863066673,0.03615735471248627,0.05296911299228668
1772363477146330000,2.232330078125,0.01392030157148838,0.03865832835435867,0.043571874499320984
1772363477156400000,2.242400146484375,0.011861945502460003,0.03836984932422638,0.02672312594950199
1772363477166469000,2.25246923828125,0.01286409329622984,0.03214284032583237,0.013572169467806816
1772363477176539100,2.2625390625,0.00986810028553009,0.030372684821486473,0.002377919852733612
1772363477186608000,2.272608154296875,0.010386617854237556,0.03339936584234238,-0.0005134735256433487
1772363477196678100,2.28267822265625,0.012697361409664154,0.03481714427471161,-0.005771305877715349
1772363477206747100,2.2927470703125,0.009437119588255882,0.030165933072566986,-0.001585083082318306
1772363477216816000,2.302816162109375,0.0039043561555445194,0.02220926620066166,0.013052506372332573
1772363477226886100,2.31288623046875,0.0007620924152433872,0.01914156973361969,0.031183838844299316
1772363477236956200,2.3229560546875,0.0013940874487161636,0.019688475877046585,0.04517189785838127
1772363477247025200,2.333025146484375,-0.0036336942575871944,0.013098749332129955,0.06356075406074524
1772363477257095200,2.34309521484375,-0.01050382200628519,0.01699420064687729,0.07087759673595428
1772363477267164200,2.3531640625,-0.012458316050469875,0.016298316419124603,0.06566207110881805
1772363477277234200,2.363234130859375,-0.01451148558408022,0.01274542324244976,0.05761522054672241
1772363477287303200,2.37330322265625,-0.00903682503849268,0.005276586394757032,0.04405733570456505
1772363477297373200,2.383373291015625,-0.009979152120649815,0.003823957871645689,0.03211722895503044
1772363477307442200,2.393442138671875,-0.010835890658199787,0.004115840885788202,0.01695265807211399
1772363477317511200,2.40351123046875,-0.004431210923939943,0.0011389004066586494,0.006648831069469452
1772363477327581200,2.413581298828125,-0.009043272584676743,0.0015157372690737247,-0.004304749891161919
1772363477337650200,2.423650146484375,-0.00921446643769741,0.004157473798841238,-0.005725866183638573
1772363477347720200,2.43372021484375,-0.006854639388620853,0.015949949622154236,-0.004696820862591267
1772363477357789000,2.443788818359375,-0.003453113604336977,0.022796697914600372,0.000913228839635849
1772363477367859200,2.453859130859375,0.001671074889600277,0.02297353371977806,0.012496115639805794
1772363477377929200,2.46392919921875,0.0061560035683214664,0.00695341220125556,0.026640338823199272
1772363477387998200,2.473998291015625,0.006892367731779814,-0.0011090412735939026,0.043624646961688995
1772363477398067200,2.484067138671875,0.009373240172863007,0.001252143643796444,0.05889638140797615
1772363477408137000,2.494136962890625,0.012622030451893806,0.010898113250732422,0.0631561130285263
1772363477418207200,2.504207275390625,0.012903949245810509,0.015512380748987198,0.0659278929233551
1772363477428276000,2.51427587890625,0.01053053978830576,0.017719607800245285,0.06778411567211151
1772363477438345200,2.52434521484375,0.004220316652208567,0.014067640528082848,0.0645921602845192
1772363477448415000,2.5344150390625,0.0003699185326695442,0.013491598889231682,0.04945821315050125
1772363477458484200,2.544484130859375,-0.002914906945079565,0.013722195290029049,0.034172240644693375
1772363477468554200,2.55455419921875,-0.007746946532279253,0.005734044127166271,0.016444910317659378
1772363477478623200,2.564623291015625,-0.005680158268660307,0.00044805649667978287,-0.00576494075357914
1772363477488693200,2.574693359375,-0.007598166819661856,-0.009243186563253403,-0.017829859629273415
1772363477498762200,2.58476220703125,-0.007072542328387499,-0.008910325355827808,-0.02028258517384529
1772363477508832300,2.594832275390625,-0.005079165566712618,0.003518114797770977,-0.026003854349255562
1772363477518901000,2.60490087890625,-0.0068549057468771935,0.015954477712512016,-0.022704582661390305
1772363477528971300,2.61497119140625,-0.001979457214474678,0.018237872049212456,-0.00907851941883564
1772363477539040000,2.6250400390625,-0.005040384829044342,0.023767853155732155,0.007877853699028492
1772363477549110300,2.6351103515625,0.002394894603639841,0.01548941619694233,0.02047913148999214
1772363477559179000,2.645178955078125,-0.002176163252443075,0.018752267584204674,0.02466195821762085
1772363477569249300,2.655249267578125,-0.0010853330604732037,0.012563347816467285,0.02760821208357811
1772363477579318000,2.665318115234375,-0.002352005336433649,0.013646682724356651,0.0252680741250515
1772363477589388000,2.675387939453125,-0.008320415392518044,0.015065349638462067,0.032583776861429214
1772363477599457300,2.685457275390625,-0.013976465910673141,0.010788744315505028,0.04253939911723137
1772363477609527000,2.695527099609375,-0.015806855633854866,0.008911482989788055,0.051123831421136856
1772363477619596300,2.70559619140625,-0.008459407836198807,0.00861985981464386,0.0482456311583519
1772363477629666000,2.715666015625,0.0002824193798005581,0.009599636308848858,0.046794213354587555
1772363477639735300,2.7257353515625,-0.006300932727754116,0.005372560117393732,0.04131675511598587
1772363477649805000,2.73580517578125,-0.006463651545345783,0.0029394966550171375,0.030848665162920952
1772363477659874300,2.745874267578125,-0.005863549653440714,-0.0010216021910309792,0.02003079280257225
1772363477669944000,2.755944091796875,-0.006501642521470785,0.0025369133800268173,0.01049854326993227
1772363477680013000,2.766012939453125,-0.01088131032884121,0.005680901929736137,0.003697535954415798
1772363477690083300,2.776083251953125,-0.004661499056965113,0.003372207283973694,-0.00758787477388978
1772363477700152000,2.786152099609375,-0.008999384939670563,-0.0015128024388104677,-0.017288338392972946
1772363477710222300,2.796222412109375,-0.010112321004271507,-0.0005402159877121449,-0.020657237619161606
1772363477720291600,2.80629150390625,-0.011942233890295029,-0.00004853028804063797,-0.025522179901599884
1772363477730361300,2.816361328125,-0.015539631247520447,0.00009128544479608536,-0.028408516198396683
1772363477740430600,2.8264306640625,-0.012078981846570969,-0.007136240601539612,-0.01922903023660183
1772363477750500600,2.83650048828125,-0.00841420516371727,-0.007207080721855164,-0.00866906438022852
1772363477760569600,2.846569580078125,-0.004994467832148075,-0.011351383291184902,0.011142385192215443
1772363477770639600,2.8566396484375,0.004073062911629677,-0.011383075267076492,0.02686621993780136
1772363477780708600,2.86670849609375,0.009074369445443153,0.0042769755236804485,0.03817903250455856
1772363477790778600,2.876778564453125,0.007556100841611624,0.017150163650512695,0.04760262742638588
1772363477800847600,2.88684765625,0.014858662150800228,0.03171144053339958,0.04499310627579689
1772363477810917600,2.896917724609375,0.015055470168590546,0.03320733830332756,0.039788223803043365
1772363477820986600,2.906986572265625,0.018161477521061897,0.02892269194126129,0.031145192682743073
1772363477831056600,2.917056640625,0.024125894531607628,0.027101092040538788,0.020101599395275116
1772363477841125400,2.92712548828125,0.022812578827142715,0.031361423432826996,0.01451585628092289
1772363477851195600,2.937195556640625,0.02271351031959057,0.03203227370977402,0.006052330136299133
1772363477861264400,2.947264404296875,0.01879177615046501,0.03388439118862152,0.0026216553524136543
1772363477871334700,2.957334716796875,0.017115315422415733,0.025880256667733192,-0.0005997037515044212
1772363477881403600,2.967403564453125,0.011909744702279568,0.02162253111600876,-0.004447944462299347
1772363477891473400,2.977473388671875,0.008195700123906136,0.012439154088497162,-0.00804188009351492
1772363477901542700,2.987542724609375,0.002742464654147625,0.0043055713176727295,-0.0042522381991147995
1772363477911612400,2.9976123046875,-0.003313563298434019,-0.002476700581610203,0.00790242850780487
1772363477921681700,3.007681640625,-0.008205100893974304,-0.010466109961271286,0.023219306021928787
1772363477931751400,3.01775146484375,-0.014998825266957283,-0.013446453958749771,0.03299177438020706
1772363477941820700,3.027820556640625,-0.011951737105846405,-0.010124566033482552,0.03319568186998367
1772363477951890400,3.037890380859375,-0.00730532081797719,-0.010855603963136673,0.030962355434894562
1772363477961959700,3.047959716796875,-0.0017762030474841595,-0.0012336289510130882,0.023580238223075867
1772363477972029400,3.058029541015625,0.005187164060771465,0.007373973727226257,0.02063557878136635
1772363477982098700,3.0680986328125,0.008112086914479733,0.011882605031132698,0.009219867177307606
1772363477992168700,3.078168701171875,0.00553867407143116,0.01719374768435955,-0.0004250369966030121
1772363478002237400,3.088237548828125,0.00417708232998848,0.021919885650277138,-0.0028853118419647217
1772363478012307700,3.0983076171875,0.007917491719126701,0.037126000970602036,-0.009213248267769814
1772363478022376400,3.10837646484375,0.018351159989833832,0.04173887521028519,-0.026598714292049408
1772363478032446700,3.11844677734375,0.022884657606482506,0.033063098788261414,-0.03923701122403145
1772363478042515500,3.128515380859375,0.020709306001663208,0.024344081059098244,-0.036815617233514786
1772363478052585700,3.138585693359375,0.01729673147201538,0.031869105994701385,-0.028939317911863327
1772363478062654500,3.148654541015625,0.01757216826081276,0.039240993559360504,-0.014533132314682007
1772363478072724500,3.158724365234375,0.024958711117506027,0.03131968528032303,-0.007363902870565653
1772363478082793500,3.16879345703125,0.0328642874956131,0.024970607832074165,-0.013200625777244568
1772363478092863500,3.178863525390625,0.03480280190706253,0.01638803817331791,-0.010006430558860302
1772363478102932500,3.188932373046875,0.036673929542303085,0.022923970595002174,-0.004921325016766787
1772363478113002500,3.19900244140625,0.038948800414800644,0.02904604561626911,0.004249002784490585
1772363478123071700,3.20907177734375,0.03845870494842529,0.03340213745832443,0.01229625940322876
1772363478133141500,3.2191416015625,0.0356658473610878,0.03589805215597153,0.017941094934940338
1772363478143210800,3.229210693359375,0.03436043858528137,0.03885100781917572,0.01041981391608715
1772363478153280500,3.239280517578125,0.02544284611940384,0.030195729807019234,0.00211527943611145
1772363478163349500,3.249349609375,0.025914940983057022,0.018875934183597565,-0.017740406095981598
1772363478173419500,3.25941943359375,0.02596527338027954,0.011460361070930958,-0.03472418338060379
1772363478183488500,3.269488525390625,0.02310590259730816,0.004884735681116581,-0.0484260618686676
1772363478193558500,3.27955859375,0.012598667293787003,-0.0003728768788278103,-0.060847312211990356
1772363478203627500,3.28962744140625,0.0065176053903996944,-0.016978751868009567,-0.06822533905506134
1772363478213697800,3.29969775390625,-0.010994542390108109,-0.025508856400847435,-0.06718137860298157
1772363478223766500,3.3097666015625,-0.019254840910434723,-0.02752263844013214,-0.07061411440372467
1772363478233836500,3.31983642578125,-0.026436053216457367,-0.03617791086435318,-0.06586489826440811
1772363478243905500,3.329905517578125,-0.025138793513178825,-0.032947078347206116,-0.04946061968803406
1772363478253975600,3.3399755859375,-0.026591280475258827,-0.027219418436288834,-0.032483503222465515
1772363478264044500,3.35004443359375,-0.02153290994465351,-0.027546130120754242,-0.023005319759249687
1772363478274114600,3.360114501953125,-0.020356591790914536,-0.031413838267326355,-0.011979300528764725
1772363478284183600,3.37018359375,-0.021877503022551537,-0.03384733200073242,-0.0034780846908688545
1772363478294253600,3.380253662109375,-0.021136878058314323,-0.024368343874812126,0.003876767121255398
1772363478304322600,3.390322509765625,-0.016659002751111984,-0.02002803608775139,0.012917676009237766
1772363478314392600,3.400392578125,-0.01821136102080345,-0.01811375841498375,0.02253488451242447
1772363478324461600,3.410461669921875,-0.015508566051721573,-0.027911139652132988,0.02351311594247818
1772363478334531600,3.420531494140625,-0.020700929686427116,-0.036017537117004395,0.016434699296951294
1772363478344600600,3.4306005859375,-0.022391092032194138,-0.03845271095633507,0.003836921416223049
1772363478354670600,3.440670654296875,-0.02246779017150402,-0.03630806505680084,-0.012396377511322498
1772363478364739600,3.450739501953125,-0.026057014241814613,-0.031227055937051773,-0.023611437529325485
1772363478374809600,3.4608095703125,-0.028999807313084602,-0.04269382730126381,-0.03537382185459137
1772363478384878600,3.470878662109375,-0.027726860716938972,-0.054458070546388626,-0.04518458619713783
1772363478394948600,3.480948486328125,-0.02867228351533413,-0.059925273060798645,-0.05274929478764534
1772363478405017600,3.491017578125,-0.023741047829389572,-0.05068327486515045,-0.06360497325658798
1772363478415087400,3.50108740234375,-0.018838699907064438,-0.029305018484592438,-0.07407944649457932
1772363478425156600,3.511156494140625,-0.01723949797451496,-0.016178131103515625,-0.08126206696033478
1772363478435226600,3.5212265625,-0.014550505205988884,-0.0056879399344325066,-0.07687584310770035
1772363478445295600,3.531295654296875,-0.007116907276213169,-0.0072714886628091335,-0.06541302055120468
1772363478455365600,3.54136572265625,0.00442842859774828,-0.012184487655758858,-0.042687736451625824
1772363478465434600,3.5514345703125,0.011254534125328064,-0.01373597327619791,-0.022155053913593292
1772363478475504600,3.561504638671875,0.012696102261543274,-0.014742115512490273,-0.005555304698646069
1772363478485573600,3.57157373046875,0.012616906315088272,-0.004281358793377876,0.008780132047832012
1772363478495643600,3.5816435546875,0.010249622166156769,0.0039994739927351475,0.01663246378302574
1772363478505712400,3.59171240234375,0.00742905680090189,0.00777025381103158,0.021508770063519478
1772363478515782700,3.60178271484375,0.0067350370809435844,0.002933953423053026,0.013712633401155472
1772363478525851400,3.611851318359375,0.003340895753353834,0.0013268738985061646,0.008213624358177185
1772363478535921700,3.621921630859375,0.0036921664141118526,-0.009015245363116264,0.004897456616163254
1772363478545990400,3.631990478515625,0.0048262132331728935,-0.009566747583448887,0.0007935427129268646
1772363478556060700,3.642060791015625,0.006073637865483761,-0.011876506730914116,-0.010658849030733109
1772363478566129700,3.652129638671875,0.003255443647503853,-0.016079600900411606,-0.01990721933543682
1772363478576199400,3.662199462890625,0.0016628731973469257,-0.008175071328878403,-0.021861979737877846
1772363478586268700,3.6722685546875,0.0036396170035004616,0.007618621923029423,-0.024359460920095444
1772363478596338400,3.68233837890625,0.004001273773610592,0.011103634722530842,-0.025518201291561127
1772363478606407700,3.69240771484375,0.0006519928574562073,-0.001009372528642416,-0.01664230227470398
1772363478616477400,3.7024775390625,-0.0004321797750890255,-0.006268050521612167,-0.01453840546309948
1772363478626546700,3.712546630859375,-0.0008315364830195904,-0.023743730038404465,-0.007128466386348009
1772363478636616400,3.722616455078125,-0.005174086894840002,-0.03238675370812416,0.0049066245555877686
1772363478646685700,3.732685791015625,-0.0004652421921491623,-0.03233462572097778,0.014211200177669525
1772363478656755500,3.74275537109375,0.00048017967492341995,-0.025596030056476593,0.022161003202199936
1772363478666824700,3.75282470703125,0.007269920315593481,-0.020574118942022324,0.027249978855252266
1772363478676894700,3.762894775390625,0.007480576168745756,-0.014819027855992317,0.023390261456370354
1772363478686963500,3.77296337890625,0.008735761046409607,-0.016835685819387436,0.016442082822322845
1772363478697033700,3.78303369140625,0.007665702607482672,-0.02022162824869156,0.004650936461985111
1772363478707102500,3.7931025390625,0.003512584138661623,-0.02395794540643692,-0.009179442189633846
1772363478717176300,3.80317626953125,0.0037125875242054462,-0.025392591953277588,-0.02661142870783806
1772363478727245300,3.813245361328125,0.006213093642145395,-0.025825902819633484,-0.045384764671325684
1772363478737315300,3.8233154296875,0.0077273668721318245,-0.02651166543364525,-0.05739961564540863
1772363478747384300,3.83338427734375,0.011674357578158379,-0.01905357837677002,-0.07148609310388565
1772363478757454300,3.843454345703125,0.010872213169932365,-0.011343462392687798,-0.07305655628442764
1772363478767523300,3.8535234375,0.011418519541621208,-0.0025277803651988506,-0.06140720099210739
1772363478777593300,3.86359326171875,0.010284279473125935,0.002932499162852764,-0.04381968453526497
1772363478787662600,3.87366259765625,0.007589451503008604,-0.0014943091664463282,-0.0246597733348608
1772363478797732400,3.883732421875,0.00431722542271018,-0.02173433266580105,-0.002797085791826248
1772363478807801600,3.893801513671875,0.0067011225037276745,-0.024296686053276062,0.01740654557943344
1772363478817871400,3.903871337890625,0.008652154356241226,-0.02561628259718418,0.032241418957710266
1772363478827940400,3.9139404296875,0.0003992198035120964,-0.025009069591760635,0.04053814709186554
1772363478838010400,3.92401025390625,-0.006840583868324757,-0.019693398848176003,0.038710951805114746
1772363478848079400,3.934079345703125,-0.0062538739293813705,-0.013247104361653328,0.02659422904253006
1772363478858149400,3.9441494140625,-0.009383088909089565,-0.018873564898967743,0.011923675425350666
1772363478868218400,3.95421826171875,-0.015130003914237022,-0.035191915929317474,-0.003339913673698902
1772363478878288400,3.964288330078125,-0.01861235313117504,-0.03928146883845329,-0.027863364666700363
1772363478888357400,3.974357421875,-0.015986915677785873,-0.05031006410717964,-0.05170648545026779
1772363478898425300,3.98442529296875,-0.014495545998215675,-0.051841914653778076,-0.0632675364613533
1772363478908494600,3.99449462890625,-0.016719644889235497,-0.04893782362341881,-0.0681772381067276
1772363478918564400,4.004564453125,-0.01271158829331398,-0.041027966886758804,-0.07044970989227295
1772363478928633300,4.01463330078125,-0.01128415297716856,-0.031749553978443146,-0.060535699129104614
1772363478938703400,4.024703369140625,-0.005700569599866867,-0.022366706281900406,-0.04593891650438309
1772363478948772400,4.0347724609375,-0.0016162735410034657,-0.023892387747764587,-0.022108936682343483
1772363478958842600,4.044842529296875,0.0057739983312785625,-0.027127062901854515,-0.0048316786997020245
1772363478968911400,4.054911376953125,0.007235086057335138,-0.026186199858784676,0.014350035227835178
1772363478978981400,4.0649814453125,0.007903539575636387,-0.03283558040857315,0.02509748935699463
1772363478989050400,4.07505029296875,0.013534130528569221,-0.03557807579636574,0.022910334169864655
1772363478999120400,4.085120361328125,0.009416617453098297,-0.038807425647974014,0.021710578352212906
1772363479009189400,4.095189453125,0.016450796276330948,-0.03581199795007706,0.01571838930249214
1772363479019259400,4.10525927734375,0.02308419905602932,-0.023358257487416267,0.016869675368070602
1772363479029328400,4.115328369140625,0.031101955100893974,-0.0027667509857565165,0.0189942829310894
1772363479039398400,4.1253984375,0.03160582482814789,0.0029531861655414104,0.01917031779885292
1772363479049468400,4.135468505859375,0.03189320117235184,-0.0007989015430212021,0.015448429621756077
1772363479059537400,4.145537353515625,0.02258092537522316,-0.009018748067319393,0.018128901720046997
1772363479069607400,4.155607421875,0.021107817068696022,-0.009301165118813515,0.009540700353682041
1772363479079676400,4.165676513671875,0.018239060416817665,-0.005509356968104839,-0.010216493159532547
1772363479089746400,4.175746337890625,0.014540094882249832,-0.008549495600163937,-0.03062252327799797
1772363479099815400,4.1858154296875,0.016827218234539032,-0.0015464469324797392,-0.04390663653612137
1772363479109885400,4.195885498046875,0.01564943790435791,0.012868739664554596,-0.05330643430352211
1772363479119954400,4.205954345703125,0.015165010467171669,0.01896471530199051,-0.05967458337545395
1772363479130024400,4.2160244140625,0.016151510179042816,0.02019082009792328,-0.06093151122331619
1772363479140093400,4.226093505859375,0.017523303627967834,0.021379921585321426,-0.058302972465753555
1772363479150163500,4.23616357421875,0.013455303385853767,0.015361407771706581,-0.053370676934719086
1772363479160232200,4.246232177734375,0.01166885532438755,0.010942690074443817,-0.04286104440689087
1772363479170302500,4.256302490234375,0.01109962910413742,0.008438054472208023,-0.02800755202770233
1772363479180371200,4.26637109375,0.0034318561665713787,0.01112678088247776,-0.014721306972205639
1772363479190441500,4.27644140625,0.0027376641519367695,0.012991342693567276,-0.004918849095702171
1772363479200510500,4.286510498046875,-0.0003883545286953449,0.015167411416769028,0.0007478250190615654
1772363479210580200,4.296580322265625,-0.007296501658856869,0.013026578351855278,0.00652677845209837
1772363479220650500,4.306650390625,-0.007533523254096508,0.008172700181603432,0.0012550512328743935
1772363479230719200,4.31671923828125,-0.007020727265626192,-0.0010708356276154518,-0.0021275971084833145
1772363479240789500,4.32678955078125,-0.009717976674437523,0.004043232649564743,-0.008047804236412048
1772363479250858200,4.336858154296875,-0.009136343374848366,0.0020352089777588844,-0.015543004497885704
1772363479260928500,4.346928466796875,-0.011900437995791435,-0.0019869632087647915,-0.02020912989974022
1772363479270997200,4.356997314453125,-0.01475667767226696,-0.0012133147101849318,-0.011987685225903988
1772363479281067300,4.3670673828125,-0.020969033241271973,0.002387278713285923,-0.009575659409165382
1772363479291136500,4.377136474609375,-0.02694220095872879,-0.00299268402159214,-0.00706216087564826
1772363479301206300,4.387206298828125,-0.030622687190771103,-0.006354658864438534,-0.009994035586714745
1772363479311275500,4.397275634765625,-0.026581142097711563,-0.011485490947961807,-0.008416196331381798
1772363479321345300,4.40734521484375,-0.024484965950250626,-0.011647943407297134,-0.00018889270722866058
1772363479331414500,4.41741455078125,-0.021747007966041565,-0.010363122448325157,0.006803496740758419
1772363479341484300,4.427484375,-0.018918994814157486,-0.015952564775943756,0.024730298668146133
1772363479351553500,4.437553466796875,-0.011814113706350327,-0.015737241134047508,0.04141535982489586
1772363479361623300,4.447623291015625,-0.0021321927197277546,-0.009932083077728748,0.05006184056401253
1772363479371692500,4.457692626953125,0.0023325392976403236,-0.003928445279598236,0.05025956407189369
1772363479381762600,4.467762451171875,0.0063880011439323425,-0.0035271067172288895,0.04507146030664444
1772363479391832300,4.477832275390625,0.011073566973209381,-0.003249072702601552,0.03592616319656372
1772363479401901600,4.487901611328125,0.006773360073566437,-0.006352454423904419,0.024753939360380173
1772363479411971300,4.497971435546875,0.00298268161714077,-0.0019497317261993885,0.0127242561429739
1772363479422040600,4.50804052734375,0.004260999150574207,0.0013959975913167,-0.0032885316759347916
1772363479432110300,4.5181103515625,0.008335483260452747,0.002424897626042366,-0.024167407304048538
1772363479442179300,4.528179443359375,0.01162821613252163,0.001693593803793192,-0.04050004109740257
1772363479452249300,4.538249267578125,0.010731026530265808,-0.000579445157200098,-0.054030511528253555
1772363479462318300,4.548318359375,0.012778997421264648,0.00530507555231452,-0.06021304056048393
1772363479472388600,4.558388671875,0.011198418214917183,0.010743701830506325,-0.05276202782988548
1772363479482457300,4.568457275390625,0.012539053335785866,0.01950443722307682,-0.027858007699251175
1772363479492528400,4.5785283203125,0.012219589203596115,0.018311064690351486,-0.00005039386451244354
1772363479502598400,4.588598388671875,0.01640048623085022,0.00004257913678884506,0.022573690861463547
1772363479512667400,4.59866748046875,0.018799662590026855,-0.003421645611524582,0.03844365105032921
1772363479522737400,4.6087373046875,0.015799611806869507,0.0033768722787499428,0.05264602228999138
1772363479532806400,4.618806396484375,0.014861438423395157,0.006501751486212015,0.0566483773291111
1772363479542876400,4.62887646484375,0.012407069094479084,0.010379314422607422,0.05138489976525307
1772363479552945400,4.6389453125,0.010624687187373638,0.015342957340180874,0.04688577353954315
1772363479563015400,4.649015380859375,0.008157001808285713,0.009111693128943443,0.03802436962723732
1772363479573084400,4.65908447265625,0.00575275719165802,0.0005815150216221809,0.019066547974944115
1772363479583154400,4.669154541015625,0.004363385960459709,-0.00046324310824275017,0.00898541696369648
1772363479593224200,4.67922412109375,0.0017690286040306091,0.01307276263833046,0.010446762666106224
1772363479603293400,4.68929345703125,0.0001578163355588913,0.031025132164359093,0.002500421367585659
1772363479613363500,4.699363525390625,-0.0017534471116960049,0.03394424170255661,-0.011857246048748493
1772363479623432400,4.709432373046875,-0.008437715470790863,0.030590256676077843,-0.021456610411405563
1772363479633502500,4.71950244140625,-0.012132980860769749,0.02981370873749256,-0.021690603345632553
1772363479643571500,4.729571533203125,-0.018442541360855103,0.032005757093429565,-0.020664755254983902
1772363479653641500,4.739641357421875,-0.019928406924009323,0.028886502608656883,-0.01678280532360077
1772363479663710500,4.74971044921875,-0.021396607160568237,0.01352006196975708,-0.013422428630292416
1772363479673780500,4.759780517578125,-0.024159327149391174,0.005539313890039921,-0.008290312252938747
1772363479683849200,4.76984912109375,-0.023984357714653015,-0.0017449639271944761,-0.0035442933440208435
1772363479693919500,4.77991943359375,-0.02258758619427681,0.007832902483642101,0.0025419406592845917
1772363479703988200,4.78998828125,-0.02445073425769806,0.016009073704481125,0.007540428079664707
1772363479714058500,4.80005859375,-0.020523175597190857,0.02772187627851963,0.012832380831241608
1772363479724124200,4.810124267578125,-0.01801367849111557,0.028539465740323067,0.021965160965919495
1772363479734193200,4.820193115234375,-0.011288996785879135,0.029529910534620285,0.03105657547712326
1772363479744263200,4.83026318359375,-0.006308885756880045,0.027354110032320023,0.029050681740045547
1772363479754332200,4.840332275390625,-0.0037493500858545303,0.015573786571621895,0.023676346987485886
1772363479764402200,4.850402099609375,-0.008675132878124714,0.0006172079592943192,0.021037686616182327
1772363479774471200,4.86047119140625,-0.012624889612197876,-0.008043959736824036,0.019190102815628052
1772363479784541200,4.870541259765625,-0.02004845067858696,-0.017067814245820045,0.018081162124872208
1772363479794610200,4.880610107421875,-0.018452301621437073,-0.008855042047798634,0.012224115431308746
1772363479804680200,4.89068017578125,-0.016661860048770905,0.004010422620922327,0.00815267488360405
1772363479814749200,4.900749267578125,-0.011007227934896946,0.012421024963259697,0.004283478483557701
1772363479824819200,4.910819091796875,-0.005622848868370056,0.0166621096432209,-0.0045651402324438095
1772363479834889200,4.92088916015625,-0.004280139692127705,0.018198562785983086,-0.013528963550925255
1772363479844958000,4.9309580078125,-0.0001051025465130806,0.016742346808314323,-0.020701922476291656
1772363479855028200,4.9410283203125,-0.0025422335602343082,0.012070850469172001,-0.02297787182033062
1772363479865097000,4.951096923828125,-0.0044921995140612125,0.00017850473523139954,-0.018958095461130142
1772363479875167200,4.961167236328125,-0.001606326550245285,0.0005239620804786682,-0.015072797425091267
1772363479885236200,4.971236328125,0.005416163243353367,-0.00843304768204689,-0.01538971345871687
1772363479895306000,4.981305908203125,0.010235685855150223,-0.013660033233463764,-0.00859119649976492
1772363479905375200,4.991375244140625,0.013118024915456772,-0.009285259060561657,-0.0025255801156163216
1772363479915445000,5.001445068359375,0.013382822275161743,0.005797249730676413,0.010223275050520897
1772363479925514200,5.01151416015625,0.015553299337625504,0.021225206553936005,0.019079085439443588
1772363479935584000,5.021583984375,0.017947329208254814,0.02966875210404396,0.021506771445274353
1772363479945653200,5.0316533203125,0.019266659393906593,0.0255776047706604,0.0256330743432045
1772363479955723000,5.041722900390625,0.01468968577682972,0.030147340148687363,0.02820267155766487
1772363479965793000,5.05179296875,0.010068036615848541,0.03205496072769165,0.028967000544071198
1772363479975862300,5.0618623046875,0.004689350258558989,0.027155417948961258,0.023276448249816895
1772363479985932000,5.07193212890625,0.0012618619948625565,0.01741250976920128,0.021732881665229797
1772363479996001300,5.082001220703125,-0.00824601948261261,0.00439101317897439,0.021123383194208145
1772363480006071000,5.092071044921875,-0.013692982494831085,-0.004637102596461773,0.021894898265600204
1772363480016140300,5.102140380859375,-0.016602687537670135,-0.0019627718720585108,0.022339466959238052
1772363480026210000,5.1122099609375,-0.021852843463420868,-0.0013790067750960588,0.027486290782690048
1772363480036279300,5.122279296875,-0.01808195188641548,-0.007686528377234936,0.0360800176858902
1772363480046349000,5.13234912109375,-0.01891365647315979,-0.014526057988405228,0.04139222577214241
1772363480056418300,5.142418212890625,-0.02269001118838787,-0.015071679838001728,0.04751582443714142
1772363480066488300,5.15248828125,-0.021212223917245865,-0.013846093788743019,0.042621467262506485
1772363480076558000,5.16255810546875,-0.024113159626722336,-0.015446968376636505,0.03230777755379677
1772363480086627300,5.17262744140625,-0.024539265781641006,-0.016356172040104866,0.030054479837417603
1772363480096697000,5.182697021484375,-0.03025548905134201,-0.007368924096226692,0.029221853241324425
1772363480106766300,5.192766357421875,-0.02176959440112114,-0.00285673001781106,0.01967868022620678
1772363480116836000,5.202836181640625,-0.014966880902647972,0.000510054174810648,0.00939400028437376
1772363480126905000,5.212905029296875,-0.013914931565523148,0.0029692170210182667,0.0026727141812443733
1772363480136975000,5.22297509765625,-0.011971615254878998,0.005401008762419224,0.00017699506133794785
1772363480147044000,5.233044189453125,-0.007906300015747547,0.012134812772274017,-0.010960077866911888
1772363480157114400,5.2431142578125,-0.006168552208691835,0.01283617876470089,-0.014361194334924221
1772363480167183000,5.25318310546875,-0.003042267169803381,0.013420209288597107,-0.010643155314028263
1772363480177253000,5.263253173828125,-0.006464825477451086,0.005927969701588154,-0.000299074687063694
1772363480187323100,5.2733232421875,-0.004589960444718599,0.00036649033427238464,0.00895780697464943
1772363480197392100,5.28339208984375,-0.001533975824713707,-0.010808871127665043,0.0211038775742054
1772363480207462100,5.293462158203125,0.0005334354937076569,-0.019203420728445053,0.02689625322818756
1772363480217531100,5.30353125,0.005918032024055719,-0.016481950879096985,0.03188316151499748
1772363480227601200,5.31360107421875,0.011493626050651073,-0.004955788608640432,0.03224002569913864
1772363480237670100,5.323670166015625,0.016521485522389412,0.008332161232829094,0.03645734861493111
1772363480247740200,5.333740234375,0.017868246883153915,0.010978011414408684,0.031199470162391663
1772363480257809200,5.34380908203125,0.016380202025175095,0.006599477957934141,0.02173449844121933
1772363480267879200,5.353879150390625,0.018480638042092323,0.009175553917884827,0.011162547394633293
1772363480277948200,5.3639482421875,0.013514172285795212,0.008112138137221336,-0.0005294447764754295
1772363480288018200,5.37401806640625,0.009286670945584774,0.0008254628628492355,-0.01287159789353609
1772363480298088200,5.384088134765625,0.011280465871095657,-0.0038611635100096464,-0.022528700530529022
1772363480308157200,5.3941572265625,0.009364853613078594,-0.005506996996700764,-0.02756606973707676
1772363480318227000,5.40422705078125,0.006877575535327196,-0.011316420510411263,-0.032842375338077545
1772363480328296200,5.414296142578125,0.005762776359915733,-0.009079898707568645,-0.0354195162653923
1772363480338366000,5.424365966796875,0.0038722697645425797,-0.00962633267045021,-0.025970077142119408
1772363480348435200,5.434435302734375,-0.004265018738806248,-0.005193501710891724,-0.013919273391366005
1772363480358505200,5.444505126953125,-0.010334362275898457,-0.0006791772320866585,-0.0035521192476153374
1772363480368574200,5.45457421875,-0.01017430704087019,0.0054610068909823895,0.006313827820122242
1772363480378644200,5.464644287109375,-0.004097187891602516,0.006590316537767649,0.015006878413259983
1772363480388713200,5.474713134765625,-0.005469514988362789,0.000488748773932457,0.015839647501707077
1772363480398783200,5.484783203125,-0.003780590370297432,-0.0032733622938394547,0.01250168215483427
1772363480408853000,5.49485302734375,-0.0011672303080558777,-0.006920028943568468,0.00823183637112379
1772363480418922200,5.504922119140625,0.00009839888662099838,-0.008294139988720417,0.011647768318653107
1772363480428992000,5.514991943359375,0.002868352457880974,0.004214194603264332,0.014960741624236107
1772363480439061200,5.525061279296875,0.006786992307752371,0.024966329336166382,0.01957874745130539
1772363480449131300,5.53513134765625,0.011682149022817612,0.02881459705531597,0.013987974263727665
1772363480459200300,5.5452001953125,0.009248623624444008,0.01928798481822014,0.008493883535265923
1772363480469270300,5.555270263671875,0.006922352127730846,0.015503098256886005,0.0035899393260478973
1772363480479339000,5.565339111328125,0.0066391583532094955,0.017593273892998695,-0.009970169514417648
1772363480489409300,5.5754091796875,0.002462788950651884,0.005996005143970251,-0.022624444216489792
1772363480499479000,5.58547900390625,0.0034446315839886665,-0.006117367185652256,-0.031170612201094627
1772363480509548300,5.59554833984375,0.0040169451385736465,-0.0029620537534356117,-0.03927727788686752
1772363480519618000,5.6056181640625,0.0028156577609479427,-0.00016841338947415352,-0.04373691976070404
1772363480529687000,5.61568701171875,0.0038777263835072517,0.008463956415653229,-0.043038904666900635
1772363480539757300,5.62575732421875,0.002939256839454174,0.02055293880403042,-0.042553599923849106
1772363480549826000,5.635825927734375,0.005731847602874041,0.01810389570891857,-0.0435301810503006
1772363480559896300,5.645896240234375,0.004237295128405094,0.01695246808230877,-0.03601275384426117
1772363480569965000,5.655965087890625,0.00541680958122015,0.020786087960004807,-0.018173037096858025
1772363480580035300,5.666035400390625,0.0054229069501161575,0.024503618478775024,-0.0032164370641112328
1772363480590104000,5.67610400390625,0.006581115536391735,0.027745749801397324,0.010634131729602814
1772363480600174000,5.686174072265625,0.003811442293226719,0.021478921175003052,0.021726854145526886
1772363480610243000,5.6962431640625,0.0068626259453594685,0.01983308605849743,0.02283233404159546
1772363480620313000,5.70631298828125,0.009174545295536518,0.023350153118371964,0.02255330979824066
1772363480630383400,5.71638330078125,0.010884561575949192,0.02705967053771019,0.021614011377096176
1772363480640452000,5.7264521484375,0.009288434870541096,0.032230913639068604,0.022635439410805702
1772363480650522000,5.736522216796875,0.010873815044760704,0.04155704006552696,0.015115737915039062
1772363480660591000,5.746591064453125,0.011115852743387222,0.041988253593444824,0.005191531963646412
1772363480670661000,5.7566611328125,0.015937507152557373,0.04275684431195259,-0.005448595155030489
1772363480680730000,5.766730224609375,0.01172981970012188,0.03862141817808151,-0.007814792916178703
1772363480690800000,5.776800048828125,0.012337818741798401,0.03433160111308098,-0.01336561981588602
1772363480700869000,5.786869140625,0.008082562126219273,0.035093605518341064,-0.013380956836044788
1772363480710939100,5.796939208984375,0.006356833968311548,0.03110126219689846,-0.015235848724842072
1772363480721008400,5.80700830078125,0.0028710803017020226,0.016487358137965202,-0.018715111538767815
1772363480731078400,5.817078369140625,0.003822893835604191,0.009296821430325508,-0.013133659027516842
1772363480741148200,5.827148193359375,0.00031360331922769547,0.008986879140138626,-0.0014407197013497353
1772363480751217400,5.837217529296875,-0.00006856024265289307,0.004888275172561407,0.011989336460828781
1772363480761287200,5.847287109375,-0.00018566055223345757,-0.0074915895238518715,0.028346676379442215
1772363480771356400,5.8573564453125,-0.0020725103095173836,-0.01262882724404335,0.043403659015893936
1772363480781426200,5.86742626953125,0.0016213241033256054,-0.019269589334726334,0.05145580694079399
1772363480791495400,5.877495361328125,0.0058216615580022335,-0.01296375785022974,0.05444600060582161
1772363480801565200,5.887565185546875,0.004205511882901192,0.0028244364075362682,0.05437833070755005
1772363480811634200,5.89763427734375,0.006049218121916056,0.01446404866874218,0.05021794140338898
1772363480821704400,5.907704345703125,0.011736743152141571,0.023674163967370987,0.03848133236169815
1772363480831773200,5.917773193359375,0.018000764772295952,0.027033476158976555,0.016796808689832687
1772363480841843500,5.927843505859375,0.022393275052309036,0.019194260239601135,-0.004111688584089279
1772363480851913200,5.937913330078125,0.02681385539472103,0.02121133729815483,-0.0242190882563591
1772363480861982500,5.947982421875,0.024795619770884514,0.022707153111696243,-0.03784824162721634
1772363480872052200,5.95805224609375,0.025404151529073715,0.02335749939084053,-0.049977343529462814
1772363480882121200,5.968121337890625,0.02294495888054371,0.02949971705675125,-0.04724954813718796
1772363480892191200,5.978191162109375,0.02685634419322014,0.04170311987400055,-0.03655961528420448
1772363480902260200,5.98826025390625,0.029844943434000015,0.032118670642375946,-0.021067209541797638
1772363480912330500,5.99833056640625,0.02910005673766136,0.01800178736448288,-0.00650504557415843
1772363480922399200,6.008399169921875,0.03200145810842514,0.012981200590729713,0.0035891858860850334
1772363480932469200,6.01846923828125,0.028283949941396713,0.014809459447860718,0.014873267151415348
1772363480942538200,6.028538330078125,0.02083546295762062,0.02464311569929123,0.03441289812326431
1772363480952608300,6.038608154296875,0.01793208345770836,0.026729971170425415,0.048390764743089676
1772363480962678300,6.04867822265625,0.009806650690734386,0.02190488390624523,0.04985826462507248
1772363480972747300,6.058747314453125,0.007272386457771063,0.01750134862959385,0.054114796221256256
1772363480982817300,6.0688173828125,0.005192320793867111,0.01622912660241127,0.0558452233672142
1772363480992886300,6.07888623046875,0.004130784887820482,0.029238134622573853,0.060839176177978516
1772363481002956300,6.088956298828125,0.007243350613862276,0.040248144418001175,0.01119163352996111
1772363481013025300,6.099025390625,-0.0032588252797722816,-0.0002763774245977402,-0.0064001427963376045
1772363481023095300,6.10909521484375,-0.008077533915638924,-0.02656192146241665,-0.0009059179574251175
1772363481033164300,6.119164306640625,-0.008633868768811226,-0.0051695480942726135,-0.012596129439771175
1772363481043234300,6.129234375,-0.01328052394092083,0.005898377858102322,-0.020187925547361374
1772363481053303300,6.13930322265625,-0.012575851753354073,-0.0023672753013670444,-0.020742129534482956
1772363481063373300,6.149373291015625,-0.011307667009532452,-0.006022851448506117,-0.01830838993191719
1772363481073443000,6.159443115234375,-0.01136039849370718,-0.0136962179094553,-0.007728449068963528
1772363481083512300,6.16951220703125,-0.013326647691428661,-0.010303090326488018,0.008074375800788403
1772363481093582300,6.179582275390625,-0.007833612151443958,-0.0011538001708686352,0.015591946430504322
1772363481103651300,6.1896513671875,-0.0051990896463394165,-0.00048703793436288834,0.015559699386358261
1772363481113721300,6.199721435546875,-0.0014576148241758347,-0.00633613858371973,0.0218769833445549
1772363481123790300,6.209790283203125,0.005564515478909016,-0.009123628959059715,0.0210404172539711
1772363481133860400,6.2198603515625,0.011505495756864548,-0.0031882422044873238,0.031906649470329285
1772363481143929300,6.229929443359375,0.012117072008550167,0.013134532608091831,0.04037518426775932
1772363481153999400,6.239999267578125,0.012807896360754967,0.013077008537948132,0.0396856926381588
1772363481164068000,6.250068115234375,0.017431970685720444,0.006577659398317337,0.029928212985396385
1772363481174138400,6.260138427734375,0.022438181564211845,0.005041281692683697,0.020171990618109703
1772363481184208400,6.27020849609375,0.021811380982398987,0.001940231304615736,0.013034204952418804
1772363481194277400,6.28027734375,0.020420145243406296,-0.0042689284309744835,0.00020069722086191177
1772363481204347400,6.290347412109375,0.013385714963078499,-0.008427769877016544,-0.012018484063446522
1772363481214416400,6.30041650390625,0.007998673245310783,-0.0018127444200217724,-0.024161167442798615
1772363481224486400,6.310486328125,0.008277693763375282,0.012306164018809795,-0.03366805985569954
1772363481234555100,6.32055517578125,0.00783933699131012,0.021964117884635925,-0.04848801717162132
1772363481244625400,6.33062548828125,0.004225722514092922,0.026219412684440613,-0.05426353961229324
1772363481254694100,6.340694091796875,0.006080348044633865,0.021668337285518646,-0.05640658363699913
1772363481264764400,6.350764404296875,0.0018005548045039177,0.0166708342730999,-0.055102862417697906
1772363481274833200,6.360833251953125,0.0026093567721545696,0.015111819840967655,-0.03675980865955353
1772363481284903200,6.370903076171875,0.0028488687239587307,0.015397390350699425,-0.01329426746815443
1772363481294973400,6.380973388671875,0.0025415397249162197,0.01410309411585331,0.017621837556362152
1772363481305042200,6.391042236328125,0.0020282971672713757,0.017917675897479057,0.03289084509015083
1772363481315112400,6.401112548828125,-0.002376038581132889,0.012312520295381546,0.04490223154425621
1772363481325181200,6.41118115234375,-0.00814718659967184,0.012536118738353252,0.048449888825416565
1772363481335251500,6.42125146484375,-0.007070470601320267,0.011533972807228565,0.04846959561109543
1772363481345320200,6.4313203125,-0.006624235771596432,0.015395505353808403,0.04493812471628189
1772363481355390200,6.44139013671875,-0.0015304069966077805,0.014459405094385147,0.036049291491508484
1772363481365459200,6.451459228515625,-0.010086219757795334,0.012144612148404121,0.027045216411352158
1772363481375529200,6.461529296875,-0.0064318301156163216,0.010722750797867775,0.01508549228310585
1772363481385598200,6.47159814453125,-0.0123081523925066,0.009780596941709518,0.006362155079841614
1772363481395668200,6.481668212890625,-0.011177374050021172,0.012940971180796623,-0.0006925594061613083
1772363481405737200,6.4917373046875,-0.013803966343402863,0.01559338066726923,-0.005450959783047438
1772363481415807200,6.50180712890625,-0.015804799273610115,0.016917768865823746,-0.0049651991575956345
1772363481425877200,6.511877197265625,-0.02031380869448185,0.012237941846251488,-0.009464998729526997
1772363481435946200,6.5219462890625,-0.019993962720036507,0.0013741087168455124,-0.01023491844534874
1772363481446016300,6.532016357421875,-0.020221851766109467,-0.01348729059100151,-0.004221558570861816
1772363481456085200,6.542085205078125,-0.021233052015304565,-0.029383432120084763,0.006361577659845352
1772363481466155300,6.5521552734375,-0.023466330021619797,-0.038888391107320786,0.018334046006202698
1772363481476224300,6.562224365234375,-0.01591094210743904,-0.036608725786209106,0.03603820875287056
1772363481486294300,6.572294189453125,-0.018734009936451912,-0.026225972920656204,0.04380926489830017
1772363481496363300,6.58236328125,-0.0173459704965353,-0.022610463201999664,0.05023227632045746
1772363481506433300,6.592433349609375,-0.01801350712776184,0.008819477632641792,0.08606941998004913
1772363481516502300,6.602502197265625,-0.003309928812086582,0.05261462926864624,0.03793996945023537
1772363481526572300,6.612572265625,0.001336495392024517,0.018027417361736298,-0.010602603666484356
1772363481536642300,6.622642333984375,0.005870526656508446,-0.03838445991277695,-0.007008667569607496
1772363481546711300,6.632711181640625,0.009466219693422318,-0.01958833634853363,-0.012354717589914799
1772363481556781300,6.64278125,0.003410457633435726,0.01719151809811592,-0.030775271356105804
1772363481566850300,6.652850341796875,-0.00661821523681283,0.01764073222875595,-0.043533071875572205
1772363481576920300,6.66292041015625,-0.006028325762599707,0.0008321921341121197,-0.05359476059675217
1772363481586989000,6.672989013671875,0.003520446363836527,-0.010649967938661575,-0.056158654391765594
1772363481597059300,6.683059326171875,0.011215916834771633,-0.008888552896678448,-0.04198318347334862
1772363481607128300,6.69312841796875,0.009095124900341034,-0.0015175710432231426,-0.022335758432745934
1772363481617198300,6.7031982421875,0.010204598307609558,-0.005873703397810459,-0.009486272931098938
1772363481627267300,6.713267333984375,0.00978284701704979,-0.004917016252875328,-0.001431378535926342
1772363481637337000,6.723337158203125,0.009022515267133713,-0.0020740919280797243,0.00603905413299799
1772363481647407400,6.733407470703125,0.01153506338596344,-0.0011029276065528393,0.011100898496806622
1772363481657476000,6.74347607421875,0.017037153244018555,0.007241288665682077,0.025486230850219727
1772363481667546400,6.75354638671875,0.011113651096820831,0.017513226717710495,0.03243912011384964
1772363481677615000,6.763614990234375,0.008693636395037174,0.018065832555294037,0.03068702667951584
1772363481687685400,6.773685302734375,0.00709525728598237,0.022585494443774223,0.01843368634581566
1772363481697754400,6.78375439453125,0.007943473756313324,0.01565008983016014,0.015389692038297653
1772363481707824000,6.79382421875,0.005750936921685934,0.01533723995089531,0.008794138208031654
1772363481717893400,6.803893310546875,0.010415463708341122,0.022813530638813972,-0.0029804958030581474
1772363481727964000,6.8139638671875,0.006493777967989445,0.023293597623705864,-0.01694331131875515
1772363481738033000,6.824032958984375,0.0020974320359528065,0.021125253289937973,-0.018586214631795883
1772363481748103000,6.83410302734375,-0.002052139490842819,0.026371803134679794,-0.021220970898866653
1772363481758172000,6.844171875,-0.008502582088112831,0.022030586376786232,-0.02035864070057869
1772363481768242000,6.854241943359375,-0.008462137542665005,0.011940245516598225,-0.010479915887117386
1772363481778311700,6.864311767578125,-0.0048817843198776245,0.008162551559507847,-0.004047316499054432
1772363481788381000,6.874380859375,0.0010744761675596237,0.007437779568135738,0.006096487864851952
1772363481798450700,6.88445068359375,-0.008578149601817131,0.014049610123038292,0.011353302747011185
1772363481808520000,6.89452001953125,-0.011460686102509499,0.017443854361772537,0.017032239586114883
1772363481818590000,6.90458984375,-0.012081734836101532,0.0227600559592247,0.016547810286283493
1772363481828659000,6.914658935546875,-0.011839392594993114,0.013288463465869427,0.023664645850658417
1772363481838729000,6.92472900390625,-0.010685178451240063,0.006559187546372414,0.03625021502375603
1772363481848797700,6.934797607421875,-0.007037181407213211,0.002872839570045471,0.03919114172458649
1772363481858868000,6.944867919921875,-0.004323952831327915,0.0006837211549282074,0.04107852280139923
1772363481868936700,6.954936767578125,0.0016866070218384266,-0.0058407108299434185,0.03545980155467987
1772363481879007000,6.965007080078125,-0.002120381221175194,-0.010710300877690315,0.03287041187286377
1772363481889075700,6.97507568359375,-0.006253391038626432,-0.009829603135585785,0.026182547211647034
1772363481899145700,6.985145751953125,-0.009894730523228645,-0.012240562587976456,0.012799364514648914
1772363481909216000,6.995216064453125,-0.016086716204881668,-0.02280322276055813,0.0005591120570898056
1772363481919284700,7.00528466796875,-0.0148025406524539,-0.021025829017162323,-0.0041951630264520645
1772363481929355000,7.01535498046875,-0.013911613263189793,-0.016727613285183907,-0.01452840305864811
1772363481939423700,7.025423828125,-0.009697693400084972,-0.008072338998317719,-0.02013568952679634
1772363481949493800,7.03549365234375,-0.012903132475912571,0.0018240418285131454,-0.02016167715191841
1772363481959562800,7.045562744140625,-0.009412792511284351,0.01003723032772541,-0.02767631784081459
1772363481969632800,7.0556328125,-0.008440263569355011,0.008153919130563736,-0.028707116842269897
1772363481979701800,7.06570166015625,-0.006817333400249481,-0.0015559664461761713,-0.0186076108366251
1772363481989771800,7.075771728515625,-0.0031731505878269672,-0.0025217931251972914,-0.0033270632848143578
1772363481999840800,7.0858408203125,-0.0006404840387403965,-0.0010970020666718483,0.014251132495701313
1772363482009910800,7.095910888671875,0.004904533736407757,-0.00752559769898653,0.024702038615942
1772363482019979800,7.105979736328125,0.008096331730484962,-0.007023591548204422,0.040490057319402695
1772363482030049800,7.1160498046875,0.008871405385434628,-0.005340127740055323,0.049009405076503754
1772363482040119800,7.126119873046875,0.005332596600055695,0.006677653174847364,0.05072847008705139
1772363482050188800,7.136188720703125,0.011770552024245262,0.022224750369787216,0.04100561887025833
1772363482060258800,7.1462587890625,0.017326436936855316,0.02122393436729908,0.03196658566594124
1772363482070327800,7.156327880859375,0.018965348601341248,0.02049822360277176,0.021540574729442596
1772363482080397800,7.166397705078125,0.020214635878801346,0.023435423150658607,0.01355828158557415
1772363482090466800,7.176466796875,0.01798108033835888,0.03052171878516674,0.0074639106169342995
1772363482100536800,7.186536865234375,0.01365424133837223,0.03208686038851738,0.0018813926726579666
1772363482110605800,7.196605712890625,0.0054331496357917786,0.018870145082473755,0.003566605970263481
1772363482120675800,7.20667578125,0.002733237110078335,0.0090904850512743,0.00535944476723671
1772363482130744800,7.216744873046875,-0.004052238538861275,-0.0015168027020990849,0.009112615138292313
1772363482140814800,7.22681494140625,-0.00216112844645977,-0.009990714490413666,0.01511511392891407
1772363482150883800,7.2368837890625,-0.0016778134740889072,-0.008740104734897614,0.020285509526729584
1772363482160953900,7.246953857421875,-0.0017758174799382687,-0.004017254337668419,0.023731108754873276
1772363482171024000,7.25702392578125,-0.004572533071041107,-0.01291431300342083,0.023717626929283142
1772363482181092900,7.2670927734375,-0.007769658230245113,-0.023004764690995216,0.026211675256490707
1772363482191163000,7.277162841796875,-0.0066631147637963295,-0.028173692524433136,0.022659551352262497
1772363482201231600,7.287231689453125,-0.0125582879409194,-0.022920874878764153,0.019101034849882126
1772363482211302000,7.297302001953125,-0.018042434006929398,-0.01750599592924118,0.021299567073583603
1772363482221371000,7.307370849609375,-0.021921329200267792,-0.017707861959934235,0.014175609685480595
1772363482231441000,7.31744091796875,-0.022557977586984634,-0.01239619217813015,0.005184726789593697
1772363482241510000,7.327510009765625,-0.02559371292591095,-0.011519746854901314,0.0007569547742605209
1772363482251579600,7.33757958984375,-0.024098996073007584,-0.010425182059407234,-0.004585028626024723
1772363482261649000,7.34764892578125,-0.015728147700428963,-0.01184171810746193,-0.011137736961245537
1772363482271718700,7.35771875,-0.012892652302980423,-0.013310087844729424,-0.007935209199786186
1772363482281789000,7.367788818359375,-0.009391659870743752,-0.01660521700978279,-0.00202805083245039
1772363482291857700,7.377857666015625,-0.006363444961607456,-0.013897567987442017,0.005829256027936935
1772363482301927700,7.387927734375,-0.003969263285398483,-0.021995972841978073,0.014751644805073738
1772363482311996700,7.39799658203125,0.0018318365328013897,-0.02723066695034504,0.021330099552869797
1772363482322066700,7.408066650390625,0.013844290748238564,-0.013447212055325508,0.026091299951076508
1772363482332136000,7.418135986328125,0.012036305852234364,-0.0019062478095293045,0.03152415156364441
1772363482342205700,7.428205810546875,0.017260096967220306,0.01412571407854557,0.024118172004818916
1772363482352275000,7.43827490234375,0.015568915754556656,0.016748767346143723,0.012822258286178112
1772363482362344700,7.4483447265625,0.014160635881125927,0.009188851341605186,0.0016076881438493729
1772363482372414000,7.4584140625,0.007553435862064362,0.008083898574113846,-0.00792783498764038
1772363482382483700,7.468483642578125,0.010225918143987656,0.006994931492954493,-0.020295554772019386
1772363482392553000,7.478552978515625,0.008684257976710796,0.0031564664095640182,-0.023286616429686546
1772363482402622700,7.488622802734375,0.007171848323196173,-0.0054495385847985744,-0.025569211691617966
1772363482412692700,7.498692626953125,0.006745180580765009,-0.0037492047995328903,-0.02121368981897831
1772363482422762000,7.508761962890625,0.0003709043376147747,-0.0025190908927470446,-0.024122394621372223
1772363482432831700,7.518831787109375,0.0037742455024272203,0.0012066918425261974,-0.021635565906763077
1772363482442901000,7.52890087890625,0.00496920570731163,0.005196373909711838,-0.01799689047038555
1772363482452970800,7.538970703125,0.0001398203894495964,0.003945573233067989,-0.011597074568271637
1772363482463040000,7.5490400390625,-0.006405164487659931,0.0014240927994251251,-0.003133815713226795
1772363482473109800,7.55910986328125,-0.010499738156795502,-0.0041145929135382175,-0.0037998659536242485
1772363482483178800,7.5691787109375,-0.004765419755131006,-0.006668830290436745,0.0044364919885993
1772363482493248800,7.579248779296875,-0.009242300875484943,-0.005954241380095482,0.018063070252537727
1772363482503317800,7.58931787109375,-0.014436797238886356,-0.007157457526773214,0.021244481205940247
1772363482513388000,7.599387939453125,-0.006606629118323326,0.00485187815502286,0.013557377271354198
1772363482523457800,7.609457763671875,0.00045927008613944054,0.014489058405160904,0.009089658968150616
1772363482533526800,7.61952685546875,0.007384482771158218,0.01682567037642002,0.007528766989707947
1772363482543596800,7.6295966796875,0.013916151598095894,0.019443556666374207,0.0035486724227666855
1772363482553665800,7.639665771484375,0.014854921959340572,0.018571434542536736,0.0015501631423830986
1772363482563735800,7.64973583984375,0.00635810662060976,0.0061922636814415455,-0.0005247052758932114
1772363482573804800,7.6598046875,-0.0022069569677114487,-0.0018356163054704666,0.0002721017226576805
1772363482583874800,7.669874755859375,-0.013249222189188004,-0.005233809817582369,0.007544928230345249
1772363482593943800,7.67994384765625,-0.01332831010222435,-0.002401475328952074,0.001758337952196598
1772363482604013800,7.690013916015625,-0.014199962839484215,-0.005339741241186857,-0.008676992729306221
1772363482614083800,7.700083740234375,-0.00909225083887577,-0.016462543979287148,-0.015777774155139923
1772363482624152800,7.71015283203125,-0.00295046903192997,-0.0199747197329998,-0.029125535860657692
1772363482634222800,7.720222900390625,-0.0035374434664845467,-0.012111062183976173,-0.03669995442032814
1772363482644291800,7.730291748046875,-0.007867743261158466,-0.00926867127418518,-0.04323454946279526
1772363482654361600,7.740361572265625,-0.012214737012982368,-0.011265070177614689,-0.05070831626653671
1772363482664430800,7.750430908203125,-0.011399276554584503,-0.019991183653473854,-0.04991123080253601
1772363482674500600,7.76050048828125,-0.019643045961856842,-0.023931000381708145,-0.034495752304792404
1772363482684569900,7.77056982421875,-0.01969018206000328,-0.02666793018579483,-0.015766805037856102
1772363482694639900,7.780639892578125,-0.01646845042705536,-0.027289312332868576,-0.004011060111224651
1772363482704708900,7.790708984375,-0.015622097998857498,-0.03241696208715439,0.0038335463032126427
1772363482714779000,7.80077880859375,-0.009458290413022041,-0.030433544889092445,0.011210563592612743
1772363482724848400,7.810848388671875,0.0004582563415169716,-0.012214062735438347,0.0054384274408221245
1772363482734917400,7.82091748046875,0.00483007961884141,-0.003095698542892933,-0.005267364904284477
1772363482744987400,7.8309873046875,0.009848807007074356,-0.00008392985910177231,-0.017293933779001236
1772363482755056400,7.841056396484375,0.010840805247426033,-0.0021855246741324663,-0.028446000069379807
1772363482765126400,7.85112646484375,0.007204524707049131,0.001841174904257059,-0.02732880413532257
1772363482775195400,7.8611953125,0.0024826033040881157,0.01086393278092146,-0.025115545839071274
1772363482785265400,7.871265380859375,0.0003587324172258377,0.009857258759438992,-0.023938428610563278
1772363482795334400,7.88133447265625,-0.0009168153628706932,0.001559318508952856,-0.024192478507757187
1772363482805404400,7.891404296875,0.0006826794706285,-0.015026848763227463,-0.0205916166305542
1772363482815474400,7.901474365234375,-0.0028098481707274914,-0.024661285802721977,-0.013003898784518242
1772363482825543400,7.91154345703125,0.0020530838519334793,-0.02005561627447605,-0.005336391739547253
1772363482835613400,7.921613525390625,0.007138075307011604,-0.00926210731267929,0.007358240894973278
1772363482845682400,7.931682373046875,0.005010209511965513,-0.003342432901263237,0.01447074394673109
1772363482855752400,7.94175244140625,0.007850009948015213,-0.005859872326254845,0.015720844268798828
1772363482865821400,7.951821533203125,0.005281124264001846,-0.01028791069984436,0.010214225389063358
1772363482875891500,7.961891357421875,-0.0012792712077498436,-0.007418730296194553,0.0036655180156230927
1772363482885960400,7.97196044921875,-0.0016920613124966621,-0.0018849479965865612,-0.007112028077244759
1772363482896030500,7.982030517578125,-0.0037452150136232376,0.009255949407815933,-0.018186494708061218
1772363482906098400,7.992098388671875,-0.0038605304434895515,0.016589229926466942,-0.029827173799276352
1772363482916168400,8.00216845703125,0.0053245993331074715,0.013774799183011055,-0.04418474808335304
1772363482926237400,8.012237548828125,0.006191990803927183,0.008221309632062912,-0.0465211383998394
1772363482936307500,8.022307373046875,0.004269639495760202,-0.0030480732675641775,-0.04375176504254341
1772363482946376400,8.03237646484375,0.009382909163832664,0.009813397191464901,-0.04572703316807747
1772363482956446500,8.042446533203124,0.006038196384906769,0.019258279353380203,-0.036198630928993225
1772363482966516500,8.0525166015625,0.014072686433792114,0.01003868319094181,-0.02238534763455391
1772363482976585500,8.06258544921875,0.02006729692220688,-0.0008649569936096668,-0.0125659154728055
1772363482986655500,8.072655517578125,0.01567840576171875,0.002862402703613043,0.0049664732068777084
1772363482996724500,8.082724365234375,0.009329856373369694,0.009047124534845352,0.01815975457429886
1772363483006794500,8.09279443359375,0.0083727166056633,0.004558633081614971,0.024081826210021973
1772363483016863200,8.10286328125,0.0045263199135661125,-0.0010816128924489021,0.0241246297955513
1772363483026933500,8.11293359375,-0.009222514927387238,-0.012989139184355736,0.02779420092701912
1772363483037002200,8.123002197265626,-0.01591966673731804,0.02063499391078949,0.05439695343375206
1772363483047072500,8.133072509765626,0.00433500437065959,0.05334366858005524,0.002873046323657036
1772363483057142500,8.143142578125,0.0052871908992528915,-0.0015534618869423866,-0.029666505753993988
1772363483067211300,8.153211181640625,0.004233111627399921,-0.058260414749383926,-0.031033236533403397
1772363483077281500,8.163281494140625,-0.003206126857548952,-0.05336803197860718,-0.035417329519987106
1772363483087350300,8.173350341796874,-0.0028356811963021755,-0.03171520307660103,-0.050929177552461624
1772363483097420500,8.183420654296874,-0.00748523510992527,-0.024554572999477386,-0.05545825511217117
1772363483107489300,8.1934892578125,-0.018834028393030167,-0.029975438490509987,-0.0515708401799202
1772363483117559600,8.2035595703125,-0.02172539383172989,-0.03420364484190941,-0.04068189114332199
1772363483127628300,8.213628173828125,-0.02546660229563713,-0.03077855333685875,-0.023993993178009987
1772363483137698300,8.2236982421875,-0.021248025819659233,-0.02279522642493248,-0.007495007943361998
1772363483147768600,8.2337685546875,-0.021271195262670517,-0.03211309388279915,0.008070102892816067
1772363483157837300,8.24383740234375,-0.022763967514038086,-0.034677498042583466,0.013645419850945473
1772363483167907600,8.253907470703124,-0.024472922086715698,-0.034374698996543884,0.012983357533812523
1772363483177976300,8.263976318359376,-0.01934332586824894,-0.02468973770737648,0.011738799512386322
1772363483188046300,8.27404638671875,-0.008296800777316093,-0.01878604106605053,0.005160259082913399
1772363483198115300,8.284115234375,-0.0011394554749131203,-0.020094310864806175,0.002952057868242264
1772363483208185300,8.294185302734375,0.008040460757911205,-0.012676343321800232,0.008067190647125244
1772363483218254300,8.30425439453125,0.015993813052773476,-0.001914225984364748,0.009399274364113808
1772363483228324400,8.314324462890625,0.013867013156414032,0.00038328301161527634,0.011375339701771736
1772363483238394600,8.32439453125,0.007829207926988602,-0.0011640144512057304,0.012875443324446678
1772363483248463400,8.33446337890625,-0.0010460428893566132,-0.013728009536862373,0.017771665006875992
1772363483258533400,8.344533447265626,-0.0047685448080301285,-0.01784367486834526,0.011240081861615181
1772363483268602400,8.354602294921875,-0.006356321275234222,-0.013396995142102242,0.0022516464814543724
1772363483278672400,8.36467236328125,-0.005810034926980734,-0.016649466007947922,-0.0012061912566423416
1772363483288741400,8.374741455078125,-0.006089400965720415,-0.020574698224663734,-0.010235371999442577
1772363483298811400,8.384811279296875,0.004540606401860714,-0.010540173389017582,-0.025720588862895966
1772363483308880400,8.39488037109375,0.0068857865408062935,-0.007735865190625191,-0.03999992460012436
1772363483318950400,8.404950439453126,0.005677000153809786,-0.008325723931193352,-0.051455892622470856
1772363483329020400,8.4150205078125,0.010404909960925579,-0.00563752930611372,-0.057112712413072586
1772363483339089400,8.42508935546875,0.0053054895251989365,-0.0041275168769061565,-0.04691706597805023
1772363483349159400,8.435159423828125,0.003511051181703806,-0.0010747355408966541,-0.02182875946164131
1772363483359228400,8.445228515625,0.0024214517325162888,0.003156620543450117,-0.009437160566449165
1772363483369298400,8.45529833984375,0.006145882420241833,0.00178855424746871,-0.0000649644061923027
1772363483379367400,8.465367431640624,0.0030614868737757206,-0.006525991018861532,0.012178590521216393
1772363483389437400,8.4754375,0.0034369928762316704,-0.009982507675886154,0.021114826202392578
1772363483399506400,8.48550634765625,0.0010456983000040054,-0.01014731079339981,0.02032606676220894
1772363483409576400,8.495576416015625,-0.0027210768312215805,-0.015647271648049355,0.027645766735076904
1772363483419646500,8.505646484375,-0.002592712640762329,-0.028352679684758186,0.022055525332689285
1772363483429715500,8.515715576171875,0.0004925597459077835,-0.03148295730352402,0.006870712153613567
1772363483439785500,8.525785400390625,0.0031592189334332943,-0.031437262892723083,-0.0020540673285722733
1772363483449854500,8.5358544921875,-0.0011806688271462917,-0.007252564653754234,-0.0008777491748332977
1772363483459924500,8.545924560546876,-0.0032914835028350353,0.01083675492554903,-0.0070084198378026485
1772363483469993500,8.555993408203125,-0.005648115184158087,0.006630557589232922,-0.015843722969293594
1772363483480063500,8.5660634765625,-0.007192820310592651,-0.012825479730963707,-0.012050061486661434
1772363483490133500,8.576133544921875,-0.012184116058051586,-0.023408615961670876,-0.01030861958861351
1772363483500202500,8.586202392578125,-0.007330375723540783,-0.03487728163599968,-0.01168983243405819
1772363483510272500,8.5962724609375,-0.010002058930695057,-0.045025523751974106,-0.00886315293610096
1772363483520341500,8.606341552734374,-0.004808800294995308,-0.046628937125205994,-0.005697822198271751
1772363483530411500,8.61641162109375,-0.0025507062673568726,-0.045426785945892334,0.00405573844909668
1772363483540480300,8.626480224609375,-0.004739184398204088,-0.031696122139692307,0.01643386110663414
1772363483550550500,8.636550537109375,-0.006907796021550894,-0.029153067618608475,0.01727116107940674
1772363483560619300,8.646619384765625,-0.010410415008664131,-0.03129540756344795,0.01173410378396511
1772363483570689500,8.656689453125,-0.008881228044629097,-0.03409199416637421,-0.00009246263653039932
1772363483580759600,8.666759521484375,-0.008211608976125717,-0.029751168563961983,-0.010022234171628952
1772363483590828500,8.67682861328125,-0.004748966079205275,-0.01812274195253849,-0.019930524751544
1772363483600898600,8.686898681640624,-0.002660255879163742,-0.0049912896938622,-0.02830662578344345
1772363483610967300,8.69696728515625,0.007710093166679144,0.001204554457217455,-0.03835286945104599
1772363483621037600,8.70703759765625,0.003672356717288494,0.002401803620159626,-0.03130912780761719
1772363483631106300,8.717106201171875,0.0068250070326030254,0.007738245185464621,-0.022186733782291412
1772363483641176600,8.727176513671875,0.007876452058553696,0.01547402236610651,-0.015031804330646992
1772363483651245300,8.737245361328124,0.014959394931793213,0.001767531968653202,-0.006413282826542854
1772363483661315300,8.7473154296875,0.018658744171261787,-0.01696436107158661,0.005138851702213287
1772363483671385600,8.757385498046874,0.02156371995806694,-0.01438002847135067,0.01792202517390251
1772363483681454300,8.767454345703126,0.019766969606280327,-0.006330450996756554,0.020197825506329536
1772363483691524600,8.777524658203125,0.01906283013522625,0.0035898233763873577,0.017140783369541168
1772363483701593300,8.78759326171875,0.014800256118178368,0.007528058253228664,0.01555172260850668
1772363483711663400,8.797663330078125,0.010956515558063984,0.010697486810386181,0.011803056113421917
1772363483721732400,8.807732421875,0.006810074672102928,0.0034453063271939754,0.004595300182700157
1772363483731801900,8.8178017578125,0.010296951979398727,-0.009012161754071712,-0.005363323260098696
1772363483741870600,8.82787060546875,0.009448954835534096,-0.012860756367444992,-0.014072699472308159
1772363483751940600,8.837940673828125,0.01717425137758255,-0.010811720043420792,-0.02791447937488556
1772363483762010600,8.8480107421875,0.01905745640397072,0.0003476743586361408,-0.03930024430155754
1772363483772079600,8.85807958984375,0.0076988073997199535,0.003183940891176462,-0.052443742752075195
1772363483782149600,8.868149658203125,0.002580460626631975,0.004041778389364481,-0.05809599906206131
1772363483792218600,8.878218505859374,-0.0017421161755919456,0.00032933149486780167,-0.06032826006412506
1772363483802288600,8.88828857421875,0.0030912254005670547,-0.011274686083197594,-0.05428376421332359
1772363483812357600,8.898357666015626,0.007600223645567894,-0.013749562203884125,-0.041537608951330185
1772363483822427600,8.908427734375,0.006498935632407665,-0.012904323637485504,-0.024651046842336655
1772363483832497700,8.91849755859375,0.0029215109534561634,-0.013455331325531006,-0.013170425780117512
1772363483842566700,8.928566650390625,0.0025401227176189423,-0.015337947756052017,-0.0021597426384687424
1772363483852636700,8.93863671875,0.0007925564423203468,-0.011320036835968494,0.001543116755783558
1772363483862705700,8.94870556640625,-0.0018099206499755383,-0.012911433354020119,0.006375152617692947
1772363483872775700,8.958775634765624,-0.0019065928645431995,-0.015963949263095856,0.010775759816169739
1772363483882844700,8.9688447265625,-0.002356506884098053,-0.006364523898810148,0.02006698027253151
1772363483892914400,8.97891455078125,-0.0018963133916258812,0.010721784085035324,0.021829992532730103
1772363483902984700,8.988984619140625,0.000987369567155838,0.005371357314288616,0.021433565765619278
1772363483913053700,8.9990537109375,0.00008935155346989632,0.00038592005148530006,0.019195176661014557
1772363483923123700,9.009123779296875,-0.004679949954152107,-0.01871827058494091,-0.014798149466514587
1772363483933192700,9.019192626953124,-0.023435529321432114,-0.07640313357114792,-0.025598332285881042
1772363483943262500,9.029262451171874,-0.02818155288696289,-0.07307372242212296,0.00483421515673399
1772363483953331700,9.039331787109376,-0.03497101739048958,-0.010496356524527073,0.042508091777563095
1772363483963401500,9.0494013671875,-0.030864795669913292,0.1036638393998146,0.12444635480642319
1772363483973470700,9.059470703125,-0.05168112739920616,0.17778359353542328,0.07233494520187378
1772363483983540500,9.06954052734375,-0.06105124205350876,0.0983261987566948,0.02801305428147316
1772363483993610500,9.079610595703125,-0.03855738788843155,0.03378848731517792,-0.00012404285371303558
1772363484003679700,9.0896796875,-0.018832780420780182,0.008105152286589146,-0.02812414988875389
1772363484013749500,9.09974951171875,-0.011399097740650177,-0.050354961305856705,-0.05314641073346138
1772363484023818800,9.10981884765625,-0.00030527543276548386,-0.12407305836677551,-0.07014352083206177
1772363484033888500,9.119888427734375,0.007246916648000479,-0.15627360343933105,-0.08401805907487869
1772363484043957800,9.129957763671875,-0.010173019953072071,-0.15897752344608307,-0.09288976341485977
1772363484054027500,9.140027587890625,-0.03452017158269882,-0.1783624142408371,-0.09657478332519531
1772363484064097500,9.15009765625,-0.04570188745856285,-0.17779555916786194,-0.08496569842100143
1772363484074166500,9.16016650390625,-0.0581902451813221,-0.15216796100139618,-0.069801926612854
1772363484084236500,9.170236572265624,-0.07415799796581268,-0.1219007670879364,-0.029361480847001076
1772363484094305800,9.180305908203126,-0.04509385675191879,-0.08692893385887146,0.012745492160320282
1772363484104375600,9.19037548828125,-0.02503569796681404,-0.010248980484902859,0.004941178485751152
1772363484114444800,9.20044482421875,-0.005124041344970465,-0.008772790431976318,-0.0011188443750143051
