time,seconds_elapsed,z,y,x
1772363357403721500,0.094721435546875,-0.002809261903166771,-0.0453936792910099,-0.06055475026369095
1772363357413790500,0.10479052734375,-0.009799792431294918,-0.04279017448425293,-0.0473175048828125
1772363357423860500,0.114860595703125,-0.021112551912665367,-0.01989068277180195,-0.028278883546590805
1772363357433929500,0.124929443359375,-0.018196657299995422,0.004215984605252743,-0.017150864005088806
1772363357443999500,0.13499951171875,-0.013394059613347054,0.005772847216576338,-0.004988244269043207
1772363357454068500,0.145068359375,-0.003710806369781494,-0.008300627581775188,0.016415316611528397
1772363357464138500,0.155138427734375,-0.004123155493289232,-0.017416715621948242,0.03378935530781746
1772363357474207500,0.16520751953125,-0.00975334458053112,-0.012988144531846046,0.043449174612760544
1772363357484277500,0.175277587890625,-0.0033809510059654713,-0.006099717691540718,0.03195589780807495
1772363357494346500,0.185346435546875,0.0002129850909113884,-0.011854276061058044,0.019929859787225723
1772363357504416500,0.19541650390625,0.001496683806180954,-0.01905973255634308,0.013530431315302849
1772363357514485200,0.2054853515625,-0.0045476267114281654,-0.01719871535897255,0.015725674107670784
1772363357524555500,0.215555419921875,-0.014796232804656029,0.0007591336034238338,0.021580377593636513
1772363357534624300,0.225624267578125,-0.0050740973092615604,0.02272222377359867,0.01777338795363903
1772363357544694500,0.235694580078125,0.00956069864332676,0.025643138214945793,0.009698932059109211
1772363357554763500,0.245763427734375,0.010206781327724457,0.01923716999590397,-0.0026930226013064384
1772363357564833300,0.255833251953125,0.01164005883038044,0.021053293719887733,-0.02261986769735813
1772363357574902500,0.265902587890625,0.009093010798096657,0.01982664130628109,-0.036846742033958435
1772363357584972300,0.27597216796875,-0.0030983611941337585,0.021653717383742332,-0.04056882858276367
1772363357595046000,0.2860458984375,-0.00987956952303648,0.04390256106853485,-0.03721058368682861
1772363357605116000,0.296115966796875,-0.005608482286334038,0.08034677058458328,-0.04005712643265724
1772363357615185000,0.306184814453125,-0.0043549323454499245,0.09419627487659454,-0.03444744274020195
1772363357625255000,0.3162548828125,0.0061056227423250675,0.09521734714508057,-0.030203983187675476
1772363357635324000,0.326323974609375,0.011616235598921776,0.08314630389213562,-0.02636796608567238
1772363357645394000,0.336393798828125,0.012536688707768917,0.06475423276424408,-0.022706836462020874
1772363357655463000,0.346462890625,0.018322937190532684,0.043958939611911774,-0.02327994629740715
1772363357665533000,0.356532958984375,0.014363150112330914,0.026646191254258156,-0.009363515302538872
1772363357675602000,0.366601806640625,0.01319588627666235,0.03473980724811554,0.010398737154901028
1772363357685671700,0.376671630859375,0.002140030264854431,0.04802951589226723,0.025566302239894867
1772363357695741000,0.386740966796875,-0.010651931166648865,0.062097929418087006,0.03997213765978813
1772363357705811000,0.39681103515625,-0.01751086488366127,0.06761348992586136,0.0522858090698719
1772363357715880000,0.4068798828125,-0.014548897743225098,0.06021656095981598,0.05202614888548851
1772363357725950000,0.416949951171875,-0.007102975156158209,0.030082043260335922,0.05339321494102478
1772363357736019000,0.42701904296875,-0.01904006116092205,-0.00429537333548069,0.05431440472602844
1772363357746089000,0.4370888671875,-0.02128509059548378,-0.01498279720544815,0.050575993955135345
1772363357756158000,0.447157958984375,-0.02224968746304512,-0.007744592148810625,0.05575264245271683
1772363357766228000,0.45722802734375,-0.015546821057796478,0.0005067386664450169,0.05536361411213875
1772363357776297000,0.467296875,-0.013829881325364113,0.0019054305739700794,0.052409637719392776
1772363357786367000,0.477366943359375,-0.013385133817791939,-0.0037705644499510527,0.042037155479192734
1772363357796435700,0.487435791015625,-0.021292325109243393,-0.00027223583310842514,0.026048067957162857
1772363357806506000,0.497506103515625,-0.0178955290466547,0.004351823125034571,0.010232537984848022
1772363357816574700,0.50757470703125,-0.01746329665184021,0.0068852887488901615,-0.0026084259152412415
1772363357826645000,0.51764501953125,-0.02280188724398613,-0.0003703329712152481,-0.0006820317357778549
1772363357836714000,0.5277138671875,-0.028308503329753876,-0.012919680215418339,0.007008112035691738
1772363357846784000,0.537783935546875,-0.029542699456214905,-0.02115527354180813,0.02034819684922695
1772363357856853000,0.54785302734375,-0.03599580377340317,-0.01358790136873722,0.03605631738901138
1772363357866922800,0.5579228515625,-0.05162905529141426,-0.0046379296109080315,0.05021156370639801
1772363357876992000,0.567991943359375,-0.05402110517024994,0.0017744298093020916,0.05264755338430405
1772363357887061800,0.578061767578125,-0.05096210539340973,-0.007073037326335907,0.04420815780758858
1772363357897131000,0.588131103515625,-0.03724043443799019,-0.051586974412202835,0.026313044130802155
1772363357907200800,0.59820068359375,-0.021210098639130592,-0.09793327003717422,0.018744533881545067
1772363357917270000,0.60827001953125,-0.02359629049897194,-0.10403883457183838,0.02115629054605961
1772363357927340000,0.618340087890625,-0.02507553994655609,-0.05431678891181946,0.03251237794756889
1772363357937409000,0.628408935546875,-0.02651284635066986,-0.005744725465774536,0.043340522795915604
1772363357947479000,0.63847900390625,-0.0277529526501894,0.01659884676337242,0.04651810973882675
1772363357957547800,0.6485478515625,-0.01837116852402687,0.0042883846908807755,0.0505373477935791
1772363357967618000,0.6586181640625,-0.0006687515415251255,-0.02132299356162548,0.05008777230978012
1772363357977686800,0.668686767578125,0.00410150270909071,-0.04064502194523811,0.044403787702322006
1772363357987757000,0.678757080078125,0.0050900778733193874,-0.040162406861782074,0.029792290180921555
1772363357997825800,0.68882568359375,0.005175032652914524,-0.03188849985599518,0.020119421184062958
1772363358007896000,0.69889599609375,0.006698407232761383,-0.021973934024572372,0.01771506667137146
1772363358017964800,0.70896484375,0.02226138859987259,-0.009094353765249252,0.01759042963385582
1772363358028034800,0.719034912109375,0.028696898370981216,-0.011922414414584637,0.021562663838267326
1772363358038103800,0.729103759765625,0.029052428901195526,0.0010248096659779549,0.014197159558534622
1772363358048173800,0.739173828125,0.025773849338293076,0.0212042685598135,-0.003432159312069416
1772363358058242800,0.749242919921875,0.024008439853787422,0.023355303332209587,-0.03122437372803688
1772363358068312800,0.759312744140625,0.024946890771389008,0.015268469229340553,-0.04919639974832535
1772363358078382000,0.769382080078125,0.019023753702640533,0.012778148055076599,-0.048514362424612045
1772363358088451800,0.779451904296875,0.008486205711960793,0.018403954803943634,-0.03538157045841217
1772363358098521000,0.78952099609375,0.0068033537827432156,0.03135890141129494,-0.021395446732640266
1772363358108590800,0.7995908203125,0.002492623869329691,0.035906754434108734,0.003284231759607792
1772363358118660000,0.80966015625,0.0026484187692403793,0.04227437451481819,0.028432194143533707
1772363358128729900,0.819729736328125,0.0019310088828206062,0.04149347171187401,0.042914409190416336
1772363358138798800,0.829798828125,0.0010878518223762512,0.02503087744116783,0.04945407062768936
1772363358148868900,0.839868896484375,-0.0019031264819204807,0.009938523173332214,0.04658385366201401
1772363358158937900,0.849937744140625,-0.0028522764332592487,0.0022542388178408146,0.04332680627703667
1772363358169008000,0.860008056640625,-0.000974555965512991,-0.003542110789567232,0.04117255285382271
1772363358179076900,0.870076904296875,-0.00012820353731513023,-0.00965166836977005,0.04081569239497185
1772363358189147000,0.88014697265625,0.0040957266464829445,-0.009607387706637383,0.046445053070783615
1772363358199215900,0.8902158203125,-0.003282295074313879,-0.00953761301934719,0.04797344282269478
1772363358209286000,0.900285888671875,0.0032306588254868984,-0.005347169935703278,0.047601647675037384
1772363358219355000,0.91035498046875,0.013209257274866104,-0.002443258883431554,0.020642735064029694
1772363358229425000,0.9204248046875,0.01447672862559557,-0.006305068265646696,-0.0036703115329146385
1772363358239494000,0.930493896484375,0.013433301821351051,-0.00712745264172554,-0.023516187444329262
1772363358249564000,0.94056396484375,0.014460833743214607,-0.002895655808970332,-0.030491050332784653
1772363358259633000,0.9506328125,0.010404839180409908,-0.0029052430763840675,-0.024073630571365356
1772363358269703000,0.960702880859375,0.009527666494250298,-0.0017320807091891766,-0.009996943175792694
1772363358279772000,0.97077197265625,0.00620244350284338,-0.0012255473993718624,0.005458712577819824
1772363358289842000,0.980842041015625,0.011031202971935272,-0.010707765817642212,0.016213933005928993
1772363358299911000,0.990910888671875,0.0022427719086408615,-0.02536953240633011,0.02281457744538784
1772363358309981000,1.00098095703125,-0.010479643940925598,-0.02571186050772667,0.01747947558760643
1772363358320050000,1.0110498046875,-0.01709972880780697,-0.03197082132101059,0.007415655069053173
1772363358330120000,1.021119873046875,-0.027848368510603905,-0.04584527760744095,0.009415988810360432
1772363358340189000,1.03118896484375,-0.03349506855010986,-0.04784051701426506,0.017397217452526093
1772363358350259000,1.041259033203125,-0.037721313536167145,-0.044725991785526276,0.02119193598628044
1772363358360328000,1.051327880859375,-0.0425187312066555,-0.03875358775258064,0.024387728422880173
1772363358370397700,1.061397705078125,-0.0462980791926384,-0.03474472463130951,0.03869781643152237
1772363358380467000,1.071467041015625,-0.04485304653644562,-0.028581371530890465,0.04495677724480629
1772363358390537000,1.081536865234375,-0.05274141952395439,-0.040482327342033386,0.04257389158010483
1772363358400606000,1.09160595703125,-0.049273718148469925,-0.05981474742293358,0.028337698429822922
1772363358410676000,1.101676025390625,-0.04441854730248451,-0.07791267335414886,0.008571174927055836
1772363358420745000,1.111744873046875,-0.043885912746191025,-0.08418814837932587,-0.002618628554046154
1772363358430815000,1.12181494140625,-0.044089216738939285,-0.06253252923488617,-0.012373346835374832
1772363358440884000,1.131884033203125,-0.03701559454202652,-0.03835022449493408,-0.0209074467420578
1772363358450954000,1.1419541015625,-0.026790320873260498,-0.029504017904400826,-0.027774058282375336
1772363358461023000,1.15202294921875,-0.01338130421936512,-0.0397566556930542,-0.022911658510565758
1772363358471093000,1.162093017578125,-0.009484046138823032,-0.05290040746331215,-0.014363917522132397
1772363358481161700,1.17216162109375,0.006259497255086899,-0.050223931670188904,-0.004977872595191002
1772363358491232000,1.18223193359375,0.021986033767461777,-0.03773541748523712,0.0055493442341685295
1772363358501300700,1.19230078125,0.023787394165992737,-0.03837377950549126,0.01570504531264305
1772363358511371000,1.20237109375,0.01814522221684456,-0.03562859073281288,0.027459170669317245
1772363358521440000,1.21243994140625,0.018405770882964134,-0.03029605746269226,0.01879047229886055
1772363358531509800,1.222509765625,0.021951019763946533,-0.036762334406375885,0.011800157837569714
1772363358541579000,1.2325791015625,0.015834003686904907,-0.04156215116381645,0.008566546253859997
1772363358551648800,1.242648681640625,0.018217623233795166,-0.040129486471414566,0.005913658067584038
1772363358561718000,1.252718017578125,0.02504037693142891,-0.03484790772199631,0.004579946398735046
1772363358571787800,1.262787841796875,0.02272866666316986,-0.034731555730104446,0.008840245194733143
1772363358581857000,1.27285693359375,0.018667878583073616,-0.041152168065309525,0.00905729178339243
1772363358591926500,1.282926513671875,0.02271481230854988,-0.046508174389600754,0.007640832103788853
1772363358601995500,1.29299560546875,0.017793025821447372,-0.04401865229010582,0.010106653906404972
1772363358612065500,1.3030654296875,0.019910762086510658,-0.02875559590756893,0.007525050081312656
1772363358622134500,1.313134521484375,0.024108169600367546,-0.02081218548119068,0.007260066457092762
1772363358632204500,1.32320458984375,0.014139325357973576,-0.01435123011469841,0.017009805887937546
1772363358642273500,1.3332734375,0.013725204393267632,-0.008890151977539062,0.022103633731603622
1772363358652343600,1.343343505859375,0.013448482379317284,-0.0157901830971241,0.031703926622867584
1772363358662412500,1.35341259765625,0.011928882449865341,-0.023817216977477074,0.0346781425178051
1772363358672482600,1.363482666015625,0.01131779607385397,-0.0283672995865345,0.03415965288877487
1772363358682552600,1.373552490234375,0.004562954418361187,-0.03529231622815132,0.03292900696396828
1772363358692621600,1.38362158203125,0.0007584434933960438,-0.03420591726899147,0.024206038564443588
1772363358702691600,1.393691650390625,0.0007619056850671768,-0.020190231502056122,0.001550259068608284
1772363358712760600,1.403760498046875,-0.014177408069372177,-0.014540545642375946,-0.0236612968146801
1772363358722830600,1.41383056640625,-0.01786189153790474,-0.005414691288024187,-0.04885106906294823
1772363358732899300,1.4238994140625,-0.01354200579226017,-0.006975402589887381,-0.06987973302602768
1772363358742969600,1.433969482421875,-0.016213955357670784,-0.020730096846818924,-0.06814974546432495
1772363358753038600,1.44403857421875,-0.016376812011003494,-0.011784033849835396,-0.064447782933712
1772363358763108600,1.454108642578125,-0.01971721276640892,0.0037142313085496426,-0.05624178424477577
1772363358773177600,1.464177490234375,-0.025361809879541397,0.01153823547065258,-0.04118354618549347
1772363358783247400,1.474247314453125,-0.01671772450208664,0.015408340841531754,-0.03216741606593132
1772363358793316600,1.484316650390625,-0.010371308773756027,0.007150815799832344,-0.024281706660985947
1772363358803386400,1.494386474609375,-0.005855387542396784,-0.006193218752741814,-0.004557003267109394
1772363358813455600,1.50445556640625,-0.008584143593907356,-0.006679608020931482,0.011936005204916
1772363358823525400,1.514525390625,-0.005816320423036814,-0.007631422020494938,0.016601864248514175
1772363358833594600,1.5245947265625,-0.0033241622149944305,-0.005122556816786528,0.014980455860495567
1772363358843664600,1.53466455078125,-0.0040932828560471535,0.0055908081121742725,0.0058474112302064896
1772363358853733600,1.544733642578125,-0.005161121487617493,0.008850136771798134,-0.00816679373383522
1772363358863803600,1.5548037109375,-0.0027118129655718803,-0.006414568983018398,-0.023761466145515442
1772363358873872600,1.56487255859375,0.0037974780425429344,-0.016419323161244392,-0.032995108515024185
1772363358883942700,1.574942626953125,0.009354430250823498,-0.01754370890557766,-0.03597918152809143
1772363358894011400,1.585011474609375,0.008320222608745098,-0.00979671347886324,-0.044602587819099426
1772363358904081700,1.59508154296875,0.008065092377364635,-0.007496807724237442,-0.04901251569390297
1772363358914150400,1.605150390625,0.0034882486797869205,0.002189627382904291,-0.05862697586417198
1772363358924220700,1.615220703125,0.0037673478946089745,0.008348986506462097,-0.056788064539432526
1772363358934289400,1.625289306640625,0.004509578458964825,0.015213074162602425,-0.04301799088716507
1772363358944359400,1.635359375,0.013274308294057846,0.0050693596713244915,-0.024955634027719498
1772363358954428400,1.645428466796875,0.008081164211034775,-0.01443425752222538,-0.005572207272052765
1772363358964498400,1.65549853515625,0.007551194634288549,-0.030780740082263947,0.004561121575534344
1772363358974567700,1.665567626953125,0.004798854701220989,-0.0419221855700016,-0.002351106144487858
1772363358984637400,1.675637451171875,-0.008922815322875977,-0.04998890310525894,0.01045283954590559
1772363358994706700,1.685706787109375,-0.009984627366065979,-0.03789474442601204,0.01774703711271286
1772363359004776400,1.6957763671875,-0.009888753294944763,-0.025408513844013214,0.028082765638828278
1772363359014845700,1.705845703125,-0.008271940052509308,-0.02994142472743988,0.028000138700008392
1772363359024915500,1.71591552734375,-0.006134220864623785,-0.03650478273630142,0.02872558683156967
1772363359034984700,1.725984619140625,-0.007645758334547281,-0.02839595079421997,0.02418677881360054
1772363359045054500,1.736054443359375,-0.002138607669621706,-0.011933354660868645,0.016646835952997208
1772363359055124500,1.74612451171875,-0.003362108487635851,-0.00640537403523922,0.00703022163361311
1772363359065193700,1.75619384765625,0.00004833610728383064,-0.00039967941120266914,-0.009231306612491608
1772363359075263500,1.766263427734375,0.002063053660094738,-0.0002487902529537678,-0.028399134054780006
1772363359085332700,1.776332763671875,0.003592240624129772,-0.0167236365377903,-0.04075513780117035
1772363359095402500,1.786402587890625,0.006637868005782366,-0.032991934567689896,-0.049796558916568756
1772363359105471500,1.796471435546875,0.006189924199134111,-0.035645775496959686,-0.053397417068481445
1772363359115541500,1.80654150390625,0.007703527808189392,-0.025242963805794716,-0.05081558600068092
1772363359125610500,1.816610595703125,0.0005470812320709229,0.0032368814572691917,-0.04892394319176674
1772363359135680500,1.826680419921875,0.005780495703220367,0.01038016565144062,-0.053767427802085876
1772363359145749500,1.83674951171875,0.006597553379833698,-0.005892281420528889,-0.05542204901576042
1772363359155819800,1.84681982421875,0.009400861337780952,-0.015382468700408936,-0.04045420140028
1772363359165888500,1.856888427734375,0.012278140522539616,-0.0003896714188158512,-0.0183078832924366
1772363359175958500,1.86695849609375,0.017812766134738922,0.013882951810956001,0.004181653261184692
1772363359186027500,1.877027587890625,0.018960054963827133,0.02439524605870247,0.017128344625234604
1772363359196097500,1.88709765625,0.016155876219272614,0.03216179460287094,0.015659242868423462
1772363359206166500,1.89716650390625,0.020266465842723846,0.030967632308602333,0.011247185058891773
1772363359216236500,1.907236572265625,0.019309453666210175,0.025186680257320404,0.015145687386393547
1772363359226305500,1.917305419921875,0.015937626361846924,0.027538787573575974,0.013846596702933311
1772363359236375600,1.92737548828125,0.017309512943029404,0.03186677396297455,0.010148159228265285
1772363359246444500,1.937444580078125,0.017785420641303062,0.020225031301379204,0.0026862481608986855
1772363359256514600,1.9475146484375,0.020390920341014862,0.017513904720544815,-0.00608204398304224
1772363359266583600,1.95758349609375,0.01844654604792595,0.010091143660247326,-0.013627578504383564
1772363359276653600,1.967653564453125,0.013799495063722134,0.011995162814855576,-0.01487935520708561
1772363359286722300,1.977722412109375,0.012376568280160427,0.012511016800999641,-0.019709262996912003
1772363359296792600,1.98779248046875,0.017627667635679245,0.017501331865787506,-0.018878858536481857
1772363359306861600,1.997861572265625,0.019864456728100777,0.014207267202436924,-0.013678237795829773
1772363359316931600,2.007931640625,0.01318428572267294,0.005225364118814468,0.0004030531272292137
1772363359327000600,2.01800048828125,0.009301130659878254,0.008823827840387821,0.024206120520830154
1772363359337070600,2.028070556640625,0.013577762991189957,0.012578325346112251,0.044172003865242004
1772363359347139600,2.0381396484375,0.02003379724919796,0.005491120275110006,0.05376976728439331
1772363359357209300,2.048209228515625,0.013690398074686527,0.0033711353316903114,0.04997250437736511
1772363359367278600,2.058278564453125,0.010357984341681004,-0.00430755689740181,0.04726753011345863
1772363359377348400,2.068348388671875,0.005392400547862053,-0.018269363790750504,0.044115711003541946
1772363359387417600,2.07841748046875,0.0024528028443455696,-0.01680995151400566,0.04192792624235153
1772363359397487600,2.088487548828125,-0.0011503086425364017,-0.009818005375564098,0.025963373482227325
1772363359407556600,2.098556640625,-0.01027323305606842,-0.0060914442874491215,0.009306364692747593
1772363359417626600,2.108626708984375,-0.013456609100103378,-0.00885780993849039,-0.016583912074565887
1772363359427695600,2.118695556640625,-0.023019755259156227,-0.014696523547172546,-0.04126076400279999
1772363359437765600,2.128765625,-0.033686645328998566,-0.015686392784118652,-0.053933050483465195
1772363359447834400,2.13883447265625,-0.043560050427913666,-0.007854835130274296,-0.052665118128061295
1772363359457904600,2.148904541015625,-0.04067034274339676,0.0027058464474976063,-0.045492321252822876
1772363359467973400,2.158973388671875,-0.03584922105073929,0.00978399533778429,-0.032835911959409714
1772363359478043600,2.169043701171875,-0.031090013682842255,0.006876581814140081,-0.014634959399700165
1772363359488112400,2.1791123046875,-0.020491430535912514,-0.008380668237805367,0.010101811960339546
1772363359498182700,2.1891826171875,-0.017086802050471306,-0.020843520760536194,0.03735441341996193
1772363359508251400,2.19925146484375,-0.008754570037126541,-0.02285740338265896,0.050555434077978134
1772363359518321400,2.2093212890625,-0.005673364736139774,-0.024556539952754974,0.05624872446060181
1772363359528390700,2.219390625,-0.011724865064024925,-0.019020628184080124,0.05199911445379257
1772363359538460400,2.22946044921875,-0.013728398829698563,-0.005188855342566967,0.03006185218691826
1772363359548530700,2.23953076171875,-0.010845260694622993,-0.012254754081368446,0.008876407518982887
1772363359558599400,2.249599365234375,-0.013035241514444351,-0.01706014946103096,-0.0069002415984869
1772363359568669400,2.25966943359375,-0.009227719157934189,0.0000029904767870903015,-0.01122894324362278
1772363359578738400,2.269738525390625,-0.008434126153588295,0.014808203093707561,-0.016992632299661636
1772363359588808400,2.279808349609375,-0.0038865129463374615,0.00847733672708273,-0.027921713888645172
1772363359598874600,2.28987451171875,-0.001317518763244152,-0.014663739129900932,-0.04487936571240425
1772363359608944400,2.2999443359375,-0.00034493301063776016,-0.031467750668525696,-0.06848429143428802
1772363359619013600,2.310013671875,-0.004009975120425224,-0.03311571478843689,-0.08660444617271423
1772363359629083400,2.32008349609375,-0.013140622526407242,-0.03288828209042549,-0.07370568811893463
1772363359639152600,2.330152587890625,-0.016703851521015167,-0.016731850802898407,-0.05252748727798462
1772363359649222400,2.340222412109375,-0.020127080380916595,-0.005863489583134651,-0.029209647327661514
1772363359659291400,2.35029150390625,-0.028664052486419678,-0.010828225873410702,-0.009989194571971893
1772363359669361400,2.360361328125,-0.03583301603794098,-0.030622703954577446,0.0013308385387063026
1772363359679430400,2.370430419921875,-0.044553935527801514,-0.04505600035190582,0.0068330951035022736
1772363359689500700,2.380500732421875,-0.04581841081380844,-0.05327318236231804,0.011413998901844025
1772363359699569400,2.3905693359375,-0.04520145431160927,-0.049451153725385666,0.02060846984386444
1772363359709639400,2.400639404296875,-0.03690384328365326,-0.04063316062092781,0.031676035374403
1772363359719708400,2.41070849609375,-0.034655291587114334,-0.032488204538822174,0.04037944972515106
1772363359729778400,2.4207783203125,-0.033035021275281906,-0.03424908593297005,0.03519108146429062
1772363359739847400,2.430847412109375,-0.03256718069314957,-0.04768477752804756,0.02788121998310089
1772363359749917400,2.44091748046875,-0.031663570553064346,-0.06788458675146103,0.019040323793888092
1772363359759986400,2.450986328125,-0.03412889316678047,-0.07556036114692688,0.012277665548026562
1772363359770056400,2.461056396484375,-0.04201717674732208,-0.06832855939865112,0.003125712275505066
1772363359780125400,2.47112548828125,-0.03841082751750946,-0.0457574762403965,-0.0010349471122026443
1772363359790195500,2.481195556640625,-0.03416627645492554,-0.023802375420928,-0.004503714852035046
1772363359800265500,2.491265380859375,-0.03258632495999336,-0.0224501620978117,-0.008613595739006996
1772363359810334500,2.50133447265625,-0.029042191803455353,-0.0285919439047575,-0.017395636066794395
1772363359820404500,2.511404541015625,-0.02110636606812477,-0.03356137499213219,-0.030040226876735687
1772363359830473500,2.521473388671875,-0.016511349007487297,-0.03410971909761429,-0.040923234075307846
1772363359840543500,2.53154345703125,-0.009438316337764263,-0.02124764770269394,-0.042014215141534805
1772363359850612500,2.541612548828125,-0.003268037922680378,-0.01167944073677063,-0.044527970254421234
1772363359860682500,2.5516826171875,-0.002978178206831217,-0.012664612382650375,-0.02942330203950405
1772363359870751500,2.56175146484375,-0.004733734298497438,-0.008025918155908585,-0.00938408076763153
1772363359880821500,2.571821533203125,0.0014615338295698166,0.009447401389479637,-0.0025210510939359665
1772363359890890200,2.58189013671875,0.0016586077399551868,0.015137244947254658,0.0005530361086130142
1772363359900960500,2.59196044921875,-0.0014461209066212177,0.006614217069000006,0.0008330689743161201
1772363359911029200,2.602029296875,-0.0007078931666910648,0.0048754396848380566,-0.001453787088394165
1772363359921099500,2.612099609375,-0.002229276578873396,0.0043524932116270065,-0.0014354633167386055
1772363359931168500,2.62216845703125,0.0006930101662874222,0.005391925573348999,-0.0021494561806321144
1772363359941238500,2.632238525390625,0.011799300089478493,0.006409451365470886,-0.005828591994941235
1772363359951307500,2.6423076171875,0.01907186023890972,0.020534057170152664,-0.00476093078032136
1772363359961377300,2.652377197265625,0.02432035282254219,0.024424154311418533,-0.013672484084963799
1772363359971446500,2.662446533203125,0.017549533396959305,0.011469737626612186,-0.010153915733098984
1772363359981516300,2.672516357421875,0.0179482139647007,0.011928925290703773,-0.009631739929318428
1772363359991585500,2.68258544921875,0.022027112543582916,0.015803825110197067,-0.008883126080036163
1772363360001655300,2.6926552734375,0.024879544973373413,0.007792135234922171,-0.0056188334710896015
1772363360011724500,2.702724609375,0.020969491451978683,-0.0025891331024467945,0.007221330888569355
1772363360021794600,2.712794677734375,0.020704910159111023,0.0008461074903607368,0.021163344383239746
1772363360031864300,2.7228642578125,0.022992832586169243,0.013008232228457928,0.032704416662454605
1772363360041933600,2.73293359375,0.02156096324324608,0.022813580930233,0.042367737740278244
1772363360052003300,2.74300341796875,0.02607608772814274,0.027292752638459206,0.03964625298976898
1772363360062072600,2.753072509765625,0.02593127079308033,0.010519958101212978,0.0318768136203289
1772363360072142300,2.763142333984375,0.026276681572198868,0.0003962176851928234,0.019016675651073456
1772363360082211600,2.773211669921875,0.027098223567008972,-0.0021124272607266903,0.006398147903382778
1772363360092281300,2.78328125,0.021468300372362137,0.005295687820762396,0.00022760406136512756
1772363360102350600,2.7933505859375,0.019473088905215263,0.00939572136849165,-0.00734262028709054
1772363360112420600,2.803420654296875,0.017372122034430504,0.01846271939575672,-0.020178791135549545
1772363360122489300,2.8134892578125,0.015088771469891071,0.009470502845942974,-0.038560524582862854
1772363360132559600,2.8235595703125,0.01877005770802498,0.0019239038228988647,-0.05196208506822586
1772363360142628400,2.83362841796875,0.021314701065421104,0.0060086022131145,-0.05402996018528938
1772363360152698600,2.84369873046875,0.012304162606596947,0.014480117708444595,-0.045190129429101944
1772363360162767400,2.853767333984375,0.013215221464633942,0.017449483275413513,-0.03513023257255554
1772363360172837400,2.86383740234375,0.004203883931040764,0.008250925689935684,-0.013368213549256325
1772363360182906400,2.87390625,0.0035447515547275543,0.00712867034599185,-0.00121354591101408
1772363360192976400,2.883976318359375,0.00615012226626277,0.01448192447423935,0.006298965774476528
1772363360203045400,2.89404541015625,0.003628353588283062,0.0044422997161746025,0.009416850283741951
1772363360213115400,2.904115478515625,-0.0003906222991645336,-0.020677167922258377,0.015575941652059555
1772363360223184400,2.914184326171875,0.0005533751100301743,-0.02503977343440056,0.010373027995228767
1772363360233254400,2.92425439453125,0.002230900339782238,-0.024664001539349556,0.0061753541231155396
1772363360243324400,2.934324462890625,-0.002197901252657175,-0.03566296771168709,0.0005931099876761436
1772363360253393400,2.944393310546875,0.00667814863845706,-0.03301871567964554,-0.005298334639519453
1772363360263463400,2.95446337890625,0.0048951623030006886,-0.03412632271647453,-0.00732393516227603
1772363360273532400,2.964532470703125,0.010640399530529976,-0.019351374357938766,-0.0013280939310789108
1772363360283602400,2.9746025390625,0.019290238618850708,-0.0023997530806809664,-0.0011137314140796661
1772363360293671400,2.98467138671875,0.025222962722182274,0.005382269620895386,-0.003557980991899967
1772363360303741400,2.994741455078125,0.029067739844322205,0.012865389697253704,-0.00870381761342287
1772363360313810400,3.004810546875,0.03398100659251213,0.029463540762662888,-0.015261318534612656
1772363360323880400,3.01488037109375,0.03790896013379097,0.04663979262113571,-0.015880083665251732
1772363360333949400,3.024949462890625,0.041421402245759964,0.051346130669116974,-0.015507240779697895
1772363360344019500,3.03501953125,0.040510304272174835,0.03868376836180687,-0.008318647742271423
1772363360354088400,3.04508837890625,0.04148848354816437,0.028422873467206955,0.003551327623426914
1772363360364158500,3.055158447265625,0.036093249917030334,0.01999395526945591,0.006033743731677532
1772363360374227500,3.0652275390625,0.02806488610804081,0.005931665655225515,0.008683322928845882
1772363360384297500,3.07529736328125,0.018034521490335464,0.010808838531374931,0.005174783989787102
1772363360394366500,3.085366455078125,0.017026515677571297,0.028520988300442696,-0.0014010937884449959
1772363360404436200,3.095436279296875,0.010485691018402576,0.03253929316997528,-0.004432128742337227
1772363360414505500,3.10550537109375,0.010648410767316818,0.03330095484852791,-0.0070002153515815735
1772363360424575500,3.115575439453125,0.005380044691264629,0.020051322877407074,-0.002743775025010109
1772363360434644500,3.12564453125,0.006883931811898947,0.02693958953022957,-0.0044987984001636505
1772363360444714500,3.135714599609375,0.0048551554791629314,0.020642319694161415,-0.008775957860052586
1772363360454784500,3.145784423828125,0.008125251159071922,0.009807249531149864,-0.01700752228498459
1772363360464853500,3.155853515625,0.002863515168428421,-0.0048041557893157005,-0.021066345274448395
1772363360474923300,3.16592333984375,-0.010478654876351357,-0.011653539724647999,-0.021851979196071625
1772363360484992500,3.175992431640625,-0.019179029390215874,-0.007613607682287693,-0.02445191517472267
1772363360495062300,3.186062255859375,-0.02386512979865074,-0.0024438793770968914,-0.02204468473792076
1772363360505131500,3.196131591796875,-0.020104479044675827,0.000004897359758615494,-0.024362167343497276
1772363360515201500,3.206201416015625,-0.01367880403995514,-0.015127716585993767,-0.02859632670879364
1772363360525270500,3.2162705078125,-0.006022444926202297,-0.025330131873488426,-0.030250411480665207
1772363360535340500,3.226340576171875,0.00014277268201112747,-0.025365551933646202,-0.028357967734336853
1772363360545409500,3.236409423828125,-0.0028061820194125175,-0.016543187201023102,-0.02287772297859192
1772363360555479600,3.2464794921875,-0.005811559036374092,-0.005814909003674984,-0.0070769209414720535
1772363360565548500,3.256548583984375,-0.001024268101900816,0.01292969286441803,0.0040290625765919685
1772363360575618600,3.26661865234375,-0.0025534559972584248,0.01720939390361309,0.014707005582749844
1772363360585687300,3.276687255859375,-0.0019760532304644585,0.0018132240511476994,0.022694967687129974
1772363360595757000,3.286757080078125,0.0015808641910552979,-0.011193388141691685,0.026671066880226135
1772363360605826000,3.296825927734375,0.0009898669086396694,-0.01601725071668625,0.02868545800447464
1772363360615896000,3.30689599609375,-0.001722828485071659,-0.008699949830770493,0.03130920231342316
1772363360625965000,3.316965087890625,-0.003669735975563526,-0.004824013914912939,0.03077434003353119
1772363360636035000,3.32703515625,-0.003734717145562172,-0.0036421027034521103,0.01965644210577011
1772363360646104000,3.33710400390625,-0.002565748058259487,-0.017455987632274628,0.015110449865460396
1772363360656173800,3.347173828125,-0.006875808350741863,-0.021230218932032585,0.008975058794021606
1772363360666243000,3.3572431640625,-0.0018553896807134151,-0.01726682111620903,0.00020196754485368729
1772363360676312800,3.367312744140625,0.0025710505433380604,-0.009069344028830528,-0.008920158259570599
1772363360686382000,3.377382080078125,-0.001697552390396595,-0.010761675424873829,-0.012041259557008743
1772363360696452000,3.3874521484375,0.00014668656513094902,-0.0035900487564504147,-0.016757983714342117
1772363360706522000,3.397522216796875,-0.003047666046768427,-0.004914241377264261,-0.017846394330263138
1772363360716591000,3.407591064453125,-0.002230342011898756,-0.0046636383049190044,-0.019690100103616714
1772363360726660900,3.417660888671875,0.001496897079050541,-0.00976536888629198,-0.017103344202041626
1772363360736730000,3.427730224609375,0.0022305981256067753,-0.013577951118350029,-0.013793567195534706
1772363360746799900,3.4377998046875,-0.0010010763071477413,-0.01557634212076664,0.002720177173614502
1772363360756869000,3.447869140625,-0.0007776371203362942,-0.007117344066500664,0.012975743971765041
1772363360766939000,3.45793896484375,-0.002151360735297203,-0.0020594538655132055,0.023958802223205566
1772363360777008000,3.468008056640625,-0.0005111191421747208,0.003943577874451876,0.02614525705575943
1772363360787078100,3.478078125,0.003432330209761858,0.008373277261853218,0.028415977954864502
1772363360797147100,3.488147216796875,0.003771350486204028,0.009307781234383583,0.020794011652469635
1772363360807217200,3.498217041015625,0.011138519272208214,-0.008452452719211578,0.009797814302146435
1772363360817286000,3.508285888671875,0.012932424433529377,-0.011919356882572174,-0.00127507746219635
1772363360827356200,3.518356201171875,0.007537752389907837,-0.003896235954016447,-0.009946434758603573
1772363360837425000,3.5284248046875,0.005736922845244408,0.011686718091368675,-0.020837165415287018
1772363360847495200,3.5384951171875,-0.0011729798279702663,0.01752544939517975,-0.0345434732735157
1772363360857564000,3.54856396484375,-0.0035083056427538395,0.009486430324614048,-0.04048125818371773
1772363360867634200,3.55863427734375,-0.00152973597869277,0.0072497036308050156,-0.0441986545920372
1772363360877704200,3.5687041015625,-0.0034402883611619473,0.005799612961709499,-0.03661104291677475
1772363360887773000,3.57877294921875,-0.0038602035492658615,0.007742641028016806,-0.025898661464452744
1772363360897843200,3.58884326171875,-0.0027304906398057938,0.01344393566250801,-0.013035059906542301
1772363360907912000,3.598911865234375,-0.01121389027684927,0.00023532984778285027,0.008485237136483192
1772363360917982200,3.608982177734375,-0.015142052434384823,-0.007043089717626572,0.025816291570663452
1772363360928051000,3.619051025390625,-0.01064821146428585,-0.0008872849866747856,0.034757912158966064
1772363360938121000,3.629120849609375,-0.008272139355540276,-0.0067686098627746105,0.046381279826164246
1772363360948190000,3.63918994140625,-0.01779281720519066,-0.01178795751184225,0.046610549092292786
1772363360958260000,3.649260009765625,-0.02898901328444481,-0.0057686809450387955,0.049625247716903687
1772363360968329000,3.659328857421875,-0.03588772565126419,-0.0007357662543654442,0.03902038559317589
1772363360978399000,3.66939892578125,-0.032223477959632874,0.004566054791212082,0.026561051607131958
1772363360988468000,3.679468017578125,-0.024245742708444595,0.003800033126026392,0.017518213018774986
1772363360998538000,3.6895380859375,-0.014635195024311543,-0.002356130164116621,0.008607808500528336
1772363361008607200,3.699607177734375,-0.011491188779473305,-0.019669516012072563,-0.00745741743594408
1772363361018677000,3.709677001953125,-0.016253985464572906,-0.034845273941755295,-0.026042021811008453
1772363361028746200,3.719746337890625,-0.022236526012420654,-0.039177291095256805,-0.04535485804080963
1772363361038816000,3.72981591796875,-0.034028735011816025,-0.038385532796382904,-0.04695621505379677
1772363361048886000,3.739885986328125,-0.04483545944094658,-0.02370486408472061,-0.030949868261814117
1772363361058955000,3.749955078125,-0.048126861453056335,-0.0012773196212947369,-0.020664207637310028
1772363361069025000,3.76002490234375,-0.04574490338563919,-0.006707942113280296,-0.008177632465958595
1772363361079094000,3.770093994140625,-0.04501466453075409,-0.036427486687898636,-0.00034101493656635284
1772363361089164000,3.7801640625,-0.04923391714692116,-0.05397271737456322,0.0029392698779702187
1772363361099233000,3.79023291015625,-0.04954817146062851,-0.05867426097393036,-0.0016344422474503517
1772363361109303000,3.800302978515625,-0.043856557458639145,-0.05587882548570633,0.0009009921923279762
1772363361119372000,3.8103720703125,-0.04129859060049057,-0.04433562234044075,0.007139180786907673
1772363361129442000,3.820442138671875,-0.032529231160879135,-0.02521478198468685,0.01586298644542694
1772363361139511000,3.830510986328125,-0.030312150716781616,-0.023417146876454353,0.018482472747564316
1772363361149581000,3.8405810546875,-0.02318359538912773,-0.029685650020837784,0.020956028252840042
1772363361159650000,3.850650146484375,-0.018746236339211464,-0.02864941582083702,0.023084428161382675
1772363361169719800,3.8607197265625,-0.015677224844694138,-0.023137323558330536,0.02322731539607048
1772363361179789000,3.8707890625,-0.01828525774180889,-0.02970973774790764,0.02015189826488495
1772363361189859000,3.880859130859375,-0.017625190317630768,-0.035746827721595764,0.018800705671310425
1772363361199929000,3.89092919921875,-0.016517847776412964,-0.04240339994430542,0.014416079968214035
1772363361209998000,3.900998046875,-0.01716751605272293,-0.03755689039826393,0.012484780512750149
1772363361220068000,3.911068115234375,-0.014558415859937668,-0.03021082654595375,0.014799068681895733
1772363361230137000,3.92113720703125,-0.009943654760718346,-0.030670205131173134,0.01312856562435627
1772363361240206800,3.931206787109375,-0.005612289998680353,-0.03691291809082031,-0.0026756972074508667
1772363361250276000,3.941276123046875,-0.0027542351745069027,-0.034859225153923035,-0.01858937367796898
1772363361260345900,3.951345947265625,0.0022051031701266766,-0.029372580349445343,-0.03045748546719551
1772363361270415000,3.9614150390625,0.013262828812003136,-0.02166767045855522,-0.03097933903336525
1772363361280485000,3.971485107421875,0.019098879769444466,-0.013365533202886581,-0.021068118512630463
1772363361290554000,3.98155419921875,0.021798986941576004,-0.009051524102687836,-0.008425572887063026
1772363361300624100,3.9916240234375,0.02093692310154438,0.0015172306448221207,0.00458157155662775
1772363361310693000,4.001693115234375,0.02043088525533676,0.006462565157562494,0.0060516297817230225
1772363361320763100,4.01176318359375,0.022385379299521446,0.01057368703186512,0.0034073777496814728
1772363361330833000,4.0218330078125,0.019792459905147552,0.015102408826351166,0.0006732912734150887
1772363361340902100,4.031902099609375,0.027216821908950806,0.02433638647198677,-0.0011179503053426743
1772363361350972000,4.041971923828125,0.022931700572371483,0.02311018481850624,-0.0008968040347099304
1772363361361041200,4.052041259765625,0.02309681661427021,0.029997650533914566,-0.006522199138998985
1772363361371111200,4.062111083984375,0.01975102350115776,0.03927132859826088,-0.018115557730197906
1772363361381180200,4.07218017578125,0.01631314866244793,0.035940513014793396,-0.0274595245718956
1772363361391250200,4.082250244140625,0.008465309627354145,0.028430506587028503,-0.030347727239131927
1772363361401319000,4.09231884765625,0.0006228331476449966,0.032722458243370056,-0.028599362820386887
1772363361411389200,4.10238916015625,-0.006565643474459648,0.03725298121571541,-0.02113613300025463
1772363361421458000,4.1124580078125,-0.003571983426809311,0.041201915591955185,-0.019964342936873436
1772363361431528200,4.122528076171875,0.0016532889567315578,0.03764660656452179,-0.011592379771173
1772363361441597000,4.132596923828125,0.00005299551412463188,0.028335129842162132,-0.0024209851399064064
1772363361451667000,4.1426669921875,-0.0017075766809284687,0.018042493611574173,0.012130730785429478
1772363361461737200,4.1527373046875,-0.00008091796189546585,0.017881371080875397,0.028391458094120026
1772363361471806000,4.162805908203125,0.00382806989364326,0.02216613106429577,0.0459723174571991
1772363361481876200,4.172876220703125,0.007156488485634327,0.02529827505350113,0.055219344794750214
1772363361491945000,4.182945068359375,0.010099612176418304,0.02489798702299595,0.05400902032852173
1772363361502015200,4.19301513671875,0.010365662164986134,0.02418665774166584,0.05145744979381561
1772363361512084000,4.203083984375,0.0207764133810997,0.020656269043684006,0.04445312172174454
1772363361522154000,4.213154052734375,0.025113102048635483,0.029544034972786903,0.037038613110780716
1772363361532223000,4.223222900390625,0.03213606774806976,0.03619269281625748,0.030216243118047714
1772363361542293000,4.23329296875,0.04209868609905243,0.04751431941986084,0.019996359944343567
1772363361552362000,4.243362060546875,0.038133177906274796,0.05225769057869911,0.008296744897961617
1772363361562432000,4.253431884765625,0.04515566676855087,0.06550079584121704,-0.014542791992425919
1772363361572501000,4.2635009765625,0.04806050285696983,0.06524670124053955,-0.022756345570087433
1772363361582571000,4.273571044921875,0.051014482975006104,0.05855896696448326,-0.0189413670450449
1772363361592640000,4.283639892578125,0.05389859154820442,0.060846541076898575,-0.010978941805660725
1772363361602710500,4.29371044921875,0.06002093106508255,0.05240219086408615,-0.0022365832701325417
1772363361612780300,4.3037802734375,0.07111719250679016,0.04475434496998787,0.010942854918539524
1772363361622849500,4.313849609375,0.0698537826538086,0.035464707762002945,0.0212242528796196
1772363361632919300,4.323919189453125,0.0721772313117981,0.03165552020072937,0.0298401340842247
1772363361642988500,4.333988525390625,0.07011009007692337,0.025590971112251282,0.024557486176490784
1772363361653058600,4.34405859375,0.07609956711530685,0.019833315163850784,0.016810163855552673
1772363361663127300,4.354127197265625,0.07249018549919128,0.024352699518203735,0.008745578117668629
1772363361673197600,4.364197509765625,0.06597340106964111,0.031433943659067154,-0.006258482579141855
1772363361683266300,4.374266357421875,0.0645693838596344,0.02437683753669262,-0.02626015432178974
1772363361693336600,4.384336669921875,0.055157002061605453,0.01483828853815794,-0.03554598614573479
1772363361703405300,4.3944052734375,0.05656341463327408,0.009731943719089031,-0.04000704735517502
1772363361713475600,4.4044755859375,0.0464993380010128,0.013235124759376049,-0.0345819927752018
1772363361723544300,4.41454443359375,0.03576626628637314,0.007755138911306858,-0.03674847260117531
1772363361733614300,4.4246142578125,0.030365195125341415,-0.0019424734637141228,-0.03775838017463684
1772363361743683300,4.434683349609375,0.02125212550163269,-0.008260024711489677,-0.03959782421588898
1772363361753753300,4.44475341796875,0.008788336999714375,-0.0013006075751036406,-0.031430959701538086
1772363361763823600,4.45482373046875,-0.009420229122042656,0.010649794712662697,-0.004145810380578041
1772363361773892400,4.464892333984375,-0.021366802975535393,0.02394896373152733,0.021686408668756485
1772363361783962400,4.47496240234375,-0.02940715104341507,0.018048197031021118,0.032040249556303024
1772363361794031400,4.48503125,-0.03621327131986618,-0.0028771464712917805,0.03770316392183304
1772363361804101400,4.495101318359375,-0.04389995336532593,-0.014272812753915787,0.035753197968006134
1772363361814170400,4.50517041015625,-0.04566941410303116,-0.020211588591337204,0.03052525967359543
1772363361824240400,4.515240478515625,-0.04374554380774498,-0.026591457426548004,0.03883671760559082
1772363361834309400,4.525309326171875,-0.04588772729039192,-0.016572393476963043,0.05735349282622337
1772363361844379400,4.53537939453125,-0.041153691709041595,-0.004049944691359997,0.06700106710195541
1772363361854448400,4.545448486328125,-0.03374425321817398,-0.004926182795315981,0.06967441737651825
1772363361864518400,4.555518310546875,-0.020634843036532402,-0.013288509100675583,0.05849286913871765
1772363361874587400,4.56558740234375,-0.01545860804617405,-0.016866207122802734,0.05064980685710907
1772363361884657400,4.575657470703125,-0.017275681719183922,-0.007517713122069836,0.04949745908379555
1772363361894726400,4.585726318359375,-0.02174592763185501,0.010808859020471573,0.048648007214069366
1772363361904796400,4.59579638671875,-0.01892004907131195,0.031333040446043015,0.03970697894692421
1772363361914866400,4.605866455078125,-0.007829327136278152,0.036094922572374344,0.03246358409523964
1772363361924935400,4.615935302734375,-0.0025956835597753525,0.026214860379695892,0.028634756803512573
1772363361935005400,4.62600537109375,-0.004347849637269974,0.0125551987439394,0.019903037697076797
1772363361945074400,4.636074462890625,0.0037905042991042137,-0.006834744475781918,0.004528875462710857
1772363361955144400,4.64614453125,-0.0012348159216344357,-0.019420325756072998,-0.005969754420220852
1772363361965213200,4.656213134765625,-0.010656280443072319,-0.012235382571816444,-0.0138737503439188
1772363361975283500,4.666283447265625,-0.014776278287172318,-0.007337054703384638,-0.01655764691531658
1772363361985352400,4.6763525390625,-0.02069169096648693,-0.010235372930765152,-0.011710694059729576
1772363361995422500,4.68642236328125,-0.024699756875634193,-0.01644006371498108,-0.009291674941778183
1772363362005491500,4.696491455078125,-0.033064741641283035,-0.02823014371097088,-0.012578547932207584
1772363362015561200,4.706561279296875,-0.03918951004743576,-0.0342433899641037,-0.013999156653881073
1772363362025630500,4.71663037109375,-0.03748295456171036,-0.03760936111211777,-0.03088466264307499
1772363362035700200,4.7267001953125,-0.03800839185714722,-0.04151323065161705,-0.041495032608509064
1772363362045769500,4.73676953125,-0.046596284955739975,-0.04700946435332298,-0.0485854335129261
1772363362055839200,4.746839111328125,-0.050610482692718506,-0.04298847168684006,-0.04817623272538185
1772363362065908500,4.756908447265625,-0.049288757145404816,-0.03084525652229786,-0.047002311795949936
1772363362075978500,4.766978515625,-0.04770050197839737,-0.025412069633603096,-0.039362385869026184
1772363362086048300,4.77704833984375,-0.03872431814670563,-0.02243012748658657,-0.03501637279987335
1772363362096117500,4.787117431640625,-0.030605681240558624,-0.03152061998844147,-0.027224160730838776
1772363362106187300,4.797187255859375,-0.013767845928668976,-0.046611957252025604,-0.014583468437194824
1772363362116256500,4.807256591796875,-0.012017516419291496,-0.04430058225989342,0.006482131779193878
1772363362126326300,4.817326171875,-0.013214075937867165,-0.024401705712080002,0.01569214276969433
1772363362136395500,4.8273955078125,-0.009128166362643242,-0.0017239435110241175,0.03725128620862961
1772363362146465300,4.83746533203125,-0.008552124723792076,0.018565881997346878,0.05637331306934357
1772363362156534500,4.847534423828125,-0.002452635671943426,0.033426590263843536,0.061712559312582016
1772363362166604500,4.8576044921875,0.008988570421934128,0.014699774794280529,0.0651504322886467
1772363362176673500,4.867673583984375,0.010351749137043953,-0.009660241194069386,0.06571725755929947
1772363362186743600,4.87774365234375,0.011858299374580383,-0.013359105214476585,0.07000920921564102
1772363362196812300,4.887812255859375,0.015385836362838745,0.00016080401837825775,0.06367474049329758
1772363362206882600,4.897882568359375,0.01751103810966015,0.013897388242185116,0.04412926733493805
1772363362216951300,4.907951416015625,0.020316340029239655,-0.001971099292859435,0.014810776337981224
1772363362227021600,4.918021484375,0.011115649715065956,-0.021848667412996292,0.007732095196843147
1772363362237090300,4.92809033203125,0.01059270091354847,-0.00014528445899486542,-0.0003087148070335388
1772363362247160300,4.938160400390625,0.006229111459106207,0.0317830853164196,-0.009977320209145546
1772363362257229300,4.948229248046875,0.009381890296936035,0.0401400551199913,-0.02395794913172722
1772363362267299300,4.95829931640625,0.012061030603945255,0.0324094332754612,-0.04363071918487549
1772363362277369600,4.96836962890625,0.018690776079893112,0.02568073570728302,-0.05633984133601189
1772363362287438300,4.978438232421875,0.01777171902358532,0.027629371732473373,-0.06184859201312065
1772363362297508400,4.98850830078125,0.02192743867635727,0.0409189872443676,-0.05757664516568184
1772363362307577300,4.998577392578125,0.025952806696295738,0.04616541415452957,-0.048706185072660446
1772363362317647400,5.0086474609375,0.02925894781947136,0.04546615108847618,-0.03907070681452751
1772363362327716400,5.01871630859375,0.03973555564880371,0.04027538374066353,-0.03387381508946419
1772363362337786400,5.028786376953125,0.04458405077457428,0.038939349353313446,-0.023366466164588928
1772363362347855400,5.03885546875,0.048155881464481354,0.05215848237276077,-0.006002657115459442
1772363362357925400,5.04892529296875,0.0460302010178566,0.06705214083194733,0.0010487483814358711
1772363362367994400,5.058994384765625,0.050408437848091125,0.06834084540605545,-0.0030780863016843796
1772363362378064400,5.069064453125,0.05400017276406288,0.05142306536436081,-0.007161791902035475
1772363362388133600,5.079133544921875,0.052521321922540665,0.044483669102191925,-0.014438080601394176
1772363362398203400,5.089203369140625,0.03927623853087425,0.041237153112888336,-0.018518084660172462
1772363362408272400,5.0992724609375,0.026073351502418518,0.03980517387390137,-0.015697797760367393
1772363362418342400,5.10934228515625,0.01744602993130684,0.03939572721719742,-0.014173796400427818
1772363362428411400,5.119411376953125,0.019183475524187088,0.037879589945077896,-0.013171648606657982
1772363362438481400,5.1294814453125,0.02254527620971203,0.03382261469960213,-0.01811857707798481
1772363362448550400,5.13955029296875,0.025125345215201378,0.022070350125432014,-0.025010839104652405
1772363362458620400,5.149620361328125,0.01980196125805378,0.012524573132395744,-0.025794675573706627
1772363362468690400,5.1596904296875,0.016034120693802834,0.016372308135032654,-0.029149990528821945
1772363362478759400,5.169759521484375,0.010312759317457676,0.020311573520302773,-0.021799296140670776
1772363362488829400,5.179829345703125,0.006186457350850105,0.025032559409737587,-0.012846280820667744
1772363362498898400,5.1898984375,0.00233561173081398,0.021672474220395088,-0.0009827334433794022
1772363362508968400,5.199968505859375,0.0011896537616848946,0.004717724397778511,0.006619525142014027
1772363362519037400,5.210037353515625,-0.002542621921747923,-0.019043978303670883,0.014380539767444134
1772363362529107500,5.220107421875,-0.00754829915240407,-0.022315669804811478,0.017250627279281616
1772363362539176400,5.230176513671875,-0.013581158593297005,-0.014816741459071636,0.01625833287835121
1772363362549246200,5.24024609375,-0.019241707399487495,-0.007139913737773895,0.018161695450544357
1772363362559315500,5.2503154296875,-0.01597428135573864,-0.0010099071078002453,0.01554867159575224
1772363362569385500,5.260385498046875,-0.012225616723299026,-0.005756192374974489,0.016216859221458435
1772363362579454500,5.270454345703125,-0.004981128498911858,-0.026852620765566826,0.017299143597483635
1772363362589524500,5.2805244140625,-0.0007288595661520958,-0.036720164120197296,0.015168881043791771
1772363362599593700,5.29059375,-0.008839949034154415,-0.03990516811609268,0.01166505180299282
1772363362609663500,5.30066357421875,-0.014169733040034771,-0.036004167050123215,0.011852804571390152
1772363362619732700,5.310732666015625,-0.024277880787849426,-0.0323353111743927,0.004523015581071377
1772363362629802500,5.320802490234375,-0.02285229042172432,-0.027468116953969002,-0.0026020044460892677
1772363362639871500,5.33087158203125,-0.020698003470897675,-0.034523434937000275,-0.0016827946528792381
1772363362649941800,5.340941650390625,-0.02151772379875183,-0.038255322724580765,0.00042989104986190796
1772363362660010500,5.351010498046875,-0.017933376133441925,-0.0325566902756691,0.00732987467199564
1772363362670080800,5.361080810546875,-0.008679689839482307,-0.03535594046115875,-0.004412002861499786
1772363362680149500,5.3711494140625,-0.002407679334282875,-0.05394427105784416,-0.01568729430437088
1772363362690219500,5.381219482421875,0.0009276634082198143,-0.05789799988269806,-0.025510629639029503
1772363362700289500,5.39128955078125,0.002956676296889782,-0.04284941405057907,-0.022534236311912537
1772363362710358500,5.401358642578125,-0.005213901866227388,-0.022939886897802353,-0.012724217027425766
1772363362720428500,5.411428466796875,-0.006135363131761551,-0.009338116273283958,-0.002358592115342617
1772363362730497500,5.42149755859375,-0.003204021602869034,-0.009327463805675507,0.0031781205907464027
1772363362740567800,5.43156787109375,-0.004570368677377701,-0.017881089821457863,0.013757497072219849
1772363362750636500,5.441636474609375,-0.007771221920847893,-0.02249528095126152,0.019335754215717316
1772363362760706600,5.45170654296875,-0.011387628503143787,-0.025539416819810867,0.026222597807645798
1772363362770775600,5.461775634765625,-0.013962372206151485,-0.025089874863624573,0.0313960537314415
1772363362780845600,5.471845458984375,-0.011956379748880863,-0.026557669043540955,0.02657342702150345
1772363362790914600,5.48191455078125,-0.010048490948975086,-0.021150387823581696,0.030745800584554672
1772363362800984600,5.491984619140625,-0.0009426912292838097,-0.02147192694246769,0.02369406819343567
1772363362811053600,5.502053466796875,0.003724498674273491,-0.026984138414263725,0.020225565880537033
1772363362821123600,5.51212353515625,0.005453015211969614,-0.02408684231340885,0.013779275119304657
1772363362831192600,5.522192626953125,0.009310337714850903,-0.013086922466754913,0.0026565827429294586
1772363362841262600,5.5322626953125,0.009213577024638653,-0.009741348214447498,-0.00567260105162859
1772363362851331600,5.54233154296875,0.008523551747202873,-0.010424981825053692,-0.01213822327554226
1772363362861401600,5.552401611328125,0.0026798052713274956,-0.008171848952770233,-0.01460077241063118
1772363362871470600,5.562470703125,0.00011438224464654922,-0.004086293280124664,-0.012540284544229507
1772363362881540600,5.57254052734375,0.003795427968725562,-0.01044255681335926,-0.00878995843231678
1772363362891609600,5.582609619140625,0.00027845753356814384,-0.01759953610599041,-0.0007083294913172722
1772363362901679600,5.5926796875,-0.0008613476529717445,-0.020468195900321007,0.01116624940186739
1772363362911748600,5.60274853515625,0.0038567082956433296,-0.014115758240222931,0.018208447843790054
1772363362921818400,5.612818359375,0.0028761248104274273,-0.01772892475128174,0.01769132912158966
1772363362931887600,5.6228876953125,0.004229010548442602,-0.02375592477619648,0.01810837909579277
1772363362941957400,5.632957275390625,-0.0003972835838794708,-0.027311230078339577,0.02152126282453537
1772363362952027600,5.643027587890625,-0.0059089623391628265,-0.02625102549791336,0.021147355437278748
1772363362962096600,5.6530966796875,-0.008418433368206024,-0.01963636465370655,0.017133504152297974
1772363362972166700,5.663166748046875,-0.009910071268677711,-0.021592456847429276,0.01602136716246605
1772363362982235600,5.673235595703125,-0.009868488647043705,-0.020474573597311974,0.011500660330057144
1772363362992305400,5.683305419921875,-0.0052934447303414345,-0.02032969892024994,0.002290915697813034
1772363363002374700,5.693374755859375,0.0035899607464671135,-0.020031297579407692,-0.010578636080026627
1772363363012444400,5.7034443359375,0.010240406729280949,-0.0192272886633873,-0.017432548105716705
1772363363022513700,5.713513671875,0.012270195409655571,-0.0104982890188694,-0.020609447732567787
1772363363032583400,5.72358349609375,0.007111385464668274,0.007264463230967522,-0.02033247798681259
1772363363042652700,5.733652587890625,0.00934212189167738,0.010737001895904541,-0.02076096460223198
1772363363052722700,5.74372265625,0.015081766992807388,0.008576112799346447,-0.017010968178510666
1772363363062791700,5.753791748046875,0.020006347447633743,-0.0015090408269315958,-0.0007066633552312851
1772363363072861700,5.76386181640625,0.02570657804608345,-0.0017252895049750805,0.012970533221960068
1772363363082930700,5.7739306640625,0.024848680943250656,0.004427328705787659,0.01769615337252617
1772363363093000700,5.784000732421875,0.02240070328116417,0.014433890581130981,0.01138792373239994
1772363363103069400,5.7940693359375,0.018266314640641212,0.020182644948363304,0.003981059417128563
1772363363113139700,5.8041396484375,0.010052859783172607,0.019366919994354248,-0.001860584132373333
1772363363123208400,5.81420849609375,0.011061228811740875,0.016743116080760956,-0.0035047391429543495
1772363363133278700,5.82427880859375,0.005426246672868729,0.018119970336556435,-0.0013233441859483719
1772363363143347500,5.834347412109375,0.00561381783336401,0.027089525014162064,0.002267090603709221
1772363363153417500,5.84441748046875,0.008902555331587791,0.052610863000154495,-0.0008232416585087776
1772363363163486500,5.854486572265625,0.00973665900528431,0.04087231308221817,-0.016938114538788795
1772363363173556500,5.864556396484375,0.0015162802301347256,-0.0016061686910688877,-0.025555038824677467
1772363363183625500,5.87462548828125,-0.007039401214569807,-0.009694644249975681,-0.03017440438270569
1772363363193695500,5.884695556640625,-0.009022923186421394,0.02210909128189087,-0.02634264901280403
1772363363203764700,5.8947646484375,-0.00836572889238596,0.04470810294151306,-0.01758565939962864
1772363363213834500,5.90483447265625,-0.00914390292018652,0.04612543806433678,0.0009888233616948128
1772363363223903700,5.91490380859375,-0.005337265785783529,0.042600180953741074,0.011081711389124393
1772363363233973500,5.924973388671875,-0.004379593301564455,0.025895237922668457,0.017278090119361877
1772363363244043500,5.93504345703125,-0.005142826586961746,0.014380093663930893,0.016553519293665886
1772363363254112500,5.945112548828125,-0.00209696963429451,0.011952623724937439,0.007513418793678284
1772363363264182500,5.9551826171875,0.0006367736496031284,0.017973817884922028,0.011798908933997154
1772363363274251500,5.96525146484375,0.0026748906821012497,0.02153632789850235,0.017030956223607063
1772363363284321500,5.975321533203125,0.015768863260746002,0.018984545022249222,0.022818733006715775
1772363363294390800,5.985390869140625,0.018957732245326042,0.015537349507212639,0.025278162211179733
1772363363304460500,5.99546044921875,0.026105741038918495,0.017405584454536438,0.016707539558410645
1772363363314529500,6.005529541015625,0.01589651219546795,0.013562376610934734,0.014151704497635365
1772363363324599600,6.015599609375,0.0055099185556173325,0.005463703535497189,0.005465005524456501
1772363363334668500,6.02566845703125,0.002492823638021946,-0.0019260358531028032,-0.0014701327309012413
1772363363344738600,6.035738525390625,-0.005597081035375595,-0.012022387236356735,-0.0036173155531287193
1772363363354807600,6.0458076171875,-0.009749215096235275,-0.009174935519695282,-0.004601885564625263
1772363363364877600,6.055877685546875,-0.008168327622115612,-0.004295604303479195,0.0010104682296514511
1772363363374946600,6.065946533203125,-0.00228939950466156,-0.0017323116771876812,-0.0007251137867569923
1772363363385016600,6.0760166015625,0.0027041486464440823,-0.0068560512736439705,-0.009025686420500278
1772363363395085600,6.08608544921875,0.009813724085688591,-0.014395460486412048,-0.020466893911361694
1772363363405155600,6.096155517578125,0.009881153702735901,-0.021730870008468628,-0.03503850847482681
1772363363415224600,6.106224609375,0.009666768833994865,-0.020683979615569115,-0.04276034235954285
1772363363425294600,6.116294677734375,0.0023484155535697937,-0.009437467902898788,-0.038261786103248596
1772363363435363600,6.126363525390625,-0.00007692491635680199,-0.0014162927400320768,-0.024468474090099335
1772363363445433600,6.13643359375,-0.005417189560830593,0.0016041803173720837,-0.006176978815346956
1772363363455502600,6.146502685546875,-0.00449600163847208,-0.00770196970552206,0.010053390637040138
1772363363465572600,6.156572509765625,-0.006723009515553713,-0.01891205459833145,0.02001333236694336
1772363363475641600,6.1666416015625,-0.004477165173739195,-0.022856995463371277,0.025212354958057404
1772363363485711600,6.176711669921875,-0.0061098490841686726,-0.0189095176756382,0.023960761725902557
1772363363495780400,6.1867802734375,-0.005553248804062605,-0.013296639546751976,0.01916787028312683
1772363363505850600,6.1968505859375,-0.0034181764349341393,-0.014849682338535786,0.012155896052718163
1772363363515919600,6.206919677734375,-0.007148998789489269,-0.022710800170898438,0.007861815392971039
1772363363525989600,6.21698974609375,-0.011849861592054367,-0.023161660879850388,0.003926505334675312
1772363363536058600,6.22705859375,-0.016648877412080765,-0.016896307468414307,0.0014178082346916199
1772363363546128400,6.23712841796875,-0.013998252339661121,-0.004527299199253321,-0.006131064612418413
1772363363556198700,6.24719873046875,-0.013621681369841099,-0.002897178288549185,-0.0052215950563549995
1772363363566267400,6.257267333984375,-0.006308685522526503,-0.007690812461078167,-0.00968206487596035
1772363363576337700,6.267337646484375,-0.0008665160275995731,-0.021237246692180634,-0.011593681760132313
1772363363586406400,6.277406494140625,0.0034741414710879326,-0.028033467009663582,-0.002479887567460537
1772363363596480000,6.28747998046875,-0.004066864959895611,-0.022207802161574364,0.008506983518600464
1772363363606549000,6.297549072265625,-0.0078089009039103985,-0.012730507180094719,0.011961826123297215
1772363363616618800,6.30761865234375,-0.009361524134874344,-0.00961381010711193,0.021360386162996292
1772363363626688000,6.31768798828125,-0.015606068074703217,-0.00322153652086854,0.025965536013245583
1772363363636757800,6.3277578125,-0.014581549912691116,-0.005249533802270889,0.027651051059365273
1772363363646827000,6.337826904296875,-0.009288093075156212,-0.011242908425629139,0.023820333182811737
1772363363656896800,6.347896728515625,-0.008926969021558762,-0.024188002571463585,0.01769719459116459
1772363363666966000,6.357966064453125,-0.01392129622399807,-0.035433605313301086,0.012797154486179352
1772363363677035800,6.368035888671875,-0.015758078545331955,-0.024289341643452644,-0.0006725825369358063
1772363363687105000,6.37810498046875,-0.01902312971651554,-0.014422440901398659,-0.0076733664609491825
1772363363697175000,6.388175048828125,-0.02327859401702881,-0.00033005839213728905,-0.022614233195781708
1772363363707244000,6.398244140625,-0.01958281733095646,-0.013661648146808147,-0.027219878509640694
1772363363717314000,6.40831396484375,-0.01760515384376049,-0.023463677614927292,-0.03026626817882061
1772363363727382800,6.4183828125,-0.019096992909908295,-0.018895836547017097,-0.041462913155555725
1772363363737453000,6.428453125,-0.01889858767390251,-0.017634032294154167,-0.04155399277806282
1772363363747521800,6.438521728515625,-0.021405663341283798,-0.012307806871831417,-0.03585103899240494
1772363363757592000,6.448592041015625,-0.03171182796359062,-0.0011960335541516542,-0.02839551866054535
1772363363767660800,6.458660888671875,-0.026637740433216095,0.00815117172896862,-0.024615421891212463
1772363363777730800,6.468730712890625,-0.027794349938631058,-0.0033217270392924547,-0.016196371987462044
1772363363787799800,6.4787998046875,-0.021480318158864975,-0.029334615916013718,0.005801454186439514
1772363363797869800,6.488869873046875,-0.007498990278691053,-0.016313623636960983,0.037986285984516144
1772363363807938800,6.498938720703125,-0.012174801900982857,0.0023392830044031143,0.05904008448123932
1772363363818008800,6.5090087890625,-0.011666936799883842,0.013179146684706211,0.0577218160033226
1772363363828077800,6.519077880859375,-0.006982780992984772,0.00598145229741931,0.058217935264110565
1772363363838147800,6.52914794921875,0.002416579518467188,0.009698692709207535,0.048959456384181976
1772363363848217000,6.539217041015625,-0.0020065871067345142,0.019792839884757996,0.04128238931298256
1772363363858286800,6.549286865234375,0.00487821688875556,0.018163785338401794,0.025434449315071106
1772363363868356000,6.559356201171875,0.013026157394051552,0.01191494520753622,0.013067265041172504
1772363363878425900,6.56942578125,0.013187013566493988,0.010184955783188343,0.004356863908469677
1772363363888494800,6.579494873046875,0.01247994415462017,0.014370645396411419,-0.007997540757060051
1772363363898564900,6.58956494140625,0.015373202040791512,0.014072372578084469,-0.021615348756313324
1772363363908635000,6.599634765625,0.011952056549489498,0.0050401221960783005,-0.0389586016535759
1772363363918703900,6.609703857421875,0.014164344407618046,0.007871062494814396,-0.051705293357372284
1772363363928774000,6.61977392578125,0.01568799652159214,0.015419455245137215,-0.05407055839896202
1772363363938843100,6.629843017578125,0.015132727101445198,0.017114024609327316,-0.04506295174360275
1772363363948913000,6.639912841796875,0.010477795265614986,0.017540453001856804,-0.027111448347568512
1772363363958982000,6.64998193359375,0.011267954483628273,0.019525839015841484,-0.011342871002852917
1772363363969052000,6.660052001953125,0.00922700110822916,0.010799543932080269,-0.001984364353120327
1772363363979121000,6.670120849609375,0.006512440741062164,-0.0026914982590824366,-0.002791834995150566
1772363363989191000,6.68019091796875,0.0026668361388146877,-0.022786380723118782,-0.0029217973351478577
1772363363999260000,6.690260009765625,-0.0026038261130452156,-0.02440132014453411,0.011595360934734344
1772363364009330000,6.700329833984375,-0.002386814448982477,0.013106219470500946,0.02761080488562584
1772363364019399000,6.71039892578125,0.0017674509435892105,0.05045385658740997,0.03261834755539894
1772363364029469000,6.720468994140625,0.006659786216914654,0.03647032752633095,0.02610773965716362
1772363364039538000,6.730537841796875,0.0116273807361722,0.010273078456521034,0.02346082404255867
1772363364049608000,6.74060791015625,0.014772961847484112,0.0073696160688996315,0.020519331097602844
1772363364059677000,6.750677001953125,0.017407894134521484,0.014118599705398083,0.02307463437318802
1772363364069747000,6.760746826171875,0.016064457595348358,0.02652410790324211,0.019146906211972237
1772363364079816000,6.77081591796875,0.011329356580972672,0.014589153230190277,0.004423618316650391
1772363364089886000,6.780885986328125,0.009965633042156696,0.004382684361189604,0.0015550758689641953
1772363364099955000,6.790954833984375,0.004835319705307484,0.019033798947930336,-0.0032423418015241623
1772363364110025000,6.80102490234375,0.001826342660933733,0.015750892460346222,-0.013225833885371685
1772363364120093700,6.81109375,0.004224252887070179,0.0036348411813378334,-0.015380330383777618
1772363364130164000,6.8211640625,0.0019305450841784477,-0.006035320460796356,-0.027004746720194817
1772363364140232700,6.831232666015625,0.0008727372623980045,-0.015781158581376076,-0.02966444566845894
1772363364150303000,6.841302978515625,-0.005751221906393766,-0.005154697690159082,-0.024744020774960518
1772363364160372000,6.8513720703125,-0.0070692203007638454,0.020619109272956848,-0.023119492456316948
1772363364170442000,6.86144189453125,-0.004786608275026083,0.025102388113737106,-0.021397363394498825
1772363364180511000,6.871510986328125,-0.005090741906315088,0.00694788433611393,-0.011967109516263008
1772363364190580700,6.881580810546875,-0.01149342954158783,-0.004249349236488342,0.004002231173217297
1772363364200650000,6.89164990234375,-0.020261887460947037,0.002651966642588377,0.015700165182352066
1772363364210719700,6.9017197265625,-0.025258740410208702,0.007615985814481974,0.024604719132184982
1772363364220789000,6.9117890625,-0.024915723130106926,0.004239097703248262,0.02297326549887657
1772363364230858800,6.921858642578125,-0.015796564519405365,-0.00959031842648983,0.017855461686849594
1772363364240928800,6.9319287109375,-0.013943005353212357,-0.00968059990555048,0.01832018420100212
1772363364250998000,6.941998046875,-0.011873176321387291,0.0031052795238792896,0.013872846961021423
1772363364261067800,6.95206787109375,-0.00976315326988697,0.004256297368556261,0.011547641828656197
1772363364271137000,6.962136962890625,-0.005515237804502249,0.0012143501080572605,0.0167158804833889
1772363364281206800,6.972206787109375,-0.0051993862725794315,0.009358828887343407,0.022868314757943153
1772363364291276000,6.982276123046875,0.007295135874301195,0.013210180215537548,0.015568863600492477
1772363364301345800,6.992345703125,0.010595858097076416,0.0008571073412895203,0.007302412763237953
1772363364311415000,7.0024150390625,0.00964778009802103,-0.012232006527483463,-0.001905534416437149
1772363364321484800,7.01248486328125,0.005320143420249224,-0.01260271854698658,-0.007892054505646229
1772363364331554000,7.022553955078125,0.0015156245790421963,-0.006385526154190302,-0.004273868165910244
1772363364341624000,7.0326240234375,-0.0038706189952790737,0.01003366056829691,0.008310900069773197
1772363364351692800,7.04269287109375,0.0009195120073854923,0.011013762094080448,0.022043675184249878
1772363364361763000,7.05276318359375,0.0013592001050710678,-0.0024951233062893152,0.029007039964199066
1772363364371831800,7.062831787109375,-0.004055236466228962,-0.021827388554811478,0.021796809509396553
1772363364381902000,7.072902099609375,-0.0006210897117853165,-0.031683746725320816,0.01069861650466919
1772363364391970800,7.082970703125,-0.00510317413136363,-0.02806253544986248,-0.0058948746882379055
1772363364402040800,7.093040771484375,-0.008315479382872581,-0.02949931100010872,-0.025585222989320755
1772363364412109800,7.10310986328125,-0.006922334898263216,-0.02423509769141674,-0.032951053231954575
1772363364422179800,7.113179931640625,-0.009792158380150795,-0.024622853845357895,-0.03727282956242561
1772363364432248800,7.123248779296875,-0.016531432047486305,-0.027061592787504196,-0.03669362515211105
1772363364442318800,7.13331884765625,-0.015578020364046097,-0.023378442972898483,-0.03169567137956619
1772363364452387800,7.143387939453125,-0.006706986576318741,-0.008911674842238426,-0.03678503260016441
1772363364462457900,7.153457763671875,-0.0013138186186552048,-0.0053387777879834175,-0.03734083101153374
1772363364472527000,7.163527099609375,-0.00474601611495018,-0.012582547962665558,-0.03884555771946907
1772363364482596900,7.173596923828125,0.0021401196718215942,-0.017451871186494827,-0.03326064348220825
1772363364492666000,7.183666015625,0.009589659050107002,-0.011501753702759743,-0.016491752117872238
1772363364502736000,7.19373583984375,0.015970060601830482,0.0013695699162781239,0.004873458296060562
1772363364512804900,7.203804931640625,0.01690906658768654,0.0035934094339609146,0.026269229128956795
1772363364522875000,7.213875,0.024353666231036186,-0.01304602064192295,0.03882869333028793
1772363364532944000,7.22394384765625,0.01617320626974106,-0.04212784022092819,0.05104507505893707
1772363364543014000,7.234013916015625,0.01323467493057251,-0.03893231227993965,0.06119012087583542
1772363364553083000,7.244082763671875,0.0036030388437211514,0.00016008829697966576,0.065569207072258
1772363364563153200,7.254153076171875,-0.004769407212734222,0.021786553785204887,0.059246327728033066
1772363364573222000,7.264221923828125,-0.00023394357413053513,0.012232338078320026,0.044297028332948685
1772363364583292000,7.2742919921875,-0.000977231189608574,-0.015075982548296452,0.02808716893196106
1772363364593362000,7.28436181640625,-0.0010697045363485813,-0.03557891398668289,0.017762018367648125
1772363364603427000,7.294427001953125,-0.005528634879738092,-0.037457242608070374,0.012519584968686104
1772363364613497300,7.304497314453125,-0.00820506364107132,-0.02468251809477806,0.009880785830318928
1772363364623566000,7.314566162109375,-0.00905035063624382,0.002845245413482189,-0.005369273480027914
1772363364633636400,7.32463623046875,-0.010502813383936882,0.0019693011417984962,-0.022152090445160866
1772363364643705000,7.334705078125,-0.017967121675610542,-0.004200710449367762,-0.038762759417295456
1772363364653775000,7.344775146484375,-0.025693433359265327,-0.0005292776040732861,-0.0405980683863163
1772363364663844000,7.354843994140625,-0.02889907918870449,0.007713206112384796,-0.028909722343087196
1772363364673914000,7.3649140625,-0.029944157227873802,0.0068980129435658455,-0.01237402856349945
1772363364683983000,7.374983154296875,-0.03478498384356499,0.0038369763642549515,-0.0017940886318683624
1772363364694053000,7.38505322265625,-0.031022395938634872,-0.003997470252215862,-0.003521132282912731
1772363364704122000,7.3951220703125,-0.02873367816209793,-0.016139354556798935,-0.00869112741202116
1772363364714192100,7.405192138671875,-0.03159307688474655,-0.027859769761562347,-0.008959830738604069
1772363364724261000,7.41526123046875,-0.03213875740766525,-0.019947519525885582,-0.009054905734956264
1772363364734331100,7.4253310546875,-0.03251342102885246,-0.011154618114233017,-0.00019409600645303726
1772363364744400400,7.435400390625,-0.03520561009645462,0.005354583729058504,0.017609402537345886
1772363364754470100,7.44547021484375,-0.02772069349884987,0.028305578976869583,0.02200184389948845
1772363364764539100,7.4555390625,-0.030479729175567627,0.02358512580394745,0.02747170999646187
1772363364774609200,7.465609130859375,-0.023337701335549355,0.007209994364529848,0.02734866738319397
1772363364784678100,7.47567822265625,-0.019248683005571365,-0.012804193422198296,0.02956947684288025
1772363364794748200,7.485748046875,-0.015402819961309433,-0.010593559592962265,0.027729827910661697
1772363364804817200,7.495817138671875,-0.025091400370001793,0.010142877697944641,0.02540648728609085
1772363364814887200,7.50588720703125,-0.020993392914533615,0.02448960579931736,0.02484820783138275
1772363364824956200,7.5159560546875,-0.016427136957645416,0.026402555406093597,0.025782447308301926
1772363364835026200,7.526026123046875,-0.009289920330047607,0.01618514209985733,0.01928231492638588
1772363364845095200,7.53609521484375,-0.0015997779555618763,-0.0035273099783807993,0.004382994957268238
1772363364855165200,7.546165283203125,-0.0005364138633012772,-0.01813756674528122,-0.0058656553737819195
1772363364865234200,7.556234130859375,-0.00557777751237154,-0.016068290919065475,-0.0011686384677886963
1772363364875304200,7.56630419921875,-0.012349642813205719,0.010140718892216682,0.007515007629990578
1772363364885373200,7.576373291015625,-0.008053431287407875,0.035237282514572144,0.0133017897605896
1772363364895443200,7.586443115234375,-0.0026761055923998356,0.02914319932460785,0.016665462404489517
1772363364905513000,7.596512939453125,0.00621725432574749,0.0086038364097476,0.018750451505184174
1772363364915582200,7.606582275390625,0.015423191711306572,-0.007455793675035238,0.017053190618753433
1772363364925652200,7.61665234375,0.020241383463144302,0.004316975828260183,0.020833544433116913
1772363364935721200,7.62672119140625,0.0234207846224308,0.025237351655960083,0.02020208165049553
1772363364945791200,7.636791259765625,0.020235911011695862,0.04440172389149666,0.0248333178460598
1772363364955860200,7.646860107421875,0.025274209678173065,0.0580085851252079,0.020124215632677078
1772363364965930200,7.65693017578125,0.03178856521844864,0.06301825493574142,0.01189611479640007
1772363364975999200,7.666999267578125,0.03244074806571007,0.04343274235725403,0.0001046275720000267
1772363364986069200,7.6770693359375,0.024284817278385162,0.02863621897995472,-0.006011588033288717
1772363364996138000,7.687137939453125,0.017014386132359505,0.029742496088147163,-0.009708322584629059
1772363365006208300,7.697208251953125,0.015881212428212166,0.03507760912179947,-0.0067625995725393295
1772363365016277000,7.707277099609375,0.009351556189358234,0.03597510606050491,-0.004542012698948383
1772363365026347300,7.71734716796875,0.002654771786183119,0.03355589136481285,0.0020343977957963943
1772363365036416000,7.727416015625,-0.0019930540584027767,0.02513367123901844,-0.0021886052563786507
1772363365046486000,7.737486083984375,-0.009030988439917564,0.012992054224014282,-0.0042261891067028046
1772363365056555300,7.74755517578125,-0.013271907344460487,0.003760065883398056,-0.0009921388700604439
1772363365066625000,7.757625,-0.019218480214476585,-0.009160792455077171,0.01028528343886137
1772363365076694300,7.7676943359375,-0.016473891213536263,-0.010510466992855072,0.018598254770040512
1772363365086764000,7.777763916015625,-0.01290259137749672,-0.002781708026304841,0.0329686738550663
1772363365096833300,7.787833251953125,-0.012997522950172424,0.019003834575414658,0.0466456338763237
1772363365106903000,7.797903076171875,-0.004735597874969244,0.032770514488220215,0.04760143905878067
1772363365116972300,7.80797216796875,0.004618602804839611,0.02082183212041855,0.04125969484448433
1772363365127042000,7.8180419921875,0.014090933836996555,-0.0018733611796051264,0.026800859719514847
1772363365137111300,7.828111328125,0.014140211045742035,-0.008039320819079876,0.02171841636300087
1772363365147181300,7.838181396484375,0.0075478218495845795,-0.003126853611320257,0.02158259227871895
1772363365157250000,7.84825,0.0037492539267987013,0.011336900293827057,0.009019840508699417
1772363365167320300,7.8583203125,0.006882196757942438,0.009001307189464569,-0.007607604842633009
1772363365177389000,7.86838916015625,0.008755088783800602,0.0022324202582240105,-0.01611163467168808
1772363365187459300,7.878459228515625,0.009385725483298302,0.0015149647369980812,-0.02280522510409355
1772363365197528000,7.888528076171875,0.004614857956767082,0.015318031422793865,-0.024682700634002686
1772363365207598300,7.898598388671875,0.014078667387366295,0.012475638650357723,-0.02928118035197258
1772363365217668000,7.908668212890625,0.005638177040964365,-0.0007617687806487083,-0.032287538051605225
1772363365227737000,7.918737060546875,-0.006959639955312014,-0.010633308440446854,-0.030719468370079994
1772363365237807400,7.928807373046875,-0.0108031015843153,-0.02437630295753479,-0.02353777550160885
1772363365247876000,7.9388759765625,-0.020829103887081146,-0.04040000960230827,-0.001673756167292595
1772363365257946400,7.9489462890625,-0.02135184407234192,-0.031295839697122574,0.0166701041162014
1772363365268015000,7.95901513671875,-0.015743229538202286,-0.017759790644049644,0.03175611421465874
1772363365278085000,7.969085205078125,-0.01489048358052969,-0.031070269644260406,0.03789416700601578
1772363365288154000,7.979154052734375,-0.009452841244637966,-0.04100572317838669,0.03158380836248398
1772363365298224000,7.98922412109375,-0.010288541205227375,-0.036902327090501785,0.015920691192150116
1772363365308293000,7.999293212890625,-0.013502976857125759,-0.027402829378843307,0.0025843800976872444
1772363365318363100,8.009363037109376,-0.016345461830496788,-0.020359117537736893,-0.003904039040207863
1772363365328432000,8.01943212890625,-0.01671936921775341,-0.0024823835119605064,-0.00011835526674985886
1772363365338502100,8.029502197265625,-0.012299645692110062,0.006757793016731739,0.004495951347053051
1772363365348571100,8.039571044921875,-0.0028033447451889515,0.004554026760160923,0.005601429380476475
1772363365358641200,8.04964111328125,-0.00216692965477705,-0.0011558912228792906,-0.0002976851537823677
1772363365368710400,8.05971044921875,0.0007614819332957268,-0.00020993640646338463,-0.011458193883299828
1772363365378780200,8.0697802734375,0.005895725451409817,-0.0017524249851703644,-0.02624228410422802
1772363365388849200,8.07984912109375,-0.002264732960611582,-0.0004349593073129654,-0.0267924927175045
1772363365398919200,8.089919189453125,-0.00845465250313282,-0.0003846399486064911,-0.03175840526819229
1772363365408988200,8.09998828125,-0.017645221203565598,-0.014389138668775558,-0.01511284988373518
1772363365419058200,8.11005810546875,-0.0190875343978405,-0.00005394546315073967,0.004184565506875515
1772363365429127200,8.120127197265624,-0.016600407660007477,0.014453358016908169,0.0010034199804067612
1772363365439197200,8.130197265625,-0.007518935017287731,0.005564875900745392,-0.003388773649930954
1772363365449266200,8.14026611328125,-0.005065364763140678,-0.013402956537902355,-0.00823386199772358
1772363365459336200,8.150336181640625,0.003553992137312889,-0.014070454984903336,-0.016782866790890694
1772363365469405200,8.1604052734375,0.008886173367500305,0.007977588102221489,-0.014285620301961899
1772363365479475200,8.17047509765625,0.022486908361315727,0.02055613324046135,-0.004030128940939903
1772363365489544200,8.180544189453125,0.02959887869656086,0.026718685403466225,-0.009093597531318665
1772363365499614200,8.1906142578125,0.03513816371560097,0.011298899538815022,-0.018804440274834633
1772363365509684000,8.20068408203125,0.03792356327176094,-0.008815423585474491,-0.02666475996375084
1772363365519753200,8.210753173828126,0.028979292139410973,-0.015576600097119808,-0.026867367327213287
1772363365529823000,8.220822998046875,0.015636323019862175,0.000023398082703351974,-0.025184251368045807
1772363365539892200,8.230892333984375,0.01669354736804962,0.008685190230607986,-0.0276151355355978
1772363365549962000,8.2409619140625,0.014103890396654606,-0.0000904579646885395,-0.025161564350128174
1772363365560031200,8.25103125,0.018140804022550583,-0.008658296428620815,-0.020689958706498146
1772363365570101200,8.261101318359374,0.025730811059474945,-0.011731318198144436,-0.01705234684050083
1772363365580170200,8.271170166015626,0.029497522860765457,-0.020568205043673515,-0.016423657536506653
1772363365590240300,8.281240234375,0.023643361404538155,-0.025638597086071968,-0.021180596202611923
1772363365600308200,8.29130810546875,0.0145648755133152,-0.032446589320898056,-0.025859246030449867
1772363365610378200,8.301378173828125,0.007166614290326834,-0.019982198253273964,-0.02184426411986351
1772363365620447500,8.311447509765625,-0.0015838262625038624,-0.005576976574957371,-0.0069099487736821175
1772363365630517200,8.321517333984374,-0.004947931971400976,-0.0015076666604727507,0.010214176960289478
1772363365640586500,8.33158642578125,-0.009085637517273426,-0.010984650813043118,0.02561199478805065
1772363365650656300,8.34165625,-0.013645500876009464,-0.02445491962134838,0.026825862005352974
1772363365660725200,8.351725341796875,-0.020029135048389435,-0.03597484529018402,0.03028077259659767
1772363365670795300,8.361795166015625,-0.030425850301980972,-0.03747287392616272,0.023968547582626343
1772363365680864300,8.3718642578125,-0.04276949167251587,-0.02687808871269226,0.027160372585058212
1772363365690934300,8.381934326171875,-0.04988652467727661,-0.008204270154237747,0.018329065293073654
1772363365701003300,8.392003173828124,-0.04910788685083389,0.0012086317874491215,0.010777654126286507
1772363365711073300,8.4020732421875,-0.04543032869696617,-0.00850524753332138,0.0033482350409030914
1772363365721142300,8.412142333984375,-0.043737903237342834,-0.019275855273008347,-0.002704543061554432
1772363365731212300,8.42221240234375,-0.03923982381820679,-0.026979848742485046,-0.007495835889130831
1772363365741281300,8.43228125,-0.041554857045412064,-0.03132891654968262,-0.012933525256812572
1772363365751351300,8.442351318359375,-0.04657518491148949,-0.0299062579870224,-0.01391436718404293
1772363365761420300,8.452420166015624,-0.044850707054138184,-0.016761060804128647,-0.005169397220015526
1772363365771490300,8.462490234375,-0.0380905382335186,-0.007733478676527739,0.0048813726752996445
1772363365781559300,8.472559326171876,-0.03536759689450264,-0.011538364924490452,0.012686998583376408
1772363365791629300,8.48262939453125,-0.03240562975406647,-0.03129848837852478,0.018843691796064377
1772363365801699300,8.49269921875,-0.030376920476555824,-0.032360974699258804,0.032199833542108536
1772363365811768300,8.502768310546875,-0.021904071792960167,-0.0034619495272636414,0.029234401881694794
1772363365821838300,8.51283837890625,-0.018368594348430634,0.018974483013153076,0.020963508635759354
1772363365831907300,8.5229072265625,-0.01755553111433983,0.01303483359515667,0.004287858493626118
1772363365841977300,8.532977294921874,-0.012736059725284576,-0.007654733024537563,-0.011786852031946182
1772363365852046300,8.54304638671875,-0.011864406988024712,-0.013026328757405281,-0.019622670486569405
1772363365862116400,8.553116455078126,-0.01808936521410942,0.015146958641707897,-0.024895690381526947
1772363365872185300,8.563185302734375,-0.016651257872581482,0.03028836101293564,-0.03175679221749306
1772363365882255400,8.57325537109375,-0.01059647649526596,0.027515506371855736,-0.04119960218667984
1772363365892324000,8.583323974609375,-0.008691517636179924,0.01616378128528595,-0.044472627341747284
1772363365902394400,8.593394287109374,0.0005714609287679195,0.01723294146358967,-0.04537311568856239
1772363365912463000,8.603463134765626,0.006651457864791155,0.019129112362861633,-0.040326427668333054
1772363365922533400,8.613533447265626,0.020887767896056175,0.01919514685869217,-0.027406413108110428
1772363365932602400,8.623602294921875,0.0304770115762949,0.018510447815060616,-0.01699718087911606
1772363365942672100,8.633672119140625,0.039599064737558365,0.023134984076023102,-0.008296115323901176
1772363365952741400,8.643741455078125,0.04942373186349869,0.01933944597840309,0.004024732857942581
1772363365962811100,8.65381103515625,0.05345086753368378,0.02031881734728813,0.014441595412790775
1772363365972880400,8.66388037109375,0.05027211830019951,0.025315705686807632,0.0249195359647274
1772363365982950100,8.6739501953125,0.052010633051395416,0.028007421642541885,0.019756395369768143
1772363365993019400,8.684019287109376,0.04407867416739464,0.014362982474267483,0.021316740661859512
1772363366003089200,8.694089111328125,0.03999761864542961,0.00438561849296093,0.021617867052555084
1772363366013158400,8.704158447265625,0.03480258956551552,0.009052274748682976,0.009741502813994884
1772363366023228200,8.714228271484375,0.03599865734577179,-0.008841157890856266,0.002489738166332245
1772363366033298200,8.724298095703125,0.0350566990673542,-0.01364816352725029,-0.0006964681670069695
1772363366043367400,8.734367431640624,0.027557402849197388,-0.008937704376876354,-0.00466919643804431
1772363366053437200,8.744437255859374,0.024598630145192146,-0.006471351254731417,-0.01816822774708271
1772363366063506400,8.75450634765625,0.023018261417746544,-0.010074479505419731,-0.03440201282501221
1772363366073576200,8.764576171875,0.016643185168504715,-0.016043422743678093,-0.043002691119909286
1772363366083645400,8.7746455078125,0.00581690389662981,-0.015626104548573494,-0.048647794872522354
1772363366093715200,8.784715087890625,-0.005732427351176739,-0.01584901288151741,-0.04241812601685524
1772363366103784400,8.794784423828125,-0.011273197829723358,-0.017575791105628014,-0.030925072729587555
1772363366113854200,8.804854248046874,-0.017878370359539986,-0.019924964755773544,-0.015449443832039833
1772363366123923200,8.814923095703126,-0.02217584103345871,-0.02100004069507122,-0.0010289456695318222
1772363366133993500,8.824993408203126,-0.026127172634005547,-0.01858668401837349,0.00879066251218319
1772363366144062200,8.835062255859375,-0.0337536446750164,-0.017787162214517593,0.018048223108053207
1772363366154132500,8.845132568359375,-0.036840248852968216,0.00611896812915802,0.02949795313179493
1772363366164201200,8.855201171875,-0.03179611638188362,0.02395489066839218,0.011507255025207996
1772363366174271200,8.865271240234375,-0.03317323699593544,0.0043636104092001915,0.02286536991596222
1772363366184340200,8.87534033203125,-0.03219356760382652,0.002158049028366804,0.04063902050256729
1772363366194410200,8.88541015625,-0.028641443699598312,0.030416050925850868,0.03252303600311279
1772363366204479200,8.895479248046875,-0.03275937959551811,0.022479496896266937,0.028562135994434357
1772363366214549200,8.90554931640625,-0.03425075113773346,-0.004794999957084656,0.030708912760019302
1772363366224619300,8.915619384765625,-0.02925831638276577,-0.0062591624446213245,0.014715045690536499
1772363366234688300,8.925688232421875,-0.030240757390856743,-0.006944660097360611,-0.0005496600642800331
1772363366244758300,8.93575830078125,-0.027208849787712097,-0.014159037731587887,-0.013903372921049595
1772363366254827300,8.9458271484375,-0.029891718178987503,-0.012117458507418633,-0.013154491782188416
1772363366264897300,8.955897216796876,-0.02496308460831642,-0.002489167032763362,-0.0204448401927948
1772363366274966300,8.96596630859375,-0.015150666236877441,0.0016078399494290352,-0.021090390160679817
1772363366285036300,8.976036376953125,-0.01536176260560751,-0.0070390948094427586,-0.01830030418932438
1772363366295105300,8.986105224609375,-0.014779596589505672,-0.0054494538344442844,-0.02300051786005497
1772363366305175300,8.99617529296875,-0.010161947458982468,0.0012042652815580368,-0.02960117906332016
1772363366315244300,9.006244384765624,-0.008621841669082642,0.012857192195951939,-0.03224276751279831
1772363366325314300,9.016314208984374,-0.00462721474468708,0.027276353910565376,-0.022161325439810753
1772363366335383300,9.02638330078125,0.003177444916218519,0.027319232001900673,-0.01546214334666729
1772363366345453300,9.036453369140625,0.005748035851866007,0.021497759968042374,-0.008886244148015976
1772363366355522300,9.046522216796875,0.011683955788612366,0.007433606311678886,-0.0011505596339702606
1772363366365592300,9.05659228515625,0.012863144278526306,0.009922536090016365,0.0018571456894278526
1772363366375661300,9.066661376953125,0.010131806135177612,0.022492922842502594,0.004485153593122959
1772363366385731300,9.0767314453125,0.010916057974100113,0.030897988006472588,-0.000462154857814312
1772363366395801300,9.08680126953125,0.013938212767243385,0.018905507400631905,-0.014576641842722893
1772363366405870000,9.0968701171875,0.012599420733749866,0.004408285021781921,-0.017109187319874763
1772363366415940400,9.1069404296875,0.008278176188468933,-0.0027103449683636427,-0.02033986896276474
1772363366426009000,9.117009033203125,0.004149938002228737,-0.001977487001568079,-0.022256826981902122
1772363366436079400,9.127079345703125,-0.006210024934262037,-0.007327511440962553,-0.007053905166685581
1772363366446148400,9.1371484375,-0.016651064157485962,-0.003920785151422024,0.0017612045630812645
1772363366456218400,9.14721826171875,-0.012747935950756073,-0.00426140334457159,-0.002577350474894047
1772363366466287400,9.157287353515626,-0.005267035681754351,-0.014678790234029293,-0.006054162047803402
1772363366476357000,9.167357177734376,-0.004983675200492144,-0.017975782975554466,-0.00282401405274868
1772363366486426400,9.17742626953125,-0.013664616271853447,-0.01202508993446827,0.006584310904145241
1772363366496496000,9.18749609375,-0.011480823159217834,-0.004603127017617226,0.011820618063211441
1772363366506565400,9.1975654296875,-0.016561638563871384,-0.008604148402810097,0.016936808824539185
1772363366516635100,9.20763525390625,-0.019595246762037277,-0.004537501838058233,0.021319307386875153
1772363366526704400,9.217704345703124,-0.019032958894968033,-0.019045520573854446,0.02135542221367359
1772363366536774400,9.2277744140625,-0.013376138173043728,-0.03608069568872452,0.016192883253097534
1772363366546843400,9.237843505859376,-0.014186428859829903,-0.028069177642464638,0.01083542313426733
1772363366556913400,9.247913330078125,-0.01856946013867855,-0.016815723851323128,0.0026853512972593307
1772363366566982100,9.257982177734375,-0.02368123270571232,-0.0056138108484447,0.0019662072882056236
1772363366577052400,9.268052490234375,-0.02085375413298607,0.0017418400384485722,-0.003969179466366768
1772363366587122200,9.2781220703125,-0.016996489837765694,-0.0017289849929511547,-0.011751090176403522
1772363366597191400,9.28819140625,-0.01053113304078579,-0.005825192667543888,-0.016504831612110138
1772363366607262500,9.298262451171874,-0.013776928186416626,-0.0139379957690835,-0.019666986539959908
1772363366617331500,9.30833154296875,-0.022872954607009888,-0.015988362953066826,-0.02533312886953354
1772363366627401500,9.3184013671875,-0.017773441970348358,-0.0035148330498486757,-0.03480236977338791
1772363366637470500,9.328470458984375,-0.015537451952695847,-0.0006274338811635971,-0.04528750106692314
1772363366647540200,9.338540283203125,-0.013551503419876099,-0.0019360147416591644,-0.04074247181415558
1772363366657609500,9.348609375,-0.006717566400766373,-0.005802924744784832,-0.0321657620370388
1772363366667679200,9.35867919921875,-0.0015965024940669537,-0.011080467142164707,-0.024680666625499725
1772363366677748500,9.36874853515625,-0.0013094129972159863,-0.01948726736009121,-0.00621963432058692
1772363366687818500,9.378818603515626,-0.004312882199883461,-0.01167786680161953,0.01021360419690609
1772363366697887500,9.388887451171875,0.005030551925301552,0.0033921622671186924,0.021182365715503693
1772363366707957500,9.39895751953125,0.0037190746515989304,0.004032091237604618,0.026431888341903687
1772363366718026500,9.409026611328125,0.0038703421596437693,0.008142413571476936,0.024453427642583847
1772363366728096500,9.419096435546875,0.006391693372279406,0.012112151831388474,0.016097325831651688
1772363366738165500,9.42916552734375,0.007010345812886953,0.004305893089622259,0.006028978154063225
1772363366748235500,9.439235595703124,0.010993801057338715,-0.0029351157136261463,-0.004336400888860226
1772363366758305300,9.44930517578125,0.01024039275944233,-0.006289899814873934,-0.009412918239831924
1772363366768374500,9.45937451171875,0.012820405885577202,-0.0015736338682472706,-0.007180012762546539
1772363366778444500,9.469444580078125,0.01155114360153675,-0.008664300665259361,-0.007570964749902487
1772363366788513500,9.479513427734375,0.012970471754670143,-0.012383701279759407,-0.011718669906258583
1772363366798583600,9.48958349609375,0.015260790474712849,-0.005401158705353737,-0.02300381474196911
1772363366808652300,9.49965234375,0.012469286099076271,-0.010670451447367668,-0.03571813181042671
1772363366818722600,9.50972265625,-0.0007831361144781113,-0.010387890040874481,-0.04190731793642044
1772363366828791300,9.519791259765626,0.0006237258203327656,-0.013610603287816048,-0.0418739952147007
1772363366838861600,9.529861572265625,-0.002722536213696003,-0.021544694900512695,-0.0319068469107151
1772363366848930300,9.539930419921875,-0.006865161936730146,-0.03863057121634483,-0.011773292906582355
1772363366859000300,9.550000244140625,-0.016238423064351082,-0.03312794864177704,0.0028080465272068977
1772363366869069300,9.5600693359375,-0.022571219131350517,-0.028861552476882935,0.0008694473654031754
1772363366879139300,9.570139404296874,-0.027137476950883865,-0.04653029516339302,-0.005104555282741785
1772363366889208300,9.580208251953126,-0.02712826058268547,-0.0668376237154007,-0.0037394408136606216
1772363366899278300,9.5902783203125,-0.03261863440275192,-0.05694665014743805,0.009109779261052608
1772363366909348600,9.6003486328125,-0.03438277915120125,-0.026787931099534035,0.02266225591301918
1772363366919417300,9.610417236328125,-0.028998132795095444,-0.006430195644497871,0.030343078076839447
1772363366929487400,9.6204873046875,-0.018533974885940552,-0.022032605484128,0.025311917066574097
1772363366939556400,9.630556396484375,-0.011684059165418148,-0.04503672569990158,0.019516877830028534
1772363366949626400,9.64062646484375,-0.008132899180054665,-0.05026090517640114,0.01515977457165718
1772363366959695400,9.6506953125,-0.0008198586292564869,-0.046500254422426224,0.016765659675002098
1772363366969765400,9.660765380859376,-0.003517964854836464,-0.035448864102363586,0.007224998436868191
1772363366979834400,9.67083447265625,-0.011350855231285095,-0.031722038984298706,0.011748909018933773
1772363366989904400,9.680904296875,-0.011389223858714104,-0.00956723652780056,0.01467317994683981
1772363366999973400,9.690973388671875,0.0015995437279343605,0.007357417605817318,0.0013184919953346252
1772363367010043400,9.70104345703125,0.005685416050255299,-0.008418481796979904,-0.0055077653378248215
1772363367020112600,9.711112548828124,0.00593175832182169,-0.028335198760032654,-0.020580723881721497
1772363367030182400,9.721182373046876,0.012789938598871231,-0.03637309372425079,-0.03810439258813858
1772363367040251400,9.73125146484375,0.0075051612220704556,-0.03763756528496742,-0.04141736775636673
1772363367050321400,9.7413212890625,0.01950911432504654,-0.00618532532826066,-0.028633246198296547
1772363367060390400,9.751390380859375,0.013966809958219528,0.005164267960935831,-0.016904152929782867
1772363367070460400,9.76146044921875,0.01116226427257061,-0.019547104835510254,-0.00992845930159092
1772363367080530400,9.771530517578125,0.002636420540511608,-0.03534737229347229,0.005905364640057087
1772363367090599400,9.781599365234374,0.0021035000681877136,-0.022952262312173843,0.008054389618337154
1772363367100669400,9.79166943359375,0.0050574783235788345,-0.017868023365736008,0.01049544382840395
1772363367110738400,9.801738525390626,0.004646645858883858,-0.0162253025919199,0.01486531924456358
1772363367120808400,9.811808349609375,0.00836175587028265,-0.010324535891413689,0.008691045455634594
1772363367130877400,9.82187744140625,0.010846665129065514,-0.01171925663948059,-0.005433791782706976
1772363367140947500,9.831947509765625,0.017311489209532738,-0.019217919558286667,-0.006136600393801928
1772363367151016400,9.842016357421874,0.017507389187812805,-0.015743758529424667,-0.0003517037257552147
1772363367161086200,9.852086181640624,0.01722695864737034,0.024720575660467148,0.023129653185606003
1772363367171155500,9.862155517578126,0.03596748039126396,0.07777491956949234,0.070822574198246
1772363367181225200,9.87222509765625,0.032729342579841614,0.1374150812625885,0.088370680809021
1772363367191294500,9.88229443359375,0.017505597323179245,0.1000467985868454,0.033835310488939285
1772363367201364500,9.892364501953125,0.017161782830953598,-0.013819314539432526,0.011468218639492989
1772363367211433500,9.90243359375,0.02069319225847721,-0.0445362888276577,0.007088537327945232
1772363367221503500,9.91250341796875,0.03982294350862503,-0.060758668929338455,-0.013250023126602173
1772363367231572500,9.922572509765626,0.008429810404777527,-0.14930576086044312,0.012102849781513214
1772363367241642500,9.932642578125,-0.007548622786998749,-0.14311178028583527,0.01640971377491951
1772363367251712300,9.942712158203125,-0.01040373370051384,-0.09681408107280731,0.015755459666252136
1772363367261781500,9.952781494140625,-0.016931140795350075,-0.12029730528593063,-0.005817477125674486
1772363367271851300,9.962851318359375,-0.01547466591000557,-0.2066357135772705,-0.01846848800778389
1772363367281920500,9.97292041015625,-0.02684156969189644,-0.266147255897522,-0.02064668759703636
1772363367291990500,9.982990478515624,-0.051241207867860794,-0.23302102088928223,-0.004221521317958832
1772363367302059500,9.9930595703125,-0.06962713599205017,-0.13455995917320251,0.009125709533691406
1772363367312129500,10.003129638671876,-0.09555996209383011,-0.04987712576985359,-0.005466626491397619
1772363367322198300,10.0131982421875,-0.11578800529241562,-0.0430477149784565,-0.04179241135716438
1772363367332268500,10.0232685546875,-0.10773282498121262,-0.0796642079949379,-0.07378563284873962
1772363367342337300,10.033337158203125,-0.10342622548341751,-0.07799866795539856,-0.08260096609592438
1772363367352407600,10.043407470703125,-0.07248623669147491,-0.02312266081571579,-0.09378407895565033
1772363367362476300,10.053476318359374,-0.03469332680106163,0.021446671336889267,-0.11074654757976532
1772363367372546600,10.063546630859374,-0.012621873989701271,0.02261303924024105,-0.1050887405872345
1772363367382615300,10.073615234375,-0.008878268301486969,-0.012356662191450596,-0.07984090596437454
1772363367392685300,10.083685302734375,-0.009165456518530846,-0.02785347029566765,-0.03336484357714653
1772363367402755600,10.093755615234375,0.0016062306240200996,0.020972125232219696,0.009172763675451279
1772363367412824300,10.10382421875,0.006343814078718424,0.09145323932170868,0.037275467067956924
1772363367422894600,10.11389453125,0.013570034876465797,0.11704834550619125,0.05807448923587799
1772363367432963300,10.12396337890625,0.017919106408953667,0.08797073364257812,0.07451692223548889
1772363367443033300,10.134033447265624,0.027854295447468758,0.05467136949300766,0.08356927335262299
1772363367453102300,10.144102294921876,0.03678365796804428,0.04583673179149628,0.08624757826328278
1772363367463172400,10.15417236328125,0.031628046184778214,0.04813530296087265,0.08678393065929413
1772363367473241300,10.164241455078125,0.030185842886567116,0.05953162536025047,0.07007090747356415
1772363367483311400,10.174311279296875,0.031262826174497604,0.05522476136684418,0.05590369552373886
1772363367493380400,10.18438037109375,0.022795844823122025,0.04830753058195114,0.059121787548065186
1772363367503450400,10.194450439453124,0.022756429389119148,0.06816805154085159,0.043598487973213196
1772363367513519600,10.20451953125,0.025749484077095985,0.06386353820562363,0.022920090705156326
1772363367523589400,10.21458935546875,0.019183460623025894,0.033110953867435455,0.0036238916218280792
1772363367533658600,10.22465869140625,0.004268088843673468,0.013029877096414566,-0.014180685393512249
1772363367543728400,10.234728271484375,0.0032038898207247257,0.023116333410143852,-0.035187169909477234
1772363367553798400,10.24479833984375,0.0044957674108445644,0.027905192226171494,-0.04785837233066559
1772363367563867400,10.254867431640625,0.002503989264369011,0.018525008112192154,-0.04694730415940285
1772363367573937400,10.2649375,0.009175027720630169,0.009484928101301193,-0.038656383752822876
1772363367584006400,10.27500634765625,0.006110794842243195,0.011839961633086205,-0.02226036600768566
1772363367594076400,10.285076416015626,-0.004474241752177477,0.015670761466026306,-0.012646893970668316
1772363367604145000,10.295144775390625,-0.004686229396611452,0.013128242455422878,-0.019164182245731354
1772363367614214700,10.305214599609375,-0.010414155200123787,-0.013265280984342098,-0.00864469539374113
1772363367624284000,10.315283935546875,-0.015353253111243248,-0.027055393904447556,-0.016893036663532257
1772363367634353700,10.325353759765624,-0.013198988512158394,-0.04807690158486366,-0.03741801530122757
1772363367644422700,10.335422607421876,-0.0008344626985490322,-0.07192737609148026,-0.024825256317853928
1772363367654492700,10.34549267578125,0.005065849982202053,-0.0678052231669426,0.008308937773108482
1772363367664561700,10.355561767578125,-0.020290639251470566,-0.03602093458175659,0.05083908885717392
1772363367674631700,10.365631591796875,-0.036924879997968674,0.023921998217701912,0.05946657061576843
1772363367684700700,10.37570068359375,-0.0322723388671875,0.04707472026348114,0.04000791534781456
1772363367694770700,10.385770751953125,-0.02996624819934368,0.009805839508771896,0.02425733581185341
1772363367704840700,10.3958408203125,-0.02972097136080265,-0.02580408751964569,0.010533267632126808
1772363367714909700,10.40590966796875,-0.02152453176677227,-0.04090464487671852,0.0015116194263100624
1772363367724979700,10.415979736328126,-0.019876301288604736,-0.02789643593132496,0.0001462167128920555
1772363367735048700,10.426048583984375,-0.017127977684140205,-0.012389840558171272,-0.0021727513521909714
1772363367745118700,10.43611865234375,-0.011305773630738258,-0.010190336033701897,-0.00812464952468872
1772363367755187700,10.446187744140625,-0.009744924493134022,-0.008478818461298943,0.003360687755048275
1772363367765257500,10.456257568359375,-0.010389941744506359,0.0034039397723972797,0.010932319797575474
1772363367775326700,10.46632666015625,-0.004379008896648884,0.01526603102684021,0.01387151051312685
1772363367785396700,10.476396728515626,-0.008412632159888744,-0.016123317182064056,0.015244103036820889
1772363367795465700,10.4864658203125,-0.011355171911418438,-0.05888114869594574,0.011595622636377811
1772363367805535700,10.49653564453125,-0.02013055607676506,-0.07912223786115646,-0.002624858170747757
1772363367815604700,10.506604736328125,0.004887835122644901,-0.0808405950665474,0.16294223070144653
1772363367825674800,10.5166748046875,0.015334883704781532,0.08128546178340912,0.18624809384346008
1772363367835743700,10.52674365234375,-0.0014579449780285358,0.11221754550933838,0.10619240999221802
1772363367845813800,10.536813720703124,0.0256746057420969,0.03674036264419556,0.07622119784355164
1772363367855883500,10.546883544921876,0.04520181193947792,-0.04031134769320488,0.037577416747808456
1772363367865952800,10.556952880859376,0.0462644100189209,-0.14860452711582184,-0.0017422940582036972
1772363367876022800,10.567022705078125,0.06356093287467957,-0.21473553776741028,-0.0435795933008194
1772363367886091800,10.577091796875,0.05522470921278,-0.24909617006778717,-0.0717766061425209
1772363367896161800,10.587161865234375,0.011425205506384373,-0.26726698875427246,-0.09617132693529129
1772363367906230800,10.597230712890624,-0.022281093522906303,-0.25348353385925293,-0.12498167157173157
1772363367916300800,10.60730078125,-0.04976243898272514,-0.2082323282957077,-0.1399438977241516
1772363367926369800,10.617369873046876,-0.08852101862430573,-0.15016236901283264,-0.1288885921239853
1772363367936439800,10.627439697265626,-0.11815090477466583,-0.08691219240427017,-0.11914927512407303
1772363367946508500,10.637508544921875,-0.13897496461868286,-0.03661040961742401,-0.10211463272571564
1772363367956578800,10.647578857421875,-0.14461927115917206,0.0011635422706604004,-0.06616854667663574
1772363367966647600,10.6576474609375,-0.16129358112812042,0.059003137052059174,-0.030451029539108276
1772363367976717800,10.6677177734375,-0.19992229342460632,0.1306368112564087,-0.0492371991276741
1772363367986786600,10.67778662109375,-0.20867396891117096,0.11200082302093506,-0.09181581437587738
