time,seconds_elapsed,z,y,x
1772363372815249700,0.115249755859375,-0.04330477863550186,0.15988652408123016,0.008180755190551281
1772363372825319400,0.1253193359375,-0.03489025682210922,0.12925031781196594,0.029187500476837158
1772363372835388700,0.135388671875,-0.03195972368121147,0.10708130896091461,0.05231019854545593
1772363372845458400,0.14545849609375,-0.006969416048377752,0.07206899672746658,0.06494476646184921
1772363372855527700,0.155527587890625,0.0014215009286999702,0.042698007076978683,0.07253458350896835
1772363372865597400,0.165597412109375,-0.006224700715392828,0.021118413656949997,0.08695373684167862
1772363372875666700,0.175666748046875,-0.014765307307243347,0.009584006853401661,0.10711498558521271
1772363372885736400,0.185736328125,-0.014411106705665588,0.019095487892627716,0.10646916925907135
1772363372895805700,0.1958056640625,-0.01585257612168789,0.053126830607652664,0.10161138325929642
1772363372905875700,0.205875732421875,-0.037058793008327484,0.07536608725786209,0.11139743775129318
1772363372915944700,0.21594482421875,-0.03757370635867119,0.0996539443731308,0.10889169573783875
1772363372926014700,0.2260146484375,-0.014752810820937157,0.06900975108146667,0.09058699011802673
1772363372936083500,0.23608349609375,-0.005024292506277561,-0.005648039747029543,0.07885397225618362
1772363372946153700,0.24615380859375,-0.013462251983582973,-0.06066335737705231,0.07841614633798599
1772363372956223500,0.256223388671875,-0.02932611107826233,-0.04708316922187805,0.08171142637729645
1772363372966292700,0.266292724609375,-0.03569559380412102,-0.0028035889845341444,0.07935027033090591
1772363372976362500,0.276362548828125,-0.044973213225603104,0.02274826355278492,0.07825145870447159
1772363372986431500,0.286431396484375,-0.055512670427560806,0.03235588222742081,0.08702098578214645
1772363372996501800,0.296501708984375,-0.05708390846848488,0.02757028117775917,0.09493304044008255
1772363373006570500,0.306570556640625,-0.04831971228122711,-0.003012661589309573,0.08234082162380219
1772363373016640800,0.316640869140625,-0.04114349186420441,-0.05917288362979889,0.0646577775478363
1772363373026709500,0.32670947265625,-0.04411052167415619,-0.09692691266536713,0.055116474628448486
1772363373036779500,0.336779541015625,-0.05303946137428284,-0.07754583656787872,0.04299565404653549
1772363373046848500,0.3468486328125,-0.05855220556259155,-0.049332305788993835,0.029816200956702232
1772363373056918500,0.35691845703125,-0.07395995408296585,-0.008329633623361588,0.03698914870619774
1772363373066987500,0.366987548828125,-0.07649794965982437,0.04371572285890579,0.03260957822203636
1772363373077057500,0.3770576171875,-0.04859178140759468,0.04412442073225975,-0.007559752091765404
1772363373087126500,0.38712646484375,-0.0312599278986454,-0.00556350639089942,-0.04154674708843231
1772363373097196500,0.397196533203125,-0.02511245757341385,-0.04250971972942352,-0.05322827771306038
1772363373107265500,0.407265625,-0.023047443479299545,-0.014265833422541618,-0.03836464136838913
1772363373117335600,0.41733544921875,-0.03436332195997238,0.05370263382792473,-0.007288506720215082
1772363373127404800,0.42740478515625,-0.03160135820508003,0.09642186760902405,0.009733886457979679
1772363373137474600,0.437474609375,-0.016914237290620804,0.08098931610584259,0.012552994303405285
1772363373147543600,0.44754345703125,-0.010914933867752552,0.024695945903658867,0.005466056056320667
1772363373157613600,0.457613525390625,-0.010127275250852108,-0.03832729905843735,0.01722380705177784
1772363373167683600,0.46768359375,-0.027591221034526825,-0.05446738377213478,0.0393885001540184
1772363373177752600,0.477752685546875,-0.030660362914204597,-0.031652338802814484,0.046727683395147324
1772363373187821600,0.487821533203125,-0.02935328520834446,-0.026462901383638382,0.047881096601486206
1772363373197891600,0.4978916015625,-0.03382600098848343,-0.01775251515209675,0.06398025900125504
1772363373207961600,0.507961669921875,-0.04178033024072647,0.026753433048725128,0.07356870174407959
1772363373218030600,0.518030517578125,-0.035376813262701035,0.05842781066894531,0.06596335768699646
1772363373228100600,0.5281005859375,-0.021247679367661476,0.052186425775289536,0.0523250475525856
1772363373238169600,0.538169677734375,-0.003854034934192896,0.0032607526518404484,0.033818136900663376
1772363373248239600,0.548239501953125,0.016130859032273293,-0.04183535277843475,0.008076821453869343
1772363373258308600,0.55830859375,0.02125881239771843,-0.04823077842593193,-0.010295785032212734
1772363373268378600,0.568378662109375,0.006654568947851658,-0.03605454042553902,-0.0020828628912568092
1772363373278447600,0.578447509765625,-0.008258422836661339,0.009731166996061802,0.006932591088116169
1772363373288517400,0.588517333984375,-0.017595199868083,0.03230944648385048,0.003063550218939781
1772363373298586600,0.598586669921875,-0.019009588286280632,0.010192805901169777,0.008643535897135735
1772363373308656600,0.60865673828125,-0.02163626253604889,-0.014153280295431614,0.013098206371068954
1772363373318725600,0.6187255859375,-0.011431332677602768,-0.028850620612502098,0.013296336866915226
1772363373328795600,0.628795654296875,-0.009488558396697044,-0.022231867536902428,0.011188178323209286
1772363373338864600,0.63886474609375,-0.01541641540825367,-0.023788176476955414,0.020585689693689346
1772363373348934700,0.6489345703125,-0.03143372759222984,0.0018386244773864746,0.04323960095643997
1772363373359003600,0.659003662109375,-0.03936166688799858,0.04489963874220848,0.05563882738351822
1772363373369073700,0.66907373046875,-0.036799438297748566,0.04627915471792221,0.049115680158138275
1772363373379142400,0.679142333984375,-0.03919937089085579,0.012824459001421928,0.04421202093362808
1772363373389212700,0.689212646484375,-0.037974052131175995,-0.0315009281039238,0.038573309779167175
1772363373399282700,0.69928271484375,-0.027989152818918228,-0.07014613598585129,0.02784806862473488
1772363373409351700,0.7093515625,-0.02975057065486908,-0.08483453840017319,0.013136765919625759
1772363373419421700,0.719421630859375,-0.037206683307886124,-0.07867364585399628,0.004818581975996494
1772363373429490700,0.72949072265625,-0.03326946496963501,-0.056337445974349976,-0.004094219766557217
1772363373439560700,0.739560791015625,-0.0349695160984993,-0.02007271721959114,-0.004785019904375076
1772363373449629400,0.74962939453125,-0.043440766632556915,0.01755162514746189,-0.007555773016065359
1772363373459699700,0.75969970703125,-0.04851994663476944,0.02928551286458969,-0.008125955238938332
1772363373469768400,0.7697685546875,-0.0529346689581871,0.012937432155013084,-0.015434468165040016
1772363373479838700,0.779838623046875,-0.057605963200330734,-0.029957234859466553,-0.009465016424655914
1772363373489907500,0.789907470703125,-0.05960040166974068,-0.05408015102148056,-0.0031179049983620644
1772363373499977500,0.7999775390625,-0.0617200993001461,-0.05364501476287842,0.005569100379943848
1772363373510046500,0.81004638671875,-0.06501603126525879,-0.04946332052350044,0.02803286351263523
1772363373520116500,0.820116455078125,-0.06551724672317505,-0.028691574931144714,0.04832761734724045
1772363373530185700,0.830185791015625,-0.06653270870447159,-0.010905121453106403,0.06857828795909882
1772363373540255500,0.84025537109375,-0.052809592336416245,0.005837094504386187,0.08753116428852081
1772363373550324700,0.85032470703125,-0.03502899780869484,0.004330810625106096,0.09441011399030685
1772363373560394500,0.86039453125,-0.019611038267612457,-0.029596881940960884,0.08980760723352432
1772363373570463700,0.870463623046875,-0.013039689511060715,-0.057995233684778214,0.08331108838319778
1772363373580533500,0.880533447265625,-0.009527135640382767,-0.06877844035625458,0.07872648537158966
1772363373590602800,0.890602783203125,-0.005976610351353884,-0.06211015582084656,0.05940978229045868
1772363373600672500,0.900672607421875,-0.006503944285213947,-0.0635712593793869,0.047574613243341446
1772363373610741800,0.91074169921875,-0.006774521432816982,-0.05097664147615433,0.026806481182575226
1772363373620811000,0.92081103515625,-0.0034835892729461193,-0.02659142017364502,0.019842401146888733
1772363373630881000,0.930881103515625,-0.000845461618155241,0.0037896563299000263,0.012367974035441875
1772363373640950000,0.940949951171875,0.011398046277463436,0.02179029770195484,0.004803243093192577
1772363373651020000,0.95102001953125,0.02029460296034813,0.019395848736166954,0.0014223596081137657
1772363373661089000,0.961089111328125,0.017183605581521988,-0.0016924606170505285,0.004095663316547871
1772363373671159000,0.971158935546875,0.017177481204271317,-0.021992672234773636,0.00853994581848383
1772363373681228000,0.98122802734375,0.012408357113599777,-0.03438623994588852,0.008525381796061993
1772363373691298000,0.991298095703125,0.009157436899840832,-0.04919075220823288,0.011888689361512661
1772363373701366800,1.00136669921875,0.00976506806910038,-0.04664330929517746,0.003105226904153824
1772363373711437000,1.01143701171875,0.008270502090454102,-0.051433004438877106,-0.015473783947527409
1772363373721505800,1.021505859375,0.0016598948277533054,-0.06728726625442505,-0.01150756236165762
1772363373731576000,1.031576171875,-0.0030485736206173897,-0.05405694991350174,-0.004516231827437878
1772363373741644800,1.041644775390625,-0.002733154222369194,-0.02043600007891655,-0.010866181924939156
1772363373751715000,1.051715087890625,0.00031004007905721664,-0.013305386528372765,-0.021863706409931183
1772363373761784000,1.0617841796875,0.0005944445729255676,-0.033385660499334335,-0.026931844651699066
1772363373771853800,1.071853759765625,-0.0026317089796066284,-0.037419285625219345,-0.009953927248716354
1772363373781923000,1.081923095703125,0.00699136545881629,-0.022893548011779785,-0.015026520006358624
1772363373791992800,1.091992919921875,0.009370899759232998,-0.016863351687788963,-0.007627992425113916
1772363373802063000,1.10206298828125,0.01079840399324894,-0.02354641817510128,0.009515530429780483
1772363373812131800,1.1121318359375,0.00929797813296318,-0.005310689099133015,0.016132153570652008
1772363373822201900,1.122201904296875,0.008518680930137634,0.009741036221385002,0.02105804905295372
1772363373832270800,1.132270751953125,0.002974245697259903,0.017283374443650246,0.028481610119342804
1772363373842340900,1.1423408203125,0.005441059358417988,0.02086981013417244,0.025074347853660583
1772363373852410000,1.15241015625,0.01357461977750063,0.009953513741493225,0.01898955926299095
1772363373862480000,1.16247998046875,0.016405854374170303,-0.003992297686636448,0.01579597219824791
1772363373872549000,1.172549072265625,0.01088032778352499,-0.00767624843865633,0.014719522558152676
1772363373882619000,1.182618896484375,0.010381806641817093,0.007924988865852356,0.024396177381277084
1772363373892688100,1.192688232421875,0.006425947416573763,0.035712677985429764,0.01266628410667181
1772363373902758000,1.2027578125,0.0038648273330181837,0.043076127767562866,-0.005087121855467558
1772363373912827100,1.2128271484375,0.003122604452073574,0.026814602315425873,-0.020185114815831184
1772363373922897000,1.22289697265625,0.0020391810685396194,0.01695970445871353,-0.033073436468839645
1772363373932966000,1.2329658203125,-0.001762480940669775,0.01629231683909893,-0.05644693970680237
1772363373943036000,1.243035888671875,0.0013468810357153416,0.0002349652349948883,-0.06867273896932602
1772363373953105000,1.25310498046875,-0.005137649364769459,-0.02184716798365116,-0.06468439102172852
1772363373963175200,1.263175048828125,-0.009413283318281174,-0.014933150261640549,-0.035448551177978516
1772363373973245000,1.273244873046875,-0.011576035991311073,0.01399916596710682,0.002108144573867321
1772363373983314000,1.28331396484375,-0.010264458134770393,0.042857471853494644,0.02280012145638466
1772363373993384000,1.293384033203125,-0.0006863982416689396,0.037812113761901855,0.0417487807571888
1772363374003453000,1.303452880859375,0.0014068461023271084,0.02738131210207939,0.054431550204753876
1772363374013523000,1.31352294921875,0.005958987399935722,0.02700101211667061,0.05326561629772186
1772363374023592000,1.323592041015625,0.012937001883983612,0.033167559653520584,0.05019046366214752
1772363374033662000,1.333661865234375,0.01611814834177494,0.036597978323698044,0.056469134986400604
1772363374043731000,1.34373095703125,0.01967468298971653,0.04810897260904312,0.056544285267591476
1772363374053801000,1.353801025390625,0.023496586829423904,0.057265184819698334,0.04825572669506073
1772363374063870000,1.363869873046875,0.027512041851878166,0.04784459248185158,0.04372980445623398
1772363374073940000,1.37393994140625,0.021544698625802994,0.03830328583717346,0.0492531955242157
1772363374084009000,1.384009033203125,0.015666935592889786,0.03935803472995758,0.04901067167520523
1772363374094079000,1.394078857421875,0.012071402743458748,0.03943526744842529,0.040615856647491455
1772363374104148000,1.40414794921875,0.004058878868818283,0.026195600628852844,0.03865060955286026
1772363374114218000,1.414218017578125,-0.0008091130293905735,0.024887189269065857,0.022003725171089172
1772363374124287000,1.424286865234375,-0.0028192237950861454,0.02802860178053379,0.0053525157272815704
1772363374134357000,1.43435693359375,0.007974567823112011,0.0452166385948658,-0.01011352613568306
1772363374144427000,1.444427001953125,0.006632436066865921,0.046462345868349075,-0.02367212250828743
1772363374154496000,1.45449609375,0.00345155643299222,0.03257821872830391,-0.03155241534113884
1772363374164566000,1.46456591796875,0.004526558332145214,0.01154564879834652,-0.035192910581827164
1772363374174635000,1.474635009765625,-0.000982722733169794,0.011033790186047554,-0.02807694301009178
1772363374184705000,1.484705078125,-0.0041537052020430565,0.024489622563123703,-0.015510879456996918
1772363374194774000,1.49477392578125,-0.01049788761883974,0.021851761266589165,0.0041128890588879585
1772363374204844000,1.504843994140625,-0.008545862510800362,0.016371197998523712,0.022790689021348953
1772363374214912800,1.514912841796875,-0.013849547132849693,0.02567867934703827,0.03545268625020981
1772363374224983000,1.524983154296875,-0.014725131914019585,0.025320205837488174,0.037506867200136185
1772363374235051800,1.5350517578125,-0.012685948982834816,0.02089403197169304,0.0341171957552433
1772363374245122000,1.5451220703125,-0.010439491830766201,0.019871745258569717,0.03024330735206604
1772363374255190800,1.555190673828125,-0.0070112040266394615,0.021195337176322937,0.02495346963405609
1772363374265261000,1.565260986328125,-0.0014442047104239464,0.017239166423678398,0.015593777410686016
1772363374275330000,1.575330078125,0.00786141213029623,0.012605799362063408,0.009728430770337582
1772363374285399800,1.58539990234375,0.011016488075256348,0.01520354300737381,0.006231244653463364
1772363374295469000,1.595468994140625,0.007341325748711824,0.014731630682945251,0.012480618432164192
1772363374305538800,1.605538818359375,0.005748331546783447,0.024696581065654755,0.019541744142770767
1772363374315609000,1.615609130859375,0.006084422115236521,0.03589996322989464,0.03056962788105011
1772363374325677800,1.625677734375,0.007870611734688282,0.03916772082448006,0.0378706157207489
1772363374335747800,1.635747802734375,0.008617362007498741,0.024673467501997948,0.04333542287349701
1772363374345816800,1.64581689453125,0.011307363398373127,0.014129288494586945,0.04592173174023628
1772363374355886800,1.655886962890625,0.00960853323340416,0.02397286519408226,0.04771643504500389
1772363374365956000,1.6659560546875,0.010376408696174622,0.02481897361576557,0.04184199869632721
1772363374376025900,1.67602587890625,0.007627760525792837,0.021901480853557587,0.03041863441467285
1772363374386095000,1.68609521484375,0.002341881860047579,0.016922812908887863,0.021217137575149536
1772363374396164900,1.696164794921875,-0.000007292255759239197,0.014566713012754917,0.006422747857868671
1772363374406234000,1.706234130859375,0.0013191993348300457,0.01524971704930067,-0.008767466992139816
1772363374416303900,1.716303955078125,0.003950135782361031,0.013699491508305073,-0.024814609438180923
1772363374426373000,1.726373046875,0.001961235888302326,0.027924230322241783,-0.031179968267679214
1772363374436443000,1.73644287109375,0.009964567609131336,0.04254098981618881,-0.03765757381916046
1772363374446511900,1.746511962890625,0.007875368930399418,0.04763961210846901,-0.0295473150908947
1772363374456582100,1.75658203125,0.010629343800246716,0.05070038512349129,-0.01716175116598606
1772363374466651000,1.76665087890625,0.010289661586284637,0.04373225197196007,-0.005741484928876162
1772363374476721200,1.77672119140625,0.014313165098428726,0.02029057964682579,0.006632094271481037
1772363374486790000,1.786789794921875,0.01136438362300396,0.006343367509543896,0.019596192985773087
1772363374496860000,1.79685986328125,0.009828538633883,0.00997938122600317,0.03313756734132767
1772363374506929000,1.806928955078125,0.014582475647330284,0.03053494542837143,0.03613041341304779
1772363374516999000,1.8169990234375,0.019704531878232956,0.03446337580680847,0.03404010087251663
1772363374527069000,1.82706884765625,0.026740258559584618,0.02095172554254532,0.02580379880964756
1772363374537138000,1.837137939453125,0.014952842146158218,0.015937790274620056,0.017036937177181244
1772363374547208200,1.847208251953125,0.011988651007413864,0.014128888957202435,0.012703812681138515
1772363374557277000,1.85727685546875,0.010861334390938282,0.020656298846006393,0.006379871629178524
1772363374567347000,1.867346923828125,0.014602361246943474,0.02352614514529705,0.002868189476430416
1772363374577416000,1.877416015625,0.012319765985012054,0.023211093619465828,-0.005291469395160675
1772363374587486000,1.88748583984375,0.01014411635696888,0.008275697007775307,-0.01562217716127634
1772363374597555000,1.897554931640625,0.008719325065612793,-0.0016293975058943033,-0.02870681881904602
1772363374607626500,1.90762646484375,0.006174320820719004,-0.005754525773227215,-0.02286824956536293
1772363374617695200,1.9176953125,-0.0009778644889593124,0.00025862548500299454,-0.005055696703493595
1772363374627765500,1.927765625,0.0017165844328701496,0.003930031321942806,0.005487925373017788
1772363374637834200,1.937834228515625,0.004337667487561703,-0.007945802994072437,0.015100871212780476
1772363374647904500,1.947904541015625,0.0013151895254850388,-0.024456266313791275,0.025471335276961327
1772363374657973200,1.95797314453125,0.0035375976003706455,-0.020304396748542786,0.037621475756168365
1772363374668043300,1.968043212890625,-0.003512423951178789,-0.0019905115477740765,0.046968013048172
1772363374678112300,1.9781123046875,-0.014564542099833488,0.0009624012745916843,0.050867415964603424
1772363374688182300,1.988182373046875,-0.012438742443919182,-0.004192161373794079,0.04177999123930931
1772363374698252500,1.99825244140625,-0.00752387847751379,-0.0003585410304367542,0.03612450510263443
1772363374708321300,2.0083212890625,-0.002211058046668768,-0.003734795842319727,0.04349980875849724
1772363374718391300,2.018391357421875,-0.0021314299665391445,-0.0037499757017940283,0.048598963767290115
1772363374728460300,2.028460205078125,-0.0019667823798954487,-0.012273437343537807,0.050652876496315
1772363374738530300,2.0385302734375,0.0016950643621385098,-0.00858522579073906,0.04276139661669731
1772363374748599300,2.048599365234375,0.005531736183911562,-0.004882985260337591,0.03178701177239418
1772363374758669300,2.05866943359375,-0.005126500502228737,-0.0118133295327425,0.025321390479803085
1772363374768738300,2.06873828125,-0.008033276535570621,-0.007718467153608799,0.018311502411961555
1772363374778808300,2.078808349609375,-0.007692658342421055,0.0035198060795664787,0.003703264519572258
1772363374788877600,2.088877685546875,-0.013113882392644882,0.005894729867577553,-0.007155932951718569
1772363374798947300,2.098947265625,-0.011509060859680176,0.00162062281742692,-0.022330624982714653
1772363374809016600,2.1090166015625,-0.012293059378862381,-0.003347881603986025,-0.03265808895230293
1772363374819086300,2.11908642578125,-0.009275432676076889,-0.0008543636649847031,-0.04532568156719208
1772363374829155300,2.1291552734375,-0.010537137277424335,0.00184169365093112,-0.05063380300998688
1772363374839225300,2.139225341796875,-0.0048371730372309685,-0.0036542718298733234,-0.04620496928691864
1772363374849294300,2.14929443359375,-0.0028380826115608215,-0.0008359337225556374,-0.033370956778526306
1772363374859364400,2.1593642578125,-0.005667957477271557,0.007484846282750368,-0.01161745935678482
1772363374869433300,2.169433349609375,-0.00467238062992692,0.0027650846168398857,0.008235751651227474
1772363374879503600,2.179503662109375,-0.006857238244265318,0.004587219096720219,0.027454186230897903
1772363374889572400,2.189572265625,-0.008362478576600552,0.015270985662937164,0.0321422703564167
1772363374899642400,2.199642333984375,-0.006781092844903469,0.017987675964832306,0.022288307547569275
1772363374909712400,2.20971240234375,-0.003262293990701437,0.008535429835319519,0.018588636070489883
1772363374919781400,2.219781494140625,0.00043204333633184433,0.008673647418618202,0.010551216080784798
1772363374929851400,2.229851318359375,0.0019518295302987099,0.017507515847682953,0.004854237660765648
1772363374939920400,2.23992041015625,0.0047484152019023895,0.023414939641952515,0.01016458123922348
1772363374949990400,2.249990478515625,0.005846875719726086,0.02168593369424343,0.019483085721731186
1772363374960059400,2.260059326171875,0.0053826868534088135,0.01651567406952381,0.024713266640901566
1772363374970129400,2.27012939453125,0.0036479965783655643,0.011815009638667107,0.027566740289330482
1772363374980198400,2.280198486328125,-0.001744904089719057,0.004617017228156328,0.0378289669752121
1772363374990268400,2.290268310546875,-0.0016099689528346062,-0.0003218371421098709,0.03145046532154083
1772363375000337400,2.30033740234375,-0.0016887979581952095,-0.0022076216991990805,0.03517968952655792
1772363375010407400,2.310407470703125,-0.0043030078522861,0.001531184185296297,0.030416226014494896
1772363375020476400,2.320476318359375,-0.0037053939886391163,0.0051253861747682095,0.01683010905981064
1772363375030546400,2.33054638671875,-0.0008274596184492111,-0.011096143163740635,0.004254542291164398
1772363375040615400,2.340615478515625,-0.0073708463460206985,-0.02090642973780632,-0.0005119834095239639
1772363375050685400,2.350685546875,-0.009917575865983963,-0.013404970988631248,-0.005008240696042776
1772363375060755500,2.36075537109375,-0.008266950026154518,0.00760071212425828,-0.011131380684673786
1772363375070824400,2.370824462890625,-0.005214996170252562,0.016648970544338226,-0.02196013554930687
1772363375080894500,2.38089453125,-0.002146501559764147,0.016720611602067947,-0.03026200830936432
1772363375090963500,2.39096337890625,-0.0012933542020618916,0.015235661529004574,-0.03422202914953232
1772363375101033500,2.401033447265625,-0.0007524662651121616,0.02047036960721016,-0.03253891319036484
1772363375111102500,2.4111025390625,-0.0014111818745732307,0.026172207668423653,-0.02171151712536812
1772363375121172500,2.42117236328125,0.001084200106561184,0.021078912541270256,-0.012055960483849049
1772363375131241200,2.4312412109375,0.003498306032270193,0.00969269871711731,-0.0014253780245780945
1772363375141311500,2.4413115234375,0.0028226622380316257,-0.001341310329735279,0.0025334106758236885
1772363375151380200,2.451380126953125,0.0034105866216123104,-0.005561495199799538,0.011042119935154915
1772363375161450500,2.461450439453125,0.012710877694189548,0.0034386571496725082,0.02029074728488922
1772363375171519200,2.471519287109375,0.02043675072491169,0.018531804904341698,0.025815675035119057
1772363375181589200,2.48158935546875,0.022097764536738396,0.02713727578520775,0.029416004195809364
1772363375191658200,2.491658203125,0.017926950007677078,0.029024899005889893,0.023257523775100708
1772363375201728300,2.501728271484375,0.016239305958151817,0.027126066386699677,0.01618017442524433
1772363375211797500,2.511797607421875,0.011703506112098694,0.021213266998529434,0.009669085033237934
1772363375221867300,2.5218671875,0.009109586477279663,0.022246308624744415,0.004496426321566105
1772363375231937500,2.5319375,0.00582358380779624,0.022766200825572014,-0.0025191232562065125
1772363375242006300,2.54200634765625,0.006521598435938358,0.010376377031207085,-0.019791852682828903
1772363375252076300,2.552076171875,0.00442431541159749,-0.003493846859782934,-0.032574430108070374
1772363375262145300,2.562145263671875,-0.0008905553258955479,-0.006809482350945473,-0.0441136434674263
1772363375272215300,2.57221533203125,-0.0019301311112940311,-0.0023611499927937984,-0.042749956250190735
1772363375282284300,2.5822841796875,0.0002930760383605957,-0.005236565135419369,-0.04189002513885498
1772363375292354300,2.592354248046875,0.00004743924364447594,-0.012295231223106384,-0.03193306550383568
1772363375302423600,2.602423583984375,-0.003791507799178362,-0.011523980647325516,-0.02002261020243168
1772363375312493300,2.612493408203125,-0.00470433896407485,-0.0038203801959753036,-0.004292024299502373
1772363375322562600,2.6225625,-0.009092960506677628,0.0024987682700157166,0.006913491524755955
1772363375332632300,2.63263232421875,-0.007158973719924688,0.0032503120601177216,0.012387885712087154
1772363375342701300,2.642701416015625,-0.0031293448992073536,0.0011730468831956387,0.016142677515745163
1772363375352771300,2.652771240234375,-0.0039037992246448994,0.0027619730681180954,0.021817849949002266
1772363375362841300,2.66284130859375,0.0011612665839493275,0.014064695686101913,0.02562483586370945
1772363375372910300,2.672910400390625,0.0020388360135257244,0.027769777923822403,0.031647466123104095
1772363375382980400,2.68298046875,0.007389925420284271,0.02256809175014496,0.027667107060551643
1772363375393049600,2.693049560546875,0.010982011444866657,0.009327897801995277,0.018934283405542374
1772363375403119400,2.703119384765625,0.012045411393046379,-0.0061506605707108974,0.013245507143437862
1772363375413188400,2.713188232421875,0.007324641570448875,-0.01621141843497753,0.020060310140252113
1772363375423258400,2.72325830078125,-0.002673664130270481,-0.014530695974826813,0.01672283746302128
1772363375433327400,2.733327392578125,0.0007303743623197079,-0.005640650633722544,0.0048791030421853065
1772363375443397400,2.7433974609375,0.00876300036907196,-0.009562954306602478,-0.008603682741522789
1772363375453466400,2.75346630859375,0.0027831527404487133,-0.006281555164605379,-0.015118980780243874
1772363375463536400,2.763536376953125,0.005737397354096174,0.0025742542929947376,-0.026366043835878372
1772363375473605400,2.77360546875,0.005297335796058178,0.008407708257436752,-0.037914592772722244
1772363375483675400,2.78367529296875,0.0054757678881287575,0.004118687938898802,-0.045071572065353394
1772363375493744400,2.793744384765625,0.004256586544215679,0.003963279537856579,-0.050190579146146774
1772363375503814400,2.803814453125,0.0008932803757488728,0.0018559200689196587,-0.04382775351405144
1772363375513884400,2.813884521484375,0.0014331676065921783,0.003049127757549286,-0.033081986010074615
1772363375523953400,2.823953369140625,0.0029034987092018127,-0.0021016921382397413,-0.024042688310146332
1772363375534023200,2.834023193359375,-0.000768597237765789,-0.003573592286556959,-0.008290523663163185
1772363375544092400,2.844092529296875,-0.001329192891716957,-0.004296374507248402,0.0005306648090481758
1772363375554162200,2.854162109375,-0.0045501491986215115,-0.005147881805896759,0.014038221910595894
1772363375564231400,2.8642314453125,-0.0054572210647165775,-0.005655214190483093,0.022053806111216545
1772363375574301400,2.874301513671875,-0.0005720849148929119,-0.006933532655239105,0.019964471459388733
1772363375584370400,2.884370361328125,0.011647297069430351,-0.009437702596187592,0.030974246561527252
1772363375594440400,2.8944404296875,0.01469623576849699,0.013294920325279236,0.03541502729058266
1772363375604509400,2.904509521484375,0.014680523425340652,0.012141771614551544,0.02840185910463333
1772363375614582300,2.914582275390625,0.02493373677134514,0.0013825506903231144,0.018803227692842484
1772363375624651300,2.9246513671875,0.02428285963833332,0.009978169575333595,0.021175038069486618
1772363375634721300,2.93472119140625,0.022095952183008194,0.03357081115245819,0.025945596396923065
1772363375644790300,2.944790283203125,0.02279343269765377,0.046528153121471405,0.021853648126125336
1772363375654860300,2.9548603515625,0.027075903490185738,0.03526690974831581,0.020599588751792908
1772363375664930000,2.964929931640625,0.023857740685343742,0.018246911466121674,0.024456113576889038
1772363375674999300,2.974999267578125,0.02228621579706669,0.01735268346965313,0.02181871235370636
1772363375685069300,2.9850693359375,0.0187402181327343,0.025499027222394943,0.013235344551503658
1772363375695138300,2.99513818359375,0.024151386693120003,0.013201147317886353,0.00874230545014143
1772363375705208300,3.005208251953125,0.01877819374203682,0.00004779454320669174,0.0073228394612669945
1772363375715277300,3.01527734375,0.018289394676685333,-0.0038914866745471954,0.0005642492324113846
1772363375725347300,3.025347412109375,0.017083514481782913,-0.000740966759622097,-0.015878107398748398
1772363375735416000,3.035416015625,0.014272907748818398,0.0072563220746815205,-0.028405990451574326
1772363375745486300,3.045486328125,0.015569867566227913,0.0234930831938982,-0.04196201264858246
1772363375755555000,3.05555517578125,0.01571688987314701,0.03982742875814438,-0.05092901363968849
1772363375765625300,3.065625244140625,0.017561128363013268,0.0445750467479229,-0.055104851722717285
1772363375775694000,3.075694091796875,0.018421731889247894,0.04263230040669441,-0.04959813505411148
1772363375785764000,3.08576416015625,0.0219538826495409,0.03461458906531334,-0.033431414514780045
1772363375795833000,3.0958330078125,0.026696693152189255,0.027361087501049042,-0.016885587945580482
1772363375805903000,3.105903076171875,0.031222201883792877,0.017402727156877518,0.00034612882882356644
1772363375815973400,3.115973388671875,0.041453372687101364,0.013134412467479706,0.022257842123508453
1772363375826042000,3.1260419921875,0.04304780811071396,0.018850887194275856,0.0353989414870739
1772363375836112400,3.1361123046875,0.03632010519504547,0.03705030307173729,0.042836274951696396
1772363375846181000,3.14618115234375,0.03516056388616562,0.04103146120905876,0.04713994264602661
1772363375856251100,3.156251220703125,0.029212098568677902,0.03578174114227295,0.0431017130613327
1772363375866320100,3.166320068359375,0.02210039272904396,0.018351884558796883,0.02827776037156582
1772363375876390100,3.17639013671875,0.019650500267744064,-0.007360674440860748,0.016922175884246826
1772363375886459100,3.186459228515625,0.012144114822149277,-0.02217637374997139,0.011178270913660526
1772363375896529200,3.196529052734375,0.016394196078181267,-0.017972499132156372,0.0009009791538119316
1772363375906598100,3.20659814453125,0.013976844027638435,-0.016545578837394714,-0.008579608052968979
1772363375916668200,3.216668212890625,0.011235451325774193,-0.019891321659088135,-0.02144099399447441
1772363375926737400,3.2267373046875,0.008138194680213928,-0.014846762642264366,-0.031054474413394928
1772363375936807200,3.23680712890625,0.002420819364488125,-0.009771715849637985,-0.023079728707671165
1772363375946876200,3.246876220703125,-0.0033230860717594624,0.015794362872838974,-0.026926131919026375
1772363375956946200,3.2569462890625,0.002037634141743183,0.012843262404203415,-0.020625155419111252
1772363375967016200,3.26701611328125,0.003121806774288416,-0.007813279516994953,-0.016416829079389572
1772363375977085200,3.277085205078125,0.004798324313014746,-0.02329164557158947,-0.013163624331355095
1772363375987155200,3.2871552734375,0.004636936821043491,-0.028861647471785545,-0.007565659936517477
1772363375997224200,3.29722412109375,-0.0033110082149505615,-0.021802730858325958,-0.001148703508079052
1772363376007294200,3.307294189453125,-0.009261841885745525,-0.009195325896143913,0.001277436502277851
1772363376017363200,3.31736328125,-0.004412088543176651,-0.004374709911644459,-0.0008338196203112602
1772363376027433200,3.32743310546875,-0.0059684403240680695,-0.0029296784196048975,0.0077149271965026855
1772363376037502200,3.337502197265625,-0.004252795595675707,-0.0047623105347156525,0.011035098694264889
1772363376047572200,3.347572265625,-0.003544928040355444,-0.007312287110835314,0.01810738816857338
1772363376057641200,3.35764111328125,-0.005478742532432079,-0.008341680280864239,0.016971921548247337
1772363376067711200,3.367711181640625,-0.005112292245030403,-0.0015540819149464369,0.017500292509794235
1772363376077780200,3.3777802734375,-0.01101179700344801,0.005508843343704939,0.015722086653113365
1772363376087850000,3.38785009765625,-0.009318026714026928,0.00944392941892147,0.011325206607580185
1772363376097919200,3.397919189453125,-0.011531848460435867,-0.0001895367167890072,0.004672182723879814
1772363376107989200,3.4079892578125,-0.00811954028904438,-0.009053868241608143,-0.000008855946362018585
1772363376118059300,3.418059326171875,-0.0033773710019886494,-0.002441683318465948,-0.009746143594384193
1772363376128128300,3.428128173828125,0.0010919454507529736,0.000684601254761219,-0.018655216321349144
1772363376138198000,3.438197998046875,0.0006138365715742111,0.008079888299107552,-0.027611441910266876
1772363376148267300,3.448267333984375,-0.002361979801207781,0.011123083531856537,-0.02811690792441368
1772363376158337000,3.4583369140625,-0.0045752255246043205,0.01813858188688755,-0.022182300686836243
1772363376168406300,3.46840625,-0.0005538519471883774,0.02504735440015793,-0.01717955246567726
1772363376178476000,3.47847607421875,0.002725888043642044,0.020763587206602097,-0.011677040718495846
1772363376188545300,3.488545166015625,0.0023719538003206253,0.0055707842111587524,-0.0006246557459235191
1772363376198615300,3.498615234375,0.0011468781158328056,0.004040229134261608,0.0049174996092915535
1772363376208684300,3.508684326171875,0.0018579419702291489,0.005375538021326065,-0.0009715473279356956
1772363376218754300,3.51875439453125,0.0030863722786307335,0.006820139940828085,-0.00006354972720146179
1772363376228823300,3.5288232421875,-0.001366433221846819,-0.00041753286495804787,-0.00020176824182271957
1772363376238893300,3.538893310546875,-0.003210283350199461,-0.003647361882030964,-0.0011411849409341812
1772363376248962000,3.548962158203125,-0.0012576538138091564,-0.010768920183181763,-0.0036647962406277657
1772363376259032300,3.5590322265625,-0.005294350907206535,-0.009921060875058174,-0.003929806873202324
1772363376269102000,3.56910205078125,0.0006604776717722416,-0.003241852391511202,0.0009546969085931778
1772363376279171300,3.57917138671875,0.00020038383081555367,0.008254354819655418,-0.00008624233305454254
1772363376289241300,3.589241455078125,0.005749346222728491,0.009978219866752625,-0.007606742437928915
1772363376299310000,3.59931005859375,0.004295634105801582,0.001912770327180624,-0.00713667506352067
1772363376309380400,3.60938037109375,0.0005373815074563026,0.0011551007628440857,0.0012687938287854195
1772363376319449000,3.619448974609375,-0.00422027800232172,0.012979110702872276,0.011847076006233692
1772363376329519400,3.629519287109375,-0.004282595589756966,0.025562280789017677,0.019857067614793777
1772363376339588000,3.639588134765625,-0.007177155464887619,0.013472156599164009,0.02415708638727665
1772363376349658400,3.649658447265625,-0.007497267797589302,0.0015356014482676983,0.021360768005251884
1772363376359727000,3.65972705078125,-0.0059518348425626755,-0.02287546545267105,0.013598451390862465
1772363376369797000,3.669797119140625,-0.003488144837319851,-0.044375963509082794,0.0004919702187180519
1772363376379867400,3.679867431640625,-0.002378577832132578,-0.049113914370536804,-0.008670739829540253
1772363376389936000,3.68993603515625,-0.008593596518039703,-0.040375545620918274,-0.005584136117249727
1772363376400006400,3.70000634765625,-0.017820974811911583,-0.015695160254836082,-0.0035515017807483673
1772363376410075100,3.7100751953125,-0.020411964505910873,0.0022534807212650776,-0.012374821119010448
1772363376420145200,3.720145263671875,-0.01160764042288065,0.0064869411289691925,-0.03073958307504654
1772363376430214100,3.730214111328125,-0.009225974790751934,-0.004041865933686495,-0.046837590634822845
1772363376440284200,3.7402841796875,-0.0038178516551852226,-0.012978686019778252,-0.05587056651711464
1772363376450353200,3.750353271484375,0.0026419120840728283,-0.006947957910597324,-0.054767485707998276
1772363376460423200,3.760423095703125,0.0067199100740253925,0.013641598634421825,-0.05152704194188118
1772363376470492200,3.7704921875,0.0056602382101118565,0.024058550596237183,-0.03414113074541092
1772363376480562200,3.780562255859375,0.0010436256416141987,0.01860702782869339,-0.014162243343889713
1772363376490632200,3.790632080078125,-0.001393166370689869,0.004481089301407337,0.002079310826957226
1772363376500701200,3.800701171875,-0.000443093478679657,-0.006485366728156805,0.02162715420126915
1772363376510771200,3.810771240234375,0.0035993182100355625,-0.017090607434511185,0.03622979670763016
1772363376520840200,3.820840087890625,0.00090811587870121,-0.021378135308623314,0.034498002380132675
1772363376530910200,3.83091015625,0.0021174573339521885,-0.01859273575246334,0.05100028216838837
1772363376540979200,3.840979248046875,0.008421186357736588,0.029351599514484406,0.04670457914471626
1772363376551049200,3.85104931640625,-0.004446675069630146,0.030053608119487762,0.026696782559156418
1772363376561118200,3.8611181640625,-0.005467860959470272,-0.020149610936641693,0.01169795822352171
1772363376571188200,3.871188232421875,0.001977804582566023,-0.03295515477657318,0.00044983066618442535
1772363376581257200,3.88125732421875,0.015076009556651115,-0.00022508995607495308,-0.021883754059672356
1772363376591327200,3.8913271484375,0.02052776701748371,-0.00043441448360681534,-0.05200756713747978
1772363376601397200,3.901397216796875,0.024191750213503838,-0.02687048725783825,-0.07183007895946503
1772363376611462700,3.911462646484375,0.02245323918759823,-0.032618388533592224,-0.0852540135383606
1772363376621532700,3.92153271484375,0.012296770699322224,-0.013864313252270222,-0.08453167974948883
1772363376631601700,3.9316015625,0.0038561481051146984,-0.001311236759647727,-0.06209827959537506
1772363376641671700,3.941671630859375,-0.003167377319186926,0.007154515013098717,-0.035214655101299286
1772363376651740700,3.95174072265625,-0.0051628840155899525,-0.0008711875416338444,-0.015480364672839642
1772363376661810700,3.961810791015625,-0.005680518224835396,-0.020665232092142105,0.0059720659628510475
1772363376671879400,3.97187939453125,-0.004723112098872662,-0.029395606368780136,0.028131961822509766
1772363376681949700,3.98194970703125,0.00048119528219103813,-0.022152822464704514,0.03649701550602913
1772363376692018400,3.992018310546875,0.003658879082649946,-0.020040670409798622,0.03808159753680229
1772363376702088700,4.002088623046875,0.00029108813032507896,-0.013863783329725266,0.04193752259016037
1772363376712157700,4.01215771484375,0.003503126557916403,-0.0007482478395104408,0.044678714126348495
1772363376722226700,4.022226806640625,0.007873324677348137,0.005583670921623707,0.04347243905067444
1772363376732296700,4.032296630859375,0.013697125017642975,0.017707180231809616,0.03204561397433281
1772363376742365700,4.04236572265625,0.01782994717359543,0.02247207798063755,0.017510782927274704
1772363376752435700,4.052435791015625,0.01375637762248516,0.013762742280960083,0.01457251701503992
1772363376762505500,4.06250537109375,0.012296777218580246,0.00361167686060071,0.012761509045958519
1772363376772574700,4.07257470703125,0.00485963374376297,0.002643351908773184,0.001999674364924431
1772363376782644500,4.08264453125,-0.003012381959706545,0.0006364281289279461,-0.009610757231712341
1772363376792713700,4.092713623046875,-0.007996754720807076,-0.0051199947483837605,-0.021259158849716187
1772363376802783700,4.10278369140625,-0.0015657171607017517,-0.009961998090147972,-0.029613489285111427
1772363376812852700,4.112852783203125,-0.004315696656703949,-0.011105293408036232,-0.03614196181297302
1772363376822922800,4.1229228515625,-0.002377844415605068,-0.015194813720881939,-0.04356569051742554
1772363376832991500,4.132991455078125,-0.004861242137849331,-0.01920473575592041,-0.05373310670256615
1772363376843061800,4.143061767578125,-0.012803658843040466,-0.02136513590812683,-0.04868270456790924
1772363376853130500,4.153130615234375,-0.018459681421518326,-0.012613456696271896,-0.036671046167612076
1772363376863200800,4.16320068359375,-0.018254783004522324,-0.002027250826358795,-0.013967507518827915
1772363376873269500,4.17326953125,-0.024412011727690697,0.003172038123011589,0.012895266525447369
1772363376883339500,4.183339599609375,-0.02300313487648964,0.010767359286546707,0.03252018243074417
1772363376893409800,4.193409912109375,-0.02559998445212841,0.017028717324137688,0.05043473839759827
1772363376903478500,4.203478515625,-0.023388616740703583,0.02532482147216797,0.052638523280620575
1772363376913548800,4.213548828125,-0.02041839063167572,0.015025844797492027,0.048562824726104736
1772363376923617500,4.223617431640625,-0.02116713672876358,0.0008557275868952274,0.03968021646142006
1772363376933687800,4.233687744140625,-0.023409251123666763,0.0011835629120469093,0.03395308926701546
1772363376943756500,4.243756591796875,-0.019312221556901932,-0.00919447559863329,0.03602038323879242
1772363376953826600,4.25382666015625,-0.02062090113759041,-0.0038990462198853493,0.03757380321621895
1772363376963895600,4.2638955078125,-0.023677196353673935,0.021371828392148018,0.028919897973537445
1772363376973965600,4.273965576171875,-0.018491487950086594,0.01560768112540245,0.028671957552433014
1772363376984034600,4.28403466796875,-0.012182696722447872,0.0035194214433431625,0.027435000985860825
1772363376994104600,4.2941044921875,-0.0076859500259160995,0.014999776147305965,0.014677660539746284
1772363377004174600,4.304174560546875,-0.003683872055262327,0.021849369630217552,0.01460055261850357
1772363377014243600,4.31424365234375,-0.0012787715531885624,0.022995861247181892,0.01978040114045143
1772363377024313600,4.324313720703125,0.000567547045648098,0.02969677560031414,0.019065113738179207
1772363377034382600,4.334382568359375,-0.003766748122870922,0.03380576893687248,0.023071305826306343
1772363377044452600,4.34445263671875,-0.008441595360636711,0.02984323352575302,0.02634601667523384
1772363377054521600,4.354521484375,-0.007482324726879597,0.025678317993879318,0.025295130908489227
1772363377064591600,4.364591552734375,-0.0030167652294039726,0.014086015522480011,0.013667959719896317
1772363377074660600,4.37466064453125,-0.005243967287242413,0.0014636963605880737,0.010520102456212044
1772363377084730600,4.384730712890625,0.0010385885834693909,0.012392575852572918,-0.00209690909832716
1772363377094799600,4.394799560546875,0.004686852917075157,0.02309262380003929,-0.012872591614723206
1772363377104869600,4.40486962890625,0.009354841895401478,0.016072265803813934,-0.022673023864626884
1772363377114939600,4.414939697265625,0.00374888745136559,0.011168054305016994,-0.034521959722042084
1772363377125008600,4.425008544921875,0.004951167851686478,0.015718035399913788,-0.04210594296455383
1772363377135078700,4.43507861328125,0.002956726588308811,0.014375802129507065,-0.034104473888874054
1772363377145147600,4.445147705078125,0.001930049154907465,0.013951464556157589,-0.02584422379732132
1772363377155217700,4.4552177734375,0.00328373396769166,0.002021835185587406,-0.014805421233177185
1772363377165286700,4.46528662109375,0.00863775983452797,-0.013535493984818459,-0.01092313788831234
1772363377175356700,4.475356689453125,0.015724964439868927,-0.023088784888386726,0.0006142091006040573
1772363377185425400,4.48542529296875,0.021167421713471413,-0.017222603783011436,0.014958408661186695
1772363377195495700,4.49549560546875,0.020094968378543854,-0.008315395563840866,0.03053603693842888
1772363377205564700,4.505564697265625,0.01910054311156273,-0.000880648847669363,0.0394861213862896
1772363377215634700,4.515634765625,0.016667746007442474,0.005808945279568434,0.04207471385598183
1772363377225704700,4.52570458984375,0.016342010349035263,0.006190747022628784,0.031404148787260056
1772363377235773400,4.5357734375,0.011679615825414658,-0.011608223430812359,0.017554916441440582
1772363377245843700,4.54584375,0.007549751084297895,-0.0184409711509943,0.0015146033838391304
1772363377255912400,4.555912353515625,0.008629662916064262,-0.017004195600748062,-0.012350612320005894
1772363377265982700,4.565982666015625,0.008931980468332767,-0.0182912889868021,-0.023738160729408264
1772363377276051500,4.576051513671875,0.009774604812264442,-0.03091200813651085,-0.030890345573425293
1772363377286121700,4.586121826171875,0.007543661631643772,-0.03551220893859863,-0.0238991379737854
1772363377296191700,4.596191650390625,0.0009866924956440926,-0.015852754935622215,-0.013453686609864235
1772363377306261500,4.606261474609375,-0.0012101130560040474,0.00857924111187458,-0.008816052228212357
1772363377316330800,4.616330810546875,0.001848793588578701,0.017403358593583107,-0.003767763264477253
1772363377326400500,4.626400390625,0.0026606121100485325,0.0030342931859195232,0.0017587961629033089
1772363377336469800,4.6364697265625,0.0015748413279652596,-0.009459661319851875,0.0026413677260279655
1772363377346539800,4.646539794921875,0.005343487486243248,-0.027475086972117424,-0.0042016953229904175
1772363377356608500,4.6566083984375,-0.0033328249119222164,-0.03419823572039604,-0.00963268056511879
1772363377366678800,4.6666787109375,-0.013243960216641426,-0.020039904862642288,-0.008260751143097878
1772363377376747500,4.67674755859375,-0.02385825477540493,0.003951448015868664,0.0005468549206852913
1772363377386817800,4.68681787109375,-0.023354239761829376,0.0165763720870018,0.0055926041677594185
1772363377396886500,4.696886474609375,-0.017797820270061493,0.016056256368756294,0.013776498846709728
1772363377406956800,4.706956787109375,-0.013242734596133232,0.0004217587411403656,0.022166911512613297
1772363377417026600,4.717026611328125,-0.0020225713960826397,-0.009058828465640545,0.022209253162145615
1772363377427095600,4.727095458984375,0.0004031001590192318,0.001272090245038271,0.013182021677494049
1772363377437165800,4.737165771484375,0.0002536969259381294,0.010589957237243652,0.0029424335807561874
1772363377447234600,4.747234619140625,-0.004799060523509979,0.014277561567723751,-0.001936054788529873
1772363377457304800,4.757304931640625,-0.00940579641610384,0.020387649536132812,-0.004879646468907595
1772363377467373600,4.76737353515625,-0.01162230409681797,0.014186698012053967,-0.007666177116334438
1772363377477443600,4.777443603515625,-0.006644855719059706,0.006966335698962212,-0.005883989855647087
1772363377487512600,4.7875126953125,-0.0022459104657173157,-0.005267944652587175,-0.00866707693785429
1772363377497582600,4.79758251953125,0.0043097264133393764,-0.0017387238331139088,-0.020999908447265625
1772363377507652600,4.807652587890625,0.008119557052850723,-0.0016015875153243542,-0.02570169046521187
1772363377517721600,4.8177216796875,0.008752057328820229,0.01735639199614525,-0.034230731427669525
1772363377527791600,4.82779150390625,0.010448407381772995,0.018302973359823227,-0.037928394973278046
1772363377537860600,4.837860595703125,0.006375368684530258,0.005225521977990866,-0.026192910969257355
1772363377547930600,4.8479306640625,0.011282622814178467,0.01326320506632328,-0.021518850699067116
1772363377557999600,4.85799951171875,0.010021350346505642,0.014334594830870628,-0.017362188547849655
1772363377568069600,4.868069580078125,0.016949327662587166,0.007564136758446693,-0.011235775426030159
1772363377578138600,4.878138671875,0.0204580407589674,0.00471455417573452,-0.0018199030309915543
1772363377588208600,4.888208740234375,0.02314727194607258,0.01055929809808731,0.0019481256604194641
1772363377598277600,4.898277587890625,0.031117312610149384,0.01784330978989601,0.0039175329729914665
1772363377608347600,4.90834765625,0.03886202350258827,0.019622208550572395,-0.0023457687348127365
1772363377618417200,4.918417236328125,0.03958586975932121,0.018307939171791077,0.0003363005816936493
1772363377628486100,4.928486083984375,0.03698309138417244,0.02537032961845398,-0.004881908651441336
1772363377638556200,4.93855615234375,0.033275704830884933,0.03826535493135452,-0.01076456531882286
1772363377648625200,4.948625244140625,0.027177907526493073,0.04528753086924553,-0.01592930220067501
1772363377658695200,4.958695068359375,0.025012757629156113,0.04029037430882454,-0.021599704399704933
1772363377668764200,4.96876416015625,0.015446984209120274,0.027054622769355774,-0.01861988753080368
1772363377678834200,4.978834228515625,0.013795025646686554,0.01192467100918293,-0.02053683251142502
1772363377688904000,4.988904052734375,0.013114575296640396,0.00230094650760293,-0.011048639193177223
1772363377698973200,4.99897314453125,0.011763820424675941,-0.0016794141847640276,0.0004306500777602196
1772363377709043000,5.00904296875,0.009912468492984772,-0.002743236953392625,0.009714100509881973
1772363377719112200,5.0191123046875,0.0010539963841438293,-0.007315351627767086,0.016158418729901314
1772363377729182200,5.02918212890625,-0.00452164001762867,-0.006178668234497309,0.017491132020950317
1772363377739251200,5.039251220703125,-0.009569662623107433,-0.0026470504235476255,0.010907265357673168
1772363377749321200,5.0493212890625,-0.012016380205750465,0.0020528496243059635,0.012804223224520683
1772363377759390200,5.05939013671875,-0.010081326588988304,-0.0035879916977137327,0.0070579200983047485
1772363377769460200,5.069460205078125,-0.004402513615787029,-0.01018655113875866,-0.010465005412697792
1772363377779530000,5.079530029296875,-0.003947112709283829,-0.018148604780435562,-0.023614894598722458
1772363377789599200,5.08959912109375,-0.0014308220706880093,-0.018079595640301704,-0.035577453672885895
1772363377799669000,5.0996689453125,-0.00024571502581238747,-0.0060911099426448345,-0.042680636048316956
1772363377809738200,5.10973828125,0.005841969512403011,0.004962981678545475,-0.0475451722741127
1772363377819808300,5.119808349609375,0.005387634504586458,0.009177434258162975,-0.03773009404540062
1772363377829877200,5.129877197265625,0.0011815675534307957,0.00037245871499180794,-0.023021548986434937
1772363377839947300,5.139947265625,-0.00296124629676342,-0.014683721587061882,-0.012934028171002865
1772363377850017000,5.15001708984375,-0.0033014612272381783,-0.01927790977060795,-0.004560421220958233
1772363377860086300,5.160086181640625,-0.004124111495912075,-0.017448849976062775,0.009423837997019291
1772363377870156000,5.170156005859375,-0.00046116532757878304,-0.011131142266094685,0.014923005364835262
1772363377880225300,5.180225341796875,0.006738424766808748,-0.012646747753024101,0.01999392732977867
1772363377890295000,5.190294921875,-0.0005667568184435368,-0.024547582492232323,0.020846771076321602
1772363377900364300,5.2003642578125,-0.0004146904684603214,-0.0257880836725235,0.01487276703119278
1772363377910434000,5.21043408203125,-0.0014430908486247063,-0.033465173095464706,0.009669954888522625
1772363377920504000,5.220504150390625,-0.0054833730682730675,-0.03340897709131241,0.004577190615236759
1772363377930573300,5.2305732421875,-0.005076523404568434,-0.039917659014463425,0.005664433352649212
1772363377940643000,5.24064306640625,-0.0018437127582728863,-0.029395774006843567,-0.0014014653861522675
1772363377950712300,5.25071240234375,0.003764141583815217,-0.02819240093231201,-0.012765167281031609
1772363377960782000,5.260781982421875,0.00804224330931902,-0.029787102714180946,-0.025790154933929443
1772363377970851000,5.27085107421875,0.005439452361315489,-0.03105577453970909,-0.03342922031879425
1772363377980921000,5.280921142578125,-0.0006258967332541943,-0.020246006548404694,-0.035319797694683075
1772363377990991000,5.2909912109375,0.003144103568047285,-0.0059415427967906,-0.03032762184739113
1772363378001060000,5.30106005859375,-0.0011153561063110828,-0.00627497024834156,-0.017236586660146713
1772363378011130000,5.311130126953125,-0.0006940444000065327,-0.024660369381308556,-0.00313488207757473
1772363378021199000,5.32119921875,-0.008623873814940453,-0.03282855078577995,0.008212846703827381
1772363378031269000,5.33126904296875,-0.007308868691325188,-0.03760358318686485,0.010355007834732533
1772363378041339100,5.341339111328125,-0.007432439364492893,-0.03373214602470398,0.016556978225708008
1772363378051408100,5.351408203125,-0.014609985053539276,-0.02671702951192856,0.03183244168758392
1772363378061478100,5.36147802734375,-0.018466508015990257,-0.01403239369392395,0.041484534740448
1772363378071547100,5.371547119140625,-0.01649884507060051,0.00321859959512949,0.035231225192546844
1772363378081617200,5.3816171875,-0.016669021919369698,0.003260944038629532,0.025180723518133163
1772363378091686000,5.391685791015625,-0.011676358059048653,-0.004976321943104267,0.007772174663841724
1772363378101756200,5.401756103515625,-0.006627803668379784,-0.01121637411415577,0.0013931049033999443
1772363378111826200,5.411826171875,-0.004972553811967373,-0.0076774898916482925,-0.0004381844773888588
1772363378121895200,5.421895263671875,-0.004189850762486458,0.010395785793662071,0.0017642499879002571
1772363378131965200,5.431965087890625,-0.00608185026794672,0.023579221218824387,-0.008168252184987068
1772363378142034200,5.4420341796875,-0.008832363411784172,-0.009285783395171165,-0.017824340611696243
1772363378152104200,5.452104248046875,0.0011290498077869415,-0.003955565392971039,0.0001535750925540924
1772363378162173000,5.4621728515625,-0.007239401340484619,0.033317770808935165,0.0017698472365736961
1772363378172243200,5.4722431640625,-0.004731271415948868,0.02772470936179161,-0.017409976571798325
1772363378182313200,5.482313232421875,0.0009615016169846058,0.011116703040897846,-0.03301343694329262
1772363378192382200,5.49238232421875,-0.00349538866430521,0.01385442353785038,-0.03692825883626938
1772363378202452200,5.5024521484375,-0.0046157799661159515,0.026995526626706123,-0.03451650217175484
1772363378212521000,5.51252099609375,-0.006698270794004202,0.02508990839123726,-0.02738846093416214
1772363378222591200,5.52259130859375,-0.0082053542137146,0.01170938927680254,-0.016645802184939384
1772363378232661000,5.532660888671875,-0.01290031149983406,-0.005432097241282463,0.00032438337802886963
1772363378242730200,5.542730224609375,-0.0087489765137434,-0.007065946236252785,0.015292414464056492
1772363378252800300,5.55280029296875,-0.013479945249855518,0.012921376153826714,0.018223851919174194
1772363378262869000,5.562868896484375,-0.013203241862356663,0.009394552558660507,0.01976315677165985
1772363378272939300,5.572939208984375,-0.01207016408443451,0.005143540445715189,0.024114063009619713
1772363378283008000,5.583008056640625,-0.010798238217830658,0.009274635463953018,0.024853089824318886
1772363378293078300,5.593078369140625,-0.005935561843216419,0.010814344510436058,0.021639566868543625
1772363378303148000,5.60314794921875,0.003441961482167244,0.006420926656574011,0.014744640327990055
1772363378313217300,5.61321728515625,0.0089956009760499,0.0036090859211981297,-0.0019042352214455605
1772363378323287000,5.623287109375,0.00836975872516632,-0.0027902242727577686,-0.013440515846014023
1772363378333356000,5.63335595703125,0.0032795085571706295,0.00008073914796113968,-0.01581566594541073
1772363378343426300,5.64342626953125,0.00016014790162444115,0.0022703902795910835,-0.0138356052339077
1772363378353496000,5.65349609375,-0.004111170303076506,-0.0032291384413838387,-0.006477040704339743
1772363378363565300,5.6635654296875,-0.013617057353258133,-0.006242505274713039,0.009521899744868279
1772363378373635000,5.673635009765625,-0.019091451540589333,-0.011239927262067795,0.02342280186712742
1772363378383704000,5.6837041015625,-0.025023911148309708,-0.029774729162454605,0.0354914516210556
1772363378393774000,5.693774169921875,-0.026953600347042084,-0.04706354811787605,0.036461640149354935
1772363378403844000,5.703843994140625,-0.028506487607955933,-0.055248770862817764,0.03390953317284584
1772363378413913000,5.7139130859375,-0.030742349103093147,-0.05399658903479576,0.02934504859149456
1772363378423983000,5.723983154296875,-0.02642696164548397,-0.05066284164786339,0.025348441675305367
1772363378434052400,5.73405224609375,-0.019910208880901337,-0.03983389586210251,0.012473655864596367
1772363378444122000,5.7441220703125,-0.016331186518073082,-0.03591025993227959,-0.002881331369280815
1772363378454191000,5.754191162109375,-0.010722532868385315,-0.03470155969262123,-0.015728948637843132
1772363378464261000,5.76426123046875,-0.007856439799070358,-0.02742713689804077,-0.02842104062438011
1772363378474331100,5.7743310546875,-0.0055175404995679855,-0.023687247186899185,-0.041002944111824036
1772363378484400000,5.784400146484375,0.00736550148576498,-0.006689089350402355,-0.05137089639902115
1772363378494470100,5.79447021484375,0.014786453917622566,-0.0010015289299190044,-0.0511631965637207
1772363378504539100,5.8045390625,0.01752125471830368,0.001477341167628765,-0.03596453368663788
1772363378514609200,5.814609130859375,0.014743607491254807,0.004687606822699308,-0.0066236089915037155
1772363378524679200,5.82467919921875,0.01860785484313965,0.012830222025513649,0.012469392269849777
1772363378534748200,5.834748046875,0.020162247121334076,0.01216622069478035,0.028572291135787964
1772363378544818200,5.844818115234375,0.02277507446706295,0.005640944000333548,0.037196673452854156
1772363378554887200,5.85488720703125,0.029515167698264122,0.0045164162293076515,0.03892018273472786
1772363378564957200,5.864957275390625,0.03173917531967163,0.010056057944893837,0.040102094411849976
1772363378575027200,5.875027099609375,0.03653595224022865,0.017873557284474373,0.04051273688673973
1772363378585096200,5.88509619140625,0.025472648441791534,0.03379393368959427,0.038009367883205414
1772363378595166200,5.895166259765625,0.022996552288532257,0.043252162635326385,0.025991523638367653
1772363378605235200,5.905235107421875,0.023386439308524132,0.037893347442150116,0.012755611911416054
1772363378615309000,5.91530908203125,0.012638886459171772,0.02667756751179695,0.010252416133880615
1772363378625377800,5.925377685546875,0.012331025674939156,0.02636304870247841,-0.00007532257586717606
1772363378635448000,5.935447998046875,0.014645201154053211,0.031734637916088104,-0.01897677779197693
1772363378645518000,5.94551806640625,0.01682712882757187,0.03374585881829262,-0.034413255751132965
1772363378655587000,5.955587158203125,0.016813747584819794,0.043136708438396454,-0.04009786248207092
1772363378665657000,5.965656982421875,0.01017661765217781,0.046653151512145996,-0.03990531340241432
1772363378675725800,5.975725830078125,0.008021628484129906,0.05453340336680412,-0.025606609880924225
1772363378685796000,5.985796142578125,0.005380304995924234,0.05294376239180565,-0.0026530902832746506
1772363378695865900,5.995865966796875,0.0011272965930402279,0.04913748800754547,0.011691657826304436
1772363378705935000,6.00593505859375,0.001909733284264803,0.03480062633752823,0.020822303369641304
1772363378716004900,6.0160048828125,0.002207284327596426,0.02041008695960045,0.02099134586751461
1772363378726073900,6.026073974609375,0.003981215879321098,0.01675569638609886,0.018984654918313026
1772363378736144100,6.03614404296875,0.002358843572437763,0.015767687931656837,0.02234306000173092
1772363378746214000,6.0462138671875,0.005275537259876728,0.025663461536169052,0.03275655210018158
1772363378756283100,6.056283203125,0.005997294560074806,0.04077925533056259,0.034539200365543365
1772363378766353000,6.066352783203125,0.011699121445417404,0.032568998634815216,0.03270241618156433
1772363378776422100,6.076422119140625,0.00643574632704258,0.005717484746128321,0.03425627201795578
1772363378786492000,6.086491943359375,0.0029845559038221836,-0.00898156687617302,0.03834023326635361
1772363378796561000,6.096560791015625,-0.002453045453876257,-0.0055397371761500835,0.033029813319444656
1772363378806631000,6.106630859375,-0.003500999417155981,-0.007590637542307377,0.017729686573147774
1772363378816701000,6.116700927734375,-0.009731009602546692,-0.013743456453084946,0.017773432657122612
1772363378826770200,6.126770263671875,-0.020711489021778107,-0.002386406296864152,0.020059756934642792
1772363378836840000,6.13683984375,-0.01760830730199814,0.007863816805183887,0.009891627356410027
1772363378846909000,6.146908935546875,-0.01724904775619507,-0.0035832482390105724,-0.004749900195747614
1772363378856979000,6.15697900390625,-0.017550310119986534,-0.025429075583815575,-0.012040733359754086
1772363378867049000,6.167049072265625,-0.025726748630404472,-0.03497251123189926,-0.027372019365429878
1772363378877118000,6.177117919921875,0.0033551016822457314,-0.034782927483320236,-0.01852322742342949
1772363378887188000,6.18718798828125,0.012876435182988644,0.013228805735707283,0.006549367681145668
1772363378897257000,6.197257080078125,0.0032386314123868942,0.03493143245577812,0.020523259416222572
1772363378907327000,6.207326904296875,0.000689187552779913,-0.0023874444887042046,0.02117173932492733
1772363378917397000,6.21739697265625,-0.005753512494266033,-0.04613497108221054,0.02326016314327717
1772363378927466000,6.227466064453125,-0.01160261407494545,-0.036462102085351944,0.03393251448869705
1772363378937536000,6.237535888671875,-0.018679721280932426,-0.004367838613688946,0.03978811576962471
1772363378947605000,6.24760498046875,-0.016939079388976097,0.014671100303530693,0.031187433749437332
1772363378957675000,6.257675048828125,-0.016901394352316856,0.007381262723356485,0.020366575568914413
1772363378967745000,6.2677451171875,-0.011732997372746468,-0.0013315349351614714,0.015578742139041424
1772363378977814000,6.27781396484375,-0.014021385461091995,0.0006056311540305614,0.009389908984303474
1772363378987884000,6.287884033203125,-0.011639188975095749,-0.013330690562725067,0.004289954900741577
1772363378997953000,6.297953125,-0.01638970524072647,-0.019959207624197006,0.014743476174771786
1772363379008023000,6.30802294921875,-0.021676080301404,-0.0007615447975695133,0.00983287300914526
1772363379018092800,6.3180927734375,-0.025204267352819443,0.0026914188638329506,0.012453343719244003
1772363379028162000,6.328162109375,-0.018477121368050575,-0.014978121966123581,0.015249662101268768
1772363379038231800,6.338231689453125,-0.013586793094873428,-0.02805440127849579,0.01884305849671364
1772363379048301000,6.348301025390625,-0.016800962388515472,-0.040482841432094574,0.014185992069542408
1772363379058371000,6.35837109375,-0.016836347058415413,-0.06180741265416145,0.022213561460375786
1772363379068440000,6.368440185546875,-0.02932737022638321,-0.06329798698425293,0.028821663931012154
1772363379078510000,6.378510009765625,-0.02400788478553295,-0.05258088558912277,0.033228106796741486
1772363379088579800,6.388579833984375,-0.02609207294881344,-0.03855028748512268,0.034849442541599274
1772363379098649000,6.398649169921875,-0.025641631335020065,-0.024783732369542122,0.026584146544337273
1772363379108718800,6.40871875,-0.027136199176311493,-0.013185134157538414,0.01712219975888729
1772363379118788000,6.4187880859375,-0.01995658315718174,0.002488635014742613,-0.002560690976679325
1772363379128857900,6.42885791015625,-0.008800867944955826,0.005666318815201521,-0.022641457617282867
1772363379138927900,6.438927978515625,-0.0034782681614160538,0.007638456299901009,-0.04199445992708206
1772363379148997000,6.4489970703125,0.004281118046492338,-0.0008114869706332684,-0.032818008214235306
1772363379159067000,6.45906689453125,0.005049972794950008,0.017979245632886887,-0.008930783718824387
1772363379169136000,6.46913623046875,0.00806360598653555,0.046425800770521164,0.010762493126094341
1772363379179206000,6.479205810546875,0.008382783271372318,0.05261655151844025,0.02319190464913845
1772363379189276000,6.48927587890625,0.011095745489001274,0.03571160510182381,0.025619642809033394
1772363379199345000,6.499344970703125,0.008616911247372627,0.02980433776974678,0.028938211500644684
1772363379209415000,6.509414794921875,0.006782792042940855,0.03310825303196907,0.031042374670505524
1772363379219484000,6.51948388671875,0.00774102658033371,0.04141155257821083,0.03103979304432869
1772363379229554000,6.529553955078125,0.009084058925509453,0.04375459998846054,0.024566981941461563
1772363379239623200,6.539623046875,0.00935316365212202,0.03899596258997917,0.017119433730840683
1772363379249693000,6.54969287109375,0.007821579463779926,0.024500377476215363,0.007359479553997517
1772363379259763000,6.559762939453125,-0.004316193517297506,0.011664018034934998,-0.0007268181070685387
1772363379269832000,6.56983203125,-0.008741568773984909,0.0034505617804825306,-0.00694822845980525
1772363379279902000,6.57990185546875,-0.013028468936681747,0.011688116937875748,-0.0035096658393740654
1772363379289971000,6.589970947265625,-0.006844609975814819,0.024107500910758972,-0.012841914780437946
1772363379300041000,6.600041015625,0.0010395185090601444,0.01453444641083479,-0.028767872601747513
1772363379310111000,6.610111083984375,0.00577941257506609,-0.0029446789994835854,-0.03634669631719589
1772363379320180000,6.620179931640625,0.0079457126557827,-0.009129928424954414,-0.03524861857295036
1772363379330250000,6.63025,0.010071979835629463,-0.003445944283157587,-0.030981969088315964
1772363379340319000,6.640319091796875,0.00968895759433508,-0.005869071930646896,-0.02083522081375122
1772363379350389000,6.650388916015625,0.004547991789877415,-0.00944356620311737,-0.006336173042654991
1772363379360458800,6.660458740234375,0.001848581712692976,-0.0009790672920644283,0.0073039233684539795
1772363379370528000,6.670528076171875,0.005486992187798023,0.008276483044028282,0.013527465984225273
1772363379380598000,6.680597900390625,0.0028128712438046932,0.007077036425471306,0.011053993366658688
1772363379390667000,6.6906669921875,0.004254973027855158,0.0008748010732233524,0.00805660616606474
1772363379400737000,6.700737060546875,0.0046391673386096954,-0.003124343231320381,0.004879898391664028
1772363379410806000,6.710805908203125,0.010583076626062393,-0.002156550530344248,0.003584803082048893
1772363379420876000,6.7208759765625,0.020885353907942772,0.005196645390242338,-0.003009171225130558
1772363379430945800,6.73094580078125,0.019758835434913635,0.0007169418968260288,-0.0016640089452266693
1772363379441015000,6.74101513671875,0.02219053916633129,-0.013737989589571953,-0.005423409398645163
1772363379451084800,6.751084716796875,0.01809539645910263,-0.007497936487197876,-0.011379835195839405
1772363379461154000,6.761154052734375,0.01054413989186287,-0.004147379193454981,-0.015731345862150192
1772363379471224000,6.77122412109375,0.004278254229575396,-0.014299615286290646,-0.025192225351929665
1772363379481293800,6.7812939453125,-0.004306154325604439,-0.022753797471523285,-0.03186754509806633
1772363379491363000,6.791363037109375,-0.010592279024422169,-0.03915620595216751,-0.040217090398073196
1772363379501432800,6.801432861328125,-0.00866595096886158,-0.03998339921236038,-0.039321381598711014
1772363379511502000,6.811502197265625,-0.011026043444871902,-0.042230576276779175,-0.05807536095380783
1772363379521571800,6.82157177734375,-0.00937008485198021,-0.057952214032411575,-0.049634285271167755
1772363379531641900,6.831641845703125,-0.012540046125650406,-0.0389670729637146,-0.05276615917682648
1772363379541710800,6.8417109375,-0.015828793868422508,-0.04008679836988449,-0.050218161195516586
1772363379551780900,6.85178076171875,-0.01825599931180477,-0.04827335476875305,-0.03941211849451065
1772363379561850000,6.86185009765625,-0.016747182235121727,-0.04232887923717499,-0.02220507338643074
1772363379571920000,6.871919921875,-0.01519695669412613,-0.037677403539419174,-0.0036806585267186165
1772363379581989000,6.881989013671875,-0.015334364026784897,-0.037406690418720245,0.019263917580246925
1772363379592059000,6.892058837890625,-0.015422515571117401,-0.03141777589917183,0.03254669904708862
1772363379602129000,6.90212890625,-0.012746073305606842,-0.016270138323307037,0.03734997659921646
1772363379612195000,6.912195068359375,-0.00498668709769845,-0.01688692718744278,0.03481384366750717
1772363379622265000,6.92226513671875,-0.002106082160025835,-0.018400434404611588,0.03145124018192291
1772363379632334000,6.932333984375,0.002989344298839569,-0.010095899924635887,0.021381830796599388
1772363379642404000,6.942404052734375,-0.0015875701792538166,-0.002674269024282694,0.014304026030004025
1772363379652473000,6.95247314453125,0.0026987879537045956,0.009600506164133549,0.011427278630435467
1772363379662543000,6.962543212890625,-0.002059327904134989,0.01623550057411194,0.003177664242684841
1772363379672613000,6.972613037109375,-0.004268686752766371,0.018371887505054474,-0.007577511016279459
1772363379682682000,6.98268212890625,-0.0028074532747268677,0.0061338781379163265,-0.013525806367397308
1772363379692752100,6.992752197265625,-0.008819805458188057,-0.011703974567353725,-0.014242729172110558
1772363379702821000,7.002821044921875,-0.0042115007527172565,-0.012292889878153801,-0.011217991821467876
1772363379712891100,7.01289111328125,-0.004815239924937487,-0.016941437497735023,-0.003398418426513672
1772363379722961200,7.022961181640625,-0.007463899441063404,-0.0172172412276268,0.007280384190380573
1772363379733030100,7.033030029296875,-0.0031202835962176323,-0.0017927461303770542,0.02172670140862465
1772363379743100200,7.04310009765625,-0.011059504002332687,0.007076329085975885,0.029253317043185234
1772363379753169200,7.053169189453125,-0.010001963004469872,0.007546910550445318,0.03385632485151291
1772363379763239200,7.0632392578125,-0.005415617488324642,-0.011093012057244778,0.018664982169866562
1772363379773309000,7.073308837890625,0.00943363644182682,-0.026511117815971375,0.0017890622839331627
1772363379783378200,7.083378173828125,0.020273514091968536,-0.028341881930828094,-0.003982760012149811
1772363379793448000,7.093447998046875,0.01962370239198208,-0.0024578191805630922,-0.01571078971028328
1772363379803517200,7.10351708984375,0.01886191964149475,0.012207575142383575,-0.029657822102308273
1772363379813587200,7.113587158203125,0.02132134884595871,0.030720537528395653,-0.040206871926784515
1772363379823656200,7.12365625,0.021883968263864517,0.0354466438293457,-0.05032742768526077
1772363379833726200,7.133726318359375,0.021471446380019188,0.028465168550610542,-0.05506572127342224
1772363379843796000,7.1437958984375,0.014124849811196327,0.011786321178078651,-0.04254913330078125
1772363379853865200,7.153865234375,0.00977244507521391,0.0011238236911594868,-0.027908405289053917
1772363379863935000,7.16393505859375,0.008007202297449112,-0.0005599688738584518,-0.02231452614068985
1772363379874004200,7.174004150390625,0.0040500108152627945,-0.008190990425646305,-0.006387225352227688
1772363379884074000,7.184073974609375,0.0012141456827521324,-0.021479599177837372,0.003914777189493179
1772363379894144000,7.19414404296875,-0.0040794191882014275,-0.0383714959025383,0.010791590437293053
1772363379904213200,7.204213134765625,-0.009698031470179558,-0.0477624349296093,0.021463923156261444
1772363379914283000,7.214282958984375,-0.014214219525456429,-0.052377957850694656,0.026295166462659836
1772363379924352300,7.224352294921875,-0.02119966223835945,-0.053998131304979324,0.030702244490385056
1772363379934422000,7.234422119140625,-0.02330222725868225,-0.06113620474934578,0.02971794083714485
1772363379944491300,7.2444912109375,-0.02334734983742237,-0.06561300903558731,0.026454102247953415
1772363379954561000,7.25456103515625,-0.014661449939012527,-0.06516160815954208,0.01792985573410988
1772363379964631000,7.264631103515625,-0.011860879138112068,-0.06811492145061493,0.01179435197263956
1772363379974700000,7.274699951171875,-0.01830573007464409,-0.05559353530406952,0.012780253775417805
1772363379984770000,7.28477001953125,-0.013658881187438965,-0.026327934116125107,-0.004948498215526342
1772363379994839300,7.29483935546875,-0.01917242258787155,-0.04940475523471832,-0.010736612603068352
1772363380004909000,7.304908935546875,0.002945189829915762,-0.052205950021743774,0.0014650858938694
1772363380014978000,7.31497802734375,0.0031185615807771683,0.013746433891355991,0.012978730723261833
1772363380025048000,7.325048095703125,0.010502081364393234,0.02808082289993763,0.008946805261075497
1772363380035118000,7.3351181640625,0.01324140839278698,-0.02198207750916481,0.006811217404901981
1772363380045187000,7.34518701171875,0.011877347715198994,-0.04213222116231918,0.00422273576259613
1772363380055257000,7.355257080078125,0.013621452264487743,-0.022538812831044197,-0.0009552482515573502
1772363380065326000,7.365326171875,0.010685678571462631,-0.000047277193516492844,0.009921802207827568
1772363380075396000,7.37539599609375,0.010359174571931362,0.003449187148362398,0.0026572318747639656
1772363380085465000,7.385465087890625,0.009622775949537754,-0.012808237224817276,-0.002449383959174156
1772363380095535000,7.39553515625,0.0035872538574039936,-0.016583001241087914,-0.00043896399438381195
1772363380105605000,7.405605224609375,0.0009746509604156017,-0.016913190484046936,-0.0018327906727790833
1772363380115674000,7.415674072265625,-0.003452321980148554,-0.013935777358710766,-0.012474515475332737
1772363380125744000,7.425744140625,0.00016713934019207954,-0.02031746692955494,-0.0189730916172266
1772363380135813000,7.435813232421875,0.0023059239611029625,-0.031304337084293365,-0.015186875127255917
1772363380145883100,7.445883056640625,-0.016982760280370712,-0.03816605359315872,-0.0004218844696879387
1772363380155953200,7.455953125,-0.027041785418987274,-0.027579985558986664,0.006992623209953308
1772363380166022100,7.466022216796875,-0.030164070427417755,-0.008849112316966057,0.008465542457997799
1772363380176092200,7.476092041015625,-0.029011718928813934,0.006627315655350685,0.000241168774664402
1772363380186161200,7.4861611328125,-0.022566823288798332,0.006744782906025648,-0.0029494455084204674
1772363380196231200,7.496231201171875,-0.016566455364227295,-0.0033408745657652617,-0.010014278814196587
1772363380206300000,7.5062998046875,-0.010196428745985031,-0.003063240321353078,-0.014878429472446442
1772363380216370200,7.5163701171875,-0.0067644123919308186,0.0011493479833006859,-0.02192036062479019
1772363380226440200,7.526440185546875,-0.008719073608517647,0.0021790675818920135,-0.007231605239212513
1772363380236509200,7.53650927734375,-0.007595750968903303,0.012347282841801643,0.0015493696555495262
1772363380246579200,7.5465791015625,-0.006926959380507469,0.015518389642238617,0.00023210793733596802
1772363380256648000,7.55664794921875,-0.0021875975653529167,0.004500358831137419,0.015783902257680893
1772363380266718200,7.56671826171875,-0.008396249264478683,0.012923376634716988,0.027812182903289795
1772363380276787000,7.576786865234375,-0.014199011027812958,0.013429110869765282,0.034820556640625
1772363380286857200,7.586857177734375,-0.010151000693440437,0.014821210876107216,0.03405056148767471
1772363380296927000,7.596927001953125,-0.003783115651458502,0.02333001047372818,0.03030615672469139
1772363380306996200,7.606996337890625,-0.0006251935847103596,0.012642893940210342,0.02361392416059971
1772363380317066200,7.617066162109375,0.005016447044909,-0.0063113565556705,0.013955704867839813
1772363380327135000,7.627135009765625,0.011123727075755596,0.006530772894620895,0.010526412166655064
1772363380337205200,7.637205322265625,0.010896293446421623,0.032106705009937286,0.006835802458226681
1772363380347275000,7.64727490234375,0.009288247674703598,0.034223828464746475,0.002409815788269043
1772363380357344300,7.65734423828125,-0.0010291053913533688,0.035971395671367645,0.0037046438083052635
1772363380367414000,7.6674140625,-0.0038532624021172523,0.03498486056923866,0.004038850776851177
1772363380377483000,7.67748291015625,-0.0006401585415005684,0.024650199338793755,0.0019469382241368294
1772363380387553000,7.687552978515625,0.0007294695824384689,0.008386115543544292,0.0019405419006943703
1772363380397622000,7.6976220703125,0.0015902030281722546,-0.0037954493891447783,0.006014911457896233
1772363380407692300,7.7076923828125,0.002491534221917391,-0.0065919626504182816,0.007875524461269379
1772363380417762000,7.717761962890625,0.010516969487071037,0.0016688965260982513,0.011154407635331154
1772363380427831300,7.727831298828125,0.011803271248936653,-0.0003732810728251934,0.018393222242593765
1772363380437901000,7.737901123046875,0.007117972709238529,-0.008645592257380486,0.022069185972213745
1772363380447970000,7.747969970703125,0.0029064971022307873,-0.008451659232378006,0.026508720591664314
1772363380458040000,7.7580400390625,-0.00031832512468099594,-0.003922687377780676,0.029470419511198997
1772363380468109000,7.768109130859375,-0.0011914987117052078,0.0049686552956700325,0.011402936652302742
1772363380478179000,7.778178955078125,-0.0013432987034320831,0.0004724403843283653,-0.008157980628311634
1772363380488249000,7.7882490234375,0.00212146807461977,-0.006033726967871189,-0.022223923355340958
1772363380498318000,7.798318115234375,0.0054877037182450294,0.00016318261623382568,-0.042550764977931976
1772363380508388000,7.80838818359375,0.00731277372688055,0.01570305973291397,-0.04914482682943344
1772363380518457000,7.81845703125,0.007348726503551006,0.018679406493902206,-0.043451789766550064
1772363380528527000,7.828527099609375,0.006921922322362661,0.02050488069653511,-0.024507567286491394
1772363380538596000,7.83859619140625,0.008084658533334732,0.01617484539747238,0.002899555489420891
1772363380548666000,7.848666015625,0.015225321054458618,0.00885829422622919,0.022108659148216248
1772363380558736100,7.858736083984375,0.014860734343528748,-0.003645513439550996,0.03997953608632088
1772363380568804900,7.868804931640625,0.022056158632040024,-0.005557852331548929,0.0511426106095314
1772363380578875100,7.878875244140625,0.027668237686157227,-0.0038984366692602634,0.04975030571222305
1772363380588944100,7.888944091796875,0.02802284061908722,-0.003265104489400983,0.038447145372629166
1772363380599014100,7.89901416015625,0.02091992273926735,0.0015115411952137947,0.03371071442961693
1772363380609083100,7.909083251953125,0.01684838905930519,0.006594374310225248,0.020219776779413223
1772363380619152600,7.919152587890625,0.009359045885503292,0.004480623174458742,0.000021562911570072174
1772363380629222400,7.929222412109375,0.009846114553511143,-0.0085214888677001,-0.011216068640351295
1772363380639291600,7.939291748046875,0.006450317800045013,-0.011367875151336193,-0.014093348756432533
1772363380649361400,7.949361328125,0.002841284964233637,-0.01578691229224205,-0.01965610682964325
1772363380659430400,7.959430419921875,0.0012061037123203278,-0.025188405066728592,-0.023706775158643723
1772363380669500400,7.96950048828125,-0.002259420230984688,-0.030027346685528755,-0.031611718237400055
1772363380679569400,7.9795693359375,-0.004763591103255749,-0.026400120928883553,-0.036363329738378525
1772363380689639700,7.9896396484375,-0.007928041741251945,-0.02031923644244671,-0.036073435097932816
1772363380699709400,7.99970947265625,-0.019409727305173874,-0.015720756724476814,-0.02605382353067398
1772363380709778400,8.0097783203125,-0.025919955223798752,-0.00604679249227047,-0.002340143546462059
1772363380719847400,8.019847412109375,-0.030398327857255936,-0.0007138126529753208,0.012496060691773891
1772363380729917400,8.02991748046875,-0.033484555780887604,-0.004003142938017845,0.026716824620962143
1772363380739986400,8.039986328125,-0.0341775119304657,-0.00418423768132925,0.03596385195851326
1772363380750056400,8.050056396484376,-0.033657729625701904,-0.00146406888961792,0.037693753838539124
1772363380760125400,8.06012548828125,-0.034555211663246155,0.006512630730867386,0.04063308238983154
1772363380770195500,8.070195556640625,-0.029944417998194695,0.009876187890768051,0.042189255356788635
1772363380780265500,8.080265380859375,-0.02593209780752659,0.009774720296263695,0.04866207018494606
1772363380790334500,8.09033447265625,-0.019454563036561012,0.006334933452308178,0.042524270713329315
1772363380800404500,8.100404541015624,-0.020720629021525383,0.002880280837416649,0.03826108202338219
1772363380810473500,8.110473388671876,-0.020720161497592926,0.013371020555496216,0.03626815602183342
1772363380820543500,8.12054345703125,-0.013671839609742165,0.0317513607442379,0.032752782106399536
1772363380830612500,8.130612548828125,-0.00941937044262886,0.041936635971069336,0.01860465481877327
1772363380840682500,8.1406826171875,-0.007651564199477434,0.03082992136478424,0.00005760136991739273
1772363380850752300,8.150752197265625,-0.00167190283536911,0.010006116703152657,-0.01831892319023609
1772363380860821500,8.160821533203125,-0.008086392655968666,0.00364835187792778,-0.02462102845311165
1772363380870891500,8.1708916015625,-0.004519036505371332,0.003977908752858639,-0.023409055545926094
1772363380880960500,8.18096044921875,-0.00281913997605443,0.014517635107040405,-0.027922313660383224
1772363380891030500,8.191030517578126,0.0015947306528687477,0.013661837205290794,-0.03111807443201542
1772363380901099500,8.201099609375,0.0017238939180970192,0.016479196026921272,-0.02967810444533825
1772363380911169500,8.21116943359375,0.010996020399034023,0.012162196449935436,-0.024557027965784073
1772363380921239300,8.2212392578125,0.010284423828125,0.006811372935771942,-0.011761869303882122
1772363380931308500,8.23130859375,0.00465297419577837,0.0037905978970229626,0.008368441835045815
1772363380941378300,8.24137841796875,0.004344846587628126,0.014210216701030731,0.027133606374263763
1772363380951447600,8.251447509765624,0.0012262850068509579,0.015012891963124275,0.030267883092164993
1772363380961517600,8.261517578125,0.0020705070346593857,0.009838903322815895,0.03018772229552269
1772363380971586600,8.271586669921875,0.003613666631281376,0.005219553131610155,0.029667319729924202
1772363380981656600,8.281656494140625,0.005485869012773037,0.005263495724648237,0.026971666142344475
1772363380991726300,8.291726318359375,0.0022714505903422832,0.0056618331000208855,0.024058207869529724
1772363381001795600,8.301795654296875,0.004542860668152571,-0.007519216276705265,0.028041232377290726
1772363381011865300,8.311865234375,0.004835531115531921,0.012043701484799385,0.03602873906493187
1772363381021934600,8.3219345703125,0.004865624941885471,0.03246188908815384,0.02664828673005104
1772363381032004400,8.33200439453125,-0.00047811493277549744,0.02605811506509781,0.017413491383194923
1772363381042073600,8.342073486328125,-0.002846197225153446,0.006909720133990049,0.011213386431336403
1772363381052143600,8.3521435546875,-0.0037201102823019028,-0.003829178400337696,0.010176447220146656
1772363381062213400,8.36221337890625,-0.008245086297392845,-0.0036068041808903217,0.01709454134106636
1772363381072282600,8.37228271484375,-0.010717169381678104,0.0021740873344242573,0.027634436264634132
1772363381082352400,8.382352294921875,-0.01955913007259369,0.010013367980718613,0.03405531495809555
1772363381092421600,8.392421630859374,-0.01591811142861843,0.011477187275886536,0.03623141720890999
1772363381102491400,8.402491455078126,-0.014738064259290695,0.011361073702573776,0.03631797060370445
1772363381112560400,8.412560302734375,-0.013313928619027138,0.002880371641367674,0.041346225887537
1772363381122630400,8.42263037109375,-0.006263210903853178,0.0017679696902632713,0.03641538321971893
1772363381132700400,8.432700439453125,-0.005704366602003574,-0.0003574979491531849,0.030977416783571243
1772363381142769700,8.442769775390625,0.0021916390396654606,-0.0047181579284369946,0.022934935986995697
1772363381152839400,8.45283935546875,0.00008684862405061722,0.002911987714469433,0.018318183720111847
1772363381162908700,8.46290869140625,0.001521493773907423,0.008208748884499073,0.021572567522525787
1772363381172978400,8.472978515625,0.000019565224647521973,0.017876366153359413,0.023059040307998657
1772363381183047400,8.48304736328125,0.004400464706122875,0.022403741255402565,0.01652151346206665
1772363381193117400,8.493117431640625,0.005957284942269325,0.018657222390174866,0.005743616260588169
1772363381203187500,8.5031875,0.005755949765443802,0.017015915364027023,-0.012055088765919209
1772363381213256400,8.51325634765625,0.006744076032191515,0.016537688672542572,-0.026823215186595917
1772363381223326500,8.523326416015625,0.004410081543028355,0.016794685274362564,-0.03491310030221939
1772363381233395500,8.5333955078125,0.0007890886627137661,0.024760670959949493,-0.032526895403862
1772363381243465500,8.543465576171876,-0.007168170530349016,0.02046019956469536,-0.01857512630522251
1772363381253534500,8.553534423828125,-0.012746457010507584,0.00658050924539566,0.00047411955893039703
1772363381263604500,8.5636044921875,-0.009943746030330658,-0.010466917417943478,0.018820637837052345
1772363381273674500,8.573674560546875,-0.009902308695018291,-0.015164939686655998,0.03627364709973335
1772363381283743500,8.583743408203125,-0.003392476588487625,-0.003776197787374258,0.04619072377681732
1772363381293813500,8.5938134765625,-0.0007469868287444115,0.007280903868377209,0.05376832187175751
1772363381303882200,8.60388232421875,0.00795648992061615,0.011700153350830078,0.0511283278465271
1772363381313952500,8.613952392578126,0.0026344587095081806,0.011737797409296036,0.04912304878234863
1772363381324021500,8.624021484375,0.00166746461763978,0.013246478512883186,0.040836356580257416
1772363381334091500,8.634091552734375,-0.0005259569734334946,0.013890208676457405,0.029854614287614822
1772363381344160500,8.644160400390625,-0.005484497174620628,0.011286169290542603,0.017365720123052597
1772363381354230500,8.65423046875,-0.0033271820284426212,0.00843122135847807,0.008593670092523098
1772363381364300500,8.664300537109375,-0.0022992021404206753,0.003868428058922291,0.0007964670658111572
1772363381374369300,8.674369384765624,0.0018964190967381,-0.003316098591312766,-0.017184272408485413
1772363381384439600,8.684439453125,-0.0004847128875553608,-0.013488042168319225,-0.03028889000415802
1772363381394508300,8.69450830078125,-0.0023515112698078156,-0.01969868876039982,-0.03087778016924858
1772363381404578600,8.70457861328125,-0.013133851811289787,-0.01843741536140442,-0.02022593282163143
1772363381414647300,8.714647216796875,-0.024628445506095886,-0.011080335825681686,0.0019989656284451485
1772363381424717300,8.72471728515625,-0.023917648941278458,-0.003960108384490013,0.010535461828112602
1772363381434787600,8.73478759765625,-0.01697925478219986,-0.008905413560569286,0.017503250390291214
1772363381444856300,8.744856201171874,-0.011180754750967026,-0.02412005141377449,0.028231792151927948
1772363381454926600,8.754926513671874,-0.00332468468695879,-0.027917856350541115,0.033082593232393265
1772363381464995300,8.764995361328126,0.005815017502754927,-0.018876690417528152,0.03738332912325859
1772363381475065300,8.7750654296875,-0.0035964460112154484,-0.021275203675031662,0.035334162414073944
1772363381485134300,8.78513427734375,-0.005727240350097418,-0.037963636219501495,0.03998271003365517
1772363381495204400,8.795204345703125,0.009663219563663006,0.0022747223265469074,0.04806696996092796
1772363381505274600,8.805274658203125,0.002491593360900879,0.03456927835941315,0.042596571147441864
1772363381515343400,8.81534326171875,0.0013867313973605633,0.004822209943085909,0.02087116427719593
1772363381525413600,8.82541357421875,-0.005203793756663799,-0.035362228751182556,-0.004723144695162773
1772363381535482400,8.835482421875,0.00266758119687438,-0.04350481182336807,-0.013329853303730488
1772363381545552400,8.845552490234375,-0.0006227539852261543,-0.0215302687138319,-0.008656538091599941
1772363381555621400,8.855621337890625,-0.008260604925453663,-0.008313989266753197,-0.024680614471435547
1772363381565691400,8.86569140625,-0.01497736293822527,-0.02182127721607685,-0.01765040121972561
1772363381575761700,8.87576171875,-0.003275095485150814,-0.013193119317293167,-0.02804550714790821
1772363381585830400,8.885830322265624,0.0057892389595508575,0.000726957805454731,-0.03437371179461479
1772363381595900400,8.895900390625,0.005956585519015789,0.008455591276288033,-0.03570732846856117
1772363381605969400,8.905969482421876,0.0152592733502388,0.010584257543087006,-0.04272715747356415
1772363381616039200,8.9160390625,0.01414300687611103,0.0036882362328469753,-0.049612857401371
1772363381626108400,8.9261083984375,0.012015407904982567,-0.008449120447039604,-0.039759427309036255
1772363381636178400,8.936178466796875,0.007102443836629391,-0.0008871844038367271,-0.022968456149101257
1772363381646248400,8.94624853515625,0.005623324308544397,0.01435248926281929,-0.008447304368019104
1772363381656317400,8.9563173828125,0.0006892858073115349,0.00782215129584074,0.004418692551553249
1772363381666387200,8.96638720703125,0.004164178390055895,0.0013975417241454124,0.008204641751945019
1772363381676456400,8.97645654296875,0.003224779851734638,-0.002758462680503726,0.004574931226670742
1772363381686526200,8.986526123046875,0.007102075964212418,-0.011732250452041626,0.0009003011509776115
1772363381696595500,8.996595458984375,0.00707563990727067,-0.02384142577648163,-0.0063600195571780205
1772363381706665200,9.006665283203125,0.0055957213044166565,-0.02258920669555664,-0.005576251074671745
1772363381716735500,9.016735595703125,0.007107230834662914,-0.008912683464586735,-0.0066493297927081585
1772363381726804500,9.026804443359374,0.00038887420669198036,-0.01668165810406208,-0.011644621379673481
1772363381736874200,9.036874267578124,0.0022720727138221264,-0.012744860723614693,-0.0003824438899755478
1772363381746943500,9.046943603515626,0.0040835547260940075,0.013181811198592186,0.0048171114176511765
1772363381757013200,9.05701318359375,-0.0002967952750623226,0.02016911283135414,-0.011399445123970509
1772363381767082500,9.06708251953125,0.01324031874537468,0.006573142949491739,0.0008353833109140396
1772363381777152300,9.07715234375,0.015689043328166008,0.04667143523693085,0.03131342679262161
1772363381787222300,9.08722216796875,0.009298787452280521,0.06717538088560104,0.07862981408834457
1772363381797291300,9.097291259765624,0.000023684464395046234,0.08505318313837051,0.10598159581422806
1772363381807361300,9.107361328125,-0.018008580431342125,0.06171030551195145,0.06935940682888031
1772363381817430300,9.11743017578125,-0.013911898247897625,0.009650379419326782,0.07323867082595825
1772363381827500300,9.127500244140625,-0.0016637537628412247,0.0025906055234372616,0.047040894627571106
1772363381837569500,9.137569580078125,-0.025464115664362907,-0.028614230453968048,0.047932714223861694
1772363381847639300,9.147639404296875,-0.0415610633790493,-0.07584166526794434,0.035977788269519806
1772363381857709300,9.157709228515625,-0.0450870655477047,-0.08670233190059662,-0.003360070288181305
1772363381867778300,9.1677783203125,-0.042313650250434875,-0.08396434038877487,-0.049333423376083374
1772363381877848300,9.177848388671874,-0.03319648280739784,-0.11431431770324707,-0.10157636553049088
1772363381887917300,9.187917236328126,-0.022432781755924225,-0.19386348128318787,-0.14120259881019592
1772363381897987300,9.1979873046875,-0.03897443413734436,-0.2490210384130478,-0.1378076821565628
1772363381908056300,9.208056396484375,-0.021385852247476578,-0.2084224820137024,-0.10391842573881149
1772363381918126300,9.218126220703125,-0.031991057097911835,-0.04880496859550476,-0.056004688143730164
1772363381928196400,9.2281962890625,-0.05301298201084137,0.0885145366191864,-0.025970622897148132
1772363381938265300,9.238265380859374,-0.04957055300474167,0.0861329659819603,-0.031195931136608124
1772363381948335400,9.24833544921875,-0.03518762066960335,0.022707123309373856,-0.04044455662369728
1772363381958404400,9.258404296875,-0.015750136226415634,-0.021738072857260704,-0.02419012412428856
1772363381968474400,9.268474365234376,-0.011095995083451271,-0.03201867267489433,-0.0019391467794775963
1772363381978543400,9.27854345703125,-0.005952176637947559,-0.015716779977083206,0.005905258469283581
1772363381988613400,9.28861328125,0.0001925346441566944,-0.0010968232527375221,0.014226571656763554
1772363381998682400,9.298682373046875,0.0018728291615843773,0.013610689900815487,0.020183812826871872
1772363382008752400,9.30875244140625,0.005737076047807932,0.011052989400923252,0.020006712526082993
1772363382018822400,9.318822509765624,0.014718552120029926,-0.013700717128813267,0.011903506703674793
1772363382028891400,9.328891357421876,0.023836683481931686,-0.048970289528369904,0.024056576192378998
1772363382038961400,9.33896142578125,0.02180212177336216,-0.03118029609322548,0.03478022664785385
1772363382049030400,9.349030517578125,0.015497887507081032,0.009766869246959686,0.030409179627895355
1772363382059100400,9.359100341796875,0.016798580065369606,0.008736023679375648,0.01241172943264246
1772363382069170400,9.36917041015625,0.02127535454928875,0.0017518829554319382,0.002947387285530567
1772363382079239400,9.379239501953125,0.01921606808900833,0.00533200241625309,-0.0007484517991542816
1772363382089309400,9.389309326171874,0.011241232976317406,0.0037285136058926582,-0.009077221155166626
1772363382099378400,9.39937841796875,0.008821412920951843,0.006247549317777157,-0.02229662984609604
1772363382109448400,9.409448486328126,-0.001584623008966446,-0.002964058890938759,-0.03634613752365112
1772363382119517400,9.419517333984375,-0.00786984246224165,-0.02730887196958065,-0.03015720099210739
1772363382129587500,9.42958740234375,-0.005457284860312939,-0.03904089704155922,-0.031674403697252274
1772363382139656200,9.43965625,-0.004910808987915516,-0.056447915732860565,-0.021526621654629707
1772363382149726500,9.4497265625,-0.008016321808099747,-0.06776554882526398,-0.007218788377940655
1772363382159796500,9.45979638671875,-0.008747803047299385,-0.07136452943086624,0.0036394260823726654
1772363382169865500,9.469865478515626,-0.013000871986150742,-0.0733664259314537,0.002246059477329254
1772363382179935500,9.479935546875,-0.000696275383234024,-0.06771925836801529,0.0000540856271982193
1772363382190004200,9.490004150390625,0.006229008547961712,-0.04947580769658089,-0.0024114688858389854
1772363382200074500,9.500074462890625,0.012333957478404045,-0.03204457089304924,0.01930895820260048
1772363382210143200,9.510143310546875,0.013216795399785042,-0.020509088411927223,0.029768791049718857
1772363382220213500,9.520213623046875,0.019137736409902573,-0.027059383690357208,0.03590995445847511
1772363382230283300,9.530283203125,0.019386209547519684,-0.006335462909191847,0.044315155595541
1772363382240352500,9.5403525390625,0.0349014513194561,-0.000291669275611639,0.028861548751592636
1772363382250422500,9.550422607421876,0.03988609090447426,-0.011293720453977585,0.01672818511724472
1772363382260491300,9.5604912109375,0.02823423035442829,-0.017001939937472343,0.0034304894506931305
1772363382270561500,9.5705615234375,0.019170161336660385,-0.010739782825112343,-0.00579230347648263
1772363382280630300,9.58063037109375,0.019789138808846474,-0.004405268467962742,-0.02312452904880047
1772363382290700500,9.590700439453125,0.014786656945943832,-0.008536363951861858,-0.04559441655874252
1772363382300770300,9.600770263671874,0.008025601506233215,-0.03689131885766983,-0.06418858468532562
1772363382310839300,9.61083935546875,0.01045813225209713,-0.03479407727718353,-0.05150793865323067
1772363382320909300,9.620909423828126,0.022498490288853645,-0.006402530241757631,0.027456674724817276
1772363382330978300,9.630978271484375,0.009817049838602543,0.09994548559188843,0.06700887531042099
1772363382341048600,9.641048583984375,-0.030147559940814972,0.09989707171916962,0.06489473581314087
1772363382351117300,9.651117431640625,-0.021686960011720657,0.0495111346244812,0.09482467174530029
1772363382361187600,9.6611875,0.017180081456899643,0.07694253325462341,0.041164908558130264
1772363382371256300,9.67125634765625,0.014224505051970482,0.020785260945558548,0.007544364780187607
1772363382381326300,9.681326416015626,0.005720220506191254,-0.09844964742660522,0.0019020745530724525
1772363382391396400,9.691396240234376,0.005258428864181042,-0.17175182700157166,-0.031873200088739395
1772363382401465300,9.70146533203125,0.01923261024057865,-0.24052001535892487,-0.07363270223140717
1772363382411535400,9.711535400390625,0.029644237831234932,-0.2736782133579254,-0.08331888169050217
1772363382421604400,9.721604248046875,0.03487074375152588,-0.23623673617839813,-0.08550989627838135
1772363382431674400,9.73167431640625,0.041213858872652054,-0.2000369280576706,-0.08406539261341095
1772363382441743400,9.741743408203124,0.005132160149514675,-0.17889724671840668,-0.04727106913924217
1772363382451813400,9.7518134765625,-0.0013616918586194515,-0.07788433879613876,0.014435970224440098
1772363382461883400,9.76188330078125,-0.021656328812241554,0.10988585650920868,0.015168111771345139
1772363382471952400,9.771952392578125,-0.024679282680153847,0.1613999307155609,-0.014033449813723564
