time,seconds_elapsed,z,y,x
1772363461895958000,0.1139580078125,0.017419565469026566,0.0169764943420887,-0.007651262450963259
1772363461906028000,0.124028076171875,0.01996970921754837,0.03695379197597504,-0.0020179683342576027
1772363461916097000,0.134096923828125,0.011300320737063885,0.05340227112174034,-0.0015284791588783264
1772363461926167000,0.1441669921875,0.0076221926137804985,0.04109298810362816,0.009566506370902061
1772363461936236000,0.154236083984375,0.010610259138047695,0.02016453631222248,0.02154567278921604
1772363461946306000,0.16430615234375,0.0054706609807908535,0.012315290048718452,0.02167724072933197
1772363461956374800,0.174374755859375,0.0014104056172072887,-0.0012473908718675375,0.03021373599767685
1772363461966445000,0.184445068359375,-0.0026775747537612915,-0.005207344423979521,0.02876969426870346
1772363461976513800,0.194513671875,-0.0003334600478410721,-0.014787799678742886,0.016335396096110344
1772363461986584000,0.204583984375,0.0004458730109035969,-0.012476090341806412,0.00006177742034196854
1772363461996653000,0.214653076171875,0.004303461872041225,-0.00891304761171341,-0.016337968409061432
1772363462006722800,0.224722900390625,0.008395738899707794,0.00576308649033308,-0.02695084922015667
1772363462016792000,0.2347919921875,0.004729099106043577,0.022318894043564796,-0.036374177783727646
1772363462026861800,0.24486181640625,0.0020941393449902534,0.017506197094917297,-0.04110535979270935
1772363462036931000,0.25493115234375,-0.0025815721601247787,0.014580447226762772,-0.04670358821749687
1772363462047000800,0.265000732421875,-0.009736355394124985,0.006580564193427563,-0.035094253718853
1772363462057070000,0.275070068359375,-0.012002173811197281,0.003334970213472843,-0.020762719213962555
1772363462067139800,0.285139892578125,-0.014966381713747978,0.00837001483887434,-0.01462708879262209
1772363462077209000,0.295208984375,-0.011646484956145287,0.007753758691251278,-0.001084914430975914
1772363462087279000,0.305279052734375,-0.0027449517510831356,0.0028119045309722424,0.0144299091771245
1772363462097348000,0.31534814453125,0.0028109350241720676,-0.001026242971420288,0.028163034468889236
1772363462107418000,0.325418212890625,0.016359049826860428,0.0022724405862390995,0.0483233816921711
1772363462117486800,0.33548681640625,0.005354869179427624,-0.002636830322444439,0.03528454527258873
1772363462127557000,0.34555712890625,0.006331680342555046,-0.01460203342139721,0.03193987160921097
1772363462137625900,0.3556259765625,0.002882353961467743,0.001679734792560339,0.031201379373669624
1772363462147696000,0.365696044921875,-0.005075281020253897,0.009235462173819542,0.028374936431646347
1772363462157764900,0.375764892578125,-0.009594932198524475,-0.003979142755270004,0.01428734976798296
1772363462167835000,0.3858349609375,-0.01176832802593708,-0.014479666948318481,-0.0054632518440485
1772363462177903900,0.39590380859375,-0.0050904517993330956,-0.020571116358041763,-0.021177764981985092
1772363462187974000,0.405973876953125,0.002273611258715391,-0.026778871193528175,-0.0371711403131485
1772363462198043000,0.41604296875,0.0043213157914578915,-0.02217426523566246,-0.045752909034490585
1772363462208113000,0.42611279296875,0.003646350931376219,-0.00891563855111599,-0.048135604709386826
1772363462218182100,0.43618212890625,-0.002412607427686453,0.004861160181462765,-0.04142603650689125
1772363462228252000,0.446251953125,-0.0008938433602452278,0.010032067075371742,-0.03241816908121109
1772363462238321200,0.456321044921875,-0.004022258333861828,0.013178059831261635,-0.01070062443614006
1772363462248391000,0.466390869140625,-0.0000016195699572563171,0.008460255339741707,0.00659802183508873
1772363462258460200,0.476460205078125,0.004975295625627041,0.003410103265196085,0.024783682078123093
1772363462268530000,0.486530029296875,0.01669430546462536,0.001430463045835495,0.034376129508018494
1772363462278599000,0.496598876953125,0.02253168821334839,0.010028212331235409,0.039857447147369385
1772363462288669000,0.5066689453125,0.023416409268975258,0.021563740447163582,0.0375925675034523
1772363462298738000,0.516738037109375,0.022844895720481873,0.022557366639375687,0.033400751650333405
1772363462308808200,0.52680810546875,0.021504536271095276,0.015508832409977913,0.0393720306456089
1772363462318877000,0.536876953125,0.026059607043862343,0.022977666929364204,0.04274199530482292
1772363462328947000,0.546947021484375,0.02823743037879467,0.0254113357514143,0.04541391506791115
1772363462339016000,0.557015869140625,0.024841366335749626,0.022386783733963966,0.042931314557790756
1772363462349086000,0.5670859375,0.021347124129533768,0.02590816281735897,0.03520430624485016
1772363462359155000,0.577155029296875,0.019475188106298447,0.031354859471321106,0.02390877716243267
1772363462369225000,0.587224853515625,0.021037334576249123,0.029246388003230095,0.01377377100288868
1772363462379294000,0.5972939453125,0.01736164093017578,0.019387099891901016,0.007952101528644562
1772363462389364000,0.607364013671875,0.013134606182575226,0.01782516948878765,-0.004219958558678627
1772363462399433000,0.617432861328125,0.010382229462265968,0.021029751747846603,-0.010645899921655655
1772363462409503000,0.6275029296875,0.015237841755151749,0.027497531846165657,-0.020502157509326935
1772363462419572000,0.637572021484375,0.018661601468920708,0.03434957563877106,-0.02565351128578186
1772363462429642000,0.64764208984375,0.020610971376299858,0.04115317016839981,-0.03236209601163864
1772363462439711000,0.6577109375,0.018289227038621902,0.04181709513068199,-0.029189471155405045
1772363462449781000,0.667781005859375,0.010475908406078815,0.04414466768503189,-0.017520666122436523
1772363462459850000,0.67785009765625,0.010030361823737621,0.04696549475193024,-0.005560942925512791
1772363462469920000,0.687919921875,0.0061955926939845085,0.04720593988895416,0.008344531059265137
1772363462479989000,0.697989013671875,0.0006919042207300663,0.045846663415431976,0.016401126980781555
1772363462490059000,0.70805908203125,-0.0016328790225088596,0.03388648107647896,0.020168937742710114
1772363462500128000,0.7181279296875,-0.0036054826341569424,0.028520477935671806,0.024643316864967346
1772363462510197800,0.72819775390625,-0.00750442361459136,0.02712893672287464,0.030303314328193665
1772363462520267000,0.73826708984375,-0.010454406961798668,0.025812001898884773,0.03419552370905876
1772363462530337000,0.7483369140625,-0.005943379830569029,0.02460944652557373,0.029421981424093246
1772363462540406000,0.758406005859375,-0.006379339378327131,0.025072569027543068,0.022022657096385956
1772363462550476000,0.76847607421875,-0.002376176416873932,0.03207547962665558,0.01893489435315132
1772363462560545000,0.778544921875,-0.011111345142126083,0.03226376697421074,0.010879365727305412
1772363462570615000,0.788614990234375,-0.018777677789330482,0.018674110993742943,0.005898749455809593
1772363462580684000,0.79868408203125,-0.019624562934041023,0.00647310446947813,-0.00046966690570116043
1772363462590754000,0.808754150390625,-0.020165763795375824,-0.005191479343920946,0.0031280517578125
1772363462600823000,0.818822998046875,-0.02513841539621353,-0.011175869032740593,0.017487017437815666
1772363462610893000,0.82889306640625,-0.031147968024015427,-0.01849314384162426,0.033726274967193604
1772363462620961800,0.8389619140625,-0.02960652858018875,-0.020621275529265404,0.04520289972424507
1772363462631032000,0.849031982421875,-0.028344321995973587,-0.024113185703754425,0.04573776572942734
1772363462641100800,0.859100830078125,-0.031203489750623703,-0.030864300206303596,0.04922570660710335
1772363462651171000,0.869171142578125,-0.029686298221349716,-0.041449882090091705,0.045456334948539734
1772363462661239800,0.87923974609375,-0.028973370790481567,-0.051260702311992645,0.03278501331806183
1772363462671309800,0.889309814453125,-0.029258398339152336,-0.05143224820494652,0.026355857029557228
1772363462681379000,0.899379150390625,-0.025984840467572212,-0.05172546207904816,0.023131834343075752
1772363462691448800,0.90944873046875,-0.02515755593776703,-0.04616192728281021,0.021903611719608307
1772363462701517800,0.919517822265625,-0.021658694371581078,-0.028540857136249542,0.010117793455719948
1772363462711587800,0.929587890625,-0.00941501185297966,-0.012055637314915657,-0.005683458410203457
1772363462721656800,0.93965673828125,-0.0008343071676790714,-0.006605478003621101,-0.011378628201782703
1772363462731726800,0.949726806640625,0.008723649196326733,0.0038682278245687485,-0.01336551085114479
1772363462741795800,0.9597958984375,0.016884639859199524,0.006890915334224701,-0.0038353893905878067
1772363462751865900,0.969865966796875,0.0178840234875679,0.013497013598680496,0.009715215303003788
1772363462761934800,0.979934814453125,0.020658504217863083,0.014991046860814095,0.02015853300690651
1772363462772004900,0.9900048828125,0.022120121866464615,-0.0010608509182929993,0.025063563138246536
1772363462782073900,1.000073974609375,0.025563055649399757,-0.0030755321495234966,0.026451602578163147
1772363462792144000,1.010143798828125,0.026254311203956604,-0.0037057758308947086,0.025562547147274017
1772363462802212600,1.020212646484375,0.023546941578388214,0.005172670353204012,0.025302357971668243
1772363462812283000,1.030282958984375,0.021121252328157425,0.01421827357262373,0.028015898540616035
1772363462822351600,1.0403515625,0.024196403101086617,0.02429753914475441,0.030103815719485283
1772363462832422000,1.050421875,0.01989603228867054,0.026424745097756386,0.02526254951953888
1772363462842491000,1.060490966796875,0.013693530112504959,0.030744390562176704,0.02393149957060814
1772363462852560600,1.070560546875,0.008310684934258461,0.03724358603358269,0.010484584607183933
1772363462862630000,1.0806298828125,0.010873710736632347,0.03543316572904587,0.002419200725853443
1772363462872699600,1.09069970703125,0.009759425185620785,0.028451373800635338,-0.01331782154738903
1772363462882769000,1.100768798828125,0.013358155265450478,0.0156391728669405,-0.028430461883544922
1772363462892838700,1.110838623046875,0.002387888263911009,0.0072582922875881195,-0.03314436599612236
1772363462902908000,1.120907958984375,-0.004288389813154936,0.004003376699984074,-0.03418220207095146
1772363462912976600,1.1309765625,-0.00812330562621355,0.006134591065347195,-0.025525053963065147
1772363462923047000,1.141046875,-0.013528724201023579,0.0021121525205671787,-0.008922109380364418
1772363462933115600,1.15111572265625,-0.01693209819495678,0.0000141938216984272,0.003106893040239811
1772363462943186000,1.16118603515625,-0.018639182671904564,-0.009415793232619762,0.01841207966208458
1772363462953254700,1.171254638671875,-0.01804637350142002,-0.011648907326161861,0.029194751754403114
1772363462963324700,1.18132470703125,-0.01611318439245224,-0.0000029043294489383698,0.02387055940926075
1772363462973394000,1.191393798828125,-0.017080005258321762,0.005028997082263231,0.02160485088825226
1772363462983463700,1.201463623046875,-0.014798738993704319,0.0036641270853579044,0.021508175879716873
1772363462993533000,1.211532958984375,-0.006991967558860779,0.0014736275188624859,0.022165309637784958
1772363463003602700,1.221602783203125,-0.003986324183642864,0.00037853559479117393,0.028580065816640854
1772363463013672000,1.231671875,-0.012063599191606045,0.00019971653819084167,0.03387857973575592
1772363463023741700,1.24174169921875,-0.020542573183774948,-0.008670739829540253,0.03490149974822998
1772363463033811000,1.25181103515625,-0.023761112242937088,-0.011461447924375534,0.027240891009569168
1772363463043880700,1.261880615234375,-0.026318814605474472,-0.011833759024739265,0.01560953352600336
1772363463053950000,1.271949951171875,-0.03955662250518799,-0.02178822085261345,0.00580722838640213
1772363463064020000,1.28202001953125,-0.04425283893942833,-0.03275937959551811,-0.010340848937630653
1772363463074088700,1.292088623046875,-0.039944957941770554,-0.03997728228569031,-0.02088557928800583
1772363463084159000,1.302158935546875,-0.02848723903298378,-0.04047715663909912,-0.030179213732481003
1772363463094227700,1.312227783203125,-0.033450886607170105,-0.025287490338087082,-0.031200747936964035
1772363463104298000,1.322298095703125,-0.02753147855401039,-0.002746228827163577,-0.041370827704668045
1772363463114366700,1.33236669921875,-0.031083500012755394,0.0038484307006001472,-0.039814382791519165
1772363463124436700,1.342436767578125,-0.03599703311920166,-0.004069413989782333,-0.04869362711906433
1772363463134505700,1.352505615234375,-0.03823541849851608,-0.021066773682832718,-0.042164888232946396
1772363463144575700,1.36257568359375,-0.034280091524124146,-0.0218028724193573,-0.03817867115139961
1772363463154644700,1.372644775390625,-0.027889231219887733,-0.020216122269630432,-0.02951166033744812
1772363463164714800,1.38271484375,-0.025377603247761726,-0.022502977401018143,-0.0234854593873024
1772363463174783700,1.39278369140625,-0.01640705019235611,-0.01579323783516884,-0.0172592643648386
1772363463184853800,1.402853759765625,-0.0061719901859760284,-0.004180790390819311,-0.0146411107853055
1772363463194923000,1.412923095703125,-0.0019103619270026684,0.003892676904797554,-0.009143538773059845
1772363463204992800,1.42299267578125,0.004631426651030779,0.005114801228046417,-0.0044473204761743546
1772363463215062000,1.43306201171875,0.0082100173458457,0.00998719409108162,0.0015605976805090904
1772363463225131800,1.4431318359375,0.012133119627833366,0.01841689832508564,0.0005749622359871864
1772363463235200800,1.45320068359375,0.019515052437782288,0.022634457796812057,0.0019060531631112099
1772363463245270800,1.463270751953125,0.023516451939940453,0.01682184264063835,-0.0015619155019521713
1772363463255339800,1.47333984375,0.029414702206850052,0.012050598859786987,-0.0008031418547034264
1772363463265409800,1.483409912109375,0.02746446803212166,0.0055732582695782185,0.0007803738117218018
1772363463275478800,1.493478759765625,0.02894393727183342,0.000290650874376297,0.009279269725084305
1772363463285548800,1.503548828125,0.020745130255818367,-0.0037653434555977583,0.01147904247045517
1772363463295617800,1.51361767578125,0.01457051932811737,-0.01292926725000143,0.012687304057180882
1772363463305687800,1.523687744140625,0.010041813366115093,-0.03132558614015579,0.011016703210771084
1772363463315756800,1.5337568359375,0.0018039294518530369,-0.04228371009230614,0.012590911239385605
1772363463325826800,1.543826904296875,-0.006558396387845278,-0.045029427856206894,0.008784456178545952
1772363463335895800,1.553895751953125,-0.007617011666297913,-0.03601649031043053,0.0003345794975757599
1772363463345965800,1.5639658203125,-0.011037575080990791,-0.03225131332874298,-0.007953976280987263
1772363463356034800,1.574034912109375,-0.008423516526818275,-0.027159489691257477,-0.01084226742386818
1772363463366104800,1.584104736328125,-0.0023389928974211216,-0.02000650390982628,-0.0172202717512846
1772363463376173800,1.594173828125,0.0018233349546790123,-0.013774935156106949,-0.02728593721985817
1772363463386243800,1.604243896484375,0.00942213274538517,-0.009904030710458755,-0.03709382563829422
1772363463396312800,1.614312744140625,0.014402022585272789,-0.00862449686974287,-0.05168534442782402
1772363463406382800,1.6243828125,0.021598681807518005,-0.00889267772436142,-0.06163358315825462
1772363463416451800,1.634451904296875,0.024459294974803925,-0.006380327045917511,-0.06703683733940125
1772363463426521900,1.64452197265625,0.02280600368976593,0.006960246246308088,-0.05769633501768112
1772363463436590800,1.6545908203125,0.025641875341534615,0.008839398622512817,-0.045056868344545364
1772363463446659800,1.664659912109375,0.02272704616189003,-0.002135488437488675,-0.02319098636507988
1772363463456729900,1.674729736328125,0.0264295544475317,-0.0015579387545585632,-0.0031080441549420357
1772363463466798800,1.684798828125,0.02197568491101265,-0.0005478016100823879,0.01909872516989708
1772363463476868900,1.694868896484375,0.019863715395331383,0.010455544106662273,0.03817925602197647
1772363463486937900,1.704937744140625,0.017578991129994392,0.014454014599323273,0.04387442395091057
1772363463497007900,1.7150078125,0.01821739599108696,0.00964103452861309,0.0407819040119648
1772363463507076900,1.725076904296875,0.01496940478682518,0.010705765336751938,0.029255744069814682
1772363463517147000,1.73514697265625,0.011164987459778786,0.009005038999021053,0.010613196529448032
1772363463527215600,1.745215576171875,0.01058894582092762,0.01316649466753006,-0.009030546993017197
1772363463537286000,1.755285888671875,0.00952213816344738,0.01889355480670929,-0.025204041972756386
1772363463547354600,1.765354736328125,0.005888520739972591,0.024826278910040855,-0.038141146302223206
1772363463557425000,1.7754248046875,0.004513723775744438,0.015165356919169426,-0.04356309399008751
1772363463567494000,1.785493896484375,-0.0016299220733344555,0.005433367565274239,-0.04836956784129143
1772363463577563600,1.795563720703125,-0.0071321409195661545,-0.0037084389477968216,-0.050576161593198776
1772363463587633000,1.8056328125,-0.007306843996047974,-0.007208365015685558,-0.0448002964258194
1772363463597702700,1.81570263671875,-0.014732012525200844,-0.0020719789899885654,-0.03178323805332184
1772363463607772000,1.82577197265625,-0.018367227166891098,-0.0030155370477586985,-0.01650601252913475
1772363463617841700,1.835841552734375,-0.010703973472118378,0.0021790112368762493,-0.009854564443230629
1772363463627911000,1.845910888671875,-0.015071555972099304,0.00785900093615055,-0.0011939648538827896
1772363463637980700,1.855980712890625,-0.003774602897465229,0.011608818545937538,0.0072747766971588135
1772363463648050000,1.8660498046875,-0.0011665690690279007,0.01602141000330448,0.009929150342941284
1772363463658120000,1.876119873046875,0.00001970399171113968,0.00928934570401907,0.011167611926794052
1772363463668189000,1.88618896484375,0.006954841781407595,-0.006812126375734806,0.006527852267026901
1772363463678259000,1.896259033203125,0.0036139339208602905,-0.018086783587932587,0.015241523273289204
1772363463688327700,1.90632763671875,0.007574054412543774,-0.020239682868123055,0.021838970482349396
1772363463698398000,1.91639794921875,0.007603146135807037,-0.013811299577355385,0.021490711718797684
1772363463708470300,1.92647021484375,-0.0021903621964156628,-0.016022255644202232,0.025774672627449036
1772363463718540500,1.93654052734375,-0.00337577098980546,-0.025631682947278023,0.02625669538974762
1772363463728609300,1.946609375,-0.008479451760649681,-0.02911243587732315,0.02482231706380844
1772363463738679300,1.95667919921875,-0.01808740384876728,-0.04838172346353531,0.015982670709490776
1772363463748748300,1.966748291015625,-0.02343796007335186,-0.059488438069820404,0.0030269240960478783
1772363463758818300,1.976818359375,-0.02818869799375534,-0.06564190238714218,-0.010206570848822594
1772363463768887300,1.98688720703125,-0.027491219341754913,-0.06611035019159317,-0.027059586718678474
1772363463778957300,1.996957275390625,-0.030301477760076523,-0.059248536825180054,-0.03350912034511566
1772363463789026300,2.0070263671875,-0.038987912237644196,-0.05062894895672798,-0.04052814841270447
1772363463799096300,2.017096435546875,-0.035294704139232635,-0.036492399871349335,-0.04388301819562912
1772363463809165300,2.027165283203125,-0.03563878312706947,-0.025338012725114822,-0.03955351561307907
1772363463819235300,2.0372353515625,-0.02781905233860016,-0.01737663336098194,-0.025140512734651566
1772363463829304300,2.04730419921875,-0.023220838978886604,-0.019550304859876633,-0.009140241891145706
1772363463839374300,2.057374267578125,-0.023395083844661713,-0.026877708733081818,-0.0004333220422267914
1772363463849443000,2.067443115234375,-0.017625611275434494,-0.020424336194992065,0.0048341453075408936
1772363463859513300,2.077513427734375,-0.01139724813401699,-0.0036274688318371773,0.007030259817838669
1772363463869582300,2.087582275390625,-0.012201789766550064,0.009449717588722706,0.014100421220064163
1772363463879652400,2.09765234375,-0.0095608439296484,0.008997108787298203,0.019952692091464996
1772363463889721300,2.107721435546875,-0.012359026819467545,-0.0005679000169038773,0.024974878877401352
1772363463899790300,2.117790283203125,-0.008544251322746277,-0.021696951240301132,0.025541678071022034
1772363463909860400,2.1278603515625,-0.009376488626003265,-0.020691342651844025,0.024849258363246918
1772363463919929300,2.137929443359375,-0.008751509711146355,-0.010778458788990974,0.025704052299261093
1772363463929999400,2.147999267578125,-0.01004260964691639,0.005756308790296316,0.02303742989897728
1772363463940068400,2.158068359375,-0.0138353630900383,0.012410404160618782,0.01897420734167099
1772363463950138400,2.168138427734375,-0.017055658623576164,0.006810309831053019,0.0172404907643795
1772363463960207000,2.17820703125,-0.019861143082380295,-0.00356049626134336,0.01679491624236107
1772363463970277400,2.18827734375,-0.023998364806175232,-0.011734535917639732,0.028010282665491104
1772363463980346000,2.19834619140625,-0.02335241809487343,-0.01961006224155426,0.03446435183286667
1772363463990416400,2.20841650390625,-0.021889012306928635,-0.024499891325831413,0.03308030962944031
1772363464000485400,2.2184853515625,-0.017821546643972397,-0.026294494047760963,0.02796131931245327
1772363464010555400,2.228555419921875,-0.017987195402383804,-0.020660310983657837,0.0167161226272583
1772363464020624400,2.238624267578125,-0.012916315346956253,-0.013367980718612671,0.0070859212428331375
1772363464030694100,2.248694091796875,-0.010161807760596275,-0.013776775449514389,-0.0021584443747997284
1772363464040763400,2.258763427734375,-0.011563723906874657,-0.016662944108247757,-0.0031279074028134346
1772363464050833200,2.268833251953125,-0.012342166155576706,-0.016596097499132156,-0.006862458307296038
1772363464060902400,2.27890234375,-0.015529666095972061,-0.006093504372984171,-0.01820245385169983
1772363464070972200,2.28897216796875,-0.01570170745253563,0.0030555189587175846,-0.032975539565086365
1772363464081041400,2.29904150390625,-0.011754920706152916,-0.007488250732421875,-0.05321064591407776
1772363464091111400,2.309111328125,-0.01310008391737938,-0.017546210438013077,-0.05833722651004791
1772363464101180400,2.319180419921875,-0.006248982157558203,-0.014154753647744656,-0.05516331270337105
1772363464111250400,2.32925048828125,0.0030662226490676403,-0.001975851831957698,-0.036177102476358414
1772363464121319200,2.339319091796875,0.014155194163322449,-0.00925892498344183,-0.01660570502281189
1772363464131389400,2.349389404296875,0.014685695990920067,-0.014886184595525265,0.005925968289375305
1772363464141458200,2.359458251953125,0.017163610085844994,-0.010682512074708939,0.02317129261791706
1772363464151528400,2.369528564453125,0.0220707505941391,0.0075582773424685,0.029073921963572502
1772363464161597200,2.37959716796875,0.027739591896533966,0.01415241602808237,0.033035118132829666
1772363464171667500,2.38966748046875,0.027928410097956657,0.008512107655405998,0.03183722868561745
1772363464181736200,2.399736083984375,0.022582940757274628,0.005081577226519585,0.0279054157435894
1772363464191806200,2.40980615234375,0.018773822113871574,-0.00018402514979243279,0.019365988671779633
1772363464201875200,2.419875244140625,0.01564495638012886,0.00905105471611023,0.00013072695583105087
1772363464211945200,2.4299453125,0.011532504111528397,0.012379207648336887,-0.019363079220056534
1772363464222014500,2.440014404296875,0.005015647038817406,0.005006372928619385,-0.018208689987659454
1772363464232084200,2.450084228515625,0.010525461286306381,0.025989416986703873,-0.026749448850750923
1772363464242153500,2.460153564453125,0.019430942833423615,0.02724752202630043,-0.0715104267001152
1772363464252223200,2.47022314453125,0.019389398396015167,-0.01698412001132965,-0.07264599949121475
1772363464262292500,2.48029248046875,0.015951061621308327,-0.029306577518582344,-0.046334221959114075
1772363464272361200,2.490361328125,0.009132304228842258,-0.012184316292405128,-0.030985625460743904
1772363464282431500,2.500431396484375,0.006417424883693457,0.0006857374683022499,-0.009398451074957848
1772363464292500200,2.510500244140625,0.003954267129302025,-0.00629573967307806,0.008379747159779072
1772363464302570200,2.5205703125,0.010148529894649982,-0.014564534649252892,0.011089647188782692
1772363464312639200,2.53063916015625,0.016325466334819794,-0.0213494710624218,0.010088032111525536
1772363464322709200,2.540709228515625,0.023090209811925888,-0.007371669635176659,-0.00222780741751194
1772363464332778200,2.5507783203125,0.028102543205022812,0.026989499107003212,-0.006121614947915077
1772363464342848300,2.56084814453125,0.03162790834903717,0.05452767387032509,-0.0002484442666172981
1772363464352917200,2.570917236328125,0.03583889827132225,0.05271592736244202,0.009710713289678097
1772363464362987300,2.5809873046875,0.034383464604616165,0.036093756556510925,0.017289400100708008
1772363464373056500,2.591056396484375,0.036905474960803986,0.015270765870809555,0.019431915134191513
1772363464383126300,2.601126220703125,0.0321911945939064,-0.005203677341341972,0.020269691944122314
1772363464393195300,2.6111953125,0.028039058670401573,-0.01769709773361683,0.01655777543783188
1772363464403265300,2.621265380859375,0.021383564919233322,-0.027405334636569023,-0.0002918429672718048
1772363464413334300,2.631334228515625,0.010253680869936943,-0.01456863060593605,-0.01377089973539114
1772363464423404300,2.641404296875,0.0014318213798105717,0.0050422754138708115,-0.01850264146924019
1772363464433473300,2.651473388671875,-0.006274833809584379,0.019079532474279404,-0.02831399254500866
1772363464443543300,2.661543212890625,-0.006517364177852869,0.016956014558672905,-0.03876721113920212
1772363464453612300,2.6716123046875,-0.015499407425522804,0.004276172257959843,-0.0413518100976944
1772363464463682300,2.681682373046875,-0.01070357859134674,-0.0113467276096344,-0.048791151493787766
1772363464473751300,2.691751220703125,-0.01822834089398384,-0.010677475482225418,-0.05106469243764877
1772363464483821300,2.7018212890625,-0.015085460618138313,-0.013347740285098553,-0.04368644580245018
1772363464493890300,2.711890380859375,-0.017752615734934807,-0.008620629087090492,-0.029859313741326332
1772363464503960300,2.721960205078125,-0.018890172243118286,-0.006222907919436693,-0.01486301515251398
1772363464514029300,2.732029296875,-0.0159164872020483,0.0065855649299919605,-0.0009189704433083534
1772363464524099300,2.742099365234375,-0.01302451454102993,0.005647218320518732,0.008666752837598324
1772363464534168300,2.752168212890625,-0.014314549043774605,-0.0013315952382981777,0.015435176901519299
1772363464544238300,2.76223828125,-0.013175340369343758,-0.008518224582076073,0.01623237505555153
1772363464554307300,2.772307373046875,-0.006834886968135834,-0.01298114936798811,0.014595062471926212
1772363464564377300,2.78237744140625,0.004860164597630501,-0.010585698299109936,0.013476748019456863
1772363464574446000,2.792446044921875,0.007527320645749569,-0.002964796731248498,0.010521171614527702
1772363464584516400,2.802516357421875,0.011487789452075958,0.01255694217979908,0.01240610796958208
1772363464594585300,2.81258544921875,0.014393830671906471,0.011086344718933105,0.005917581729590893
1772363464604654300,2.822654296875,0.006876957602798939,0.006912765093147755,0.011005726642906666
1772363464614724400,2.832724365234375,0.001431325450539589,0.002225335221737623,0.020356085151433945
1772363464624793300,2.84279345703125,0.0022112103179097176,0.0026273969560861588,0.015033518895506859
1772363464634863400,2.85286328125,-0.0023704920895397663,-0.015540155582129955,0.01798270456492901
1772363464644932400,2.862932373046875,-0.00544112641364336,-0.02684772200882435,0.024811379611492157
1772363464655002400,2.87300244140625,-0.010634290054440498,-0.03146643936634064,0.022396691143512726
1772363464665071400,2.8830712890625,-0.0023073479533195496,-0.025133293122053146,0.01618674024939537
1772363464675141400,2.893141357421875,0.005064548924565315,-0.028295263648033142,0.006036369130015373
1772363464685210000,2.903210205078125,-0.001072403509169817,-0.03348534554243088,-0.00031446199864149094
1772363464695280400,2.9132802734375,-0.004183774348348379,-0.03625370189547539,-0.009889325127005577
1772363464705349000,2.92334912109375,-0.0020634569227695465,-0.03701838105916977,-0.022655874490737915
1772363464715419100,2.933419189453125,-0.007572205737233162,-0.04309758543968201,-0.03169730678200722
1772363464725488000,2.943488037109375,-0.010678187012672424,-0.049489978700876236,-0.034001391381025314
1772363464735558100,2.95355810546875,-0.006737240590155125,-0.04649525508284569,-0.04353604093194008
1772363464745627100,2.963627197265625,-0.0040670642629265785,-0.04177604615688324,-0.050820961594581604
1772363464755697000,2.97369677734375,-0.0029322905465960503,-0.030789174139499664,-0.046070415526628494
1772363464765766100,2.98376611328125,-0.005280868150293827,-0.025310000404715538,-0.04161832854151726
1772363464775836000,2.9938359375,-0.004802830517292023,-0.022232983261346817,-0.03276677802205086
1772363464785905200,3.0039052734375,-0.004058440215885639,-0.017392802983522415,-0.0119642848148942
1772363464795975200,3.01397509765625,-0.0018615983426570892,-0.022798486053943634,0.007815545424818993
1772363464806044200,3.024044189453125,-0.00740223191678524,-0.03075597435235977,0.02668006345629692
1772363464816114200,3.0341142578125,-0.00847974605858326,-0.0300731398165226,0.040554068982601166
1772363464826183200,3.04418310546875,-0.012335775420069695,-0.017513025552034378,0.04794459789991379
1772363464836253200,3.054253173828125,-0.017880743369460106,-0.012843704782426357,0.04405558109283447
1772363464846322200,3.064322265625,-0.023783685639500618,-0.011989511549472809,0.04213683307170868
1772363464856392200,3.07439208984375,-0.022375671193003654,-0.008435256779193878,0.03578253090381622
1772363464866461000,3.0844609375,-0.02676144801080227,-0.0075101666152477264,0.028375256806612015
1772363464876531200,3.09453125,-0.030280550941824913,-0.00810431782156229,0.02046540379524231
1772363464886600000,3.104599853515625,-0.029099024832248688,-0.015190964564681053,0.007898514159023762
1772363464896670200,3.114670166015625,-0.027347728610038757,-0.017413372173905373,-0.0057129026390612125
1772363464906739000,3.124739013671875,-0.026752060279250145,-0.022700050845742226,-0.012576885521411896
1772363464916809000,3.13480908203125,-0.030780626460909843,-0.023431088775396347,-0.016947133466601372
1772363464926878200,3.144878173828125,-0.03775604069232941,-0.016784358769655228,-0.01745082065463066
1772363464936947200,3.154947265625,-0.04249167442321777,-0.01601443812251091,-0.02225942350924015
1772363464947017200,3.165017333984375,-0.042436279356479645,-0.017907146364450455,-0.017664937302470207
1772363464957086200,3.175086181640625,-0.03831849992275238,-0.01412226352840662,-0.0023962361738085747
1772363464967156200,3.18515625,-0.034328315407037735,-0.014745859429240227,0.00661795400083065
1772363464977225000,3.195224853515625,-0.02528369054198265,-0.011062441393733025,0.01124732568860054
1772363464987295200,3.205295166015625,-0.014559854753315449,-0.008359778672456741,0.01933130994439125
1772363464997364000,3.215364013671875,-0.00614106934517622,0.0025189677253365517,0.02256864681839943
1772363465007434200,3.225434326171875,-0.003839042503386736,0.008961370214819908,0.03054647706449032
1772363465017503000,3.2355029296875,-0.00018598465248942375,0.01901720091700554,0.03707015514373779
1772363465027573000,3.245572998046875,0.00023055309429764748,0.02589544653892517,0.047481924295425415
1772363465037642000,3.25564208984375,0.004074026830494404,0.021118268370628357,0.052060168236494064
1772363465047712000,3.2657119140625,0.005311166401952505,0.020506680011749268,0.04700610786676407
1772363465057781200,3.27578125,0.006477897055447102,0.012228777632117271,0.04336503520607948
1772363465067851000,3.28585107421875,0.0034467149525880814,0.012081073597073555,0.04140235856175423
1772363465077920300,3.295920166015625,0.0028435089625418186,0.015508828684687614,0.029721200466156006
1772363465087990000,3.305989990234375,0.0008953874930739403,0.010033052414655685,0.014557292684912682
1772363465098059300,3.316059326171875,0.0028988835401833057,0.019524559378623962,0.007090587168931961
1772363465108129000,3.32612890625,0.00345306983217597,0.03116513416171074,-0.003934772685170174
1772363465118198300,3.3361982421875,0.011530970223248005,0.03707628697156906,-0.017550716176629066
1772363465128268000,3.34626806640625,0.01428142748773098,0.03692268580198288,-0.027238110080361366
1772363465138337000,3.3563369140625,0.019361674785614014,0.03755971044301987,-0.029465312138199806
1772363465148407300,3.3664072265625,0.021777793765068054,0.03864189237356186,-0.03467143326997757
1772363465158476000,3.37647607421875,0.02332482486963272,0.03198585659265518,-0.031628504395484924
1772363465168546300,3.38654638671875,0.025715066120028496,0.02015123888850212,-0.0172137338668108
1772363465178615000,3.396614990234375,0.026368873193860054,0.01750006154179573,0.0038247061893343925
1772363465188685000,3.40668505859375,0.028336001560091972,0.016737839207053185,0.020447056740522385
1772363465198754000,3.416754150390625,0.027820147573947906,0.014956185594201088,0.029550008475780487
1772363465208824000,3.426823974609375,0.027137616649270058,0.018216313794255257,0.03381559997797012
1772363465218893000,3.43689306640625,0.020425118505954742,0.030721453949809074,0.040450334548950195
1772363465228963000,3.446963134765625,0.023941081017255783,0.039883993566036224,0.03681313246488571
1772363465239032000,3.457031982421875,0.0274769589304924,0.045171163976192474,0.03073393739759922
1772363465249102000,3.46710205078125,0.027753561735153198,0.04245566576719284,0.02495984546840191
1772363465259171000,3.477171142578125,0.024849385023117065,0.028003493323922157,0.02177497185766697
1772363465269241000,3.487240966796875,0.018980905413627625,0.02479143999516964,0.018275395035743713
1772363465279310000,3.49731005859375,0.016892187297344208,0.023305395618081093,0.010725333355367184
1772363465289379000,3.507379150390625,0.00792040303349495,0.016956979408860207,0.012051424011588097
1772363465299449000,3.517448974609375,0.004741920158267021,0.009841280058026314,0.0108716432005167
1772363465309518000,3.52751806640625,0.00028309086337685585,0.005734291858971119,0.014922669157385826
1772363465319588000,3.537588134765625,-0.0007904297672212124,0.004176609218120575,0.024189669638872147
1772363465329657000,3.547656982421875,0.001271114218980074,0.000414043664932251,0.032814912497997284
1772363465339727000,3.55772705078125,-0.001983801368623972,-0.0019122273661196232,0.0371292307972908
1772363465349796000,3.567796142578125,-0.004925262648612261,-0.011043141596019268,0.03296378254890442
1772363465359866000,3.5778662109375,-0.009226534515619278,-0.010944072157144547,0.028508314862847328
1772363465369935000,3.58793505859375,-0.010899697430431843,-0.0009893029928207397,0.018858976662158966
1772363465380005000,3.598005126953125,-0.01069703046232462,0.002776939421892166,0.018249910324811935
1772363465390074000,3.60807421875,-0.01598149538040161,-0.004240019246935844,0.014663378708064556
1772363465400144100,3.61814404296875,-0.014178001321852207,-0.002894590375944972,0.014894806779921055
1772363465410213000,3.628213134765625,-0.010923086665570736,0.0064706820994615555,0.00975517276674509
1772363465420283100,3.638283203125,-0.011300190351903439,0.013189570978283882,0.002028808929026127
1772363465430352100,3.64835205078125,-0.006148544140160084,0.018494421616196632,-0.011960169300436974
1772363465440422100,3.658422119140625,-0.006767995655536652,0.023995714262127876,-0.02648824453353882
1772363465450491100,3.6684912109375,-0.009723554365336895,0.009264754131436348,-0.030463144183158875
1772363465460561200,3.67856103515625,-0.014134014956653118,-0.0024789865128695965,-0.022239303216338158
1772363465470630100,3.688630126953125,-0.014762548729777336,-0.015548227354884148,-0.008187472820281982
1772363465480700000,3.698699951171875,-0.01593380607664585,-0.02584906667470932,0.00458131916821003
1772363465490769200,3.70876904296875,-0.015450368635356426,-0.028404656797647476,0.017193270847201347
1772363465500839000,3.7188388671875,-0.013828237541019917,-0.025441357865929604,0.02598623000085354
1772363465510908200,3.728908203125,-0.005731649696826935,-0.012063827365636826,0.03240226209163666
1772363465520978200,3.738978271484375,0.0010317140258848667,0.005118886940181255,0.029358534142374992
1772363465531047200,3.749047119140625,0.0034775887615978718,0.010075130499899387,0.027748992666602135
1772363465541117200,3.7591171875,0.0032469588331878185,0.0075901346281170845,0.017583176493644714
1772363465551186200,3.769186279296875,0.004953035619109869,0.0029700188897550106,0.0005233781412243843
1772363465561256200,3.779256103515625,0.006016436032950878,0.0019545555114746094,-0.018986672163009644
1772363465571325200,3.7893251953125,0.004295400343835354,-0.002905053785070777,-0.03134356439113617
1772363465581395200,3.799395263671875,0.004769708961248398,-0.0052688755095005035,-0.049001120030879974
1772363465591464000,3.8094638671875,0.00047933775931596756,-0.008169639855623245,-0.0652683824300766
1772363465601534200,3.8195341796875,0.001444733701646328,-0.008051928132772446,-0.06972278654575348
1772363465611603000,3.82960302734375,-0.0013038222678005695,-0.004051506519317627,-0.06485357135534286
1772363465621673200,3.839673095703125,-0.0006095361895859241,0.00321146659553051,-0.05646008253097534
1772363465631742000,3.849741943359375,-0.0011247112415730953,0.0020402870140969753,-0.0427146777510643
1772363465641812000,3.85981201171875,-0.00672081159427762,0.004350312985479832,-0.029339483007788658
1772363465651881200,3.869881103515625,-0.006597782950848341,-0.00019682152196764946,-0.016057968139648438
1772363465661951000,3.879950927734375,-0.0032195630483329296,0.0008812262676656246,-0.013982832431793213
1772363465672020200,3.890020263671875,-0.0023625949397683144,0.004193247761577368,-0.014180446974933147
1772363465682090000,3.900090087890625,0.001873163040727377,0.0016744299791753292,-0.011616355739533901
1772363465692159200,3.9101591796875,-0.00205934327095747,-0.0013331128284335136,-0.005670270416885614
1772363465702228000,3.92022802734375,-0.001356269232928753,-0.0061760712414979935,0.001596430316567421
1772363465712294100,3.930294189453125,-0.005814749281853437,-0.008709096349775791,0.018031375482678413
1772363465722363000,3.94036279296875,-0.004303938243538141,0.0026620691642165184,0.02239976078271866
1772363465732433200,3.95043310546875,-0.0013020038604736328,-0.00009611714631319046,0.017521250993013382
1772363465742502000,3.960501953125,0.0010301261208951473,-0.007774809375405312,0.019269084557890892
1772363465752572200,3.970572265625,-0.000655527226626873,-0.0076776291243731976,0.011864063329994678
1772363465762641000,3.980640869140625,-0.004518442787230015,-0.0030724909156560898,0.00982514675706625
1772363465772710100,3.990710205078125,-0.009081797674298286,-0.00019685551524162292,0.005668412894010544
1772363465782780200,4.0007802734375,-0.011421384289860725,0.0015291390009224415,-0.00849401205778122
1772363465792849200,4.01084912109375,-0.007478904444724321,0.0082520367577672,-0.022322557866573334
1772363465802919200,4.020919189453125,0.0005840822122991085,0.01405666209757328,-0.040216073393821716
1772363465812988200,4.03098828125,0.002702755853533745,0.01970280334353447,-0.049181703478097916
1772363465823058200,4.04105810546875,0.0075691500678658485,0.01987803913652897,-0.06029614061117172
1772363465833127000,4.051126953125,0.01068709697574377,0.02477203868329525,-0.0634913519024849
1772363465843197200,4.061197265625,0.011755291372537613,0.02207292430102825,-0.06040794774889946
1772363465853266000,4.071265869140625,0.016353661194443703,0.023404046893119812,-0.039259545505046844
1772363465863336200,4.081336181640625,0.02019660174846649,0.02671915292739868,-0.02197429910302162
1772363465873405000,4.091405029296875,0.027564208954572678,0.03473276644945145,-0.008779208175837994
1772363465883475000,4.101474853515625,0.02378438413143158,0.03391251713037491,0.005068697035312653
1772363465893544000,4.1115439453125,0.021903816610574722,0.031733326613903046,0.013155623339116573
1772363465903614000,4.121614013671875,0.0146357836201787,0.0380261093378067,0.018242795020341873
1772363465913683200,4.13168310546875,0.013853898271918297,0.03897695988416672,0.018734551966190338
1772363465923753000,4.1417529296875,0.009084443561732769,0.03501417487859726,0.02025654911994934
1772363465933822200,4.151822265625,0.011593582108616829,0.028822507709264755,0.01746353507041931
1772363465943892000,4.16189208984375,0.008455046452581882,0.022676730528473854,0.014484257437288761
1772363465953961200,4.171961181640625,0.007156571839004755,0.02261071652173996,0.006312033161520958
1772363465964030000,4.182030029296875,0.008509190753102303,0.022640012204647064,-0.0065419794991612434
1772363465974100200,4.192100341796875,0.004093835595995188,0.01738918386399746,-0.015304136089980602
1772363465984169000,4.2021689453125,-0.003500967286527157,0.00873364508152008,-0.015431967563927174
1772363465994239000,4.212239013671875,-0.009921187534928322,0.013007194735109806,-0.016684819012880325
1772363466004308000,4.222307861328125,-0.011867692694067955,0.005728774704039097,-0.01067273411899805
1772363466014378000,4.2323779296875,-0.01787317357957363,-0.0050508384592831135,0.0015518274158239365
1772363466024447000,4.242447021484375,-0.015916284173727036,-0.018328294157981873,0.01544793602079153
1772363466034517000,4.25251708984375,-0.018084270879626274,-0.031242407858371735,0.02380456030368805
1772363466044586200,4.262586181640625,-0.017066944390535355,-0.03733918070793152,0.03265317901968956
1772363466054656000,4.272656005859375,-0.010879017412662506,-0.02841302566230297,0.030365008860826492
1772363466064725200,4.282725341796875,-0.008700817823410034,-0.019057340919971466,0.03023744374513626
1772363466074795000,4.292794921875,-0.015333767980337143,-0.011124883778393269,0.03285244479775429
1772363466084864300,4.3028642578125,-0.008842580020427704,-0.00556526891887188,0.018864456564188004
1772363466094934000,4.31293408203125,-0.004437150899320841,0.004993998445570469,0.005446728318929672
1772363466105003000,4.3230029296875,-0.0008421498350799084,0.012396520934998989,-0.006825118325650692
1772363466115073000,4.333072998046875,0.0015228562988340855,0.019118260592222214,-0.016407474875450134
1772363466125142000,4.34314208984375,0.0011151265352964401,0.018752342090010643,-0.03673698008060455
1772363466135212000,4.3532119140625,0.0026650959625840187,0.017615491524338722,-0.03946838527917862
1772363466145281000,4.363281005859375,-0.00090780109167099,0.01922137662768364,-0.03502383455634117
1772363466155351000,4.37335107421875,0.0029548099264502525,0.01813545450568199,-0.030486349016427994
1772363466165420000,4.383419921875,0.004551375284790993,0.005616999231278896,-0.02066221460700035
1772363466175490000,4.393489990234375,0.008116209879517555,-0.0035048993304371834,-0.012993128038942814
1772363466185559000,4.40355908203125,0.010532761923968792,-0.0024670653510838747,0.0004734126850962639
1772363466195629000,4.413629150390625,0.010524378158152103,0.0009404751472175121,0.01973775401711464
1772363466205698000,4.423697998046875,0.006901147309690714,0.0021721869707107544,0.03163595870137215
1772363466215768000,4.43376806640625,0.0019195480272173882,0.008160763420164585,0.03925928473472595
1772363466225837000,4.443837158203125,-0.0011979485861957073,0.013683893717825413,0.03535669296979904
1772363466235907000,4.453906982421875,-0.0007796576246619225,0.007660479284822941,0.029519416391849518
1772363466245976000,4.46397607421875,-0.0029727714136242867,0.01264538336545229,0.021964561194181442
1772363466256046000,4.474046142578125,0.00006798096001148224,0.012169593945145607,0.0016359100118279457
1772363466266115000,4.484114990234375,0.0007798443548381329,0.005960433278232813,-0.012144883163273335
1772363466276185000,4.49418505859375,0.0006484482437372208,-0.0067480443976819515,-0.02339842915534973
1772363466286254000,4.504254150390625,-0.0046640257351100445,-0.01565765030682087,-0.03011864796280861
1772363466296324000,4.514323974609375,-0.013792835175991058,-0.008345508947968483,-0.027103491127490997
1772363466306393000,4.52439306640625,-0.027368033304810524,-0.009633413515985012,-0.023651769384741783
1772363466316463000,4.534463134765625,-0.03064119443297386,-0.013311797752976418,-0.021342908963561058
1772363466326532000,4.544531982421875,-0.027110375463962555,-0.015768563374876976,-0.013818680308759212
1772363466336601900,4.554601806640625,-0.0207544956356287,-0.019594773650169373,0.0022349823266267776
1772363466346671000,4.564671142578125,-0.022424830123782158,-0.017069032415747643,0.010456160642206669
1772363466356743200,4.5747431640625,-0.018972041085362434,-0.0072188545018434525,0.010695312172174454
1772363466366812000,4.58481201171875,-0.011072572320699692,-0.0014315394219011068,0.008844947442412376
1772363466376882200,4.594882080078125,-0.017261216416954994,-0.004388662986457348,0.01526816189289093
1772363466386951000,4.604950927734375,-0.02139710634946823,-0.005354591179639101,0.025118930265307426
1772363466397021000,4.61502099609375,-0.014682469889521599,-0.005706342402845621,0.027963120490312576
1772363466407090000,4.62508984375,-0.010207027196884155,-0.0027981705497950315,0.03356987610459328
1772363466417160000,4.635159912109375,-0.0041177826933562756,-0.00663822190836072,0.03208194673061371
1772363466427229200,4.645229248046875,0.002871683333069086,-0.010638556443154812,0.019354701042175293
1772363466437299000,4.655298828125,-0.0013426952064037323,-0.004801666829735041,0.01679009571671486
1772363466447368200,4.6653681640625,-0.0016146041452884674,0.005605434533208609,0.010997453704476357
1772363466457438000,4.67543798828125,-0.005687220022082329,0.00403717253357172,0.0050513856112957
1772363466467507200,4.685507080078125,-0.009855867363512516,-0.000007103662937879562,0.0005711503326892853
1772363466477577000,4.695576904296875,-0.013995511457324028,-0.004936765413731337,-0.0035315286368131638
1772363466487646200,4.705646240234375,-0.010268418118357658,0.0004859631881117821,-0.012946069240570068
1772363466497716000,4.715716064453125,-0.01326496060937643,-0.000393690075725317,-0.028387393802404404
1772363466507785000,4.725784912109375,-0.015538235194981098,0.0005898154340684414,-0.035191237926483154
1772363466517855200,4.735855224609375,-0.0197028499096632,0.0003241295926272869,-0.03533610701560974
1772363466527924000,4.745924072265625,-0.0204264298081398,0.004290641285479069,-0.02923453599214554
1772363466537994200,4.755994140625,-0.015466880984604359,0.011371783912181854,-0.014787299558520317
1772363466548063000,4.76606298828125,-0.014384572394192219,0.016139907762408257,0.0013424018397927284
1772363466558133200,4.77613330078125,-0.007416768930852413,0.0147379320114851,0.014193064533174038
1772363466568202000,4.786201904296875,-0.006787996739149094,0.01583222486078739,0.01893775165081024
1772363466578272000,4.79627197265625,-0.0031371056102216244,0.016661381348967552,0.017075393348932266
1772363466588341000,4.806341064453125,-0.0065313042141497135,0.014466136693954468,0.01770363375544548
1772363466598411000,4.816410888671875,-0.005409388802945614,0.016099682077765465,0.02077876776456833
1772363466608480000,4.82647998046875,-0.010838508605957031,0.021802308037877083,0.027591131627559662
1772363466618549000,4.836549072265625,-0.009318457916378975,0.032019756734371185,0.026517657563090324
1772363466628619000,4.846618896484375,-0.011145386844873428,0.032865311950445175,0.025510983541607857
1772363466638688000,4.85668798828125,-0.010955458506941795,0.02496945485472679,0.02425444684922695
1772363466648758300,4.86675830078125,-0.004732183646410704,0.018316876143217087,0.013077428564429283
1772363466658827000,4.876826904296875,-0.0061137480661273,0.007525306660681963,0.00027503445744514465
1772363466668897000,4.88689697265625,-0.010073335841298103,0.0055005052126944065,-0.002689862623810768
1772363466678966000,4.896966064453125,-0.016606906428933144,0.01114146038889885,-0.00011060014367103577
1772363466689036000,4.9070361328125,-0.018798954784870148,0.014592384919524193,0.004230618476867676
1772363466699105000,4.91710498046875,-0.022113459184765816,0.00593709759414196,0.014736871235072613
1772363466709175300,4.92717529296875,-0.02038932964205742,-0.005914235021919012,0.02516794204711914
1772363466719244300,4.937244384765625,-0.018436361104249954,-0.026894312351942062,0.03315797448158264
1772363466729314300,4.947314208984375,-0.009123552590608597,-0.021854545921087265,0.05131194740533829
1772363466739383300,4.95738330078125,-0.011352315545082092,0.0006706230342388153,0.059432730078697205
1772363466749453300,4.967453369140625,-0.008375965058803558,-0.008829139173030853,0.058296896517276764
1772363466759522300,4.977522216796875,-0.001959769520908594,-0.012764032930135727,0.050413697957992554
1772363466769592300,4.98759228515625,0.0009055258706212044,0.00087721087038517,0.04745678976178169
1772363466779661000,4.9976611328125,0.009338600561022758,0.019737839698791504,0.03045341558754444
1772363466789731300,5.0077314453125,0.015100349672138691,0.025323286652565002,0.009678361937403679
1772363466799800000,5.017800048828125,0.019454892724752426,0.032038766890764236,-0.0036843791604042053
1772363466809870300,5.027870361328125,0.03201302886009216,0.041539061814546585,-0.012534329667687416
1772363466819939000,5.03793896484375,0.03591544181108475,0.05531728267669678,-0.019182691350579262
1772363466830009300,5.04800927734375,0.04347029700875282,0.056979093700647354,-0.015971185639500618
1772363466840078000,5.058078125,0.052237872034311295,0.0481753945350647,-0.008130792528390884
1772363466850148000,5.068148193359375,0.05418198183178902,0.0319889672100544,-0.00032240431755781174
1772363466860217300,5.07821728515625,0.054666806012392044,0.022593306377530098,0.007532223127782345
1772363466870287000,5.088287109375,0.047751374542713165,0.029389159753918648,0.01914253830909729
1772363466880356400,5.0983564453125,0.04635457694530487,0.039612866938114166,0.021876346319913864
1772363466890426000,5.108426025390625,0.04470714554190636,0.035273246467113495,0.024538975208997726
1772363466900495400,5.118495361328125,0.04010467976331711,0.02002670429646969,0.029560036957263947
1772363466910565000,5.128565185546875,0.03319697082042694,0.015781626105308533,0.023730378597974777
1772363466920634400,5.13863427734375,0.03115658462047577,0.012459039688110352,0.019856706261634827
1772363466930704100,5.1487041015625,0.03243942931294441,0.007445638999342918,0.016401521861553192
1772363466940773400,5.1587734375,0.018832311034202576,0.006805834360420704,0.012768181040883064
1772363466950843400,5.168843505859375,0.013032210990786552,0.010099099017679691,0.011589465662837029
1772363466960912100,5.178912109375,0.00636908458545804,0.010427606292068958,0.0008362457156181335
1772363466970982400,5.188982421875,0.0010044127702713013,0.0024575642310082912,-0.008730893954634666
1772363466981051100,5.199051025390625,-0.010748034343123436,-0.0036519006825983524,-0.013000520877540112
1772363466991121400,5.209121337890625,-0.02106725051999092,-0.009785693138837814,-0.010537097230553627
1772363467001190100,5.219190185546875,-0.027698438614606857,-0.010845065116882324,-0.001891988329589367
1772363467011260200,5.22926025390625,-0.02844172716140747,-0.01827448606491089,0.0076759494841098785
1772363467021329200,5.2393291015625,-0.0317436158657074,-0.020772935822606087,0.022730708122253418
1772363467031399200,5.249399169921875,-0.035279497504234314,-0.020391836762428284,0.043764352798461914
1772363467041468200,5.25946826171875,-0.028548549860715866,0.04412567615509033,0.07112941890954971
1772363467051538200,5.2695380859375,-0.024974055588245392,0.058773063123226166,0.019575679674744606
1772363467061607200,5.279607177734375,-0.03587188199162483,-0.026535624638199806,0.02491547167301178
1772363467071677200,5.28967724609375,-0.024626683443784714,-0.05839049071073532,0.05012175813317299
1772363467081746400,5.299746337890625,-0.019373103976249695,-0.0068502225913107395,0.054238468408584595
1772363467091816200,5.309816162109375,-0.019263114780187607,0.028561031445860863,0.05746781826019287
1772363467101885400,5.319885498046875,-0.02198624424636364,0.02209952287375927,0.0482189804315567
1772363467111955200,5.329955078125,-0.029187165200710297,0.003050996921956539,0.028378961607813835
1772363467122024200,5.340024169921875,-0.032923322170972824,-0.013524837791919708,0.01202029176056385
1772363467132094200,5.35009423828125,-0.03595612943172455,-0.017853807657957077,0.004348257556557655
1772363467142163200,5.3601630859375,-0.038186170160770416,-0.023635974153876305,-0.004666387103497982
1772363467152233200,5.370233154296875,-0.03930602967739105,-0.024428797885775566,-0.021811552345752716
1772363467162302200,5.38030224609375,-0.03280434384942055,-0.022608332335948944,-0.0315118208527565
1772363467172372200,5.390372314453125,-0.025206344202160835,-0.008876277133822441,-0.03935030475258827
1772363467182441200,5.400441162109375,-0.021420808508992195,0.00796414352953434,-0.0353928841650486
1772363467192511200,5.41051123046875,-0.021519610658288002,0.02095797285437584,-0.03388793021440506
1772363467202580200,5.420580322265625,-0.01953033357858658,0.017707504332065582,-0.022684641182422638
1772363467212650200,5.430650146484375,-0.009124030359089375,0.017477139830589294,-0.00721327168866992
1772363467222719200,5.44071923828125,-0.0018853009678423405,0.01822943054139614,0.015705958008766174
1772363467232789200,5.450789306640625,-0.001824315171688795,0.015182772651314735,0.04191039875149727
1772363467242858200,5.460858154296875,0.005027530714869499,0.023113122209906578,0.0533096045255661
1772363467252928300,5.47092822265625,0.007365786004811525,0.024770673364400864,0.06342216581106186
1772363467262997200,5.480997314453125,0.013516098260879517,0.031457122415304184,0.07390669733285904
1772363467273067300,5.4910673828125,0.02564200386404991,0.033998046070337296,0.075766921043396
1772363467283136300,5.50113623046875,0.03367562219500542,0.03515035659074783,0.08392974734306335
1772363467293206300,5.511206298828125,0.03718513622879982,0.04066549614071846,0.09001001715660095
1772363467303275300,5.521275146484375,0.03722582012414932,0.04917670413851738,0.0860506147146225
1772363467313345300,5.53134521484375,0.041804321110248566,0.05891641974449158,0.07902252674102783
1772363467323414300,5.541414306640625,0.03728640824556351,0.05423833429813385,0.07212238013744354
1772363467333484300,5.551484375,0.034145474433898926,0.07911359518766403,0.08843424171209335
1772363467343553300,5.56155322265625,0.05168861895799637,0.0973912701010704,0.023486493155360222
1772363467353623000,5.571623046875,0.034096840769052505,0.034218959510326385,0.014646129682660103
1772363467363692300,5.5816923828125,0.027236199006438255,-0.00899352878332138,0.03298464044928551
1772363467373762000,5.591761962890625,0.013926785439252853,0.006153465248644352,0.02835606411099434
1772363467383831300,5.601831298828125,0.014712895266711712,0.007453422527760267,0.0298619344830513
1772363467393901300,5.6119013671875,0.017576858401298523,-0.015400227159261703,0.03688761964440346
1772363467403970300,5.62197021484375,0.019191782921552658,-0.014772629365324974,0.026566937565803528
1772363467414040300,5.632040283203125,0.012902194634079933,-0.0059181516990065575,0.018536172807216644
1772363467424109300,5.642109375,0.014437414705753326,-0.007243958301842213,0.018933095037937164
1772363467434179300,5.652179443359375,0.0152968168258667,-0.0033157956786453724,0.021593060344457626
1772363467444248300,5.662248291015625,0.01327800378203392,0.0031290268525481224,0.022357286885380745
1772363467454318300,5.672318359375,0.012070526368916035,0.005527470260858536,0.021514395251870155
1772363467464387000,5.682386962890625,0.005445811897516251,0.014043852686882019,0.012232654727995396
1772363467474457300,5.692457275390625,0.00824319664388895,0.0203667301684618,0.000989587977528572
1772363467484526000,5.702526123046875,0.006129978224635124,0.01825910434126854,-0.001491679809987545
1772363467494596400,5.712596435546875,0.007259158417582512,0.013483790680766106,-0.0026980917900800705
1772363467504665000,5.7226650390625,-0.003698923159390688,0.015336916781961918,0.0034054145216941833
1772363467514735000,5.732735107421875,-0.012484157457947731,0.0077833933755755424,0.01920594833791256
1772363467524804000,5.74280419921875,-0.011334994807839394,-0.003640981623902917,0.03349747508764267
1772363467534874000,5.7528740234375,-0.011059358716011047,-0.006843166425824165,0.03342317044734955
1772363467544943400,5.762943359375,-0.009805046021938324,-0.007791138719767332,0.03856732323765755
1772363467555013000,5.77301318359375,-0.008842846378684044,-0.003230208996683359,0.04659169167280197
1772363467565082400,5.783082275390625,-0.007038251031190157,0.009900659322738647,0.050807755440473557
1772363467575152000,5.793152099609375,-0.004352187272161245,0.011987779289484024,0.04882583022117615
1772363467585221400,5.803221435546875,0.0012518935836851597,0.01119943056255579,0.0447256937623024
1772363467595291100,5.813291015625,-0.0021066186018288136,0.007159414701163769,0.03718814253807068
1772363467605360400,5.8233603515625,-0.008540944196283817,0.008871054276823997,0.030036326497793198
1772363467615430100,5.83343017578125,-0.007812304422259331,0.006605769973248243,0.02253207191824913
1772363467625499100,5.8434990234375,-0.0037978296168148518,0.002365648280829191,0.0046601975336670876
1772363467635569400,5.8535693359375,-0.006280694622546434,-0.005296798888593912,-0.006026002578437328
1772363467645638100,5.86363818359375,-0.006878297310322523,-0.008084073662757874,-0.01369915995746851
1772363467655708400,5.87370849609375,-0.005728077609091997,-0.010603157803416252,-0.028085822239518166
1772363467665777200,5.883777099609375,-0.006101379636675119,-0.00829016137868166,-0.02775850147008896
1772363467675847200,5.89384716796875,-0.010284140706062317,-0.009398036636412144,-0.021430298686027527
1772363467685916200,5.903916259765625,-0.007371900603175163,-0.006796353496611118,-0.019811347126960754
1772363467695986200,5.913986083984375,-0.008932778611779213,-0.010785236023366451,-0.01340298168361187
1772363467706059300,5.924059326171875,-0.011351782828569412,-0.01754140481352806,0.0006258739158511162
1772363467716129300,5.93412939453125,-0.010293709114193916,-0.014268112368881702,0.004636062309145927
1772363467726198300,5.9441982421875,-0.008435476571321487,-0.011533765122294426,-0.001269197091460228
1772363467736268300,5.954268310546875,-0.0062865703366696835,-0.011567054316401482,0.004201468080282211
1772363467746337300,5.964337158203125,0.001972590573132038,-0.01476458553224802,0.008044851943850517
1772363467756407300,5.9744072265625,0.004312177654355764,-0.006627563387155533,0.009790286421775818
1772363467766476000,5.98447607421875,0.008787444792687893,-0.0009011481888592243,0.018225740641355515
1772363467776546300,5.99454638671875,0.014327885583043098,0.011469768360257149,0.02252834290266037
1772363467786615000,6.004614990234375,0.016224121674895287,0.0033042365685105324,0.013367686420679092
1772363467796685300,6.014685302734375,0.009214147925376892,-0.010720502585172653,0.007678374648094177
1772363467806754000,6.024754150390625,0.00979290809482336,-0.00794448982924223,0.006942956708371639
1772363467816824300,6.03482421875,0.010261891409754753,0.003240521065890789,-0.004948324523866177
1772363467826893300,6.044893310546875,0.007177085615694523,0.004315979778766632,-0.008545542135834694
1772363467836963000,6.054963134765625,0.00535335298627615,0.002554565202444792,-0.01481542270630598
1772363467847032300,6.0650322265625,0.009873801842331886,-0.0010452293790876865,-0.022326070815324783
1772363467857102000,6.07510205078125,0.011628026142716408,-0.0018148832023143768,-0.02867291495203972
1772363467867171300,6.08517138671875,0.016959693282842636,0.005852402187883854,-0.030086379498243332
1772363467877241000,6.095240966796875,0.016855299472808838,0.017442479729652405,-0.030903438106179237
1772363467887310300,6.105310302734375,0.011645393446087837,0.025282979011535645,-0.03316605091094971
1772363467897380000,6.115380126953125,0.014582326635718346,0.024123970419168472,-0.03232449293136597
1772363467907449300,6.125449462890625,0.014960907399654388,0.021086452528834343,-0.02341059222817421
1772363467917519400,6.135519287109375,0.019084813073277473,0.01974714733660221,-0.010819166898727417
1772363467927588400,6.14558837890625,0.014386805705726147,0.028862062841653824,0.0017605647444725037
1772363467937658400,6.155658447265625,0.01870672032237053,0.033082105219364166,0.00630871020257473
1772363467947727000,6.16572705078125,0.012782856822013855,0.030507933348417282,0.014542424120008945
1772363467957797400,6.17579736328125,0.008834188804030418,0.03062591329216957,0.028949860483407974
1772363467967866000,6.1858662109375,0.0067106205970048904,0.0360029861330986,0.02630002051591873
1772363467977936400,6.195936279296875,0.007303706370294094,0.03485196828842163,0.01713688299059868
1772363467988005000,6.206005126953125,0.007551223039627075,0.02798280492424965,0.013377322815358639
1772363467998075100,6.2160751953125,0.0047940523363649845,0.03842346370220184,0.0041494714096188545
1772363468008144100,6.22614404296875,-0.0008555608801543713,0.04559067264199257,-0.007694539148360491
1772363468018214100,6.236214111328125,-0.00373656814917922,0.030656464397907257,-0.018716830760240555
1772363468028283100,6.246283203125,-0.00933067686855793,0.009891238063573837,-0.0178519356995821
1772363468038353200,6.256353271484375,-0.01305617205798626,-0.0057662855833768845,-0.00816335529088974
1772363468048422400,6.26642236328125,-0.01129082404077053,-0.013288702815771103,0.004534254781901836
1772363468058492200,6.2764921875,-0.008741911500692368,-0.018541254103183746,0.022378765046596527
1772363468068561400,6.2865615234375,-0.0020043812692165375,-0.023096058517694473,0.03164070472121239
1772363468078631200,6.296631103515625,0.0015613250434398651,-0.018404634669423103,0.04055457189679146
1772363468088700400,6.306700439453125,0.009703774936497211,-0.0036465872544795275,0.050279200077056885
1772363468098770200,6.316770263671875,0.011897686868906021,0.0010056886821985245,0.047880224883556366
1772363468108839200,6.326839111328125,0.021323127672076225,0.007025985512882471,0.03812146186828613
1772363468118909200,6.3369091796875,0.020654406398534775,0.012973090633749962,0.027140717953443527
1772363468128978200,6.346978271484375,0.02623213268816471,0.01488630473613739,0.008227745071053505
1772363468139048400,6.35704833984375,0.026306699961423874,0.021401196718215942,-0.004060346633195877
1772363468149117200,6.3671171875,0.028365056961774826,0.02048959583044052,-0.02688763104379177
1772363468159187200,6.377187255859375,0.03357499837875366,0.023763420060276985,-0.04479126259684563
1772363468169256200,6.387256103515625,0.03875470906496048,0.023146871477365494,-0.052378445863723755
1772363468179326200,6.397326171875,0.040842898190021515,0.026481149718165398,-0.04457777738571167
1772363468189395200,6.407395263671875,0.04366154968738556,0.03670566901564598,-0.033439915627241135
1772363468199465200,6.41746533203125,0.0512869767844677,0.045338839292526245,-0.023504193872213364
1772363468209534200,6.4275341796875,0.05363235995173454,0.038923297077417374,-0.01609642803668976
1772363468219604200,6.437604248046875,0.05458603799343109,0.035448670387268066,-0.00768137164413929
1772363468229673200,6.447673095703125,0.057424262166023254,0.04183395206928253,0.004991170018911362
1772363468239743200,6.4577431640625,0.05729056894779205,0.046711266040802,0.017226265743374825
1772363468249813200,6.467813232421875,0.057462092489004135,0.04449455812573433,0.024897899478673935
1772363468259882200,6.47788232421875,0.05013466998934746,0.03669655695557594,0.03303199261426926
1772363468269952300,6.4879521484375,0.04778972268104553,0.03754435479640961,0.03135792165994644
1772363468280021200,6.498021240234375,0.04251533001661301,0.04154069349169731,0.020682107657194138
1772363468290091300,6.50809130859375,0.03450734168291092,0.035799477249383926,0.008450841531157494
1772363468300160300,6.51816015625,0.026784976944327354,0.02991575375199318,-0.0061784349381923676
1772363468310230300,6.528230224609375,0.024645045399665833,0.01807151734828949,-0.02574462816119194
1772363468320299300,6.53829931640625,0.02480270341038704,-0.001604182180017233,-0.03842793405056
1772363468330369300,6.548369384765625,0.013121106661856174,-0.0012632121797651052,-0.04677226021885872
1772363468340438000,6.55843798828125,0.006270390935242176,-0.005445173941552639,-0.04582523927092552
1772363468350508300,6.56850830078125,-0.0004664449952542782,-0.007305200211703777,-0.04860088229179382
1772363468360577300,6.578577392578125,-0.002288845833390951,-0.015268851071596146,-0.0445648618042469
1772363468370647300,6.588647216796875,0.0005717845633625984,-0.022929726168513298,-0.03413043171167374
1772363468380716300,6.59871630859375,-0.0015467600896954536,-0.02096457965672016,-0.012239780277013779
1772363468390786000,6.6087861328125,0.0020220973528921604,-0.016826771199703217,0.0016446681693196297
1772363468400855300,6.618855224609375,-0.000775553286075592,-0.00784818921238184,0.012134326621890068
1772363468410925000,6.628925048828125,-0.003853671718388796,-0.010656114667654037,0.019499823451042175
1772363468420994300,6.638994384765625,-0.0055050975643098354,-0.017038647085428238,0.021769102662801743
1772363468431064000,6.64906396484375,-0.009220033884048462,-0.027980593964457512,0.027709659188985825
1772363468441133300,6.65913330078125,-0.005327025428414345,-0.029519634321331978,0.03518541902303696
1772363468451203300,6.669203369140625,-0.004900240805000067,-0.028107011690735817,0.034658946096897125
1772363468461272300,6.679272216796875,0.00046576187014579773,-0.028645236045122147,0.034059733152389526
1772363468471342300,6.68934228515625,0.002286649774760008,-0.02895786240696907,0.029430851340293884
1772363468481411300,6.699411376953125,0.0018280535005033016,-0.032059114426374435,0.026239320635795593
1772363468491481300,6.7094814453125,-0.0018119188025593758,-0.036541592329740524,0.013094496913254261
1772363468501550000,6.719550048828125,-0.011143635958433151,-0.03669951856136322,0.001773398369550705
1772363468511620400,6.729620361328125,-0.013891667127609253,-0.03617510944604874,-0.00885745044797659
1772363468521689000,6.739689208984375,-0.009573884308338165,-0.027204783633351326,-0.026211673393845558
1772363468531759400,6.74975927734375,-0.007120498456060886,-0.01911693625152111,-0.04323624446988106
1772363468541828000,6.759828125,-0.0032714316621422768,-0.011691243387758732,-0.050742898136377335
1772363468551898400,6.7698984375,-0.004387970082461834,0.0028784191235899925,-0.059012919664382935
1772363468561967000,6.779967041015625,-0.003227364271879196,0.01095658540725708,-0.057579874992370605
1772363468572037000,6.790037109375,-0.004419548436999321,0.012641160748898983,-0.0485575832426548
1772363468582106000,6.800106201171875,0.0000636167824268341,0.01723537966609001,-0.03851107507944107
1772363468592176000,6.810176025390625,0.0018731700256466866,0.011257929727435112,-0.019862370565533638
1772363468602245400,6.820245361328125,0.0010531828738749027,0.007149471435695887,-0.001004260964691639
1772363468612315100,6.830315185546875,-0.0026829009875655174,0.011036341078579426,0.012382732704281807
1772363468622384400,6.84038427734375,-0.0044701481238007545,0.01340628694742918,0.029650136828422546
1772363468632454100,6.8504541015625,-0.010515782982110977,0.01767432503402233,0.04237065836787224
1772363468642523400,6.8605234375,-0.008014541119337082,0.02783322148025036,0.0456351637840271
1772363468652593200,6.87059326171875,-0.005373860243707895,0.032918594777584076,0.040069397538900375
1772363468662662100,6.880662109375,-0.004253468010574579,0.024088621139526367,0.03980094939470291
1772363468672732200,6.890732177734375,-0.00007010204717516899,0.02420184388756752,0.027841242030262947
1772363468682801200,6.90080126953125,-0.004190811421722174,0.02216612547636032,0.019001146778464317
1772363468692871400,6.910871337890625,-0.0051840972155332565,0.02075335942208767,0.004233401268720627
1772363468702940200,6.920940185546875,-0.009206002578139305,0.010264232754707336,-0.003745429217815399
1772363468713007000,6.931007080078125,-0.011948348954319954,0.0029262742027640343,-0.004740268923342228
1772363468723076000,6.941076171875,-0.009949646890163422,-0.0019260055851191282,-0.010504947043955326
1772363468733146000,6.95114599609375,-0.01287941075861454,-0.006594836711883545,-0.003741724416613579
1772363468743215000,6.961215087890625,-0.008263353258371353,-0.01439257338643074,0.004098622128367424
1772363468753285000,6.97128515625,-0.006883844267576933,-0.020833216607570648,0.01742434874176979
1772363468763354400,6.981354248046875,-0.006993566174060106,-0.026721999049186707,0.029766235500574112
1772363468773424000,6.991424072265625,-0.002076132223010063,-0.025050150230526924,0.036007724702358246
1772363468783493400,7.001493408203125,0.0012197955511510372,-0.02599077858030796,0.0368247851729393
1772363468793563100,7.011563232421875,0.003750662552192807,-0.028382577002048492,0.026475556194782257
1772363468803632400,7.02163232421875,0.004141881130635738,-0.02602195367217064,0.02000274509191513
1772363468813702100,7.0317021484375,0.005264908075332642,-0.0244116373360157,0.013418002985417843
1772363468823771100,7.041771240234375,0.009124627336859703,-0.019518611952662468,-0.0022461777552962303
1772363468833841200,7.051841064453125,0.005086367018520832,-0.011798568069934845,-0.010772311128675938
1772363468843910100,7.06191015625,0.004292745143175125,0.0001225392334163189,-0.019321324303746223
1772363468853980400,7.07198046875,0.0015903064049780369,0.010879873298108578,-0.0381375215947628
1772363468864049200,7.082049072265625,0.006475875154137611,0.016023769974708557,-0.05511251091957092
1772363468874119200,7.092119140625,0.0029728091321885586,0.010429729707539082,-0.06127065792679787
1772363468884189200,7.102189208984375,0.00438268668949604,0.007279477082192898,-0.05303429812192917
1772363468894258200,7.112258056640625,0.0061087338253855705,0.009794032201170921,-0.036237601190805435
1772363468904328200,7.122328125,0.009744214825332165,0.01309715025126934,-0.014926984906196594
1772363468914397200,7.132397216796875,0.0015348843298852444,0.005543597973883152,0.0065555693581700325
1772363468924467200,7.14246728515625,0.0025695222429931164,0.008218743838369846,0.026469089090824127
1772363468934536200,7.1525361328125,0.005578114651143551,0.01758752204477787,0.03929368406534195
1772363468944606200,7.162606201171875,0.004318439867347479,0.020502084866166115,0.0413493812084198
1772363468954675200,7.17267529296875,0.0020633479580283165,0.021912535652518272,0.0416995994746685
1772363468964745200,7.1827451171875,0.0018455013632774353,0.01726531982421875,0.03639804571866989
1772363468974814200,7.192814208984375,-0.0010806708596646786,0.014318995177745819,0.024522237479686737
1772363468984884200,7.20288427734375,-0.0037795179523527622,0.01619385927915573,0.013743625022470951
1772363468994953200,7.212953125,-0.0007211440242826939,0.015205560252070427,-0.004198889248073101
1772363469005023200,7.223023193359375,-0.0008170171640813351,0.010303480550646782,-0.02100556716322899
1772363469015092200,7.23309228515625,-0.0005367244593799114,-0.0024168698582798243,-0.031987741589546204
1772363469025162200,7.243162353515625,-0.00034470995888113976,-0.010471601039171219,-0.042893655598163605
1772363469035231200,7.253231201171875,-0.004659188911318779,-0.005489695817232132,-0.05028736591339111
1772363469045301200,7.26330126953125,-0.007243786007165909,-0.0021580816246569157,-0.05027990788221359
1772363469055370000,7.273369873046875,-0.01192304864525795,0.005534040741622448,-0.04697161167860031
1772363469065440300,7.283440185546875,-0.01625867560505867,0.004839754663407803,-0.03503292798995972
1772363469075509000,7.293509033203125,-0.014513901434838772,-0.010126650333404541,-0.021404899656772614
1772363469085579300,7.303579345703125,-0.011081886477768421,-0.020253852009773254,-0.005417943000793457
1772363469095648300,7.313648193359375,-0.00819961167871952,-0.028950124979019165,0.004423419013619423
1772363469105718000,7.323718017578125,-0.006743128411471844,-0.02032254822552204,0.011014476418495178
1772363469115787300,7.333787353515625,-0.008233288303017616,-0.014226756058633327,0.019271373748779297
1772363469125857000,7.34385693359375,-0.004082218278199434,-0.005317949689924717,0.022142261266708374
1772363469135926300,7.35392626953125,-0.002403801307082176,-0.008823917247354984,0.024291057139635086
1772363469145996000,7.36399609375,0.002765393815934658,-0.007509380578994751,0.02834998071193695
1772363469156065300,7.374065185546875,0.0009552990086376667,-0.0044694505631923676,0.031088395044207573
1772363469166135000,7.384135009765625,0.00428611459210515,-0.0071893371641635895,0.022294102236628532
1772363469176204300,7.394204345703125,-0.000031962525099515915,-0.008910104632377625,0.011895183473825455
1772363469186274300,7.4042744140625,-0.0072637759149074554,-0.01099429465830326,0.0060908254235982895
1772363469196343300,7.41434326171875,-0.019814621657133102,-0.0155100766569376,-0.0014559505507349968
1772363469206413300,7.424413330078125,-0.022192025557160378,-0.016512757167220116,-0.021048560738563538
1772363469216482000,7.43448193359375,-0.023914815858006477,-0.01777663826942444,-0.03376895189285278
1772363469226552300,7.44455224609375,-0.02152356319129467,-0.021316777914762497,-0.04235871136188507
1772363469236621000,7.45462109375,-0.019484417513012886,-0.01948734000325203,-0.048062942922115326
1772363469246691300,7.46469140625,-0.018858840689063072,-0.016134154051542282,-0.04730980098247528
1772363469256760000,7.474760009765625,-0.015394534915685654,-0.005398699082434177,-0.043222829699516296
1772363469266830000,7.484830078125,-0.014667226001620293,0.0026714778505265713,-0.03556171432137489
1772363469276899000,7.494899169921875,-0.012020153924822807,-0.010767560452222824,-0.04152162745594978
1772363469286969000,7.504968994140625,-0.00633616978302598,-0.013421399518847466,-0.006646201014518738
1772363469297038000,7.5150380859375,0.004757777787744999,0.02833414450287819,0.01931442692875862
1772363469307108000,7.525108154296875,0.0072092171758413315,0.03761366382241249,0.030220072716474533
1772363469317177300,7.53517724609375,0.0050465199165046215,0.010850956663489342,0.03532256931066513
1772363469327247000,7.5452470703125,0.0012477869167923927,0.0038247392512857914,0.041967425495386124
1772363469337316400,7.55531640625,0.0033975718542933464,0.015665249899029732,0.041474420577287674
1772363469347386000,7.56538623046875,0.0017996751703321934,0.017863955348730087,0.028905365616083145
1772363469357455400,7.575455322265625,0.0035692197270691395,0.005903394892811775,0.018034718930721283
1772363469367525000,7.585525146484375,0.004003847483545542,0.011551426723599434,0.008032950572669506
1772363469377594000,7.595593994140625,0.0029382328502833843,0.02113344892859459,-0.0024433517828583717
1772363469387664100,7.6056640625,-0.0031604059040546417,0.021524399518966675,-0.010117249563336372
1772363469397733000,7.615733154296875,-0.003108418080955744,0.007575493771582842,-0.010972240008413792
1772363469407803400,7.625803466796875,-0.0026948298327624798,-0.0027394613716751337,-0.011915798299014568
1772363469417872100,7.6358720703125,-0.0029727541841566563,-0.009619010612368584,-0.011837742291390896
1772363469427942400,7.6459423828125,-0.005421530921012163,-0.014060896821320057,-0.00963903684169054
1772363469438012200,7.65601220703125,-0.010732067748904228,-0.01869848370552063,-0.008582811802625656
1772363469448081200,7.6660810546875,-0.010916624218225479,-0.025547336786985397,-0.0020562028512358665
1772363469458151200,7.676151123046875,-0.01692076586186886,-0.032428085803985596,0.010703061707317829
1772363469468220200,7.68622021484375,-0.020371155813336372,-0.033940497785806656,0.023394621908664703
1772363469478290200,7.696290283203125,-0.012260714545845985,-0.037366654723882675,0.034093745052814484
1772363469488359200,7.706359130859375,-0.01168866641819477,-0.036761850118637085,0.043676331639289856
1772363469498429200,7.71642919921875,-0.005885360762476921,-0.038412220776081085,0.049072906374931335
1772363469508498200,7.726498291015625,0.0016636359505355358,-0.03561057895421982,0.04294417053461075
1772363469518568200,7.736568115234375,0.007634459063410759,-0.026814844459295273,0.03967181220650673
1772363469528637200,7.74663720703125,0.009048864245414734,-0.01832442171871662,0.0317893885076046
1772363469538707200,7.756707275390625,0.0061389850452542305,-0.012464331462979317,0.024826262146234512
1772363469548776200,7.766776123046875,0.005577058531343937,-0.004782976116985083,0.017005089670419693
1772363469558846200,7.77684619140625,0.011067936196923256,-0.0028530822601169348,0.0033557815477252007
1772363469568915200,7.786915283203125,0.010506541468203068,0.004940392449498177,-0.008100071921944618
1772363469578985200,7.796985107421875,0.01039453037083149,0.0057171666994690895,-0.019706103950738907
1772363469589054200,7.80705419921875,0.012569267302751541,0.01772802323102951,-0.03752531483769417
1772363469599124200,7.817124267578125,0.01582532562315464,0.02565782517194748,-0.048562757670879364
1772363469609193000,7.82719287109375,0.010159183293581009,0.02567300572991371,-0.041534945368766785
1772363469619263200,7.83726318359375,0.0075024026446044445,0.02064496837556362,-0.02841056138277054
1772363469629332200,7.847332275390625,0.0032256324775516987,0.00890096090734005,-0.008868285454809666
1772363469639402200,7.85740234375,0.0043249125592410564,-0.01172712817788124,0.006366843357682228
1772363469649471200,7.86747119140625,0.001719808205962181,-0.020999453961849213,0.020655235275626183
1772363469659541200,7.877541259765625,0.004001111723482609,-0.012076977640390396,0.03210364654660225
1772363469669610200,7.8876103515625,0.002870599739253521,-0.0034448737278580666,0.03817352280020714
1772363469679680000,7.897679931640625,0.0009837467223405838,0.012426299974322319,0.04540187120437622
1772363469689749200,7.907749267578125,-0.0009337295778095722,0.009790569543838501,0.04655581712722778
1772363469699819000,7.917819091796875,-0.0025658709928393364,0.015438264235854149,0.039221759885549545
1772363469709887500,7.927887451171875,-0.002979992888867855,0.008247464895248413,0.01680726557970047
1772363469719957500,7.93795751953125,-0.01321113109588623,0.0023668953217566013,0.0014485344290733337
1772363469730026500,7.948026611328125,-0.012683559209108353,0.00014315592125058174,-0.004490048624575138
1772363469740096500,7.958096435546875,-0.015006066299974918,-0.006548946723341942,-0.0169131550937891
1772363469750165500,7.96816552734375,-0.015215390361845493,-0.014313125982880592,-0.024212613701820374
1772363469760235500,7.978235595703125,-0.014164542779326439,-0.02437976375222206,-0.024979878216981888
1772363469770302500,7.988302490234375,-0.02085626870393753,-0.017007067799568176,-0.014155193231999874
1772363469780372500,7.99837255859375,-0.020019806921482086,-0.0041635953821241856,0.0002746041864156723
1772363469790441500,8.00844140625,-0.01919502578675747,-0.0021289403084665537,0.012439924292266369
1772363469800511500,8.018511474609374,-0.01819443143904209,-0.002566020702943206,0.03168812766671181
1772363469810580500,8.02858056640625,-0.01565510779619217,-0.0029758810997009277,0.04261321201920509
1772363469820650500,8.038650390625,-0.010221878066658974,-0.002490793354809284,0.04827539622783661
1772363469830719500,8.048719482421875,-0.005974136758595705,-0.0027390001341700554,0.04844663664698601
1772363469840789500,8.05878955078125,0.0016968045383691788,0.0010212846100330353,0.04605690389871597
1772363469850858500,8.0688583984375,0.007666812743991613,0.0057108448818326,0.03899393603205681
1772363469860928500,8.078928466796874,0.01510678417980671,0.00864843837916851,0.02608710341155529
1772363469870997500,8.08899755859375,0.018806714564561844,0.01322348415851593,0.01662435755133629
1772363469881067500,8.099067626953126,0.02388335019350052,0.016218991950154305,0.00485340878367424
1772363469891136500,8.109136474609375,0.025407474488019943,0.011357391253113747,0.00284005980938673
1772363469901206500,8.11920654296875,0.015451131388545036,-0.006349419243633747,0.003107750788331032
1772363469911275300,8.129275146484375,0.0076986695639789104,-0.009132955223321915,0.005700072273612022
1772363469921345500,8.139345458984375,0.00018759118393063545,0.005995270796120167,0.0017059529200196266
1772363469931414300,8.149414306640624,0.002673385664820671,0.01468276884406805,-0.004849151708185673
1772363469941484500,8.159484619140626,0.0012121093459427357,0.013828159309923649,-0.01096589956432581
1772363469951554600,8.169554443359376,0.0015162420459091663,0.010052862577140331,-0.01394863985478878
1772363469961623600,8.17962353515625,0.005931569263339043,0.005249893292784691,-0.015989137813448906
1772363469971693600,8.189693603515625,-0.0002578827552497387,0.004987305961549282,-0.0160226933658123
1772363469981762300,8.19976220703125,-0.002487179823219776,-0.0018355583306401968,-0.010063063353300095
1772363469991832600,8.20983251953125,-0.011013822630047798,0.0011367956176400185,0.006481558084487915
1772363470001901300,8.2199013671875,-0.013692372478544712,0.003743960987776518,0.021478237584233284
1772363470011971600,8.2299716796875,-0.009875263087451458,0.0037916316650807858,0.03059050627052784
1772363470022040300,8.240040283203125,-0.009444795548915863,-0.0065239835530519485,0.042036596685647964
1772363470032110300,8.2501103515625,-0.007666603196412325,-0.007740515284240246,0.04941461980342865
1772363470042179600,8.2601796875,-0.007679975591599941,-0.00482561532407999,0.053213465958833694
1772363470052249300,8.270249267578125,-0.00965923722833395,0.010204732418060303,0.06356863677501678
1772363470062318600,8.280318603515624,-0.012136545032262802,0.02497606724500656,0.06604164093732834
1772363470072388400,8.290388427734374,-0.005406205542385578,0.03615282475948334,0.06050492823123932
1772363470082457600,8.30045751953125,-0.001389036886394024,0.03901991248130798,0.045999374240636826
1772363470092527400,8.31052734375,0.0030563115142285824,0.04268255829811096,0.03860164433717728
1772363470102596600,8.3205966796875,-0.0022573922760784626,0.04716293513774872,0.02916482649743557
1772363470112666400,8.330666259765625,-0.007315001916140318,0.046721648424863815,0.01798088103532791
1772363470122735600,8.340735595703125,-0.01050498429685831,0.03412076085805893,0.0053618066012859344
1772363470132805600,8.3508056640625,-0.008549957536160946,0.016959616914391518,-0.00293660257011652
1772363470142874400,8.360874267578126,-0.011905444785952568,0.0019987947307527065,-0.008838266134262085
1772363470152944600,8.370944580078126,-0.01751219667494297,0.001047247089445591,-0.005491205491125584
1772363470163013400,8.381013427734375,-0.021028079092502594,0.009323451668024063,0.00648962426930666
1772363470173083600,8.391083740234375,-0.017584078013896942,0.010725872591137886,0.011773069389164448
1772363470183152400,8.40115234375,-0.01619933545589447,0.0038574393838644028,0.021970756351947784
1772363470193222400,8.411222412109375,-0.020993025973439217,-0.008844241499900818,0.03962964192032814
1772363470203291400,8.42129150390625,-0.01858988031744957,-0.001975500490516424,0.05670594051480293
1772363470213361400,8.431361328125,-0.013701914809644222,0.0007459837943315506,0.06673486530780792
1772363470223430400,8.441430419921875,-0.0091282669454813,0.001067708246409893,0.07705959677696228
1772363470233500400,8.45150048828125,-0.001981941517442465,-0.006088471971452236,0.0801672413945198
1772363470243569400,8.4615693359375,0.0006496496498584747,-0.00537349795922637,0.07688245922327042
1772363470253639400,8.471639404296875,0.005955199245363474,-0.002270116237923503,0.05802435427904129
1772363470263708700,8.481708740234374,0.012397358193993568,-0.005781858693808317,0.03509020060300827
1772363470273778400,8.4917783203125,0.010667102411389351,-0.00891639944165945,0.02442850172519684
1772363470283847700,8.50184765625,0.007827364839613438,-0.0029272716492414474,0.006755565293133259
1772363470293917400,8.51191748046875,0.005540241952985525,-0.004423169419169426,-0.003437683917582035
1772363470303987500,8.521987548828125,-0.00033582933247089386,0.00031881406903266907,-0.013019219972193241
1772363470314056400,8.532056396484375,0.0072938608936965466,0.010269450023770332,-0.03252847492694855
1772363470324126500,8.54212646484375,0.005977585446089506,0.011507326737046242,-0.04196229949593544
1772363470334195500,8.552195556640624,0.005031098145991564,0.010859379544854164,-0.05196220427751541
1772363470344265500,8.562265380859374,0.00717986561357975,0.011925682425498962,-0.051617689430713654
1772363470354334700,8.572334716796876,0.003219212405383587,0.020423563197255135,-0.042358942329883575
1772363470364406500,8.582406494140624,0.004074813798069954,0.024343959987163544,-0.02522870898246765
1772363470374475500,8.5924755859375,0.009475437924265862,0.02401905320584774,-0.008508051745593548
1772363470384545500,8.602545654296875,0.007826711051166058,0.0019274884834885597,0.008627001196146011
1772363470394614500,8.612614501953125,0.0069918096996843815,0.0036026164889335632,0.02787499874830246
1772363470404684500,8.6226845703125,0.015587779693305492,0.021614136174321175,0.037369657307863235
1772363470414753500,8.63275341796875,0.014540358446538448,0.03597176820039749,0.039844535291194916
1772363470424823600,8.642823486328124,0.011943474411964417,0.03282296285033226,0.04833867773413658
1772363470434892500,8.652892578125,0.00048389192670583725,0.03262029588222504,0.04928543418645859
1772363470444962600,8.662962646484376,0.00043022120371460915,0.0433235801756382,0.03438892960548401
1772363470455031300,8.67303125,-0.005681999959051609,0.04477047547698021,0.01496276818215847
1772363470465101600,8.6831015625,-0.004291304852813482,0.031972333788871765,-0.005432450212538242
1772363470475170300,8.69317041015625,-0.004662815947085619,0.021939406171441078,-0.021973077207803726
1772363470485240600,8.703240478515625,-0.004063338506966829,0.01617126539349556,-0.042176615446805954
1772363470495309600,8.7133095703125,-0.005275875795632601,0.003299409057945013,-0.05497310683131218
1772363470505379300,8.72337939453125,-0.007943782955408096,-0.007730996701866388,-0.060649946331977844
1772363470515448600,8.733448486328125,-0.008044449612498283,-0.002294419566169381,-0.060475245118141174
1772363470525518300,8.743518310546875,-0.0062200953252613544,-0.0005144760943949223,-0.05003390833735466
1772363470535587600,8.753587646484375,-0.010399393737316132,-0.005860239267349243,-0.04102043807506561
1772363470545657300,8.7636572265625,-0.012024354189634323,-0.019074438139796257,-0.028406284749507904
1772363470555726600,8.7737265625,-0.015295248478651047,-0.025248179212212563,-0.019666321575641632
1772363470565796400,8.78379638671875,-0.016293272376060486,-0.01705179549753666,-0.01283434871584177
1772363470575865600,8.793865478515626,-0.01463945023715496,-0.01718015968799591,-0.007123466115444899
1772363470585935600,8.803935546875,-0.018550151959061623,-0.02616831287741661,0.006151103414595127
1772363470596005400,8.81400537109375,-0.021690284833312035,-0.029980627819895744,0.006927945651113987
1772363470606074600,8.82407470703125,-0.024340104311704636,-0.03182736411690712,0.018293317407369614
1772363470616144400,8.834144287109375,-0.025772619992494583,-0.030486460775136948,0.02579437755048275
1772363470626213600,8.844213623046874,-0.026844264939427376,-0.031827110797166824,0.035318583250045776
1772363470636283400,8.854283447265624,-0.029002489522099495,-0.04449896514415741,0.033504437655210495
1772363470646352600,8.8643525390625,-0.033328160643577576,-0.07036956399679184,0.02215413749217987
1772363470656422400,8.87442236328125,-0.03089802712202072,-0.08500603586435318,0.010197076946496964
1772363470666491400,8.884491455078125,-0.03954906016588211,-0.09138302505016327,0.0029693813994526863
1772363470676561700,8.894561767578125,-0.03583768010139465,-0.09594900906085968,-0.008566632866859436
1772363470686630400,8.90463037109375,-0.034854862838983536,-0.08660644292831421,-0.01798487827181816
1772363470696700700,8.91470068359375,-0.028656087815761566,-0.08055520802736282,-0.030587222427129745
1772363470706769700,8.924769775390626,-0.01846883073449135,-0.07220989465713501,-0.04572426527738571
1772363470716839700,8.934839599609376,-0.01049745548516512,-0.059847235679626465,-0.054291918873786926
1772363470726909000,8.944908935546875,-0.005106132477521896,-0.04137737676501274,-0.06646029651165009
1772363470736978700,8.954978759765625,0.005134521052241325,-0.028339603915810585,-0.06906139850616455
1772363470747048000,8.9650478515625,0.005703913513571024,-0.012797338888049126,-0.06679937988519669
1772363470757117700,8.97511767578125,0.006996079348027706,-0.007718424312770367,-0.06311249732971191
1772363470767187000,8.98518701171875,0.014885226264595985,-0.004610263276845217,-0.04638883098959923
1772363470777256700,8.995256591796876,0.016134249046444893,0.001071324571967125,-0.02780582569539547
1772363470787326000,9.005325927734376,0.009015279822051525,0.004241509363055229,-0.013735562562942505
1772363470797395700,9.015395751953125,0.005560627207159996,0.010532161220908165,0.0038540828973054886
1772363470807465000,9.02546484375,0.0033781947568058968,0.017273785546422005,0.016892995685338974
1772363470817535000,9.035534912109375,0.004134532995522022,0.022978544235229492,0.019484519958496094
1772363470827603700,9.045603759765624,0.0027468972839415073,0.022767649963498116,0.019484616816043854
1772363470837674000,9.055674072265624,0.005239083431661129,0.024868616834282875,0.021919280290603638
1772363470847742700,9.06574267578125,0.0027324953116476536,0.04223371669650078,0.014846843667328358
1772363470857813000,9.07581298828125,0.0021729650907218456,0.04975182190537453,0.004499929957091808
1772363470867881700,9.0858818359375,0.0016565490514039993,0.0446283333003521,-0.004028385505080223
1772363470877951700,9.09595166015625,-0.0026716203428804874,0.03683246299624443,-0.012643977999687195
1772363470888021800,9.106021728515625,-0.00399397499859333,0.027805466204881668,-0.01654106006026268
1772363470898090800,9.1160908203125,-0.008233195170760155,0.01921996846795082,-0.01492239162325859
1772363470908161000,9.1261611328125,-0.004097483586519957,0.01822117157280445,-0.016668744385242462
1772363470918229800,9.136229736328126,0.0020067477598786354,0.013618696480989456,-0.01629430428147316
1772363470928299800,9.1462998046875,0.0009989789687097073,0.012626837939023972,-0.013453054241836071
1772363470938368800,9.15636865234375,0.005503982305526733,0.0033915280364453793,-0.008067343384027481
1772363470948438800,9.166438720703125,0.0029910802841186523,0.0037235519848763943,0.0005622496828436852
1772363470958507800,9.1765078125,-0.0004071127623319626,0.0061385068111121655,0.013037028722465038
1772363470968577800,9.186577880859375,0.004712648689746857,0.0004826257936656475,0.028874937444925308
1772363470978646800,9.196646728515624,0.0025387099012732506,-0.0053267935290932655,0.0386442132294178
1772363470988716800,9.206716796875,0.0076837195083498955,-0.011432217434048653,0.03666143864393234
1772363470998785800,9.216785888671875,0.014265189878642559,-0.004611861426383257,0.025075092911720276
1772363471008855800,9.226855712890625,0.019011160358786583,-0.014157036319375038,0.005289983935654163
1772363471018924800,9.2369248046875,0.039182208478450775,-0.004619724117219448,0.011607003398239613
1772363471028994800,9.246994873046875,0.036280643194913864,0.037852898240089417,0.002628016285598278
1772363471039063800,9.257063720703124,0.031126894056797028,0.02974623814225197,-0.02519136480987072
1772363471049133800,9.2671337890625,0.030286911875009537,0.012970678508281708,-0.03879333660006523
1772363471059202800,9.277202880859376,0.02694784104824066,0.028117142617702484,-0.04804622381925583
1772363471069272800,9.28727294921875,0.025647345930337906,0.041548218578100204,-0.05975482612848282
1772363471079341800,9.297341796875,0.03320486471056938,0.04192319139838219,-0.07138698548078537
1772363471089411800,9.307411865234375,0.033241983503103256,0.04501579329371452,-0.06977088749408722
1772363471099480800,9.317480712890625,0.03381749242544174,0.04439767450094223,-0.05977843701839447
1772363471109550600,9.327550537109374,0.026615377515554428,0.03371230140328407,-0.029118163511157036
1772363471119619800,9.337619873046876,0.0316024124622345,0.029735935851931572,-0.014558395370841026
1772363471129689600,9.347689697265626,0.03815409913659096,0.03269331902265549,-0.005529806483536959
1772363471139758800,9.3577587890625,0.03746620565652847,0.025583745911717415,0.0048125796020030975
1772363471149828900,9.367828857421875,0.03917591646313667,0.01794910803437233,0.009758860804140568
1772363471159899000,9.37789892578125,0.041653454303741455,0.018466826528310776,0.01815660670399666
1772363471169967900,9.3879677734375,0.03698306530714035,0.014607049524784088,0.02568729594349861
1772363471180037600,9.39803759765625,0.03463681787252426,0.011782234534621239,0.025360260158777237
1772363471190107000,9.40810693359375,0.02703871950507164,0.008085627108812332,0.023808341473340988
1772363471200176600,9.4181767578125,0.021168045699596405,0.0029720915481448174,0.01446331012994051
1772363471210246000,9.428245849609375,0.020612813532352448,0.007589901797473431,-0.002430177293717861
1772363471220315600,9.438315673828125,0.029252907261252403,0.001510437112301588,-0.017886897549033165
1772363471230385000,9.448385009765625,0.024186618626117706,-0.0054402160458266735,-0.039547160267829895
1772363471240455000,9.458454833984375,0.019897863268852234,-0.015278465114533901,-0.05341743677854538
1772363471250524000,9.46852392578125,0.010883213020861149,-0.021206915378570557,-0.06826931238174438
1772363471260594000,9.478593994140626,0.00284233083948493,-0.02621632069349289,-0.07226432114839554
1772363471270663000,9.488662841796875,-0.006136024836450815,-0.02425125613808632,-0.06408364325761795
1772363471280733000,9.49873291015625,-0.01283281110227108,-0.02871684357523918,-0.05310982093214989
1772363471290801700,9.5088017578125,-0.014463938772678375,-0.026620741933584213,-0.05159858986735344
1772363471300872000,9.518871826171875,-0.018012866377830505,-0.048536427319049835,-0.05732199177145958
1772363471310940700,9.528940673828124,-0.028609024360775948,-0.06956757605075836,-0.015230919234454632
1772363471321011000,9.539010986328124,-0.029678015038371086,-0.03791883587837219,0.0015837475657463074
1772363471331079700,9.54907958984375,-0.033697985112667084,-0.018447626382112503,-0.0016152262687683105
1772363471341149700,9.559149658203125,-0.03085532784461975,-0.03538666293025017,0.005758799612522125
1772363471351218700,9.56921875,-0.024282461032271385,-0.04418132081627846,0.012874818406999111
1772363471361288700,9.579288818359375,-0.017617102712392807,-0.03413720801472664,0.01311237271875143
1772363471371358000,9.58935791015625,-0.012417703866958618,-0.017727410420775414,0.015368360094726086
1772363471381427700,9.599427734375,-0.014815080910921097,-0.01373746246099472,0.010023129172623158
1772363471391497000,9.6094970703125,-0.021348441019654274,-0.03794994205236435,-0.0024909572675824165
1772363471401566700,9.619566650390626,-0.02283341996371746,-0.05950263887643814,0.00214960053563118
1772363471411636000,9.629635986328125,-0.01723056100308895,-0.052432604134082794,0.015059630386531353
1772363471421705700,9.639705810546875,-0.020971503108739853,-0.027214599773287773,0.009516526944935322
1772363471431775700,9.649775634765625,-0.035533033311367035,-0.030425166711211205,-0.004274293780326843
1772363471441844700,9.6598447265625,-0.03894853964447975,-0.04972109943628311,-0.037867408245801926
1772363471451914800,9.669914794921874,-0.03169235959649086,-0.061124786734580994,-0.027865204960107803
1772363471461984000,9.67998388671875,-0.028406284749507904,-0.02269909717142582,-0.01676941104233265
1772363471472053800,9.6900537109375,-0.026660067960619926,0.01920509524643421,-0.031403880566358566
1772363471482123000,9.700123046875,-0.0271556805819273,0.007333256304264069,-0.04560624808073044
1772363471492192800,9.71019287109375,-0.01782255992293358,-0.013963202014565468,-0.050183676183223724
1772363471502261800,9.72026171875,-0.012280521914362907,-0.0172727108001709,-0.04498811438679695
1772363471512331800,9.730331787109375,-0.005005810875445604,-0.018820231780409813,-0.032747283577919006
1772363471522400800,9.74040087890625,-0.0004941499792039394,-0.014252910390496254,-0.024939697235822678
1772363471532470800,9.750470703125,0.013767186552286148,-0.007812126073986292,-0.018046345561742783
1772363471542539800,9.760539794921876,0.018487107008695602,0.0010825656354427338,-0.010290687903761864
1772363471552610000,9.770610107421875,0.024108920246362686,0.003939422778785229,-0.00300025288015604
1772363471562678800,9.7806787109375,0.020868118852376938,0.0010682684369385242,0.008276904001832008
1772363471572748800,9.790748779296875,0.018649877980351448,0.0039989943616092205,0.02755589783191681
1772363471582817800,9.80081787109375,0.01981394551694393,0.02260836586356163,0.029261119663715363
1772363471592887800,9.8108876953125,0.027711383998394012,0.02819262258708477,0.021443234756588936
1772363471602956800,9.820956787109376,0.02655397541821003,0.024896161630749702,0.011519499123096466
1772363471613026800,9.83102685546875,0.02178443968296051,0.010583966970443726,0.00019792094826698303
1772363471623095800,9.841095703125,0.01781846024096012,0.001962515991181135,-0.021703116595745087
1772363471633165800,9.851165771484375,0.015874847769737244,-0.01450689323246479,-0.027855025604367256
1772363471643234800,9.86123486328125,0.03041757270693779,-0.00499594584107399,-0.022858137264847755
1772363471653304800,9.871304931640625,0.020568231120705605,0.012066745199263096,-0.02941148728132248
1772363471663373800,9.881373779296876,0.008884942159056664,-0.01874363049864769,-0.041474275290966034
1772363471673443800,9.89144384765625,0.001086302101612091,-0.03504836931824684,-0.03796007111668587
1772363471683513900,9.901513916015626,0.0005014720372855663,-0.026760078966617584,-0.03151708468794823
1772363471693582800,9.911582763671875,0.00931248813867569,-0.02060019224882126,-0.027029797434806824
1772363471703652900,9.92165283203125,0.012664075940847397,-0.026348091661930084,-0.022285908460617065
1772363471713721600,9.9317216796875,0.009370589628815651,-0.020481469109654427,-0.012414428405463696
1772363471723791600,9.94179150390625,0.003955850377678871,-0.00678429938852787,-0.004700582008808851
1772363471733860600,9.951860595703126,0.0062565915286540985,-0.014034068211913109,0.0023229792714118958
1772363471743930600,9.9619306640625,0.013753656297922134,-0.015680966898798943,0.00833985861390829
1772363471753999400,9.971999267578125,0.01631072722375393,-0.013325611129403114,0.02345188707113266
1772363471764069600,9.982069580078125,0.005662077572196722,0.0016424190253019333,0.03473064303398132
1772363471774138400,9.992138427734375,-0.002999075222760439,0.0143954548984766,0.026913855224847794
1772363471784208600,10.002208740234375,-0.006662785541266203,0.016965406015515327,0.01666681095957756
1772363471794277600,10.012277587890624,-0.010236453264951706,0.006170379929244518,0.00541423074901104
1772363471804347400,10.022347412109376,-0.017397159710526466,-0.005762445740401745,-0.0046692960895597935
1772363471814416600,10.032416748046876,-0.02103351056575775,-0.015925779938697815,-0.013256757520139217
1772363471824486400,10.042486328125,-0.026763565838336945,-0.01384531706571579,-0.016040826216340065
1772363471834555600,10.0525556640625,-0.03268316388130188,-0.003451830707490444,-0.007489650975912809
1772363471844625400,10.06262548828125,-0.03640866279602051,-0.0035716730635613203,-0.024987684562802315
1772363471854694700,10.072694580078124,-0.04661362245678902,-0.027343790978193283,-0.02548922598361969
1772363471864764400,10.082764404296874,-0.04129369184374809,-0.010338975116610527,0.03450992703437805
1772363471874833700,10.092833740234376,-0.06359633803367615,0.06957150995731354,0.10705982893705368
1772363471884903700,10.102903564453126,-0.08009089529514313,0.12153297662734985,0.10229756683111191
1772363471894972700,10.11297265625,-0.04771464318037033,0.09180546551942825,0.11259512603282928
1772363471905042700,10.123042724609375,-0.01139525044709444,0.06106219068169594,0.07478383183479309
1772363471915111400,10.133111328125,0.00021703075617551804,-0.0009637512266635895,0.034965671598911285
1772363471925181700,10.143181640625,0.009094944223761559,-0.07293727248907089,0.008110889233648777
1772363471935251500,10.15325146484375,0.015455078333616257,-0.08260118961334229,-0.03722577542066574
1772363471945320700,10.16332080078125,0.010530626401305199,-0.07523328810930252,-0.08093437552452087
1772363471955390500,10.173390380859376,-0.006875095888972282,-0.10140058398246765,-0.12052767723798752
1772363471965459700,10.183459716796875,-0.00544631015509367,-0.13233932852745056,-0.1438460648059845
1772363471975529700,10.19352978515625,-0.009439757093787193,-0.1422637552022934,-0.14923548698425293
1772363471985598500,10.203598388671875,-0.021653546020388603,-0.13482767343521118,-0.12360204011201859
1772363471995668700,10.213668701171875,-0.01838323287665844,-0.10256387293338776,-0.09051275253295898
1772363472005737500,10.223737548828124,-0.020748386159539223,-0.020236510783433914,-0.07875409722328186
1772363472015807700,10.233807861328126,-0.018446970731019974,0.014331692829728127,-0.0834754928946495
