time,seconds_elapsed,z,y,x
1772364955123417900,0.10441796875,-0.21007541358768939,0.10028232896029948,0.20534252158058805
1772364955133487600,0.114487548828125,-0.25486440338492394,-0.020285832181572913,0.21979548289021475
1772364955143558700,0.12455859375,-0.14715455477237702,-0.03550035244822502,0.22846454530246554
1772364955153629000,0.13462890625,-0.04799859949350357,0.05826046578884125,0.2862198197818361
1772364955163700000,0.144699951171875,-0.006026420682668686,0.1714408547669649,0.36348274514451623
1772364955173770800,0.154770751953125,-0.04944529117047786,0.14689619609713553,0.24357832687469197
1772364955183840800,0.1648408203125,-0.019186931028962136,0.15442249994874,0.17203440021332353
1772364955193910800,0.174910888671875,0.05637772078216076,0.009331891968846321,0.1924564625278115
1772364955203981800,0.18498193359375,0.11179565662145614,-0.06182254218459129,0.22095729321120305
1772364955214052600,0.195052490234375,0.18564824381768702,-0.027877017962932585,0.26734432932222263
1772364955224123000,0.205122802734375,0.15548749883174895,0.0019517185896635054,0.23368006972735747
1772364955234194000,0.21519384765625,0.13011223455667495,0.05999474223554134,0.19397771727833896
1772364955244263700,0.225263671875,0.0425467638283968,-0.05832593224048614,0.15361490989290177
1772364955254334700,0.235334716796875,-0.0959469301044941,-0.14798632942140102,0.1868636292231269
1772364955264404700,0.24540478515625,-0.022909166422486305,-0.008386720073223114,0.2491003234328702
1772364955274475800,0.255475830078125,0.004629997888207435,0.058954877793788905,0.26355313861202445
1772364955284545500,0.265545654296875,0.03952010948359966,0.18686872552335262,0.31394772986397146
1772364955294616600,0.275616455078125,0.03188742264807224,0.25926351512670515,0.3135417794115841
1772364955304686800,0.285686767578125,-0.06936404360532761,0.25026655420064925,0.2948568065553903
1772364955314758000,0.2957578125,-0.10821370648145676,0.2580284203737974,0.34008396857418116
1772364955324822800,0.30582275390625,-0.10609715271890163,0.1590922453254461,0.3310253405887633
1772364955334893800,0.315893798828125,-0.014449381113052367,0.0981511621505022,0.31242483114562924
1772364955344964000,0.325964111328125,0.06782499746978282,-0.05434592269361019,0.28169554729042573
1772364955355035100,0.33603515625,0.04257832801043987,-0.14375906711518763,0.2830764802548103
1772364955365105000,0.34610498046875,-0.008629881179332733,-0.07446399709284306,0.3465150245349854
1772364955375176000,0.356176025390625,-0.06241700094640255,0.047781741872429846,0.3758402685448527
1772364955385246000,0.366245849609375,-0.051662967219948765,0.19384207166731357,0.34650194585770366
1772364955395317000,0.37631689453125,-0.08095043650269508,0.28725802198946476,0.32840668252296745
1772364955405387000,0.386386962890625,-0.13124971415400505,0.24722177967727182,0.3045493119975552
1772364955415458000,0.3964580078125,-0.13925415691137313,0.15875731428265571,0.2891606772730127
1772364955425528000,0.406528076171875,-0.07597673974335194,0.0931575916469097,0.3221787479188293
1772364955435599000,0.41659912109375,0.01574234353303909,0.04494505714178085,0.3543563126198947
1772364955445668900,0.4266689453125,0.08075812880098819,0.01690261948406696,0.36029805069379506
1772364955455740000,0.436739990234375,0.1298223116993904,0.0507072739303112,0.36957503413762893
1772364955465810200,0.44681005859375,0.1633592551201582,0.07552724241018295,0.3348868748551234
1772364955475881200,0.456881103515625,0.05605740278661251,0.01896715079843998,0.2732485483973287
1772364955485951000,0.466950927734375,0.010260112729668617,0.0377536843329668,0.2614816295675933
1772364955496022000,0.47702197265625,0.0048573769032955166,0.10144318943321705,0.2773313789978623
1772364955506092000,0.487092041015625,-0.014558102184534072,0.15141279673874378,0.29069758625039827
1772364955516163000,0.4971630859375,-0.02738134340047836,0.18365911582708358,0.2934029910178855
1772364955526232800,0.50723291015625,-0.027927286845445633,0.18324585885107517,0.2905311619086191
1772364955536303900,0.517303955078125,0.030126258194446563,0.15529051495492457,0.2898245480092242
1772364955546374100,0.5273740234375,0.07318214058876037,0.12202946586608886,0.28909583187587556
1772364955556445200,0.537445068359375,0.06402268257737159,0.05683598594367504,0.2692262158123776
1772364955566515000,0.547514892578125,0.08722703255414962,0.049504327881336206,0.27268830243237313
1772364955576586000,0.5575859375,0.06703998457193375,0.03980944781899452,0.2607539180812426
1772364955586656000,0.567656005859375,0.11380758096575737,0.044622985580563546,0.2529937141422182
1772364955596726800,0.577726806640625,0.2339998945325613,0.05543079532086849,0.22799875442162154
1772364955606797000,0.587797119140625,0.17427520141005515,-0.04498538915216922,0.1890947492760606
1772364955616868000,0.5978681640625,0.08661211552619934,-0.09081482791304588,0.18349334907243028
1772364955626938000,0.607938232421875,0.03362403718233108,-0.02921089691519737,0.18871020693788304
1772364955637009000,0.6180087890625,-0.004997077634930611,0.08136661608815193,0.19834606855567544
1772364955647079000,0.628078857421875,-0.05389993249177932,0.16207915218174457,0.19191183425709604
1772364955657150000,0.63814990234375,-0.10535597896277904,0.15508943942487238,0.15673196420120075
1772364955667220200,0.64822021484375,-0.0747580116033554,0.12809855664670466,0.15885675606913863
1772364955677291000,0.658291015625,0.0037859482795000073,0.12707388977408407,0.19410408360436557
1772364955687361000,0.668361083984375,0.1308598380535841,0.053525253960490224,0.20140768461599945
1772364955697431000,0.67843115234375,0.2770598685801029,-0.028407763838768002,0.17258399692010135
1772364955707501800,0.688501708984375,0.5446440528064966,-0.04521393721103668,0.16945242089610546
1772364955717572900,0.69857275390625,0.49963878991007804,-0.07722937015295028,0.15282635333109645
1772364955727643100,0.70864306640625,0.2376420504271984,-0.08389233517348765,0.11882462367648258
1772364955737713200,0.718713134765625,-0.0804921713411808,-0.06962707845568657,0.11630379082881845
1772364955747784000,0.728783935546875,-0.31540041289031506,-0.05341419480144977,0.165798355367966
1772364955757854000,0.73885400390625,-0.24053718734681606,-0.017070961788296698,0.17082338045574724
1772364955767925000,0.748925048828125,-0.04951835640668869,-0.008257540735602378,0.1379511388882529
1772364955777995000,0.7589951171875,0.0692249273955822,-0.043377369433641434,0.14586862488137559
1772364955788065800,0.769065673828125,0.09166004656553269,-0.045189387291669846,0.2059554475808516
1772364955798136000,0.779135986328125,0.010119827476143836,-0.004402034351229668,0.23719341161055488
1772364955808207000,0.78920703125,-0.15935586469769478,0.005763385832309722,0.17545721426885574
1772364955818277000,0.799277099609375,-0.23612287803590296,0.03137362790703773,0.13181947686597703
1772364955828348000,0.809347900390625,-0.20808336298763752,0.07333645436763762,0.10195564160053618
1772364955838418000,0.81941796875,-0.14012509452700614,0.08319090890586375,0.07775136646674946
1772364955848489000,0.829489013671875,-0.0455745872169733,0.08432137424051761,0.1217750983793754
1772364955858559000,0.83955908203125,0.038432314246892925,0.0362678296893835,0.16181250060219315
1772364955868630000,0.849630126953125,0.07807575784921646,-0.005078326177597046,0.18646237321216613
1772364955878700000,0.859699951171875,0.10889058282971381,-0.05577741680145264,0.17564013308770954
1772364955888771000,0.86977099609375,0.09118132313787937,-0.15861644450724124,0.14247804172816686
1772364955898840800,0.8798408203125,0.04827800095677375,-0.20465689567029474,0.11780815837662666
1772364955908911900,0.889911865234375,0.059761518001556393,-0.16785364392995833,0.12251901208185591
1772364955918982100,0.899982177734375,0.09314005599021911,-0.08919277966916561,0.1712589771277271
1772364955929053200,0.91005322265625,0.10195230799913406,-0.03917991774380207,0.203629744579643
1772364955939123000,0.920123046875,0.10078326421976089,0.023130115696787832,0.23763087144605813
1772364955949194000,0.930194091796875,0.06445581329762935,0.04955108963251113,0.25229806002825494
1772364955959264000,0.940263916015625,-0.006346738678216934,0.04136953674256801,0.22953721603527663
1772364955969335000,0.9503349609375,-0.04975099611878395,0.0720873310893774,0.23280757947545497
1772364955979404800,0.96040478515625,-0.05057867911458015,0.12975450716018677,0.25785503656826914
1772364955989475800,0.970475830078125,-0.03110182522833347,0.14279635956287384,0.24769652104955164
1772364955999546000,0.980546142578125,-0.019255320090055466,0.1601303562015295,0.2615259801659733
1772364956009617200,0.9906171875,0.021571195816993714,0.17079671164453028,0.257520909243077
1772364956019687000,1.00068701171875,0.02454056701660156,0.14648527720868587,0.22894104024041442
1772364956029758000,1.010758056640625,0.0009697218149900435,0.08006430131793021,0.21021759853735564
1772364956039828000,1.020827880859375,0.02547697108387947,0.020333178454637526,0.20953560762256382
1772364956049899000,1.03089892578125,0.08680734583735465,-0.04192658610343933,0.21332625034349037
1772364956059969000,1.040968994140625,0.049915831291675566,-0.0851455501049757,0.22045005607511847
1772364956070040000,1.0510400390625,-0.021870471024513245,-0.046152094843983645,0.269350755507499
1772364956080110000,1.061110107421875,-0.08098083164095878,0.02744973246157169,0.2880366051465273
1772364956090181000,1.07118115234375,-0.07794540946781635,0.053365094962716096,0.25905467641530555
1772364956100251000,1.0812509765625,-0.04173778553307056,0.005175356811285018,0.2356883956087753
1772364956110322000,1.091322021484375,0.007088496956229209,-0.0397971728593111,0.23006072845272718
1772364956120392200,1.10139208984375,0.05767360581159591,-0.04019640130996704,0.25164746889872475
1772364956130463200,1.111463134765625,0.04616261623799801,0.0010655834048986434,0.2350604364361614
1772364956140533000,1.121532958984375,-0.018657938718795775,0.06180792913734912,0.21854707199800757
1772364956150604000,1.13160400390625,-0.08460136022567749,0.10364917504489421,0.21360099389795212
1772364956160674000,1.141674072265625,-0.093684830391407,0.12907587724626063,0.23552436415348202
1772364956170744000,1.151744140625,-0.06054945350885391,0.12882628639936447,0.2606149845345877
1772364956180815000,1.161815185546875,-0.01260755263864994,0.07299918523728847,0.23572805176572872
1772364956190886100,1.17188623046875,0.02872808183431625,-0.016779285365343094,0.18649295101352034
1772364956200956200,1.1819560546875,0.0662140551418066,-0.08822422689795494,0.18887378173545002
1772364956211026000,1.19202587890625,0.07117547694146632,-0.08710954365432262,0.20704859484611077
1772364956221097000,1.202096923828125,0.07425532277822494,-0.027031214788556097,0.17978866760190576
1772364956231167000,1.2121669921875,0.05521452222168445,0.02669336113631725,0.1345050078892149
1772364956241238000,1.222238037109375,0.030014029991626737,0.049501989793777464,0.11113498248932882
1772364956251308000,1.23230810546875,0.004914660048484802,0.05406009148955345,0.11129147909213788
1772364956261379000,1.242379150390625,-0.00040448914766311644,0.04222761487662792,0.10271420488287694
1772364956271449000,1.252448974609375,0.019537059640884397,0.03722936819791794,0.10779743556445463
1772364956281519900,1.262519775390625,0.045240825217962265,0.01252864218354225,0.11137708414951339
1772364956291590000,1.27258984375,0.03159399265944957,0.012767127114534378,0.1047157448304817
1772364956301661000,1.282660888671875,0.0006827215671539307,0.029473931765556335,0.10159120133547112
1772364956311731200,1.292731201171875,-0.03366203110516071,0.04403495655953884,0.09278634718172252
1772364956321802200,1.30280224609375,-0.0446031118363142,0.04549450771808624,0.08945435321480036
1772364956331872300,1.312872314453125,-0.05792553474605083,0.012642623952031135,0.0893784019017592
1772364956341943300,1.322943359375,-0.06461772586107253,-0.027524551263451574,0.10374779484746977
1772364956352013300,1.333013427734375,-0.0586760608524084,-0.09042670537829399,0.1200787701897323
1772364956362084000,1.343083984375,0.0040653497427701945,-0.13729250144958496,0.16003555405754594
1772364956372154000,1.353154052734375,0.09227204098403453,-0.13720014699101446,0.18365345327127724
1772364956382225200,1.36322509765625,0.12138824535310268,-0.10512509281635284,0.18966653954833745
1772364956392295400,1.37329541015625,0.06209843651652336,-0.029742227312922476,0.1924183042082004
1772364956402366200,1.3833662109375,-0.06560615237653256,0.03597089256942272,0.1798587919623591
1772364956412436200,1.393436279296875,-0.19660686020553111,0.09638356795608997,0.1788381802103482
1772364956422507300,1.40350732421875,-0.2775578812301159,0.14962357523441314,0.1764746294167824
1772364956432577300,1.413577392578125,-0.2716787600636482,0.15658990711569784,0.17242860542898997
1772364956442648000,1.42364794921875,-0.18168050923049447,0.11886369531154632,0.19267973162336274
1772364956452718300,1.43371826171875,-0.012030045011639595,0.05152034387886524,0.22380482812942937
1772364956462789400,1.443789306640625,0.18816928672790526,0.0008019640326499939,0.24218840688625348
1772364956472859100,1.453859130859375,0.32738486519455906,-0.029290391892194748,0.23331185746947303
1772364956482930200,1.46393017578125,0.3741916245549917,-0.07579378439188003,0.18652265203204005
1772364956493000200,1.474000244140625,0.12092004331946372,-0.09005494945645331,0.1706975986516103
1772364956503070500,1.484070556640625,-0.08460252926945686,-0.06932312707304954,0.16399037436423822
1772364956513141200,1.494141357421875,-0.13016834865808485,0.010126841738820076,0.20160046724174172
1772364956523211300,1.504211181640625,-0.04997194539308548,0.056278936582803724,0.2467901467943564
1772364956533282300,1.5142822265625,0.05583469994664192,0.08274199609458446,0.2692351845701225
1772364956543352300,1.524352294921875,0.10942775844633579,0.08602408650517464,0.2789762966606766
1772364956553423000,1.534423095703125,0.17758476434946058,0.08711246626377105,0.27661665485724807
1772364956563493400,1.544493408203125,0.1269382806956768,0.03952420113682747,0.24559350262200458
1772364956573564400,1.554564453125,-0.06241641642451286,-0.026298808860778806,0.22213174381805584
1772364956583634200,1.56463427734375,-0.12564181114435194,0.014781389546394347,0.22958830690169704
1772364956593705200,1.574705322265625,-0.09029051177799702,0.09677753570973872,0.20764323627101255
1772364956603775200,1.584775146484375,-0.09536007012724876,0.15558277589976788,0.18083333608293906
1772364956613846300,1.59484619140625,-0.09814064075648785,0.18018880936801432,0.19755307328077032
1772364956623916000,1.604916015625,-0.0917021321415901,0.15526947216689585,0.2324817450545728
1772364956633987000,1.614987060546875,-0.08207856374979018,0.09601882629692554,0.24201246579745783
1772364956644057300,1.625057373046875,-0.07621580919623375,0.016063830572366714,0.2317967767314054
1772364956654128400,1.63512841796875,-0.04287058895528316,-0.05665770676732063,0.22424566723210737
1772364956664198100,1.6451982421875,-0.023466800305247306,-0.08764379666149616,0.2304402292896062
1772364956674269200,1.655269287109375,0.04700841941237449,-0.046319852626323696,0.23588165315855292
1772364956684339200,1.665339111328125,0.07962240276932715,-0.052045244535803795,0.19188299175510182
1772364956694410200,1.67541015625,0.05983867489099502,-0.001799158376455307,0.21660311658969147
1772364956704480300,1.685480224609375,0.00843172825872898,0.09029752604067325,0.26890693899644535
1772364956714551300,1.69555126953125,-0.08865385048687457,0.1400438459843397,0.2657312498360872
1772364956724621300,1.705621337890625,-0.165192900288105,0.12942074516117572,0.22799415131174028
1772364956734691000,1.715691162109375,-0.14910335075259207,0.09457564175128937,0.2036222188603133
1772364956744762000,1.72576220703125,-0.06220248141288757,0.027775895676016807,0.20400498936651273
1772364956754832400,1.735832275390625,0.00007423427999019622,-0.030702012255787847,0.1975340397867374
1772364956764903400,1.7459033203125,0.05585808082222938,-0.017636194455623627,0.22739801204949617
1772364956774973200,1.75597314453125,0.06585515870153903,0.026923662760853766,0.23396893313871694
1772364956785044200,1.766044189453125,0.09669511812329291,0.12740297559797764,0.21065308561148122
1772364956795114200,1.7761142578125,0.04485036459565162,0.09414484911859035,0.14941362227816135
1772364956805185300,1.786185302734375,-0.07472235576808452,0.09738953012824057,0.12548128682039678
1772364956815255000,1.796255126953125,-0.08768412867188453,0.06109948860704899,0.15218447523098438
1772364956825326000,1.806326171875,-0.20600889480113982,-0.023627543824911116,0.25546141943000256
1772364956835396400,1.816396240234375,0.09208324041366577,0.1086386538952589,0.05739712695777416
1772364956845467400,1.82646728515625,0.24718027862310407,0.175689159861207,0.0911541976689361
1772364956855537200,1.836537109375,0.11011223357915878,0.15999766973257065,0.1915136469860561
1772364956865608200,1.846608154296875,0.002382511222362518,0.16011282054483889,0.19928888409743084
1772364956875678200,1.85667822265625,-0.016691022560000417,0.07276420743763447,0.1490220839436166
1772364956885748200,1.866748291015625,-0.0435270070374012,-0.01445581085383892,0.15732560097910464
1772364956895819300,1.8768193359375,-0.054316112077236176,-0.03559036881923675,0.18619007734311743
1772364956905889300,1.88688916015625,-0.08346621871590613,-0.01522913331389427,0.22477411155300214
1772364956915960300,1.896960205078125,-0.056601592665910715,0.009292144480347634,0.24553249314976855
1772364956926030000,1.907030029296875,-0.08912263704240321,0.010907762983441352,0.19483621553750707
1772364956936101000,1.91710107421875,-0.09554361000061035,0.05366670825779438,0.19361503971209748
1772364956946171400,1.92717138671875,-0.12307049935162066,-0.03164601510763168,0.18002634881529955
1772364956956242400,1.937242431640625,-0.13293138363063334,-0.06174596981704235,0.17453408980825916
1772364956966312200,1.947312255859375,-0.1455295839190483,-0.06232113935649394,0.20503511786554007
1772364956976383200,1.95738330078125,-0.128733931940794,-0.04767535888850689,0.20602880507800728
1772364956986453200,1.967453369140625,-0.037757775986194606,0.01518997034728527,0.20837297531766816
1772364956996524300,1.977524169921875,0.03823533037006855,0.0577612840950489,0.2096832359323278
1772364957006594300,1.98759423828125,0.02682020238637924,0.08128653658926487,0.19748216346902772
1772364957016665300,1.997665283203125,0.030582769790291786,0.1151917288005352,0.2011761226161383
1772364957026735400,2.0077353515625,0.07960428259074688,0.13105799097418785,0.18270510303787885
1772364957036805000,2.01780517578125,0.14089900150895118,0.14796002593636512,0.18652550157625228
1772364957046876200,2.027876220703125,0.17472060708999632,0.14186813880205154,0.20110473788036032
1772364957056946200,2.0379462890625,0.12470189994573593,0.08219079195261002,0.2218248150270432
1772364957067017200,2.048017333984375,0.05280804560184479,0.05591477944552898,0.27386584004545583
1772364957077087200,2.058087158203125,-0.014641104292869567,0.03492342934310436,0.29545603282386435
1772364957087158300,2.068158203125,-0.0980553005605936,0.03990063323378563,0.26758875080365685
1772364957097228300,2.078228271484375,-0.0771025289028883,0.03331540962457657,0.18114335188018157
1772364957107299300,2.08829931640625,-0.14744389310777187,-0.011961071428656577,0.11611189411906525
1772364957117369000,2.098369140625,-0.2606330499142408,0.0067991586208343505,0.16256868926435708
1772364957127440100,2.108440185546875,-0.052739072018861764,-0.020659926190972327,0.16995185831822454
1772364957137510400,2.118510498046875,0.07919920892119407,-0.015933482190966606,0.16790237844251096
1772364957147580200,2.128580078125,0.1802992840051651,-0.025243162328004835,0.1850934412128292
1772364957157651200,2.138651123046875,0.22825696696639058,-0.06710194389224051,0.19205683221835643
1772364957167721200,2.14872119140625,-0.08840659772753715,-0.1308686058819294,0.18918067399384453
1772364957177792300,2.158792236328125,-0.24041151514053344,-0.10304536393284797,0.22677047300199046
1772364957187862300,2.1688623046875,-0.18197452374100684,-0.0381242712110281,0.269206579530146
1772364957197933300,2.178933349609375,-0.08104162191748619,0.021654782447218895,0.2869640257452614
1772364957208003300,2.18900341796875,0.007825579059123993,0.09203647866249084,0.283490540948417
1772364957218074400,2.199074462890625,0.05032265852689743,0.14891396566033363,0.2666132385686971
1772364957228144000,2.20914404296875,0.0644189884185791,0.16898118665516376,0.2544158011008985
1772364957238215200,2.219215087890625,-0.0025508535265922547,0.18738544287383554,0.2596562955702655
1772364957248285200,2.22928515625,-0.10296353086829185,0.15378770917654036,0.26568604072118174
1772364957258355200,2.239355224609375,-0.20883622718155384,0.08774082729518413,0.3246745102573186
1772364957268426200,2.24942626953125,-0.20026830532252787,0.09140753310918807,0.17038272401615975
1772364957278496300,2.259496337890625,-0.06611702450811863,0.07665770774483681,0.0956810457099229
1772364957288567300,2.2695673828125,0.07716974892020224,0.01639291639626026,0.1901671094816178
1772364957298637000,2.279636962890625,-0.08394669570922851,-0.021841244930028914,0.2022906962619163
1772364957308708000,2.2897080078125,-0.0453612367272377,0.010749942073225974,0.19283420979902147
1772364957318782200,2.2997822265625,-0.021384148812294005,0.059791913139820095,0.22632618156690149
1772364957328853200,2.309853271484375,-0.00402852486371994,0.09762918410301208,0.21234507555272428
1772364957338923300,2.31992333984375,0.011243863070011139,0.12975216907262802,0.163922715955507
1772364957348994300,2.329994384765625,0.029136078113317487,0.12924012789726255,0.13159425327535718
1772364957359064000,2.34006396484375,0.09396715446412562,0.09969897611439227,0.12427700733086093
1772364957369134000,2.350134033203125,0.14744623119533062,0.07735270427167415,0.13142602056898176
1772364957379205000,2.360205078125,0.014022680133581161,-0.0265519068390131,0.1584521573236212
1772364957389275100,2.370275146484375,-0.015920038187503812,-0.0832154588252306,0.19064868245348332
1772364957399346200,2.38034619140625,0.080635379204154,-0.06549684678316116,0.21223187923552467
1772364957409416200,2.390416259765625,0.1502566124409437,-0.058573769521713254,0.18413831417877227
1772364957419487200,2.4004873046875,0.14139818320274353,-0.06058394030034542,0.14567467321185396
1772364957429557000,2.410556884765625,0.06094751291573047,-0.06134031162559986,0.1303248361277394
1772364957439628000,2.4206279296875,-0.08938976354598999,-0.1126385371863842,0.10329610555721447
1772364957449698300,2.4306982421875,-0.09723404730558395,-0.09994505982995033,0.10464209507238119
1772364957459769300,2.440769287109375,-0.07377192317545414,-0.06366261709332466,0.15374924032967538
1772364957469839000,2.450839111328125,-0.0306692790299654,0.005327917024493217,0.1741401585872285
1772364957479909000,2.4609091796875,0.059086979740858074,0.08658113586604595,0.15671088488055393
1772364957489980200,2.470980224609375,0.11067454363703727,0.12397417019307613,0.12448034788323566
1772364957500050200,2.48105029296875,0.11990882045030593,0.15862871946692467,0.1214759053702466
1772364957510121200,2.491121337890625,0.0991401731878519,0.1341267308950424,0.13840080975135788
1772364957520191200,2.501191162109375,0.06650222443342209,0.029081717577576636,0.1531767194050364
1772364957530262300,2.51126220703125,-0.02724807240962982,-0.0263122528642416,0.1428052187227644
1772364957540332000,2.52133203125,0.012062778237462043,-0.030936990055441854,0.19763254999145866
1772364957550403000,2.531403076171875,0.05025894564092159,-0.05856207908391952,0.216412343257945
1772364957560473000,2.54147314453125,0.02154781494140625,0.018397826477885244,0.18936481665540486
1772364957570543400,2.55154345703125,0.0257850141197443,0.05976911678612232,0.1667152875497937
1772364957580614100,2.5616142578125,-0.018026655077934266,0.08140753262042999,0.15895449908887965
1772364957590684200,2.57168408203125,-0.13378127845823765,0.06964344506859779,0.12051624829154461
1772364957600755200,2.581755126953125,-0.22295067725181578,0.042670097947120664,0.14705854705199597
1772364957610825000,2.591824951171875,-0.20888941867351532,0.04711071074306965,0.2064697903111577
1772364957620896000,2.60189599609375,-0.13162497720718383,0.048014381584525104,0.22391223402665927
1772364957630966300,2.61196630859375,-0.05076338803172111,0.009107435563206673,0.2046126546697691
1772364957641036300,2.622036376953125,-0.0001052139401435852,-0.011883914539217949,0.21136265865294263
1772364957651107000,2.632107177734375,0.013046528577804565,-0.04554477660059929,0.2061954851481132
1772364957661177000,2.642177001953125,0.035785014608502384,-0.09067162005007266,0.1776335353946313
1772364957671248100,2.652248046875,0.0628635756701231,-0.0722357996493578,0.18284306847015394
1772364957681318400,2.662318359375,0.12050327921211719,0.005650573107600212,0.2217480051974766
1772364957691389200,2.67238916015625,0.1863064154654741,0.06756780783832073,0.2299280602500774
1772364957701459200,2.682459228515625,0.2022328833937645,0.07130114914774895,0.1954355148712173
1772364957711530200,2.6925302734375,0.20611293969750402,0.04225976358056068,0.17120461659198627
1772364957721600000,2.70260009765625,0.17200667195618152,0.05793488709628582,0.17832939043799415
1772364957731670000,2.712669921875,0.03005260843634605,-0.0500274749726057,0.20393800681121646
1772364957741741000,2.722740966796875,-0.21705226686298845,-0.10805997722446918,0.13211813101898878
1772364957751811300,2.732811279296875,-0.12053951956927776,-0.05370002600550651,0.0563942335255444
1772364957761882000,2.742882080078125,0.031440263402462004,0.04377192170917987,0.16926981260450555
1772364957771952000,2.7529521484375,0.03839139771461487,0.08215455159544945,0.1543603944979608
1772364957782023200,2.763023193359375,0.12366495811343192,0.07329144618213176,0.11621223095469176
1772364957792093200,2.77309326171875,0.24700316849052906,0.04686345798373222,0.12999351268098688
1772364957802163200,2.7831630859375,0.3025035219162702,0.05701368059813976,0.16350522119579836
1772364957812234200,2.793234130859375,0.1259919397562742,-0.04876724577844142,0.13364264630568212
1772364957822304300,2.80330419921875,-0.14563538238108156,-0.16423311534523963,0.16677942056087777
1772364957832375300,2.813375244140625,-0.19455986454784868,-0.16124094779193401,0.20046147154076024
1772364957842445000,2.823445068359375,-0.18056348789930343,-0.08340484391748905,0.2585359680371359
1772364957852516000,2.83351611328125,-0.1399520760476589,0.006175473764538765,0.2692194572780281
1772364957862586400,2.84358642578125,-0.049587329989671705,0.0849538269251585,0.27885550155891103
1772364957872656100,2.85365625,0.00497486580312252,0.065991352301836,0.25219536683876065
1772364957882727200,2.86372705078125,-0.04574176047742366,0.10933189685642719,0.23994528586827218
1772364957892797200,2.873797119140625,-0.08244564349651336,0.07558803268671035,0.24300562328696249
1772364957902868200,2.8838681640625,-0.2898223195195198,-0.03299216901957989,0.21658435709029436
1772364957912938200,2.893938232421875,-0.2999345482110977,-0.10932020641863345,0.16572521706651897
1772364957923009300,2.90400927734375,-0.184258835285902,-0.12296645445525646,0.2003980326494202
1772364957933079300,2.914079345703125,-0.00583235941529274,-0.05628770441114902,0.228099072990939
1772364957943149000,2.924149169921875,0.09340542892813682,-0.020420856738090513,0.20159213780481366
1772364957953220000,2.93422021484375,0.08468260876834392,-0.019558686950802803,0.2053253147174604
1772364957963290000,2.9442900390625,0.08110825741291046,-0.0016880992174148558,0.24804337999215348
1772364957973361200,2.954361083984375,0.05749298854768276,0.020278817918896675,0.2872010676378384
1772364957983431200,2.96443115234375,0.017779986840486525,0.01934007576406002,0.2796794582276605
1772364957993502200,2.974502197265625,0.01829553514719009,0.036680502143502235,0.26573738731592894
1772364958003572200,2.984572265625,0.11120762760043143,0.07241174073815346,0.26632881387043744
1772364958013642000,2.99464208984375,0.1833925738453865,0.09973813908100128,0.26663322191080074
1772364958023713000,3.004713134765625,0.1457552093684673,0.1033621747970581,0.254789913376607
1772364958033783300,3.014783203125,0.07936638218164443,0.11189677890837192,0.2861505722042173
1772364958043854300,3.024854248046875,0.03615560148656368,0.09293079715371132,0.2878385252911597
1772364958053924000,3.034924072265625,0.03936930283606052,0.07797697364985942,0.23803181692976502
1772364958063995100,3.0449951171875,0.041375966483354565,0.07258242112994194,0.20341822072081267
1772364958074065200,3.055065185546875,0.009872574716806411,0.04093406793475151,0.19077694847565144
1772364958084135200,3.06513525390625,-0.013806991556286811,0.0322726225733757,0.22224512279834596
1772364958094206200,3.075206298828125,-0.005722469300031662,0.06280395443737506,0.26894644902292636
1772364958104276200,3.085276123046875,0.009527706801891326,0.07328150931000708,0.24734938811231402
1772364958114347300,3.09534716796875,0.024947394251823424,0.05753682768940925,0.2129183453960344
1772364958124417000,3.1054169921875,0.06126257021427154,0.047323476710915566,0.18898330652453005
1772364958134488000,3.115488037109375,0.07669394810199737,0.017396540480852127,0.16539843279756605
1772364958144558000,3.12555810546875,0.024962591820955275,-0.04533551776409149,0.2079527040789835
1772364958154628400,3.13562841796875,-0.03523030333518982,-0.01532499490380287,0.2167940543182194
1772364958164699100,3.14569921875,0.08981880261301994,0.06918225729763508,0.19081189192486925
1772364958174769200,3.15576904296875,0.02434066053032875,0.08928688769340515,0.1776205297825858
1772364958184840200,3.165840087890625,-0.1600911932349205,0.026159108129143713,0.20968034985549747
1772364958194910200,3.17591015625,-0.09594985271394252,0.01865384706556797,0.23671810398269444
1772364958204981000,3.18598095703125,-0.02447860769629478,0.009366963282227516,0.2699956110159866
1772364958215051300,3.19605126953125,-0.06863806741833686,-0.004806523498892784,0.2540425290754065
1772364958225121300,3.206121337890625,-0.11941314588785171,0.03348550549447536,0.24009746248899028
1772364958235192000,3.216192138671875,-0.11270575720369815,0.05723989056944847,0.22370195227684453
1772364958245262000,3.226261962890625,-0.09441782084107399,0.08268822008073329,0.21964904189053922
1772364958255333000,3.2363330078125,-0.16237141312658787,0.0771504596978426,0.22731057122806086
1772364958265403400,3.2464033203125,-0.23193302513062952,0.07739128271639346,0.23252092628749085
1772364958275473200,3.25647314453125,-0.22606734796762465,0.03966273282468319,0.18165511906091122
1772364958285544200,3.266544189453125,-0.12659107469320297,-0.010730068328976631,0.2004335240879096
1772364958295614200,3.2766142578125,-0.0157288995295763,-0.021208207723498344,0.24113851424083113
1772364958305685200,3.286685302734375,0.0942336964458227,-0.0063052376240491865,0.2548396525361575
1772364958315755000,3.296755126953125,0.1456423966437578,-0.05429916094243526,0.21051974155539646
1772364958325822700,3.30682275390625,0.16067571512460707,-0.126719669508934,0.20252872453518211
1772364958335893000,3.31689306640625,0.15420213519632817,-0.12983692474663258,0.24801318578328935
1772364958345963000,3.326962890625,0.07801905922591686,-0.10413374369144439,0.23492769516827539
1772364958356033800,3.33703369140625,0.04193184680044651,-0.05685995134115219,0.1984622605475597
1772364958366103800,3.347103759765625,0.008296119180321693,-0.03256605256199836,0.1679086620528251
1772364958376174800,3.3571748046875,0.010264204382896422,0.056364276778697965,0.18986617203997447
1772364958386244900,3.367244873046875,0.008312485793232917,0.14461130003035066,0.18684850471923126
1772364958396316000,3.37731591796875,-0.09430208550691604,0.1856792234778404,0.15556944149415938
1772364958406386000,3.387385986328125,-0.23701719652712344,0.1666647264063358,0.10016604563686995
1772364958416456000,3.3974560546875,-0.2544680975437164,0.18067279349267482,0.12028715224340557
1772364958426526700,3.407526611328125,-0.1533849735945463,0.18193126912117003,0.14305942181269637
1772364958436597000,3.417596923828125,0.04671498942375183,0.10049743301570414,0.1387221232607495
1772364958446668000,3.42766796875,0.25281039346456524,0.03345861748754978,0.1353122417520266
1772364958456738000,3.437738037109375,0.32851006983220576,-0.024432430467009544,0.1323089956822805
1772364958466807800,3.447807861328125,0.2673077053725719,-0.056775195667147636,0.10435022685318253
1772364958476878800,3.45787890625,0.11856792723536491,-0.04382043702602386,0.09373721816577017
1772364958486948900,3.467948974609375,-0.0703659141242504,-0.0433048887193203,0.11403080439553595
1772364958497019600,3.47801953125,-0.14457505967319012,-0.013083937978744506,0.19374544289242476
1772364958507090000,3.48808984375,-0.09836568168401717,0.036305239090323446,0.24293652183981612
1772364958517160000,3.498159912109375,0.007871756288409233,0.03932020299732685,0.19899086926523596
1772364958527231000,3.50823095703125,0.0952098480015993,0.07773498158752917,0.2080954552842304
1772364958537300700,3.51830078125,0.10379998169243335,0.0787403592377901,0.22890646211737767
1772364958547371800,3.528371826171875,0.00018470891714096068,0.04106207822859287,0.24359843808095902
1772364958557442000,3.538442138671875,-0.12095745272040366,-0.008839724537730216,0.25079119912926107
1772364958567513000,3.54851318359375,-0.1481961727797985,-0.015009937605261802,0.2730444589262828
1772364958577582800,3.558582763671875,-0.13325813136696815,0.01471592309474945,0.2645947200868279
1772364958587652900,3.56865283203125,-0.11375731208324431,0.013784195202589035,0.2391475961519405
1772364958597724000,3.578723876953125,-0.050828269961476324,0.014709493353962898,0.23815697767939417
1772364958607794000,3.5887939453125,-0.007218260815739631,0.012817395997047424,0.25161281771045174
1772364958617865000,3.598864990234375,0.014967267507314681,0.04371522308588028,0.2650557799936272
1772364958627935000,3.60893505859375,-0.0018868366599082945,0.04177461041212081,0.28413298530410974
1772364958638004700,3.619004638671875,-0.014611293676495551,-0.026214053186774253,0.25639230707194655
1772364958648075800,3.62907568359375,0.02104629516005516,-0.07897884416878223,0.25551780752604825
1772364958658145800,3.639145751953125,0.1311860012680292,-0.06894903306365013,0.264733744965028
1772364958668216800,3.649216796875,0.21998130605220792,0.012999182304739952,0.2837689012320712
1772364958678286800,3.659286865234375,0.23255963259637355,0.07202654081285,0.26094626231556756
1772364958688356900,3.66935693359375,0.10370236653685569,0.12376140422523021,0.2336050865286961
1772364958698428000,3.679427978515625,-0.03909866920113563,0.10188684154748916,0.21360716791041195
1772364958708498000,3.689497802734375,-0.08958207124769688,0.05715864202678203,0.1865625639173202
1772364958718568700,3.699568603515625,-0.05639467191696167,0.039075872847437854,0.19347928450321777
1772364958728639000,3.709638916015625,0.003267477363348007,0.07716156561374664,0.20990597530491648
1772364958738709000,3.719708984375,0.06001636954545975,0.14604863935708998,0.20225498562771826
1772364958748779800,3.72977978515625,0.05199848278462887,0.14555764096975327,0.165476740464475
1772364958758849800,3.739849853515625,0.028080431580543515,0.14596388368308544,0.13535524064353666
1772364958768920800,3.7499208984375,-0.024431845945119858,0.09710486796796321,0.09462581016910261
1772364958778991000,3.7599912109375,-0.025379940450191495,-0.01812134762406349,0.06724740764438174
1772364958789062000,3.770061767578125,0.023826281267404555,-0.15225100112855433,0.0581859027152881
1772364958799132000,3.7801318359375,0.039081718066334724,-0.2756178530782461,0.0949181715786457
1772364958809202000,3.790201904296875,-0.13299626556038854,-0.2237520567625761,0.16309991006422786
1772364958819273000,3.80027294921875,0.09589198504686355,-0.019270517659187317,0.19172884237300603
1772364958829342700,3.8103427734375,0.1584475176811218,0.03358604325950146,0.15000841896669007
1772364958839413800,3.820413818359375,0.0007809212446212769,0.029947394496202467,0.142087160980748
1772364958849484000,3.830484130859375,-0.08084171543121338,0.08328150979876518,0.19840799134336412
1772364958859553800,3.8405537109375,-0.10365560478568077,0.0863917507737875,0.18527915477696805
1772364958869624800,3.850624755859375,-0.16633213345110415,0.05796060605943203,0.14604668486202135
1772364958879694800,3.86069482421875,-0.21093524528741836,0.05734802711904049,0.16313691760636864
1772364958889766000,3.870765869140625,-0.15159809017777442,0.08854512941539287,0.1894278354216367
1772364958899836000,3.8808359375,-0.06981997067928314,0.08639642694890498,0.2148838550490327
1772364958909906000,3.890906005859375,-0.06197627144157886,0.03283084097802639,0.21494411560259757
1772364958919977000,3.90097705078125,-0.04719312832951546,0.01952303111553192,0.21640059802122413
1772364958930046700,3.911046630859375,0.04370703977942467,0.0614168839931488,0.20312427927553653
1772364958940117800,3.92111767578125,0.12838789498209952,0.10915127959251403,0.19261147042643278
1772364958950188000,3.93118798828125,0.14425941785275936,0.10908347505331038,0.17816974289687348
1772364958960257800,3.9412578125,0.10011398665606976,0.0950228009968996,0.1583301566454582
1772364958970328800,3.951328857421875,0.10639175175130366,0.06858370688259602,0.1639962926483713
1772364958980398800,3.96139892578125,0.1272434011220932,0.050437224817276,0.18175202183043584
1772364958990470000,3.971469970703125,0.1635766972631216,0.05431728112101555,0.17355231222929432
1772364959000540000,3.981539794921875,0.18786650438904762,0.022501754665374754,0.13925392858250998
1772364959010609000,3.99160888671875,0.16043606114983558,-0.02590484110713005,0.09179759187269955
1772364959020679000,4.001678955078125,0.10560790789723395,-0.057031216254830354,0.08636908228425308
1772364959030749700,4.011749755859375,0.031029344514012337,-0.06694821463525295,0.10721428364794701
1772364959040820000,4.021820068359375,-0.09113923756182193,-0.05936638120412826,0.1005929658120498
1772364959050890000,4.031889892578125,-0.20391104573905466,-0.017403554743528366,0.1277064885891974
1772364959060960800,4.041960693359375,-0.22819968382120132,0.07925181589126587,0.15402299750344828
1772364959071030800,4.05203076171875,-0.12434417254924773,0.13450257847011088,0.14490955232456326
1772364959081101800,4.062101806640625,0.032440964877605435,0.0905699132412672,0.1703573703791946
1772364959091172000,4.072172119140625,0.23388299015462397,0.009690788409113884,0.21124580907393245
1772364959101241900,4.082241943359375,0.2764952204346657,-0.040942835763096805,0.1802156243097037
1772364959111313000,4.09231298828125,0.18757658153176307,-0.038273324292898175,0.18357110875006763
1772364959121383000,4.1023828125,-0.02022153477370739,0.0017892215043306349,0.25431690730368717
1772364959131454000,4.112453857421875,-0.2984603840053081,0.05032265852689743,0.28100940992347895
1772364959141523700,4.122523681640625,-0.37659400952160355,0.07529927887320519,0.28833155123880133
1772364959151594000,4.132593994140625,-0.21907763521075246,0.05937982520759105,0.2858218151738867
1772364959161665000,4.1426650390625,-0.04467500802874565,0.017646131327748296,0.2824069104301743
1772364959171734800,4.15273486328125,-0.02675532045662403,0.025813071170449255,0.27652455612700433
1772364959181805800,4.162805908203125,-0.05073182384967804,0.12836626767218112,0.326541984629631
1772364959191875800,4.172875732421875,-0.07983692230284213,0.1316694008708,0.32736579516790804
1772364959201945900,4.18294580078125,-0.16341303113400935,0.08946925852298736,0.2822814939522184
1772364959212017000,4.193016845703125,-0.255130945366621,0.08060498406589031,0.23607202463150023
1772364959222087000,4.2030869140625,-0.17343816606402396,0.11141221026182174,0.24078991999886928
1772364959232157000,4.213156982421875,-0.08154138813316822,0.10906886200606822,0.22158614743296057
1772364959242227700,4.223227783203125,-0.04803367080688476,0.09255144244730472,0.21228457753714172
1772364959252298000,4.233298095703125,0.025147300738096234,0.06048340253531932,0.22667568912431596
1772364959262369000,4.243369140625,0.07173954056501389,0.059545244902372355,0.232403492186591
1772364959272438800,4.253438720703125,0.0954933411180973,0.04571311890482902,0.2040322609659284
1772364959282508800,4.2635087890625,0.11701660614013672,-0.005371756166219711,0.15473852536166086
1772364959292579800,4.273579833984375,0.1269727674871683,-0.019703063857555388,0.13824876099480315
1772364959302649900,4.28364990234375,0.16934183666110036,-0.0022129998743534085,0.15412307861074803
1772364959312721000,4.293720947265625,0.1760895573556423,0.002235211706161499,0.16284825512440873
1772364959322791000,4.303791015625,0.1326508131235838,0.017042320215702057,0.15580915026785805
1772364959332860700,4.313860595703125,0.003834463596343994,0.04533551776409149,0.15334822178073226
1772364959342931700,4.323931640625,-0.16878887895345687,0.07513093656897545,0.1378966230888851
1772364959353001700,4.334001708984375,-0.22301848179101944,0.061093058866262435,0.12215014223684556
1772364959363072800,4.34407275390625,-0.1769961508065462,0.050610827818512914,0.12232620205665007
1772364959373142800,4.354142822265625,-0.08214987542033195,0.07137246081829071,0.16763883213549852
1772364959383212800,4.364212890625,-0.04103402117788792,0.08185527638792992,0.18776326321028172
1772364959393283800,4.374283935546875,-0.0392787019431591,0.08938976354598999,0.18667641782164573
1772364959403353600,4.384353515625,-0.08726444195508956,0.0921171426832676,0.16415234172660856
1772364959413424600,4.394424560546875,-0.10000351201891898,0.11030863293409347,0.14302943766638634
1772364959423495000,4.404494873046875,-0.058419455742835996,0.14446283147037028,0.14233524485714732
1772364959433564700,4.414564697265625,-0.01268295596241951,0.16838380528390406,0.15226044481033457
1772364959443635700,4.4246357421875,-0.031098318096995353,0.2105798559784889,0.169512571851816
1772364959453705700,4.434705810546875,-0.056092474099993704,0.2558382168531418,0.1994245845073834
1772364959463776800,4.44477685546875,-0.07354220607280731,0.3023445319622755,0.21043763449620453
1772364959473846800,4.4548466796875,-0.06806932761967181,0.31388474763035773,0.21485534134060144
1772364959483916800,4.464916748046875,-0.09250760330557822,0.29972236676514147,0.2045492705773562
1772364959493987800,4.47498779296875,-0.08816460566520691,0.24335107572376727,0.19974556009005753
1772364959504057600,4.4850576171875,-0.023649755656719205,0.18924480700492857,0.2149341787304729
1772364959514127600,4.495127685546875,0.08223287752866744,0.11384791297614574,0.21460637154821305
1772364959524198700,4.50519873046875,0.12479074727296828,-0.00822831464111805,0.16598697327524423
1772364959534269000,4.51526904296875,0.12148059981167315,-0.13731997397840023,0.1388221861017402
1772364959544339700,4.525339599609375,0.1216530337691307,-0.2545423318237066,0.15533015284556895
1772364959554409700,4.53540966796875,0.03165653650164604,-0.33127953454554077,0.15955883992388845
1772364959564479700,4.545479736328125,0.03794131585955619,-0.332019539257884,0.14877685874458402
1772364959574550800,4.55555078125,-0.0702963560193777,-0.3217535813093185,0.15815041616437955
1772364959584620800,4.565620849609375,-0.17464286567866802,-0.23192308825850486,0.16977989928480236
1772364959594691800,4.57569189453125,-0.002926116579771042,-0.03213935158252716,0.1873679985486902
1772364959604763600,4.585763671875,0.11483692401349543,0.0832107826501131,0.17749142351020125
1772364959614834700,4.595834716796875,0.19691899489462375,0.13884908324182033,0.17346991290915756
1772364959624905000,4.605905029296875,0.19955460409522055,0.12516834841370583,0.17149119671471416
1772364959634975700,4.615975830078125,0.17422376348376273,0.1185989068955183,0.21142518422883003
1772364959645045800,4.626045654296875,0.2882937947779894,0.09046177669167518,0.22758613676642997
1772364959655115800,4.63611572265625,0.2751893985331058,0.08963000204265117,0.22708247982691973
1772364959665186600,4.6461865234375,0.09545534719526767,0.09084346948564052,0.23151684554517268
1772364959675256800,4.6562568359375,-0.10367314044237136,0.08351356498897075,0.21912596786450594
1772364959685328000,4.666327880859375,-0.21683891637325287,0.056283028236031526,0.18851824629604816
1772364959695398000,4.67639794921875,-0.2225701535016298,0.04477028509676456,0.1716445971781388
1772364959705467600,4.686467529296875,-0.1316834293961525,-0.015101123020052908,0.17396774289608
1772364959715538700,4.69653857421875,0.05559387692809105,-0.11373276216387748,0.17747180549427866
1772364959725608700,4.706608642578125,0.22099545153081415,-0.18873802652657032,0.21253212255742399
1772364959735678700,4.7166787109375,0.2955611554324627,-0.24442893408834931,0.20100958867650479
1772364959745749800,4.726749755859375,0.20288228721320628,-0.20503683489859104,0.19693802838865668
1772364959755819800,4.73681982421875,-0.013695347875356673,-0.10117606292963027,0.23154957877099513
1772364959765890800,4.746890869140625,-0.19642741198539732,0.03335574163496494,0.2662796592327766
1772364959775960600,4.756960693359375,-0.35289924567937847,0.17511691293120382,0.24951599156167356
1772364959786030800,4.76703076171875,-0.3420318147063255,0.20780571509003637,0.2154727060539648
1772364959796102000,4.777101806640625,-0.20170564464926719,0.1908691933363676,0.20613506019776687
1772364959806171600,4.787171630859375,-0.06923427974581718,0.1837111382752657,0.2338481380369514
1772364959816242700,4.79724267578125,-0.01597381420135498,0.19550854357481,0.2749853638609871
1772364959826312700,4.807312744140625,0.14748890129327774,0.20030396115779875,0.3052149545657448
1772364959836383000,4.817383056640625,0.18755436969995498,0.0805833567559719,0.28169994947090743
1772364959846453800,4.827453857421875,-0.22906185360848902,-0.056682256686687464,0.2990660034819506
1772364959856523800,4.837523681640625,-0.31231121470332146,-0.010376432585716248,0.17298921672012657
1772364959866594800,4.8475947265625,-0.14777999319434165,0.005429039311408996,0.20866551025714725
1772364959876664600,4.85766455078125,0.02091068608164787,0.02207446916401386,0.2282406734187156
1772364959886734800,4.86773486328125,0.05413841742277145,0.03544716095626354,0.1964090360784903
1772364959896806000,4.877805908203125,0.06142039112448692,-0.03367781319618225,0.1938348747415468
1772364959906876000,4.8878759765625,0.05365560234189033,-0.04824176059961319,0.2361750466145575
1772364959916945700,4.897945556640625,0.12353753234148025,-0.07258183660805224,0.2937606088165194
1772364959927016700,4.9080166015625,0.023062895679473876,-0.05682955620288849,0.13917635156796312
1772364959937086700,4.918086669921875,-0.023091537252068518,-0.05876081652641296,0.04192079568346962
1772364959947157800,4.92815771484375,0.10288111328184604,0.018427052572369575,0.14774030050477013
1772364959957227800,4.938227783203125,0.20681787309646604,-0.027721535140275953,0.19520294822435824
1772364959967297800,4.9482978515625,0.05167641122341156,-0.06813420954942703,0.10161485620569437
1772364959977368800,4.958368896484375,-0.0774859752625227,-0.1334118606239557,0.08824676752332597
1772364959987438600,4.9684384765625,0.002478372812271118,-0.0654687897324562,0.14238969672443344
1772364959997509600,4.978509521484375,0.1449678583830595,0.0006616787791252136,0.15181661003297195
1772364960007580000,4.988579833984375,0.15170914933681487,0.03177460992336273,0.1072800971594639
1772364960017649700,4.998649658203125,0.1445668763667345,0.032084991046786304,0.0960989057958126
1772364960027720700,5.008720703125,0.1390285314619541,0.003706453302502632,0.09506426551844924
1772364960037790700,5.018790771484375,0.1173351705700159,0.002201309436559677,0.09359649452082812
1772364960047861800,5.02886181640625,0.09502338551878929,-0.015911854881048203,0.11447634707279503
1772364960057931800,5.038931884765625,0.1677764870405197,-0.041267829933762545,0.12399554177466779
1772364960068001800,5.049001708984375,0.18043489308357238,-0.10011515569984912,0.10861176588833331
1772364960078072800,5.05907275390625,-0.04104512709379196,-0.11774608945846557,0.1031296629491262
1772364960088142800,5.069142822265625,-0.05019172562360763,-0.0738081635326147,0.16480665918318554
1772364960098213600,5.079213623046875,0.013062895190715788,-0.10154138911068439,0.149925736518763
1772364960108283600,5.08928369140625,0.02367138296663761,0.11653612914681434,0.1407302208133042
1772364960118354000,5.09935400390625,-0.042108956933021545,0.15969079574048517,0.18710777670992537
1772364960128424700,5.1094248046875,-0.08718494697809219,0.06336100379824638,0.20765861650323494
1772364960138494700,5.11949462890625,-0.03571954815685749,0.09367956969439983,0.22785077905198559
1772364960148564700,5.129564697265625,-0.10465338365137576,0.0339630598783493,0.24717538325227795
1772364960158635800,5.1396357421875,-0.1839683279067278,-0.020480477970838545,0.24869440951310096
1772364960168705800,5.149705810546875,-0.12889759806990622,0.005682721811532974,0.28519370987080034
1772364960178776800,5.15977685546875,-0.0941688145160675,-0.029992402681708333,0.28091289074644443
1772364960188846800,5.169846923828125,-0.0842389566540718,-0.05938157877326011,0.27634529056996104
1772364960198916600,5.17991650390625,0.003447510105371475,0.030095278534293172,0.3204917446799576
1772364960208987600,5.189987548828125,0.056956981974840164,0.09823007260560988,0.3101305096633732
1772364960219058000,5.200057861328125,-0.09270750979185104,-0.042564299485087394,0.21520130523405967
1772364960229129000,5.21012890625,-0.047615153133869166,-0.022526304584741592,0.26039920462574806
1772364960239198700,5.22019873046875,0.03866963013410568,0.05410743776261806,0.30453199553657323
1772364960249268700,5.230268798828125,0.14468553431034087,0.05427636458873748,0.28683818914219733
1772364960259339800,5.24033984375,0.2072901667833328,0.0012070377022027968,0.2810489016836509
1772364960269409500,5.250409423828125,0.22204525284469126,-0.0172930801063776,0.2994726480540819
1772364960279479800,5.260479736328125,0.21410452297329902,0.03242284469902515,0.27830431568324565
1772364960289550800,5.27055078125,0.10905191087126731,0.05743219827115535,0.253172121182736
1772364960299620900,5.280620849609375,-0.02782324194908142,0.07917991969883441,0.1969827808458358
1772364960309691600,5.290691650390625,-0.1181459024310112,0.09936346054971218,0.16546789957089347
1772364960319761400,5.300761474609375,-0.11332125875353813,0.17393442514836788,0.16405034265685825
1772364960329831700,5.310831787109375,0.04387479756176471,0.11355097585618495,0.1631653947821818
1772364960339902500,5.32090234375,0.2886918541848659,-0.02290799737870693,0.12585886969482526
1772364960349972500,5.330972412109375,0.31790625823140145,-0.06766776108145714,0.18214337750189005
1772364960360042500,5.34104248046875,0.21912322791814803,-0.19688509262502193,0.26471394428601486
1772364960370113500,5.351113525390625,0.20568214706480503,-0.12592004356384276,0.08259757352205924
1772364960380183600,5.36118359375,0.1561515156984329,-0.018538111731410026,0.09808873703931457
1772364960390254600,5.371254638671875,-0.026356676527857777,0.06197627144157886,0.194662557737343
1772364960400324600,5.38132470703125,-0.24220073664486408,0.014843933388590812,0.23982914867531507
1772364960410394400,5.391394287109375,-0.2603770293265581,0.02502338209748268,0.275148555066064
1772364960420465400,5.40146533203125,-0.16961130125224588,0.02712999898791313,0.2611868113394826
1772364960430535700,5.41153564453125,-0.15938333722651005,0.00894201586842537,0.1818351518029347
1772364960440606700,5.421606689453125,-0.016391747352480886,0.05178396325111389,0.2533128996266052
1772364960450676500,5.431676513671875,-0.011071429112553596,-0.014942133066058159,0.22865013100244103
1772364960460746500,5.44174658203125,-0.12306114700138568,0.006401099213957786,0.21947123763822018
1772364960470817500,5.451817626953125,-0.18992635952830314,0.01249473991394043,0.25628393306033687
1772364960480887300,5.46188720703125,-0.1319973176509142,0.07414484814107418,0.254081180585362
1772364960490957600,5.47195751953125,-0.05550970577597618,0.09360358184874057,0.2160818143956363
1772364960501028600,5.482028564453125,-0.022578911554813383,0.033247605085372924,0.16988913181293755
1772364960511098600,5.4920986328125,-0.0029360534518957137,-0.02834872712790966,0.1685284744516015
1772364960521169400,5.50216943359375,0.017303016978502273,-0.01386369017958641,0.19114903319105506
1772364960531239400,5.512239501953125,0.010448328778147697,-0.0012549684971570967,0.22945297181792557
1772364960541309700,5.522309814453125,0.005801379755139351,0.003191489517688751,0.22349709562081843
1772364960551380500,5.53238037109375,-0.0016296470284461973,-0.0030482816547155378,0.2094598024399951
1772364960561450500,5.542450439453125,0.02822013231217861,0.07718553101122379,0.24896882427399977
1772364960571520500,5.5525205078125,0.1079541787624359,0.12787760737240314,0.22018747788248583
1772364960581591600,5.562591552734375,-0.0063040685802698134,-0.0359194546431303,0.16800236821826547
1772364960591661600,5.57266162109375,-0.030233225700259207,0.002465513330698013,0.2492562811795622
1772364960601732600,5.582732666015625,-0.043155835637450214,0.03528700195848942,0.2477245781002566
1772364960611802600,5.592802734375,0.028970658418536185,0.017353870382905007,0.17895762360524384
1772364960621872400,5.602872314453125,0.11115969680547713,-0.04429156166911125,0.15391261419784277
1772364960631943400,5.612943359375,0.11831190664768218,-0.10108955368995666,0.14169284616722724
1772364960642013400,5.623013427734375,0.06859890445172787,-0.12791618581712244,0.14051768317432142
1772364960652083500,5.63308349609375,0.020636545315384863,-0.1654629494011402,0.11077214052630588
1772364960662154500,5.643154541015625,0.0003998129725456238,-0.16727847439050675,0.08940500678089447
1772364960672224500,5.653224609375,-0.008657353708148002,-0.1318622930943966,0.06051103032776154
1772364960682295600,5.663295654296875,-0.0059247138738632195,-0.06308627851009369,0.04381890265606343
1772364960692365300,5.673365234375,0.015422025537490844,0.06061784256994724,0.04261083290739916
1772364960702435600,5.683435546875,0.060306876924633976,0.12274433613717556,0.019851221890281885
1772364960712506600,5.693506591796875,0.09672960491478443,0.10436053818464279,-0.022580655987327915
1772364960722576600,5.70357666015625,0.10659458084702492,0.04500701646208763,-0.03907569931750186
1772364960732647400,5.7136474609375,0.13359832310676573,-0.00978898808658123,-0.005367344852583483
1772364960742717400,5.723717529296875,0.1147819789558649,0.0061883332461118695,0.048148903817543755
1772364960752787700,5.73378759765625,0.08102525530457497,0.024380992540717124,0.07716088976031169
1772364960762858500,5.7438583984375,0.060663435277342796,0.029582652837038037,0.05692033975888043
1772364960772928500,5.753928466796875,0.06943243266642093,0.006462474012374877,0.06291415507989004
1772364960782998500,5.76399853515625,0.01607669005393982,-0.05292436545789241,0.06450108634461649
1772364960793069600,5.774069580078125,-0.15546996317505835,-0.06328560047447682,0.06896995712067
1772364960803139300,5.784139404296875,-0.20810031412243843,-0.015942250019311904,0.13263283907547593
1772364960813209600,5.794209716796875,-0.19153905542194843,0.07637070749700069,0.19865886083189396
1772364960823280600,5.80428076171875,-0.18927111048996448,0.13726561344265936,0.26280632056640457
1772364960833350400,5.814350341796875,-0.14099135596752166,0.1142594163864851,0.2943416053085588
1772364960843421400,5.82442138671875,-0.0698784228682518,0.08386661621034144,0.31782676325440407
1772364960853491500,5.834491455078125,-0.005765139397978783,0.0043570261657238,0.3466551636580378
1772364960863561500,5.8445615234375,0.01689268261194229,-0.038977088648080825,0.38571233180500564
1772364960873632500,5.854632568359375,0.12464344775676726,0.003081599402427673,0.4470344867194071
1772364960883702500,5.86470263671875,0.2656482477277517,0.021195932763814925,0.4033819901388138
1772364960893773600,5.874773681640625,0.17566987063884734,0.10506780967116355,0.3878959229217842
1772364960903843300,5.88484326171875,0.11826865202784538,0.2672346401363611,0.4714462031919509
1772364960913913600,5.89491357421875,0.0511386510848999,0.2031733791142702,0.3840884569302201
1772364960923984600,5.904984619140625,-0.09274959536790847,0.11435001727938651,0.22734529548157006
1772364960934054700,5.9150546875,-0.23197511070668697,0.0747930829167366,0.1815766835298389
1772364960944124400,5.92512451171875,-0.30884266180992126,0.11994973698258399,0.2594912412016652
1772364960954195500,5.935195556640625,-0.20980828708410262,0.14016367297172547,0.30798936944883315
1772364960964265500,5.945265380859375,-0.019348843592405317,0.11916180147528647,0.2808623844019137
1772364960974335500,5.95533544921875,0.1526584128856659,0.0629763883948326,0.24149158372851087
1772364960984406500,5.965406494140625,0.26813421932458875,-0.05356500144898891,0.2234029875965789
1772364960994476500,5.9754765625,0.30407997745275495,-0.13118717031180857,0.2665055221442133
1772364961004547600,5.985547607421875,0.0759650493055582,-0.09071662823557854,0.4805203210074454
1772364961014617300,5.995617431640625,0.18221768484711645,-0.08685118497908115,0.20673057840550318
1772364961024687600,6.0056875,0.13481062150597573,0.11382628566622734,0.17255562934214247
1772364961034758700,6.015758544921875,-0.13281798638403414,0.10877134036421775,0.33323435840774324
1772364961044828400,6.025828369140625,-0.09823708686828612,0.14415069678127765,0.20548041394762695
1772364961054898400,6.0358984375,0.10225450581610203,0.27526304829120635,0.2666006530817598
1772364961064969500,6.045969482421875,0.10492051015496254,0.16230594667494297,0.32538981891982255
1772364961075039700,6.056039794921875,-0.10295651660561561,-0.030814824980497358,0.29724415834965184
1772364961085110500,6.066110595703125,-0.06374445015788079,0.053128363597393036,0.3013411270733923
1772364961095180500,6.0761806640625,-0.2614823602199554,0.10056523755490779,0.23733459191322326
1772364961105250600,6.08625048828125,-0.372536843085289,0.2341781737089157,0.1928817387351766
1772364961115321300,6.0963212890625,-0.42406829288005826,0.27364216909110545,0.1522405893323943
1772364961125391400,6.106391357421875,-0.4117489095330238,0.18889935456812382,0.1036296940262895
1772364961135462400,6.11646240234375,-0.27216975845098496,0.09426526062786579,0.15511798966592177
1772364961145532700,6.12653271484375,-0.07769815670847892,0.021206454157829284,0.20001610239343717
1772364961155602400,6.1366025390625,0.03536474336981773,-0.028794717329740524,0.19192602717923
1772364961165673500,6.146673583984375,0.10693301902115344,-0.06414777026176452,0.21371517659584058
1772364961175743500,6.156743408203125,0.16725567803680896,-0.061114101654291146,0.19192871232666073
1772364961185813500,6.1668134765625,0.18280629839003085,-0.05162146616578102,0.1613685927595943
1772364961195884500,6.176884521484375,0.22933131819963454,0.0037239889591932293,0.16722122777793555
1772364961205954600,6.18695458984375,0.27419045062363145,0.03312602453231811,0.14313492560116572
1772364961216025600,6.197025634765625,0.2549345460116863,0.029514263775944707,0.11883778455215506
1772364961226095400,6.207095458984375,0.16363456493020057,0.0008007949888706207,0.14373246223605238
1772364961236165600,6.21716552734375,0.044319618719816205,-0.026263153025507927,0.18273268516454844
1772364961246236700,6.227236572265625,-0.014234277057647704,-0.05148644160926342,0.18680647394210098
1772364961256306400,6.237306396484375,-0.012598784810304641,-0.04212240093648433,0.16855397421903906
1772364961266376400,6.24737646484375,-0.033192660027742384,0.0019487959802150724,0.168195589235425
1772364961276447500,6.257447509765625,-0.05233458287119865,0.05481120211780071,0.18964354226524008
1772364961286517500,6.267517578125,-0.0769540603429079,0.10381693282723427,0.17158691217415034
1772364961296588500,6.277588623046875,-0.10172902063727378,0.14311784660220145,0.16736547682052477
1772364961306658600,6.287658447265625,-0.11638999867439269,0.14447393738627434,0.1735690441683866
1772364961316728600,6.297728515625,-0.09029460343122482,0.10804068800210952,0.1687198871041648
1772364961326800000,6.3077998046875,-0.019599603483080864,0.08137129226326942,0.1821730602541007
1772364961336870000,6.317869873046875,0.04146422928869724,0.05276011480689048,0.18076576900575309
1772364961346941000,6.32794091796875,0.05716565628945827,-0.003728665134310722,0.1714037741595879
1772364961357011000,6.338010986328125,0.04930032974183559,-0.050261868250370025,0.15367091439645736
1772364961367081000,6.3480810546875,0.018510639202594756,-0.06903904943466187,0.14541704518897458
1772364961377152000,6.358152099609375,0.009089315384626389,-0.06757832923233509,0.15962487263111397
1772364961387221800,6.3682216796875,-0.005256020832061767,-0.016821370941400526,0.18455131542645395
1772364961397291800,6.378291748046875,-0.0643359863102436,0.01614975529015064,0.18460236976025626
1772364961407362800,6.38836279296875,-0.09695990653932093,0.06979717432558537,0.17982355625219643
1772364961417432800,6.398432861328125,-0.13158639876246453,0.08901917666792869,0.1604689222398214
1772364961427503900,6.40850390625,-0.16850772392451763,0.10721534309387207,0.14600287311975843
1772364961437574000,6.418573974609375,-0.08928922578096389,0.058200844556093215,0.09637197798299603
1772364961447644000,6.428643798828125,-0.10887480073869228,0.0495002362281084,0.06559491859646514
1772364961457714700,6.438714599609375,-0.0743967770755291,0.07611936308443545,0.09676496848911047
1772364961467785000,6.448784912109375,0.06615618747472762,0.10398702869713305,0.09766515046553685
1772364961477855000,6.45885498046875,0.02648468682169914,0.08762976813614368,0.11309490265175699
1772364961487925800,6.46892578125,-0.06754442696273326,0.031227497434616086,0.12464885458424686
1772364961497995800,6.478995849609375,-0.017408815440535543,-0.008543956461548805,0.12787627393184228
1772364961508066800,6.48906689453125,0.013232991060614586,-0.06985504199266433,0.12556750379912554
1772364961518137000,6.49913720703125,0.09644435823261738,-0.02563888364732265,0.1413095916038379
1772364961528206800,6.509206787109375,0.10400339531004428,-0.040294600987434384,0.12562042129645123
1772364961538278000,6.51927783203125,-0.00800561180114746,-0.06738134535551071,0.14319593507340178
1772364961548348000,6.529347900390625,-0.021330957320332525,-0.06633563569486141,0.08548493812717498
1772364961558418000,6.53941796875,-0.024831074395775792,0.020158990931510926,0.1366171229386702
1772364961568489000,6.549489013671875,-0.0669546443760395,0.09624036009311676,0.21471896507721394
1772364961578559000,6.55955908203125,-0.17003157249093054,0.13368892399966717,0.2078473440083675
1772364961588630000,6.569630126953125,-0.18681202690005302,0.12011691024303435,0.20112106796065343
1772364961598699800,6.57969970703125,-0.056443771755695336,0.12615151423215865,0.2070504762759432
1772364961608769800,6.589769775390625,0.057684127205610274,0.05001578453481197,0.17660094094388185
1772364961618840800,6.5998408203125,0.020862755286693572,-0.038301381343603134,0.1553322900037281
1772364961628910800,6.609910888671875,0.1526572438418865,-0.012831424522399902,0.16168315686779094
1772364961638980900,6.61998095703125,0.23182255049347877,0.04598492158353328,0.16528899934003127
1772364961649052000,6.630052001953125,0.16516484323740005,0.09912439109683036,0.18891499052867292
1772364961659122000,6.640121826171875,-0.019450550401210784,0.1289905370503664,0.2501458321641199
1772364961669192700,6.650192626953125,-0.19996026228666305,0.08705226050913334,0.26813456638446076
1772364961679263000,6.660262939453125,-0.11697452056407928,0.0435182392090559,0.26251928378595035
1772364961689333000,6.6703330078125,-0.013909282886981964,-0.0011684592574834824,0.2621647529935464
1772364961699404000,6.680404052734375,0.009740472769737243,0.029935119536519048,0.30912630105689165
1772364961709473800,6.690473876953125,0.0701309363245964,0.10202771132290363,0.3183330322761088
1772364961719543800,6.700543701171875,0.06466565665602683,0.11388649142086506,0.3128468924826011
1772364961729614800,6.71061474609375,-0.07367138541042804,0.07458090147078036,0.2886421150253154
1772364961739684900,6.720684814453125,-0.19477029242813587,0.03086567838490009,0.2626316946518607
1772364961749756000,6.730755859375,-0.21724399004280565,0.06709785223901271,0.2377563244566321
1772364961759826000,6.740825927734375,-0.14657354001402853,0.07997603851258754,0.1952887085453607
1772364961769895700,6.750895751953125,-0.063682490837574,0.10163841974437236,0.20338404445657504
1772364961779966700,6.760966796875,-0.00029050737917423245,0.10303893419206142,0.24108327692225573
1772364961790037000,6.771037109375,0.0043278000712394715,0.06979016006290913,0.24841603096313772
1772364961800106800,6.781106689453125,0.06875964797139167,0.08114917394518852,0.26743776149302717
1772364961810177800,6.791177734375,0.12741057438254355,0.029441198539733884,0.25807315456466745
1772364961820247800,6.801247802734375,0.0408253468632698,0.046211716076731676,0.27772772137168794
1772364961830318000,6.811318115234375,-0.004433598533272743,0.059112698704004284,0.24978901808308435
1772364961840388900,6.821388916015625,0.035333179187774656,0.0637257454574108,0.250635570176132
1772364961850459000,6.831458984375,0.016314005941152572,0.04984276605546474,0.2553970124242827
1772364961860530000,6.841530029296875,-0.06569207709431647,0.05260112485289573,0.26444080816674975
1772364961870600000,6.851599853515625,-0.10757307049036026,-0.02408873159587383,0.3278252293732017
1772364961880670000,6.861669921875,-0.04901449853777885,0.032440964877605435,0.2735149259822443
1772364961890741000,6.871740966796875,0.06954524539113044,0.12444237222671509,0.17853479508329181
1772364961900811000,6.88181103515625,0.08065700651407241,0.10299392600655555,0.2518557778871618
1772364961910880800,6.891880859375,-0.08605097451210021,0.05576163471043109,0.26919198474921285
1772364961920951800,6.901951904296875,-0.1297264501094818,-0.00855681594312191,0.21419033809322863
1772364961931021800,6.912021728515625,-0.054396191576123236,0.07939443923234939,0.18368649702435358
1772364961941092900,6.9220927734375,0.11567454388141632,0.1044990698724985,0.1526973018576391
1772364961951163000,6.932162841796875,-0.07940729871392249,-0.06779635589718819,0.06647477017091587
1772364961961233000,6.94223291015625,-0.014903554621338843,-0.04862812956869602,0.016416297271847725
1772364961971304000,6.952303955078125,0.21492986788153648,0.03809036894142628,0.1405259669454768
1772364961981373700,6.962373779296875,0.18046411917805671,0.06580313625335693,0.21562557679442687
1772364961991444000,6.97244384765625,0.02733516617119312,0.036493455138802526,0.2085231243780814
1772364962001515000,6.982514892578125,0.007830255234241485,-0.011046294671297073,0.22780158788170665
1772364962011585000,6.9925849609375,0.038920390024781225,-0.012412906849384307,0.12938514412483199
1772364962021654800,7.00265478515625,0.0856815566778183,0.007324643799662589,0.19444076821282505
1772364962031725800,7.012725830078125,-0.0083873045951128,-0.053174540826678274,0.2684102780533023
1772364962041796000,7.022796142578125,-0.13207622810602188,-0.08433657180964946,0.27090954752312973
1772364962051865900,7.032865966796875,-0.09128653707802295,-0.023095628905296324,0.27173980606850234
1772364962061937000,7.04293701171875,-0.08449848437309265,0.03900923735201359,0.3338631212979555
1772364962072007000,7.0530068359375,-0.11688099706172943,0.14181085565686224,0.36284452030621467
1772364962082078000,7.063077880859375,-0.13996435100734234,0.19120704698860644,0.28693350274283436
1772364962092147700,7.073147705078125,-0.13326280754208564,0.14418226096332074,0.22191857599141074
1772364962102218000,7.083218017578125,-0.08628770587742328,0.09268997413516045,0.22242844347599894
1772364962112289000,7.0932890625,-0.016017068821191787,0.030966216149926184,0.20347554039862006
1772364962122358800,7.10335888671875,0.06380231782495975,-0.058442836618423456,0.16472188524287193
1772364962132428800,7.1134287109375,0.13024725911319254,-0.1138712938517332,0.17781265482120215
1772364962142499800,7.123499755859375,0.15378770917654036,-0.09583236381411551,0.18585278994645923
1772364962152569900,7.13356982421875,0.17557751618027687,-0.05202653983533382,0.18129030433651058
1772364962162641000,7.143640869140625,0.17685411198735235,-0.0033148236364126202,0.15894635231504217
1772364962172711000,7.1537109375,0.16787117958664893,0.03355564812123775,0.1570662559231743
1772364962182781000,7.163781005859375,0.18795768980383873,0.031354338684678074,0.1287778441477567
1772364962192851700,7.173851806640625,0.17462474550008772,-0.0035521395236253737,0.06316140783922747
1772364962202922000,7.183921875,0.12250760477185249,-0.013845570001006125,0.02528820704612881
1772364962212992000,7.193991943359375,0.04089782757759094,0.008845569756627081,0.027186131355632095
1772364962223063000,7.20406298828125,-0.060454176440835,0.03820376618802547,0.033613132195826616
1772364962233132800,7.2141328125,-0.16632804179787636,0.043106151276826855,0.013603833667002617
1772364962243202800,7.224202880859375,-0.2068453456252813,0.035626609176397324,0.017635445536952465
1772364962253273900,7.23427392578125,-0.16391338187158105,0.012277882292866707,0.055617111673206085
1772364962263343900,7.24434375,-0.05886895307600498,-0.03753624219000339,0.06763707368224858
1772364962273415000,7.254414794921875,0.0820212806046009,-0.05405541531443596,0.08216386741306632
1772364962283485000,7.26448486328125,0.19516484470367432,0.011730185282230377,0.11917551947338506
1772364962293554700,7.2745546875,0.3051215954601765,0.2602157012850046,0.2687908200697973
1772364962303625700,7.284625732421875,0.2410883914887905,0.14027707021832464,0.24183648817604406
1772364962313696000,7.294696044921875,-0.07780921586751938,0.021825462839007378,0.06660393124222755
1772364962323766000,7.30476611328125,-0.32658465472757814,-0.07364332835972309,0.015277776494901626
1772364962333836800,7.3148369140625,-0.3995984530121088,-0.1636988623380661,0.12522256281897426
1772364962343906800,7.32490673828125,-0.2252156995743513,-0.11446925974488258,0.26884971065018326
1772364962353977000,7.33497705078125,0.08116437151432036,-0.025416765329241753,0.2787041834547184
1772364962364048000,7.3450478515625,0.2127320655763149,0.00021276596784591673,0.2479190777590498
1772364962374118000,7.355117919921875,0.14134090005755423,0.0037953006297349926,0.22496177961220964
1772364962384188000,7.36518798828125,0.011933598899841307,0.0184171157002449,0.20485391607973724
1772364962394259000,7.375259033203125,-0.0841869342058897,0.016360183170437814,0.18631593221249057
1772364962404328700,7.38532861328125,-0.1400871006041765,0.015320903250575064,0.16744471606919542
1772364962414399700,7.395399658203125,-0.09809972422420978,0.009356441888213158,0.17131310020145027
1772364962424470000,7.405469970703125,0.015120996764302253,0.0009539397239685058,0.1776048024904914
1772364962434539800,7.415539794921875,0.12471417490541935,0.0017114800930023192,0.175860369975958
1772364962444610800,7.42561083984375,0.14865034628808496,-0.002241056925058365,0.18821807603938503
1772364962454680800,7.435680908203125,0.13673545208871363,-0.011788637471199036,0.1967931400252506
1772364962464750800,7.445750732421875,0.10186053806245327,-0.00443242948949337,0.19826162340892478
1772364962474822000,7.45582177734375,0.05421323622465133,0.041675826212763785,0.1851826903988607
1772364962484892000,7.465891845703125,0.062059858071804044,0.09177169024646281,0.18917950495006516
1772364962494962000,7.4759619140625,0.0920294643998146,0.12026947045624256,0.19906340477848425
1772364962505032700,7.48603271484375,0.06437865640819072,0.08541209208667278,0.19825433515161275
1772364962515103000,7.49610302734375,0.02481587682664394,0.011944704815745354,0.18429534963769836
1772364962525173000,7.506173095703125,-0.007679448586702347,-0.08867781588435172,0.18067016314417123
1772364962535244000,7.516244140625,-0.10475859759151936,-0.10922902100384235,0.20402617828501388
1772364962545313800,7.526313720703125,-0.013242927932739257,-0.03426584221720695,0.21971525726085528
1772364962555383800,7.5363837890625,0.07327917122244834,-0.009415478599071502,0.16625724158398805
1772364962565454800,7.546454833984375,0.005745265653729438,0.049208559805154796,0.19922327151531352
1772364962575524900,7.55652490234375,-0.028219547790288922,0.030637714847922323,0.211432801279705
1772364962585595000,7.566594970703125,-0.047832595276832576,0.006495791760087013,0.19726539717949926
1772364962595666000,7.576666015625,-0.036548984718322755,0.009605448213219642,0.20935645166337488
1772364962605735700,7.586735595703125,-0.009493804532289504,0.010042670586705207,0.21036257823230697
1772364962615806700,7.596806640625,0.02451660161912441,0.025832360392808913,0.23386373746488243
1772364962625877000,7.606876953125,0.06164952370524406,0.025811317604780195,0.2371008379562758
1772364962635947000,7.616947021484375,0.04997194539308548,0.014889526095986365,0.22799658073084428
1772364962646017800,7.627017822265625,0.022996844705939292,-0.0033598318219184875,0.2523130749342963
1772364962656087800,7.637087890625,0.02251929032206535,0.018721651604771614,0.2877335853456519
1772364962666158000,7.647157958984375,0.0360983183413744,0.049721185502409934,0.30418931957874445
1772364962676229000,7.65722900390625,0.051017070531845087,0.06359247446656227,0.3065850556088611
1772364962686299000,7.667298828125,0.050854573446512216,0.0490863947302103,0.2941109018252231
1772364962696369000,7.677368896484375,0.019071780216693878,0.06089665951132774,0.29896371215125545
1772364962706440000,7.68743994140625,0.01694528958201408,0.06727963854670524,0.3022993776462972
1772364962716509700,7.697509765625,0.021191256588697433,0.05897124440670013,0.2732730800503865
1772364962726580000,7.707580078125,0.014872574961185454,0.05838263086378574,0.2679838510684669
1772364962736651000,7.717651123046875,0.008974749094247817,0.03296469649076462,0.2569318390424363
1772364962746720800,7.727720703125,-0.03312310192286968,0.014486790513992308,0.2498865967060439
1772364962756790800,7.737790771484375,-0.029816461592912673,-0.012160393393039703,0.24113692507194354
1772364962766861800,7.74786181640625,-0.010357727885246276,-0.00213233585357666,0.2461718322329223
1772364962776932000,7.75793212890625,-0.0002297171026468277,0.02990121726691723,0.23489722696477547
1772364962787001900,7.768001953125,-0.00798515353500843,0.0677168609201908,0.2202378928954713
1772364962797073000,7.778072998046875,-0.008465046006441115,0.09960662165582179,0.21529639963898806
1772364962807143000,7.788142822265625,-0.013202595922350882,0.06917056685984134,0.1850269335815683
1772364962817213700,7.798213623046875,-0.03137479695081711,0.027129414466023443,0.1917755127926357
1772364962827284000,7.808283935546875,-0.010607903254032134,-0.01151391218304634,0.21540764146111904
1772364962837354000,7.81835400390625,0.07381693136096,-0.037488895916938776,0.207323502797354
1772364962847425000,7.828425048828125,0.12671733142137526,-0.05025485398769378,0.18167859126804395
1772364962857494800,7.838494873046875,0.09776128605008125,-0.0453787723839283,0.1889479794828221
1772364962867564800,7.848564697265625,0.006933014133572578,-0.03274608530402184,0.19176610564347354
1772364962877635800,7.8586357421875,-0.10252046327590941,-0.004704816690087319,0.17929147693580016
1772364962887705900,7.868705810546875,-0.19493629664480686,0.03357318377792835,0.16402723577590658
1772364962897775900,7.87877587890625,-0.20879297256171703,0.06447510251998902,0.13778123481459914
1772364962907847000,7.888846923828125,-0.20326807166039942,0.10652794535160064,0.1393910446314141
1772364962917916700,7.898916748046875,-0.13773323095440865,0.1056757124364376,0.17048360884105784
1772364962927987000,7.908987060546875,0.0066822542428970335,0.06294014803767203,0.1791614208153449
1772364962938058000,7.91905810546875,0.12994213868677615,-0.0005219780474901199,0.1776373347869143
1772364962948128000,7.9291279296875,0.18630583094358444,-0.03003448825776577,0.1922761375248432
1772364962958197800,7.93919775390625,0.16563947501182555,-0.027992753297090528,0.18526370147950946
1772364962968268800,7.949268798828125,0.06472995406389236,-0.012920856371521948,0.17801577617786823
1772364962978339000,7.959339111328125,-0.05468143825829029,0.00289221431016922,0.18526026741340756
1772364962988408800,7.969408935546875,-0.12572013707756996,0.009683774146437644,0.19006167634576557
1772364962998480000,7.97947998046875,-0.07359598208665848,0.020766309174895286,0.1825497115467675
1772364963008550000,7.9895498046875,0.023367431584000585,0.01907645639181137,0.17562502685012296
1772364963018617900,7.999617919921875,0.10528466729223727,0.031469489496946335,0.20299131881194188
1772364963028688000,8.00968798828125,0.14444354224801062,0.07184884615838527,0.22194106181785464
1772364963038759000,8.019759033203124,0.08215864324867725,0.08471300390660762,0.1839014184166677
1772364963048829000,8.029828857421874,-0.0395230320930481,0.08008125245273112,0.14012672022851183
1772364963058899000,8.03989892578125,-0.13603461034297942,0.08888707472085952,0.09617105771657079
1772364963068970000,8.049969970703126,-0.16567629989087582,0.06726210289001465,0.048281325425021344
1772364963079039700,8.060039794921876,-0.11190087056159972,0.030395138263702392,0.045105636264663185
1772364963089110000,8.070110107421876,-0.01365326229929924,-0.02108428908288479,0.08892987268297001
1772364963099181000,8.08018115234375,0.060415013474225995,-0.0360632470279932,0.15193756953151896
1772364963109250800,8.090250732421875,0.07645020247399807,-0.019575638085603714,0.15905001361891627
1772364963119320800,8.10032080078125,0.05857435404360294,-0.0019844518154859543,0.14169464539866894
1772364963129391900,8.110391845703125,0.006582885521650314,0.03083177611529827,0.12783723882939665
1772364963139462000,8.1204619140625,-0.0818558609098196,0.06079904435575008,0.11695766076082363
1772364963149532000,8.130531982421875,-0.06005611703395843,0.08951426670849323,0.13051034876247866
1772364963159603000,8.14060302734375,0.006799743142724037,0.11883972991406917,0.16777153687076643
1772364963169673000,8.1506728515625,0.012410568761825561,0.10593231754601001,0.18683303315546362
1772364963179742700,8.16074267578125,-0.04050093721449375,0.05562018041312694,0.18079609107878059
1772364963189813800,8.170813720703125,-0.05397708938121795,-0.0012345102310180663,0.18109142076354473
1772364963199884000,8.180884033203125,0.007844283759593963,-0.02824117510020733,0.17544693033685907
1772364963209953800,8.190953857421874,0.05378127454817295,-0.02917699464559555,0.1505795059860684
1772364963220024800,8.20102490234375,0.08215045994222164,-0.023862521624565123,0.1545260881873779
1772364963230094800,8.2110947265625,0.08096446502804756,0.012287819164991378,0.16911319727068766
1772364963240165000,8.2211650390625,0.0630114597082138,0.03286006707251072,0.15743388365916908
1772364963250236000,8.23123583984375,0.018097382226586342,0.017915011397004126,0.13867579076783731
1772364963260306000,8.241305908203126,-0.007287818920612334,0.0014244798451662063,0.12344254753440617
1772364963270376000,8.2513759765625,0.03390577673316002,0.011553075149655341,0.13053583026360718
1772364963280446700,8.26144677734375,0.10487959362268447,0.012712766578793526,0.13966772441463543
1772364963290516700,8.271516845703125,0.12423778956532477,0.04537994142770767,0.14895873638382182
1772364963300587000,8.2815869140625,0.10874912853240966,0.0729325497418642,0.1740226696874015
1772364963310658000,8.291657958984375,0.05844751279354095,0.07912789725065231,0.17709721829453481
1772364963320727800,8.301727783203125,0.02154606137573719,0.07703297079801559,0.18073542866641654
1772364963330798000,8.311798095703125,-0.00646364305615425,0.0754465783894062,0.1876204024071805
1772364963340869000,8.321869140625,-0.01353168174624443,0.04932254157364368,0.1797964855821803
1772364963350939400,8.331939453125,-0.012467851907014845,0.03198737589120865,0.17857240541363134
1772364963361009200,8.342009033203125,-0.03247369810342789,0.0301987389087677,0.17759007984539493
1772364963371080200,8.352080078125,-0.06317337227165698,0.03488192828893661,0.16570181792462244
1772364963381150200,8.362150146484375,-0.07358546069264411,0.05017360544502735,0.1621059488571249
1772364963391220000,8.372219970703124,-0.0984556980550289,0.04981237091720104,0.13640295046502723
1772364963401291000,8.382291015625,-0.14848609563708304,0.023332944792509077,0.12835987446401267
1772364963411361300,8.392361328125,-0.16227262892723082,-0.0020066636472940444,0.12036832772083579
1772364963421431000,8.40243115234375,-0.1354033267021179,0.0012754267632961273,0.12892989290431142
1772364963431502000,8.412502197265624,-0.09507833057641983,0.013839140260219573,0.15353030034936963
1772364963441572000,8.422572021484376,-0.05006020819842815,0.028052959051728246,0.15418575031710788
1772364963451642400,8.432642333984376,-0.021848259192705152,0.053147068297863004,0.1442380828037858
1772364963461713200,8.442713134765626,-0.02132511210143566,0.06147592070400715,0.1365124569877982
1772364963471783200,8.452783203125,-0.03155424517095089,0.05915653784573078,0.1357981347059831
1772364963481853200,8.462853271484375,-0.00890402194559574,0.04773205751180649,0.14595836725775152
1772364963491924200,8.47292431640625,0.03745031747221946,0.055367082434892655,0.15916715545887128
1772364963501994200,8.482994140625,0.07354220607280731,0.03151099055111408,0.1748276841936633
1772364963512064300,8.493064208984375,0.13197218320965767,-0.0009510171145200729,0.1824648097422905
1772364963522135300,8.50313525390625,0.1670183621495962,-0.049314358267188066,0.180905067878589
1772364963532205000,8.513205078125,0.15952654508948325,-0.08054068665802479,0.15936603903183713
1772364963542275000,8.523275146484375,0.08625964882671833,-0.06452712496817112,0.13079080967167392
1772364963552346000,8.53334619140625,-0.02297989357113838,-0.0019528876334428786,0.10953861667597665
1772364963562416000,8.543416015625,-0.11969605448246001,0.05621756178438663,0.11227797851199284
1772364963572486100,8.553486083984374,-0.18414836064875126,0.09370528865754604,0.11291890676403417
1772364963582557200,8.56355712890625,-0.19980127233266828,0.12131576463878153,0.12481938884556293
1772364963592627200,8.573627197265624,-0.16621932072639464,0.09490355853140353,0.12607991030067206
1772364963602697200,8.583697265625,-0.0448690692961216,0.05576455731987953,0.14038723432822153
1772364963612768300,8.593768310546874,0.09971008203029633,0.0200771578669548,0.1557814402770251
1772364963622838300,8.60383837890625,0.20395137774944305,-0.02054302181303501,0.1617412254642695
1772364963632908000,8.613907958984376,0.17723814286887646,-0.02906710453033447,0.16971061517456545
1772364963642979000,8.62397900390625,0.08247370054721832,-0.01100245552957058,0.18046735231475902
1772364963653049300,8.63404931640625,-0.07498012992143631,0.02094341930747032,0.20030507540265097
1772364963663119000,8.644119140625,-0.17884148641228675,0.044929859572649,0.22841551852896808
1772364963673190100,8.654190185546875,-0.20051380451619624,0.05291910476088524,0.23108493866762145
1772364963683260200,8.66426025390625,-0.13461831380426884,0.05021802910864353,0.23697425243454054
1772364963693330200,8.674330078125,-0.08674597103893757,0.06331248848140239,0.2623457903825678
1772364963703401200,8.684401123046875,0.13084990118145942,0.04769523263275623,0.2308109257655218
1772364963713471200,8.69447119140625,0.14547580790519712,0.03258767987191677,0.17881372162252662
1772364963723541200,8.704541259765625,-0.023066402810811994,0.0471475356221199,0.21635427466146648
1772364963733612000,8.714612060546875,-0.15417174005806444,0.007526303851604461,0.21683586589964104
1772364963743682000,8.72468212890625,-0.16260639092624188,0.00519055438041687,0.18537238601837305
1772364963753752300,8.73475244140625,-0.06024784021377563,0.004309679892659187,0.13546028105374425
1772364963763823400,8.7448232421875,0.005076572611927986,-0.0013479074776172636,0.1555328175445087
1772364963773893000,8.75489306640625,0.006481178712844848,0.021661796709895133,0.19579302307199686
1772364963783963100,8.764963134765624,0.0027817396730184553,0.04948913031220436,0.1983685909147374
1772364963794034200,8.7750341796875,0.03215688723921776,0.09084522305130958,0.19196687064627185
1772364963804104200,8.785104248046874,0.009859715235233307,0.10454583162367344,0.17027040448179467
1772364963814174200,8.79517431640625,-0.05070552036464214,0.1226724399447441,0.17073511765040456
1772364963824245200,8.805245361328126,-0.060840545409917825,0.10469196209609508,0.15679569535348564
1772364963834315000,8.81531494140625,0.009824643921852111,0.07612111665010451,0.15946980993356555
1772364963844385000,8.825385009765625,0.058823944890499115,0.03627192134261131,0.1726738488943316
1772364963854456000,8.8354560546875,0.023194413104653356,-0.0026508067697286605,0.19297469598194583
1772364963864526300,8.8455263671875,-0.029451719933748243,-0.06780804633498191,0.20270203527547417
1772364963874596000,8.85559619140625,-0.010846972706913947,-0.04987023858428001,0.22184788537537678
1772364963884667100,8.865667236328125,0.02107318316698074,-0.029593758752942085,0.2086303841448389
1772364963894737200,8.875737060546875,0.023814006307721135,-0.03117255237698555,0.18318587229214608
1772364963904807200,8.88580712890625,0.019929858350753782,-0.009203297153115271,0.20594852464972063
1772364963914878200,8.895878173828125,0.0012877017229795456,-0.005414426264166832,0.22427286576628683
1772364963924948200,8.9059482421875,0.01217091478705406,0.021026421415805817,0.2301632755117491
1772364963935018000,8.91601806640625,0.012322890478372574,0.07142331422269343,0.20712902140486983
1772364963945088300,8.926088134765624,0.04160334549844265,0.09819441677033901,0.1635547959585674
1772364963955159300,8.9361591796875,0.061608607172966,0.08439677756428718,0.13748071749806404
1772364963965229300,8.946229248046874,0.03302256415784359,0.04221943157017231,0.11806140248533338
1772364963975299000,8.956299072265624,0.0517792870759964,-0.020624854877591133,0.11034405130734666
1772364963985370000,8.9663701171875,0.06648468877673148,-0.07242343117594718,0.11344106747461483
1772364963995440000,8.976440185546876,0.11098024858534336,-0.04470832577645779,0.1356887925799936
1772364964005510100,8.98651025390625,0.12491115878224372,0.013254033848643302,0.1500003178586252
1772364964015581200,8.996581298828126,0.12167232299149036,0.06373159067630768,0.14941596036572008
1772364964025651200,9.006651123046876,0.0941208837211132,0.07833820817768573,0.13260319285588337
1772364964035721000,9.016720947265625,0.005457096362113952,0.04501344620287418,0.1368226371818222
1772364964045792000,9.0267919921875,-0.03757774324417114,0.01848082858622074,0.15267649653162807
1772364964055862300,9.0368623046875,-0.048560909551382064,-0.009519523495435714,0.15342150621265171
1772364964065932300,9.046932373046875,-0.06909165640473365,-0.03590834872722626,0.13807952364142984
1772364964076003000,9.057003173828125,-0.07723112371861934,-0.039250644892454147,0.14241874015582726
1772364964086073000,9.067072998046875,-0.08886486288905143,-0.008543371939659119,0.17748203462734818
1772364964096143400,9.077143310546875,-0.12316402285397052,0.022027707412838934,0.1754058676741086
1772364964106214400,9.08721435546875,-0.20386253042221067,0.05998305179774761,0.1718827350492589
1772364964116284200,9.0972841796875,-0.20640578516423702,0.061873395588994025,0.18689667297620324
1772364964126354200,9.107354248046875,-0.15120762955546377,0.06577741729021072,0.18465282130585983
1772364964136425200,9.11742529296875,-0.06123743577301502,0.059116205835342404,0.19451403437843545
1772364964146495000,9.127494873046874,0.04047638729512691,0.032225276300311086,0.17194118723822757
1772364964156565200,9.137565185546874,0.12835516175627706,0.007192541852593421,0.15860060761729255
1772364964166636300,9.14763623046875,0.15637947923541068,0.01987725138068199,0.16147771568987518
1772364964176706000,9.1577060546875,0.14108020329475401,0.006115268009901046,0.13935695969872175
1772364964186776000,9.167776123046876,0.10561667572557926,-0.018104981011152266,0.12526716914568095
1772364964196846300,9.177846435546876,0.12483341737091541,-0.040890228793025014,0.14898228165619073
1772364964206917400,9.18791748046875,0.17469956430196762,-0.035598552125692365,0.17755941071249542
1772364964216987100,9.197987060546875,0.1849210985869169,-0.01672843196094036,0.18106252346262336
1772364964227057200,9.20805712890625,0.18572949236035347,-0.05874795704483986,0.16650489620212464
1772364964237128200,9.218128173828125,0.17982056057751178,-0.02232289096713066,0.11725967591470107
1772364964247198200,9.2281982421875,0.055553544917702674,-0.013401917886734008,0.11916837734654545
1772364964257268200,9.238268310546875,-0.09645838675796985,0.04839081368148326,0.12904774713031947
1772364964267339300,9.24833935546875,-0.12543605943918226,0.10427753607630728,0.06720699343560263
1772364964277409000,9.258408935546875,-0.12660218060910702,0.11343056434690951,0.08022846063738688
1772364964287479000,9.26847900390625,-0.11818155826628207,0.12229308523833751,0.13988388791596515
1772364964297550000,9.278550048828125,-0.012734393888711929,0.04738192889988422,0.17255321818934752
1772364964307620400,9.288620361328125,0.21998481318354604,-0.06695990507304668,0.2109307152427733
1772364964317690000,9.298690185546874,0.39677287419736385,-0.07873919019401072,0.2684952529230155
1772364964327761400,9.308761474609375,0.3616711656779051,-0.052523383441567414,0.253188414730411
1772364964337831200,9.3188310546875,0.10879004506468773,0.0365904857724905,0.21055037415567784
1772364964347901400,9.3289013671875,0.03158171769976616,0.10234043053388595,0.15393270713780074
1772364964357972500,9.338972412109374,-0.13144435994327067,0.059300914752483364,0.16475129400044677
1772364964368042200,9.349042236328126,-0.33388124147653575,0.03126841396689415,0.2182840006150305
1772364964378112300,9.3591123046875,-0.2439677463173866,0.04268821812570095,0.2550111366455443
1772364964388183300,9.369183349609376,-0.020389292556047437,0.05990764847397804,0.2842425283594988
1772364964398253300,9.37925341796875,0.06626081689298152,0.11783902843892574,0.30202375730900094
1772364964408323300,9.3893232421875,0.05345452681183815,0.019561609560251235,0.1945758110356517
1772364964418393300,9.399393310546875,-0.20567045662701128,-0.04080138146579265,0.1597908585814759
1772364964428464400,9.40946435546875,-0.16212766749858856,0.07428279530704021,0.16335602198345586
1772364964438534100,9.4195341796875,0.021516250759363174,0.12137304778397083,0.1449202381153591
1772364964448604400,9.4296044921875,0.003189151430130005,0.06172258894145488,0.10126047154376283
1772364964458675500,9.439675537109375,0.01210778642296791,-0.005080079743266105,0.056104182804096486
1772364964468745200,9.4497451171875,0.08527356039881706,-0.019718845948576928,0.07959715873021632
1772364964478815200,9.459815185546875,0.08469020755290985,-0.018816928672790525,0.08408542832648382
1772364964488886300,9.46988623046875,0.06083060853779316,0.017939561316370964,0.08688961729332804
1772364964498956300,9.479956298828125,0.09676409170627594,0.012523381486535071,0.10616928637335077
1772364964509026300,9.4900263671875,0.08063362563848495,-0.039006314742565155,0.11974939210489391
1772364964519097300,9.500097412109374,0.0547550880163908,-0.009663900402188301,0.12665111605105922
1772364964529167400,9.51016748046875,0.10250292761921882,0.002787584891915321,0.122817273509223
1772364964539237400,9.5202373046875,0.02092471460700035,0.08458265552520751,0.17509411657750606
1772364964549307400,9.530307373046876,0.039432431200146674,0.1193394961297512,0.16691440858477727
1772364964559378400,9.54037841796875,0.044449382579326624,0.13781740210652352,0.1999575040739961
1772364964569448200,9.5504482421875,-0.09178747233748435,0.04462883079946041,0.17677927491916343
1772364964579518200,9.560518310546875,-0.15499533140063285,0.007676525977253913,0.16091692173564806
1772364964589589200,9.57058935546875,-0.09738953012824057,-0.020985504883527753,0.14771140320384873
1772364964599659300,9.5806591796875,-0.004337736943364143,-0.012553776624798774,0.15416238770782947
1772364964609729300,9.590729248046875,0.024278701210021972,0.02237257532775402,0.18151158240437507
1772364964619800300,9.60080029296875,-0.041781624674797055,0.018365677773952482,0.1715826013252139
1772364964629870300,9.610870361328125,-0.09871990194916724,0.011551906105875968,0.1367690255647525
1772364964639940400,9.6209404296875,-0.09377133963108063,-0.00038812253475189204,0.1257273705359548
1772364964650011400,9.631011474609375,-0.007256254738569259,0.0006306991189718247,0.12214965817965566
1772364964660081400,9.641081298828125,0.06186871941387653,0.014222586619853973,0.13761190612968058
1772364964670151200,9.651151123046875,0.08994330577552317,0.06384849505424499,0.18179644549405202
1772364964680221400,9.661221435546874,0.05891454578340053,0.07136953820884227,0.1604878826686181
1772364964690292500,9.67129248046875,0.027204233267903326,0.0539969631254673,0.13868032081248238
1772364964700362200,9.6813623046875,0.022470775005221367,0.0682055212199688,0.15233984845578669
1772364964710432300,9.691432373046876,0.005161912807822227,0.06365910996198654,0.1534884157027118
1772364964720503300,9.70150341796875,-0.04550327554643154,0.04293722445070743,0.1338532111832872
1772364964730573300,9.7115732421875,-0.0586240384042263,0.055471127331256864,0.14708950844584032
1772364964740643300,9.721643310546876,0.04775894551873207,0.021195932763814925,0.13219402753310278
1772364964750714400,9.73171435546875,-0.033411855736374854,-0.061897945508360856,0.121831623472739
1772364964760784400,9.741784423828125,-0.07204232290387153,-0.0706014764457941,0.1408016968806274
1772364964770854100,9.751854248046875,-0.024388006803393363,-0.008543371939659119,0.1334924333131872
1772364964780925200,9.76192529296875,-0.013495441389083861,0.013227730363607406,0.12157021432388573
1772364964790995500,9.771995361328125,-0.06394669473171234,0.020993688189983366,0.11003202621610834
1772364964801065200,9.782065185546875,-0.10335866766571998,0.05618599760234356,0.13553836952494455
1772364964811135200,9.79213525390625,-0.07182663432657718,0.06884323460161686,0.14549873212305828
1772364964821206300,9.802206298828125,-0.025542437535524366,0.03057692457139492,0.12853473784057423
1772364964831276500,9.812276611328125,0.0032359131813049316,0.05405190818309784,0.16172255729641766
1772364964841346300,9.82234619140625,0.046369536986947055,0.06973521500527859,0.16205810939371584
1772364964851417300,9.832417236328125,0.04735562541484833,0.04635726202726364,0.11184510352006181
1772364964861487400,9.8424873046875,0.015623101067543029,0.002227612921595573,0.10366665590265765
1772364964871557000,9.85255712890625,0.009185761496424675,-0.011985036826133727,0.1277254855506122
1772364964881628200,9.862628173828124,0.07150222467780112,-0.05457447075247764,0.13958422911595553
1772364964891698400,9.872698486328124,0.1547369727253914,-0.05091887085437774,0.1952150222546421
1772364964901768200,9.882768310546876,0.1321317576855421,-0.044210313126444814,0.20865285170497372
1772364964911839200,9.892839111328126,0.06346738678216934,-0.0424766212016344,0.15055678269760683
1772364964921909200,9.9029091796875,0.0014566285490989685,-0.03026712796986103,0.09189159029908478
1772364964931979500,9.9129794921875,-0.07781623013019562,-0.020855741024017334,0.06492388746710494
1772364964942049300,9.92304931640625,-0.26068799497187134,-0.06899053411781787,0.05165118545060977
1772364964952120300,9.933120361328125,-0.18636545217633246,0.06423077237010001,0.13858562826635315
1772364964962190300,9.9431904296875,0.037864743492007254,0.15456687685549259,0.1857804553626105
1772364964972260400,9.95326025390625,0.07240238838791847,0.12970190019011496,0.15526382787739856
1772364964982331400,9.963331298828125,0.08793079690933227,0.11349895340800285,0.13080045428285375
1772364964992401400,9.9734013671875,0.05408756401836872,0.018115502405166625,0.14455127693880349
1772364965002471200,9.98347119140625,0.11863690081834792,-0.01130699143409729,0.15682629142114893
1772364965012542200,9.993542236328125,0.19568565370738505,-0.006022913551330566,0.14304998726407064
1772364965022612200,10.0036123046875,0.10964929224252701,-0.0393961908429861,0.12813189266072586
1772364965032682200,10.01368212890625,-0.037218846803903576,-0.02447860769629478,0.16530682725766674
1772364965042752300,10.023752197265624,-0.12021452539861202,-0.00637830286026001,0.22490009428653865
1772364965052823300,10.0338232421875,-0.11469137806296348,0.014176993912458418,0.267357627195213
1772364965062893300,10.043893310546874,-0.07283844171762466,0.042921442359685896,0.2860010624646209
1772364965072963300,10.05396337890625,-0.007493570625782013,0.0881862329751253,0.29182280915435405
1772364965083034400,10.064034423828126,0.04389700939357281,0.13059329607188702,0.2905259012116119
1772364965093104400,10.0741044921875,-0.005630699363350868,0.076937109208107,0.2730086934931576
1772364965103174100,10.084174072265625,-0.010484569135308265,0.23799743973612783,0.31623551200758665
1772364965113245200,10.0942451171875,-0.05573416218161582,-0.008041852158308029,0.14120614949567242
1772364965123315500,10.1043154296875,-0.18550620499849318,-0.27432898231148717,0.08832682875590399
1772364965133385200,10.11438525390625,-0.04094225124120712,-0.06375555607378483,0.2232874166592024
1772364965143455200,10.124455322265625,0.07301379828453064,0.12125906601548195,0.2041053810010664
1772364965153526300,10.1345263671875,0.13208908758759497,0.15441490116417408,0.13723967528380454
1772364965163596300,10.14459619140625,0.10296820704340934,0.07084463755190372,0.14742940792469306
1772364965173666300,10.154666259765625,0.01083119061589241,-0.06865326498746871,0.11944408901538699
1772364965183737300,10.1647373046875,0.009040215545892715,-0.07941723558604717,0.13052441382044924
1772364965193807400,10.174807373046875,0.08444061670601367,-0.0010690905362367629,0.14716310340501368
1772364965203877000,10.184877197265624,0.1506096636623144,0.07906886053979396,0.13527957245828584
1772364965213948200,10.1949482421875,0.1309679746031761,0.10528934346735477,0.14243766405200584
1772364965224018400,10.205018310546874,0.08064882320761681,0.08631751649379729,0.13376759699275717
1772364965234088200,10.215088134765624,-0.006836568021774292,0.02839139722585678,0.09008545419257134
1772364965244158200,10.225158203125,-0.04349778094291687,-0.011931845334172249,0.11628354262523352
1772364965254229200,10.235229248046876,-0.028385552006959913,-0.0009843348622322083,0.1480806931739673
1772364965264299500,10.245299560546876,0.011793313646316528,0.014978373423218725,0.1429929598472081
1772364965274369300,10.255369384765626,0.015032733958959578,0.008697685718536376,0.13345750813027843
1772364965284440300,10.2654404296875,-0.0029950901627540587,-0.020933482435345648,0.1332298003216274
1772364965294510300,10.27551025390625,-0.03775426885485649,-0.03491232342720031,0.1734176347326487
1772364965304580000,10.285580078125,0.005626023188233375,-0.011146247914433478,0.1877091218702495
1772364965314651100,10.295651123046875,-0.010378186151385306,0.051076107242703436,0.17823301739143207
1772364965324721400,10.305721435546875,-0.0884697260916233,0.09404197326600551,0.17950826149163768
1772364965334790400,10.315790283203125,0.02822539300918579,0.07779694090783595,0.11780176516845822
1772364965344860700,10.325860595703125,0.03518471062779426,0.0358843833297491,0.1461063791600056
1772364965354931700,10.335931640625,0.052475452646613116,0.048231823727488514,0.21658161714393645
1772364965365001500,10.34600146484375,0.11616788035631179,0.04428337836265564,0.25453301600608974
1772364965375071500,10.356071533203124,0.09918459685146808,0.026549568751454353,0.22561697385162113
1772364965385142500,10.366142578125,0.03496785300672054,0.05256663806140423,0.21350147904623298
1772364965395212300,10.37621240234375,-0.0015770400583744047,0.03992927480638027,0.19334594044713302
1772364965405282600,10.386282470703126,-0.018060557347536085,0.032064532780647276,0.1797811601488851
1772364965415352600,10.3963525390625,0.0021060323685407637,0.03480126426815987,0.18255126418303697
1772364965425423600,10.406423583984376,-0.007328150931000709,0.04071954840123653,0.1915586003726348
1772364965435493400,10.416493408203126,-0.014874913048744201,0.04498772723972797,0.18739914260562507
1772364965445563600,10.426563720703125,-0.03142681939899921,0.050692076361179346,0.16242000150866806
1772364965455634700,10.436634765625,-0.031117022797465324,0.02087503024637699,0.12960072310427204
1772364965465704400,10.446704345703125,-0.02817395508289337,-0.05772153660655022,0.08405978242857381
1772364965475774500,10.4567744140625,-0.07351882519721985,-0.06083879184424877,0.08781412999341263
1772364965485845500,10.466845458984375,0.1520832433462143,0.02591653154492378,0.13451841536005957
1772364965495915500,10.47691552734375,0.14138883085250853,0.07494272052049636,0.1449357644780539
1772364965505985500,10.486985595703125,0.10539631097316741,0.04432897107005119,0.06540056506814435
1772364965516055600,10.4970556640625,-0.10273732089698315,0.03494096499979496,0.09516606365879997
1772364965526126600,10.507126708984375,-0.1581090795069933,0.02563479199409485,0.10266093119252473
1772364965536196400,10.5171962890625,-0.044747488743066784,0.07308277186751365,0.0824100972590968
1772364965546266600,10.5272666015625,-0.01950257284939289,0.045481063714623446,0.09074508714508264
1772364965556337700,10.537337646484374,-0.03575345042645931,0.004378068953752518,0.07772215863857418
1772364965566407400,10.547407470703124,-0.03607376842200756,-0.05704933643341064,0.053646396122127765
1772364965576477400,10.5574775390625,-0.01739595595896244,-0.0861649562805891,0.08402714053429662
1772364965586547700,10.567547607421876,0.007693477112054824,-0.0447293685644865,0.12968938776841388
1772364965596618500,10.577618408203126,0.007989245188236236,0.015070727881789207,0.14181726713133974
1772364965606688500,10.5876884765625,-0.011280103427171706,0.0457750782251358,0.12881567367380484
1772364965616758500,10.597758544921875,-0.00016249708533287046,0.03904664675295353,0.13529699851712212
1772364965626829600,10.60782958984375,-0.024762100812792776,0.0031529110729694365,0.11190951052578166
1772364965636899600,10.617899658203125,-0.045025136640667915,-0.03536357432603836,0.09141376192057504
1772364965646969600,10.627969482421875,-0.06621931583881378,-0.03669277710318565,0.11199295102553442
1772364965657039400,10.638039306640625,-0.08252981464862823,0.014296820899844168,0.11112215954037383
1772364965667110400,10.6481103515625,-0.07702829462289809,0.1116670618057251,0.11220372596569358
1772364965677180400,10.658180419921875,-0.060769233739376066,0.1445844120234251,0.12757206682087852
1772364965687250700,10.668250732421875,-0.24837153423428535,0.11621405758559702,0.22284833112219346
1772364965697321500,10.678321533203125,-0.3002776625603437,0.14835808534324169,0.2153163099158555
1772364965707391500,10.6883916015625,0.4546516471922397,0.3354068436086178,0.1675298736019991
1772364965717461500,10.69846142578125,1.3079659278512,0.27234511501789094,0.10243682184675708
1772364965727532500,10.708532470703124,0.8526064246505498,-0.23984978960454462,0.16402677911818025
1772364965737602600,10.7186025390625,0.4153612548112869,-0.007112462353706359,0.22387645032722503
1772364965747672600,10.728672607421874,0.0002519289344549179,0.2638490893512964,0.22049915591385214
1772364965757742300,10.738742431640626,-0.41203532525897024,0.08768179058432579,0.2962923740501515
1772364965767813400,10.7488134765625,-0.689677377641201,-0.27005262016654014,0.1944151771138422
1772364965777883600,10.758883544921876,-0.8811030358165503,-0.4910778823137283,0.13323865948151797
1772364965787953700,10.76895361328125,-0.6930144131094217,-0.384267612889409,0.16516071505155414
1772364965798024400,10.7790244140625,-0.2683791339963674,-0.17690262730419634,0.33190526522845026
1772364965808094500,10.789094482421875,0.06641746875941754,0.05767302128970623,0.3855601734505966
1772364965818164500,10.79916455078125,0.10441782132983207,0.3584697392880916,0.14285026344088836
1772364965828234500,10.809234375,0.014765022933483123,0.42615445150434966,-0.03598930500894785
1772364965838305500,10.819305419921875,0.06232172387838363,0.24336568877100942,0.03919445772580802
1772364965848375600,10.82937548828125,-0.03253916455507278,0.1813268734872341,0.17620134716704486
