time,seconds_elapsed,z,y,x
1772363475041803000,0.127802978515625,-0.04003741135597229,-0.07389350372850895,0.01796966419368982
1772363475051871700,0.137871826171875,-0.04077624702453613,-0.046672903847694396,0.05252703670337796
1772363475061941800,0.147941650390625,0.027509353694319724,0.011761164942383766,0.06531593725830316
1772363475072010800,0.1580107421875,0.01569149012863636,0.049666240444779394,0.07118292959555983
1772363475082080800,0.168080810546875,0.014248305583000182,0.06683832451999187,0.03542027294933796
1772363475092149800,0.178149658203125,-0.009798924958705902,0.05048340204656124,-0.02496054599434137
1772363475102219800,0.1882197265625,-0.008965396744012833,-0.004903554132580757,-0.09385784887075424
1772363475112288800,0.198288818359375,0.03766132987439632,-0.029307927548885344,-0.07481792509704828
1772363475122358800,0.20835888671875,0.14050503375530243,-0.013136544948816298,-0.022964549871534106
1772363475132428000,0.218427978515625,0.21051146691739558,-0.009274608823657035,-0.021608605217933653
1772363475142497800,0.228497802734375,-0.032112463575601574,-0.011413374418020247,0.010718231760710477
1772363475152566800,0.23856689453125,-0.14613631764054297,-0.027064532536268233,0.06481105647608637
1772363475162636800,0.24863671875,0.04497954393327236,0.053880643269419666,0.10672186048850417
1772363475172705800,0.258705810546875,0.1309334878116846,0.023341712620854375,0.0515754350669682
1772363475182775800,0.26877587890625,-0.001619125634431839,0.0037970541954040525,0.03139963913112879
1772363475192844800,0.2788447265625,-0.10499357539117336,-0.006377718338370323,0.05250511713251471
1772363475202914800,0.288914794921875,-0.09729366853833198,0.0057090252965688705,0.04501812237799167
1772363475212984800,0.29898486328125,-0.09063771778047085,0.03519055584669113,0.045153146934509274
1772363475223053800,0.3090537109375,-0.1123725797265768,0.0170230309933424,0.029669454337656498
1772363475233123800,0.319123779296875,-0.09966332027912139,0.02531272043287754,0.037501609268039464
1772363475243192800,0.32919287109375,-0.03734159640073776,0.03701134153306484,0.06625672523975372
1772363475253262800,0.339262939453125,-0.009416647642850875,0.02703238383233547,0.045203561947494746
1772363475263331800,0.349331787109375,0.008682488149404526,0.06961597253978252,0.09428469598069786
1772363475273401900,0.35940185546875,0.020973814445734023,0.041975101420283316,0.0616032003454864
1772363475283470800,0.369470947265625,0.03478314408957958,-0.00034720600247383117,-0.013256956458091735
1772363475293540600,0.37954052734375,0.06236614754199981,-0.005941080486774444,-0.01406695766672492
1772363475303609900,0.38960986328125,0.14381927286982535,-0.0017599954098463056,0.017579203571379185
1772363475313680000,0.399679931640625,0.10392916103005409,-0.028628713113069533,-0.05059007729142904
1772363475323748900,0.409748779296875,0.05223404510617256,-0.04078150772154331,-0.1036079662516713
1772363475333819000,0.41981884765625,0.08018412830531596,-0.019405542215704917,-0.07263517423048615
1772363475343888000,0.429887939453125,0.0558791236102581,0.016449615019559858,-0.06162161278501153
1772363475353958000,0.4399580078125,0.00592296030819416,0.024898878934979437,-0.09399901090711354
1772363475364027000,0.45002685546875,0.0013338789522647856,0.04215747224986553,-0.041521658564358944
1772363475374097000,0.460096923828125,0.06010872400403022,0.025641806256771087,0.011760434290021658
1772363475384166000,0.470165771484375,0.03614508009254932,-0.031111762100458143,-0.007388064424693584
1772363475394236000,0.48023583984375,0.008718728506565094,-0.03611936112940311,0.014368132570385932
1772363475404304600,0.4903046875,0.025980828952789307,-0.03026888153553009,0.042889293655753134
1772363475414375000,0.500375,0.028142975422739983,-0.021956980264186857,0.0802532480187714
1772363475424443600,0.510443603515625,-0.0384334832906723,-0.011225158369541167,0.09172580527812242
1772363475434514000,0.520513916015625,-0.037675942921638485,0.020334932020306586,0.06697115711942314
1772363475444582700,0.530582763671875,0.02158405529856682,0.06240180337727069,0.07539163333177566
1772363475454652700,0.540652587890625,0.04728431374430656,0.06745908676683902,0.080970164116472
1772363475464722000,0.550721923828125,0.021654782447218895,0.03922609497308731,0.08009498871713876
1772363475474791700,0.560791748046875,0.002648468682169914,0.010521978536248207,0.054962301026284695
1772363475484861000,0.57086083984375,0.04073708405792713,-0.0032160394370555874,0.025416473068296908
1772363475494930700,0.5809306640625,0.044827568241953844,-0.010952186647057533,-0.023267770601809023
1772363475505000000,0.591,0.06153495741486549,-0.014351765957474708,-0.03427650974169373
1772363475515069700,0.601069580078125,0.061706806850433345,0.012501169654726982,-0.024308073434978723
1772363475525139000,0.611138916015625,0.05613514419794082,0.019403788650035857,-0.025503420699387786
1772363475535208700,0.621208740234375,0.04735620993673801,0.01568447586596012,-0.02369257188513875
1772363475545278000,0.63127783203125,0.07236790159642696,-0.007929039433598517,-0.025716332797706125
1772363475555348000,0.641347900390625,0.12661796270012854,-0.03205167329907417,-0.053041269835829734
1772363475565417700,0.651417724609375,0.14784429060220716,-0.06963467724025249,-0.08654182676896452
1772363475575487000,0.661487060546875,0.12199322550892829,-0.09132102386951446,-0.08834960684329271
1772363475585556700,0.671556640625,0.07420973007082939,-0.08910919303894042,-0.05993263678476214
1772363475595626000,0.6816259765625,0.04422141904234886,-0.04774491699337959,-0.011578209590911865
1772363475605695700,0.69169580078125,0.019959084445238112,0.03874503345787525,0.007607114002853631
1772363475615764700,0.7017646484375,-0.01390460671186447,0.05243219802677631,0.017070377266407012
1772363475625834800,0.711834716796875,-0.06984802772998809,0.02554711371064186,0.018931494963169097
1772363475635903700,0.72190380859375,-0.08049100229740143,0.060385202857851976,0.06804214735180139
1772363475645974000,0.73197412109375,-0.04706687160134315,0.12206219909191131,0.07751797783598303
1772363475656042800,0.742042724609375,-0.026264322069287298,0.13047580717206,0.05399667086452246
1772363475666113000,0.752113037109375,-0.04126198471486568,0.0698778383463621,0.06377002299055456
1772363475676181800,0.762181640625,-0.04902794254124164,-0.0036392332851886747,0.07981938664615154
1772363475686251800,0.772251708984375,-0.024335984355211258,-0.07464169174730777,0.058033963556587694
1772363475696320800,0.78232080078125,-0.0018166940331459044,-0.15122165808081625,0.01583279829546809
1772363475706390800,0.792390869140625,0.04481470876038074,-0.15839724879860878,0.0010701134495437145
1772363475716460800,0.802460693359375,0.10598317095041275,-0.05409048662781715,0.04324585200846195
1772363475726530800,0.81253076171875,0.0876987417191267,0.0021370120286941527,0.04309475309997797
1772363475736599800,0.822599853515625,0.0391220500767231,0.024383915150165556,0.01104965567216277
1772363475746669800,0.832669921875,0.01891045217514038,0.022678280276060104,-0.0012239888370037077
1772363475756738600,0.842738525390625,0.03777472712099552,0.03839198223650455,0.01495733063519001
1772363475766808800,0.852808837890625,0.014423662149906157,0.02909808419048786,-0.001982844380289316
1772363475776877800,0.8628779296875,0.0006336217284202575,0.0017044658303260803,-0.04700900393426418
1772363475786947800,0.87294775390625,0.01519172391295433,0.026535540226101873,-0.015078326666355132
1772363475797016800,0.883016845703125,0.017398878568410873,0.03871405379772186,0.019511194547265766
1772363475807086600,0.893086669921875,-0.01764905393719673,0.021317513316869735,0.010479454568773507
1772363475817155800,0.90315576171875,0.015358312651515006,0.017215338695049286,0.009998685314506291
1772363475827225600,0.9132255859375,0.01845686318874359,-0.02135726080536842,0.005787643490731716
1772363475837294800,0.923294921875,-0.008514145845174789,-0.01177227085828781,0.03745499364733696
1772363475847364600,0.933364501953125,-0.02490881580710411,0.007950666743516922,0.07037906586676836
1772363475857433900,0.943433837890625,-0.047073885864019394,-0.01265372986793518,0.04956760237589478
1772363475867503900,0.95350390625,-0.07573182507157325,-0.0006377133816480637,0.048343467408418654
1772363475877572900,0.96357275390625,-0.0777729755103588,0.020325579670071602,0.05761310779601335
1772363475887643000,0.973642822265625,-0.08991407968103884,-0.013501286607980728,0.027581542147696016
1772363475897711900,0.9837119140625,-0.0722007283359766,0.008850245931744575,0.02621668353527784
1772363475907782000,0.993781982421875,-0.035141456007957456,0.03084405107498169,0.03360401730760932
1772363475917850600,1.0038505859375,-0.006165536892414092,0.07012859823703765,0.04721957794502377
1772363475927921000,1.0139208984375,0.006554828470945358,0.07698153287172317,0.04582958489134908
1772363475937989600,1.02398974609375,0.030779753667116164,0.07039572474062443,0.04192512479871511
1772363475948060000,1.034059814453125,0.05777648166418075,0.014148352339863775,0.03345598713904619
1772363475958128600,1.044128662109375,0.039758009892702104,-0.06935819838643073,-0.023977964697778225
1772363475968198700,1.05419873046875,0.07997428494691848,-0.08245850297808646,-0.03430281322672963
1772363475978269000,1.06426904296875,0.13535831851661204,-0.12611235126554965,-0.05613134480565786
1772363475988337700,1.074337646484375,0.15069441933631897,-0.12297054610848426,-0.09939487860128284
1772363475998408000,1.084407958984375,0.11214110905826091,-0.0731634358882904,-0.1319489484645426
1772363476008476700,1.0944765625,0.027719197052717207,-0.0405552977502346,-0.16506708195134998
1772363476018547000,1.104546875,-0.0354752180069685,-0.026170214045047758,-0.11663140621483326
1772363476028615700,1.11461572265625,0.017702829951047896,0.022287819653749465,-0.005113835882395505
1772363476038685700,1.124685791015625,0.07209259178638458,0.038003275179862975,0.027686756087839604
1772363476048754700,1.134754638671875,0.09587561843395233,0.06246610078513622,0.00736906746327877
1772363476058824700,1.14482470703125,0.06816460468769073,0.07392857504189014,0.005066635739803314
1772363476068893700,1.154893798828125,-0.005619008925557136,0.05079787482321262,0.02314925878867507
1772363476078963700,1.164963623046875,-0.05172609558403492,0.032442718443274496,-0.00866509862318635
1772363476089033000,1.175032958984375,-0.055824763074517246,0.050581017202138895,-0.009542027588188647
1772363476099102700,1.185102783203125,-0.04462766175568104,0.040700259178876874,0.013888093968480824
1772363476109172000,1.195171875,-0.04843523734509945,0.009930442383885383,0.0464177600428462
1772363476119241700,1.20524169921875,-0.045295770275592805,-0.020600304958224295,0.09150544052571058
1772363476129310700,1.215310791015625,-0.06636369274556636,-0.06250000305473805,0.10068199580237269
1772363476139380700,1.225380615234375,-0.07975216662883758,-0.08057751153707504,0.09207987941280006
1772363476149449700,1.23544970703125,-0.03657821081280708,-0.055465282112359994,0.11327961156889796
1772363476159519700,1.245519775390625,-0.017920272094011307,-0.015727730485796926,0.06858224557787179
1772363476169588700,1.255588623046875,-0.06441372772157192,0.05156885919570923,0.052267508984357114
1772363476179659000,1.265658935546875,-0.12219079390764236,0.0890799669444561,0.05989800386279821
1772363476189727700,1.275727783203125,-0.10664835686087608,0.08296411441266537,0.05169993822947144
1772363476199797800,1.2857978515625,-0.05700841990113258,0.08231938676834107,0.02111453809067607
1772363476209866800,1.29586669921875,0.03299626067280769,0.06175298407971858,-0.006272066006809473
1772363476219936800,1.305936767578125,0.11346855826973914,0.07896832277476787,0.020783406440168618
1772363476230005800,1.316005859375,0.1307026016652584,0.04790682955682277,0.010701865147799253
1772363476240075800,1.32607568359375,0.10058978747427463,-0.0012777648508548736,-0.04075491197556257
1772363476250144800,1.336144775390625,0.02644377028942108,-0.005689736074209213,-0.038106443293392654
1772363476260214800,1.34621484375,-0.028407179316878316,0.02348959665894508,-0.010778291384875774
1772363476270283800,1.35628369140625,-0.0865004718452692,0.0653507163107395,0.03546951891854405
1772363476280353800,1.366353759765625,-0.10371756410598754,0.12874386881291866,0.08040902310237288
1772363476290422800,1.3764228515625,-0.12426117044091224,0.12203005038797855,0.07277838209345937
1772363476300492800,1.386492919921875,-0.1359481011033058,0.12351532050967216,0.06486176375001669
1772363476310561500,1.3965615234375,-0.0879208600372076,0.0912058730572462,0.061711190764605996
1772363476320631800,1.4066318359375,-0.06471008031964302,-0.013829203388094902,0.0030685937903821466
1772363476330700800,1.41670068359375,-0.05113923560678959,-0.09817921920120716,-0.04528437209874391
1772363476340770800,1.426770751953125,-0.0279068285793066,-0.11978723989725112,-0.025952333510667083
1772363476350839800,1.43683984375,0.016626140630245208,-0.09654957217276096,-0.0008206687331199646
1772363476360909800,1.446909912109375,0.03183423115611076,-0.06506663867235184,-0.010106383472681045
1772363476370978800,1.456978759765625,-0.014073533537983893,-0.061741293641924856,-0.08001432469636201
1772363476381048600,1.467048583984375,0.00007598784565925598,-0.018332944548130035,-0.06439823789149522
1772363476391117800,1.477117919921875,0.042836102163791655,0.010560556980967521,-0.030448475886136292
1772363476401187600,1.4871875,0.06033785658478737,0.07563654800355434,-0.01549085299000144
1772363476411256800,1.4972568359375,0.056603930753469464,0.10487608649134636,-0.004018441861122846
1772363476421326800,1.507326904296875,0.0711374830186367,0.12894611338675022,0.010689736318588257
1772363476431395800,1.517395751953125,0.10470306801199912,0.11237141068279742,0.014557225401699542
1772363476441465900,1.5274658203125,0.06265782396495342,0.055204000827670095,-0.03127528209909797
1772363476451534800,1.537534912109375,0.00400280590057373,-0.024185762229561803,-0.07226867900565266
1772363476461604900,1.54760498046875,0.004490881678462028,-0.03335281902551651,-0.05391425327807665
1772363476471673600,1.557673583984375,0.03961480202972889,0.0231663560539484,-0.028842648124694822
1772363476481744000,1.567743896484375,0.07234510524272918,0.09974047716856002,0.0010948094993829727
1772363476491812600,1.5778125,0.03645195408463478,0.1334995389074087,0.008403817338496445
1772363476501883000,1.5878828125,-0.047019525328278536,0.08956628915667533,-0.004107143057882786
1772363476511951600,1.59795166015625,-0.06893500453829765,0.05051029005348682,-0.000991787516325712
1772363476522022000,1.60802197265625,-0.07585574371218681,0.005936404311656951,-0.013123977728188038
1772363476532090600,1.618090576171875,-0.12174188109636307,-0.014563362881541251,-0.04110401767417788
1772363476542160600,1.62816064453125,-0.16088088230788708,0.007472527837753295,-0.03269932355284691
1772363476552230000,1.63822998046875,-0.17267478047609328,0.027832009777426718,-0.015615940674394369
1772363476562299600,1.648299560546875,-0.17238953379392624,0.03428045526444912,-0.024159020353108643
1772363476572369000,1.658368896484375,-0.13914718940556048,0.060069561037421226,-0.029023703780025244
1772363476582438700,1.668438720703125,-0.0880249049335718,0.04928513217270374,-0.033551264207065105
1772363476592508000,1.6785078125,-0.026809096470475195,0.04908990186154842,0.0017675941944122313
1772363476602577700,1.68857763671875,0.01955225721001625,0.007263269001245499,-0.002343786647170782
1772363476612647000,1.69864697265625,0.03891746741533279,-0.003515314644575119,0.005245061046630144
1772363476622716700,1.708716552734375,0.05750993968248367,-0.01195522620975971,0.040702012744545935
1772363476632786000,1.718785888671875,0.11637772371470928,-0.04356792356967926,0.02988017447888851
1772363476642856000,1.72885595703125,0.1514940452814102,-0.0832283183068037,0.006241232477128505
1772363476652924700,1.738924560546875,0.17207213840782642,-0.11063713423609733,-0.027140958773344753
1772363476662995000,1.748994873046875,0.11870412083566188,-0.06771510735452174,-0.05488952805101871
1772363476673063700,1.759063720703125,-0.0031178397595882416,-0.0014940379500389099,-0.07909910954758524
1772363476683134000,1.769134033203125,-0.08560790691971779,0.08978314677774905,-0.04836407180503011
1772363476693202700,1.77920263671875,-0.13734803102910517,0.07021101582348346,-0.05861147118359804
1772363476703272700,1.789272705078125,-0.06729483611583709,0.06649404112696647,-0.029380262132734057
1772363476713341200,1.799341064453125,0.05759235726892948,0.09212649503350258,0.005207505515217781
1772363476723411200,1.8094111328125,0.11101415085494518,0.08414601767361164,0.022396979116648435
1772363476733480200,1.819480224609375,0.09932663567066193,0.08513444418907165,0.04716697097495198
1772363476743550000,1.829550048828125,0.03528817100226879,0.06045125383138656,0.03776084472611546
1772363476753619200,1.839619140625,-0.03229483440518379,0.05673077200353145,0.031048633736371994
1772363476763689000,1.84968896484375,-0.06003975042104721,0.033553894555568696,0.02601853061467409
1772363476773759200,1.85975927734375,-0.01716974598765373,-0.00915069018304348,-0.00012099603116512298
1772363476783828200,1.869828125,-0.0028606501281261444,-0.05415887568891048,-0.011254384464025496
1772363476793897200,1.879897216796875,-0.057739656785130496,-0.06418050348758697,-0.0014558978967368602
1772363476803967200,1.88996728515625,-0.1328156482964754,-0.041807928159832954,-0.016535247476398944
1772363476814036200,1.9000361328125,-0.16528934639990328,-0.01967909846007824,-0.03304915990382433
1772363476824106200,1.910106201171875,-0.14540215814709662,0.018646248281002045,-0.036381226935982704
1772363476834175200,1.92017529296875,-0.06974982805252075,0.08246025654375552,-0.020997925973683593
1772363476844245200,1.930245361328125,-0.03793079446554184,0.06768471221625805,-0.04541764308959245
1772363476854314000,1.94031396484375,-0.044263504618406294,0.03615384792089462,-0.06973097722157835
1772363476864384300,1.95038427734375,-0.056141573938727374,0.04119359565377235,-0.030785160494595763
1772363476874454300,1.960454345703125,0.0018909283131361007,0.06381400826275348,0.0006442892529070377
1772363476884523300,1.970523193359375,0.04433364724516868,0.09194003255069255,0.007600099740177392
1772363476894593300,1.98059326171875,0.04088438357412815,0.11865677456259727,-0.0019067104041576384
1772363476904662000,1.990662109375,0.013142390167713165,0.11368541589081287,-0.022687924887239933
1772363476914732300,2.000732177734375,0.0021054478466510772,0.04722001633644104,-0.04939078450426459
1772363476924801000,2.010801025390625,0.02702770765721798,0.02688157718479633,-0.024048984107375142
1772363476934870300,2.020870361328125,0.016159692162275315,0.007757774519920348,-0.017339549596607683
1772363476944940000,2.03093994140625,-0.020668694019317625,-0.019311434191465377,-0.01080737134888768
1772363476955009300,2.04100927734375,-0.055931730580329894,-0.014705986222624779,0.02608238963112235
1772363476965079000,2.0510791015625,-0.0835813695281744,0.005870937860012054,0.038255350244790313
1772363476975149000,2.061149169921875,-0.06777882024049758,0.0473784217685461,0.04453136177435517
1772363476985218000,2.071218017578125,-0.03050970455408096,0.0591600449770689,0.048599634126573796
1772363476995288000,2.0812880859375,-0.0393920991897583,0.020106968483328817,0.033409225387871264
1772363477005357300,2.091357421875,-0.07487842311263083,-0.040924715584516526,0.002059709008783102
1772363477015427000,2.101427001953125,-0.055119829675555225,-0.0804699595093727,-0.020255729304254053
1772363477025496300,2.111496337890625,-0.029629999110102653,-0.11680033304095268,-0.045659196760505436
1772363477035566000,2.121566162109375,0.019800094491243363,-0.09411562302410602,-0.028369623785465953
1772363477045635300,2.13163525390625,0.08641396260559558,-0.026264322069287298,0.039326924999058245
1772363477055705000,2.141705078125,0.12211071440875529,-0.004822890111804009,0.025796996818482874
1772363477065774000,2.151774169921875,0.1239490357518196,-0.005887304472923278,0.0006283610314130782
1772363477075844000,2.161843994140625,0.12584756284952162,-0.007314122405648231,-0.015359043303877114
1772363477085913000,2.1719130859375,0.10615385134220123,0.0021539631634950635,-0.05801935050934553
1772363477095982000,2.181982177734375,0.08163023546040057,0.04530629166960716,-0.05591331814080477
1772363477106052000,2.192052001953125,0.05150806891918182,0.05922843403816223,-0.039063451757282014
1772363477116121000,2.20212109375,0.027584757018089292,0.05549392368495464,-0.0077947455294430255
1772363477126191000,2.212191162109375,-0.017684125250577925,0.02174655238389969,0.03065612728744745
1772363477136261000,2.22226123046875,-0.006194762986898422,0.006771101570129394,0.07010711705759168
1772363477146330000,2.232330078125,-0.025794950991868973,0.0009054244071245193,0.07882482265084982
1772363477156400000,2.242400146484375,-0.06832008751034736,-0.02404956862926483,0.07256839260458946
1772363477166469000,2.25246923828125,-0.09262041603028774,-0.022219430592656134,0.08441840487420559
1772363477176539100,2.2625390625,-0.06354980436861514,0.002264437800645828,0.07918342683017253
1772363477186608000,2.272608154296875,-0.01745733075737953,0.005422025048732757,0.06823445505350828
1772363477196678100,2.28267822265625,-0.01907353378236294,0.019924597653746604,0.059116790357232094
1772363477206747100,2.2927470703125,-0.031176059508323667,0.01828384470939636,0.0495002362281084
1772363477216816000,2.302816162109375,-0.0483937362909317,0.033626959791779515,0.03949935895651579
1772363477226886100,2.31288623046875,-0.034192192459106444,0.05493921241164207,0.04986760823577642
1772363477236956200,2.3229560546875,-0.05532382781505584,0.041975685942173005,0.008210194462537766
1772363477247025200,2.333025146484375,-0.04017302043437958,0.06830372089743614,0.0045262452527880664
1772363477257095200,2.34309521484375,0.01757715774476528,0.09284078078269958,0.03331511736363172
1772363477267164200,2.3531640625,0.04204933570027351,0.061814358878135675,0.035774054823070764
1772363477277234200,2.363234130859375,0.011173720443248748,0.023157003703713416,0.008394318857789039
1772363477287303200,2.37330322265625,-0.021809096226096152,-0.02046411135792732,0.001575286492705345
1772363477297373200,2.383373291015625,-0.025618425381183623,-0.035874446457624436,0.0014813245989382267
1772363477307442200,2.393442138671875,0.024491467177867886,-0.023663199660182,0.010223726242035627
1772363477317511200,2.40351123046875,0.06089139881432056,0.004400865307450294,0.0045525487378239625
1772363477327581200,2.413581298828125,0.050469958043098444,-0.01690320400595665,-0.013876695791631937
1772363477337650200,2.423650146484375,0.09847206466794013,-0.013395488145947456,0.006068798519670963
1772363477347720200,2.43372021484375,0.1340577573120594,-0.01507189692556858,0.008096504954993724
1772363477357789000,2.443788818359375,0.07531447644233703,-0.024390929412841794,-0.06813640150651336
1772363477367859200,2.453859130859375,-0.02986146977841854,-0.04104278900623321,-0.13782383184731006
1772363477377929200,2.46392919921875,-0.08294657875597476,-0.021417466560006142,-0.11138313029780983
1772363477387998200,2.473998291015625,-0.05239478862583637,-0.004921089789271354,-0.07101064176857472
1772363477398067200,2.484067138671875,0.003898176482319832,0.024219664499163625,-0.045360798335820435
1772363477408137000,2.494136962890625,0.02113864961862564,0.03028349458277225,-0.02505421562716365
1772363477418207200,2.504207275390625,0.018286182796955108,0.025181203007698057,0.0013571136973798273
1772363477428276000,2.51427587890625,0.038059389281272886,0.04189034574627876,0.06697144938036799
1772363477438345200,2.52434521484375,0.04886953710913658,0.07703355531990527,0.10754399052634835
1772363477448415000,2.5344150390625,0.020281740528345107,0.09606558804810046,0.07740940289497375
1772363477458484200,2.544484130859375,0.0004968436062335968,0.09693769470751284,0.048518385583907364
1772363477468554200,2.55455419921875,-0.07141571543812751,0.04392565096616745,0.03968070687279105
1772363477478623200,2.564623291015625,-0.13783727585077285,-0.02875087818801403,0.046948944310098883
1772363477488693200,2.574693359375,-0.1740033987313509,-0.07974164523482322,0.056602469448745245
1772363477498762200,2.58476220703125,-0.09214753782153129,-0.06854103678464889,0.06127586808726191
1772363477508832300,2.594832275390625,0.028686580780148505,-0.0455003529369831,0.027503216214478016
1772363477518901000,2.60490087890625,0.06062076517939567,-0.0324731135815382,-0.02297887065783143
1772363477528971300,2.61497119140625,0.03945055137872696,-0.006517419070005416,-0.019538520945608616
1772363477539040000,2.6250400390625,0.02804360670149326,0.011722001975774764,-0.022229805856198073
1772363477549110300,2.6351103515625,-0.00279459915459156,0.017518705555796623,-0.041266660889983174
1772363477559179000,2.645178955078125,-0.004554010042548179,-0.0005213935256004333,-0.04175371375456452
1772363477569249300,2.655249267578125,0.01274959145784378,-0.01778933919072151,-0.014094137934595345
1772363477579318000,2.665318115234375,0.035569326031208034,-0.0425812506198883,-0.01415843534246087
1772363477589388000,2.675387939453125,0.05056581963300705,0.02311667169332504,0.008262363041192293
1772363477599457300,2.685457275390625,0.06284896262288094,0.0804132608860731,0.03354264250919223
1772363477609527000,2.695527099609375,0.04300678255558014,0.09996201096475124,0.055135757897049185
1772363477619596300,2.70559619140625,-0.027699323308467864,0.05891103865206241,0.008293050440400839
1772363477629666000,2.715666015625,-0.06294073255956173,0.01774140839576721,-0.019107143791019916
1772363477639735300,2.7257353515625,-0.04187631722092628,-0.01983984197974205,0.007009294240176677
1772363477649805000,2.73580517578125,-0.019386837515234946,-0.053766076979041094,0.033132308142632245
1772363477659874300,2.745874267578125,-0.007736731731891632,-0.010227379503846168,0.023390227937698363
1772363477669944000,2.755944091796875,-0.0008855506628751755,0.01656768844127655,-0.013870412181317805
1772363477680013000,2.766012939453125,-0.005766308441758156,0.01570844126343727,-0.002274666933715343
1772363477690083300,2.776083251953125,-0.039242461585998534,-0.01920095955431461,0.01621522174179554
1772363477700152000,2.786152099609375,-0.04836041854321956,-0.05166881243884563,0.0049789574563503265
1772363477710222300,2.796222412109375,-0.009231354203820229,-0.024690204620361325,0.02319645893126726
1772363477720291600,2.80629150390625,0.030979660153388974,-0.015132687202095985,0.006419073262065649
1772363477730361300,2.816361328125,0.02120002441704273,-0.001325111123919487,-0.030490853723138568
1772363477740430600,2.8264306640625,0.024727029499411583,-0.0048655602097511285,-0.06773819596916436
1772363477750500600,2.83650048828125,0.01963233670890331,-0.01374386319220066,-0.10056772177293896
1772363477760569600,2.846569580078125,0.025200492230057714,-0.0003869534909725189,-0.0956087841913104
1772363477770639600,2.8566396484375,0.08247720767855644,0.04562368705570698,-0.0995769571699202
1772363477780708600,2.86670849609375,0.11528583682477474,0.05861468605399132,-0.10810966158509254
1772363477790778600,2.876778564453125,0.15618015727102755,0.08251286351382732,-0.062304188221693035
1772363477800847600,2.88684765625,0.1572632763326168,0.05443652358651161,-0.06275047068446875
1772363477810917600,2.896917724609375,0.07620411875844,0.01635024629831314,-0.05789367830306291
1772363477820986600,2.906986572265625,0.01347498312294483,-0.015442483803629874,-0.0181808227263391
1772363477831056600,2.917056640625,0.0019493805021047592,-0.03482464514374733,0.00446618562862277
1772363477841125400,2.92712548828125,0.010392799198627472,-0.03279284705519676,0.024684797792881727
1772363477851195600,2.937195556640625,0.021759411865472793,-0.004342413118481636,0.055456368153542275
1772363477861264400,2.947264404296875,-0.005469371321797371,0.011261983248591423,0.06725581927970051
1772363477871334700,2.957334716796875,-0.016771686580777167,0.03558569264411926,0.10083762475550175
1772363477881403600,2.967403564453125,-0.05861059440076351,0.020557634860277174,0.09857757086902856
1772363477891473400,2.977473388671875,-0.08203998530507087,-0.005634791016578674,0.09187792709991335
1772363477901542700,2.987542724609375,-0.09472878648638725,-0.037973464563488955,0.06530103195011615
1772363477911612400,2.9976123046875,-0.04931961896419525,0.005664017111063003,0.0726179308347404
1772363477921681700,3.007681640625,-0.00729717127084732,0.06533961039483546,0.08879749674126505
1772363477931751400,3.01775146484375,0.047452656048536296,0.09977379491627215,0.10820479252263902
1772363477941820700,3.027820556640625,0.09681260702311992,0.057335167637467384,0.0781543760433793
1772363477951890400,3.037890380859375,0.1428676712334156,0.012363807010650634,0.042903760572522875
1772363477961959700,3.047959716796875,0.1613157665938139,-0.040946927416324615,0.002555675832182169
1772363477972029400,3.058029541015625,0.16554010629057883,-0.06937105786800384,-0.018907675696164368
1772363477982098700,3.0680986328125,0.1401046362608671,-0.0860340233772993,-0.027228052534908054
1772363477992168700,3.078168701171875,0.09897592253684998,-0.06996434758603573,-0.028183307433128354
1772363478002237400,3.088237548828125,0.09237140970528125,-0.06160568456351757,-0.04051744995787739
1772363478012307700,3.0983076171875,0.15516834987998007,-0.05083060804903507,-0.05227671520411968
1772363478022376400,3.10837646484375,0.12555822451412676,-0.09534837968945503,-0.08413988019376993
1772363478032446700,3.11844677734375,0.0342985754430294,-0.12310206353366374,-0.0830332341261208
1772363478042515500,3.128515380859375,0.0270791455835104,-0.06280161634981632,-0.029665508814901112
1772363478052585700,3.138585693359375,0.036081367206573484,0.008598316997289657,-0.018579028263688086
1772363478062654500,3.148654541015625,0.011667056918144226,0.06518178948462008,-0.05585150495097041
1772363478072724500,3.158724365234375,-0.02008651021718979,0.0668675506144762,-0.0588407498948276
1772363478082793500,3.16879345703125,-0.035890813070535654,-0.024321955829858778,-0.0871101281762123
1772363478092863500,3.178863525390625,-0.005208674558997154,-0.04768938741385936,-0.05210661933422088
1772363478102932500,3.188932373046875,0.0333487273722887,0.009803016611933708,-0.0007033259637653827
1772363478113002500,3.19900244140625,0.05678220992982387,0.07004033543169498,0.013048428273946045
1772363478123071700,3.20907177734375,0.06136427702307701,0.1121066222667694,0.010197276626527309
1772363478133141500,3.2191416015625,0.045696752291917796,0.10120762711167335,-0.008074293123185633
1772363478143210800,3.229210693359375,0.026696283745765683,0.048264556953310965,-0.03268134950473905
1772363478153280500,3.239280517578125,-0.01606792222559452,0.03091244013607502,0.010243453855812549
1772363478163349500,3.249349609375,-0.04506663769483566,-0.028229484662413595,0.07007321478798985
1772363478173419500,3.25941943359375,-0.0966571242004633,-0.06254267315268516,0.11607830237671732
1772363478183488500,3.269488525390625,-0.1260007075846195,-0.014606032979488372,0.17889570081755518
1772363478193558500,3.27955859375,-0.14325170211493968,0.025874445968866348,0.20012860459089277
1772363478203627500,3.28962744140625,-0.17941314882040021,0.05386953735351562,0.1853314329534769
1772363478213697800,3.29969775390625,-0.1777022532492876,0.062494742357730865,0.14662030176520346
1772363478223766500,3.3097666015625,-0.12101122873425484,0.06352700801491737,0.1304873514793813
1772363478233836500,3.31983642578125,-0.09107318658828735,0.016166706424951553,0.06682970282211899
1772363478243905500,3.329905517578125,-0.046156186497211454,-0.03696633334755897,0.008904168076068163
1772363478253975600,3.3399755859375,0.021019407153129575,-0.05065642052590847,-0.02574512050077319
1772363478264044500,3.35004443359375,0.08230828085243702,-0.024613047730922696,-0.028193974957615137
1772363478274114600,3.360114501953125,0.09171323805749416,-0.022849545189738273,-0.029589520969241855
1772363478284183600,3.37018359375,0.09387655357122421,-0.0034790742874145505,-0.04050619791150093
1772363478294253600,3.380253662109375,0.11975976736843585,0.029379239219427106,-0.014583821147680281
1772363478304322600,3.390322509765625,0.07484744345247744,0.05599368990063667,-0.0031746845133602615
1772363478314392600,3.400392578125,0.012090250766277313,0.06822597948610783,-0.006915916868299245
1772363478324461600,3.410461669921875,-0.01779810701906681,0.07568564784228801,0.0337234059035778
1772363478334531600,3.420531494140625,-0.03601239362359047,0.0759907682687044,0.07058774018138647
1772363478344600600,3.4306005859375,-0.03061082684099674,0.02531272043287754,0.05804653077721596
1772363478354670600,3.440670654296875,-0.03503858015537262,0.012094926941394805,0.007524111894518137
1772363478364739600,3.450739501953125,-0.054527709001302715,0.00622749621272087,-0.030029665952175853
1772363478374809600,3.4608095703125,-0.07410626969635487,0.00649111558496952,-0.0187418176099658
1772363478384878600,3.470878662109375,-0.13415478794574737,-0.013014379873871803,0.006126520056277513
1772363478394948600,3.480948486328125,-0.11364274579286575,-0.045725978386402126,0.02002089763507247
1772363478405017600,3.491017578125,-0.014525368958711623,-0.07646364647746086,0.007667027496546506
1772363478415087400,3.50108740234375,0.07382862179875374,-0.13148001577854157,-0.036883185108751056
1772363478425156600,3.511156494140625,0.13545944080352781,-0.13391396492719648,-0.05290609914883971
1772363478435226600,3.5212265625,0.14960428601205347,-0.0945394013941288,-0.04201397212594747
1772363478445295600,3.531295654296875,0.09904723420739173,-0.03358078256249428,-0.04339578187316656
1772363478455365600,3.54136572265625,0.057660746330022807,0.024055998370051384,-0.024250498028844592
1772363478465434600,3.5514345703125,0.050586862421035765,0.04792144260406494,-0.015567717618495226
1772363478475504600,3.561504638671875,0.05831657989025116,0.05570318252146244,-0.013169132044166325
1772363478485573600,3.57157373046875,0.10792787527740001,0.051914311632514,-0.023645810133963822
1772363478495643600,3.5816435546875,0.13335750008821487,0.02538110949397087,-0.040387978359311814
1772363478505712400,3.59171240234375,0.11309037260711192,0.009886018720269202,-0.004415478354692459
1772363478515782700,3.60178271484375,0.07347030988037585,-0.00895896700322628,0.03417465680241585
1772363478525851400,3.611851318359375,0.0279722950309515,-0.031164953592419622,0.06553411005362868
1772363478535921700,3.621921630859375,0.006191840377449989,-0.008941431346535682,0.10442600463628768
1772363478545990400,3.631990478515625,0.01590542514026165,0.026669980260729788,0.11176496922224759
1772363478556060700,3.642060791015625,0.0329740488409996,0.05113397490978241,0.087382076985389
1772363478566129700,3.652129638671875,0.025750527328252792,0.03391805169284343,0.032397271866351364
1772363478576199400,3.662199462890625,0.029180501776933668,-0.009161211577057838,0.000996317560970783
1772363478586268700,3.6722685546875,0.025831191349029538,-0.05554068543612957,-0.02462400751635432
1772363478596338400,3.68233837890625,0.008590133690834044,-0.06588438479602336,-0.040994273689389224
1772363478606407700,3.69240771484375,-0.05090191971957683,-0.034306174227595326,-0.026652006212621926
1772363478616477400,3.7024775390625,-0.10913315941393374,-0.014396774142980575,-0.00873626416325569
1772363478626546700,3.712546630859375,-0.1388718795955181,-0.002921440404653549,-0.00837663707062602
1772363478636616400,3.722616455078125,-0.11956453705728054,0.017100772404670714,-0.003483019810169935
1772363478646685700,3.732685791015625,-0.06326572673022747,0.020865093374252318,0.013092851937562227
1772363478656755500,3.74275537109375,0.015273556977510452,0.03436754902601242,0.003431435753405094
1772363478666824700,3.75282470703125,0.08167991982102393,0.05362053102850914,0.015655834293365478
1772363478676894700,3.762894775390625,0.09592822540402411,0.07763327477872371,0.023140198699384926
1772363478686963500,3.77296337890625,0.0745662884235382,0.07570084541141986,0.03880801569148898
1772363478697033700,3.78303369140625,0.03241992208957672,0.06727087071835994,0.06669862378835678
1772363478707102500,3.7931025390625,0.013227730363607406,0.036711481803655625,0.09081789665296673
1772363478717176300,3.80317626953125,0.0220814834266901,-0.014574468797445296,0.11286840041950344
1772363478727245300,3.813245361328125,0.040245501148700714,-0.0704360567510128,0.053541474442929025
1772363478737315300,3.8233154296875,0.10467968713641167,-0.08921674506664276,0.03996799938157201
1772363478747384300,3.83338427734375,0.17613222745358942,-0.11520108115077018,0.016834522683918475
1772363478757454300,3.843454345703125,0.16488135012090205,-0.09543079727590084,-0.01892448070049286
1772363478767523300,3.8535234375,0.0832324099600315,-0.05747896002233028,-0.04081672516539692
1772363478777593300,3.86359326171875,-0.0012619827598333358,-0.04422551069557667,-0.07653320458233356
1772363478787662600,3.87366259765625,-0.050288171735405916,-0.04608195221722126,-0.07196063596978783
1772363478797732400,3.883732421875,-0.05585515821278095,-0.03219546568393707,-0.040017391481250525
1772363478807801600,3.893801513671875,-0.010526070189476013,0.0014297405421733855,-0.021367051547020673
1772363478817871400,3.903871337890625,0.033953707528114316,0.04476677796542644,0.014830197124183177
1772363478827940400,3.9139404296875,0.06468962205350398,0.09116086487174034,0.06962751684710383
1772363478838010400,3.92401025390625,0.08564414727687836,0.12182605224847792,0.10796133915558456
1772363478848079400,3.934079345703125,0.04844517421722412,0.11074468626379966,0.07407192903533577
1772363478858149400,3.9441494140625,-0.029531214910745618,0.09746610249578952,0.047911067340523
1772363478868218400,3.95421826171875,-0.045540100425481796,0.08769757267534732,0.049767508862167596
1772363478878288400,3.964288330078125,-0.0515700282394886,0.06601824030876159,0.08451207450702786
1772363478888357400,3.974357421875,-0.06984393607676029,-0.020143208840489386,0.045063861215859646
1772363478898425300,3.98442529296875,-0.06623685149550437,-0.023194413104653356,0.046792584704607725
1772363478908494600,3.99449462890625,-0.06508358980715274,-0.05311199698448181,0.02615267838835716
1772363478918564400,4.004564453125,-0.01737725125849247,-0.038411855980753896,0.02880889198556542
1772363478928633300,4.01463330078125,0.01961421653032303,-0.005748188263177871,-0.0008392273031175136
1772363478938703400,4.024703369140625,0.015075404056906699,0.0038987610042095183,-0.05899316397756338
1772363478948772400,4.0347724609375,-0.022791093000769615,-0.00367255103290081,-0.09211962690129875
1772363478958842600,4.044842529296875,-0.058310150149464605,-0.03969020535349846,-0.12800985544994473
1772363478968911400,4.054911376953125,-0.060819502621889114,-0.033949031352996824,-0.12510770426765083
1772363478978981400,4.0649814453125,-0.03507365146875381,-0.011807342171669006,-0.12848711757287382
1772363478989050400,4.07505029296875,0.006970423534512519,0.03463993622660637,-0.10345745186507702
1772363478999120400,4.085120361328125,0.03388590298891067,0.02842003879845142,-0.08272475269883871
1772363479009189400,4.095189453125,0.04856441668272018,0.016838322076201437,-0.07086261160001159
1772363479019259400,4.10525927734375,0.0543453381717205,0.0047691140979528425,-0.06387260658219457
1772363479029328400,4.115328369140625,0.05746142436563968,-0.0010579846203327178,-0.08332432602718472
1772363479039398400,4.1253984375,0.052880526316165924,0.014245382973551749,-0.07088014725670218
1772363479049468400,4.135468505859375,-0.007328735452890396,0.025962124252319335,-0.049289808347821235
1772363479059537400,4.145537353515625,-0.06305646789371967,0.03187047151327133,0.0023019933320581913
1772363479069607400,4.155607421875,-0.0851145704448223,0.07302782680988311,0.03719692723304033
1772363479079676400,4.165676513671875,-0.04326221862137317,0.12692425217032433,0.0757395699866116
1772363479089746400,4.175746337890625,-0.005077741655707359,0.07795008564293385,0.0310102014221251
1772363479099815400,4.1858154296875,-0.008312485793232917,0.014622984114289283,-0.005302344191819429
1772363479109885400,4.195885498046875,0.02850596351623535,-0.027257424759864805,0.003184767515957355
1772363479119954400,4.205954345703125,0.04744739535152912,-0.05064999078512192,0.020918869388103483
1772363479130024400,4.2160244140625,0.03517185114622116,-0.044133156237006185,0.03867094530835748
1772363479140093400,4.226093505859375,0.008453355568647384,-0.05190145215094089,0.027138620685786007
1772363479150163500,4.23616357421875,0.005184709161520004,-0.04156359800994396,0.0230225636690855
1772363479160232200,4.246232177734375,0.016599837145209313,-0.041372459352016444,0.05061272751465439
1772363479170302500,4.256302490234375,0.02188625311553478,-0.028031331741809842,0.08183569490462542
1772363479180371200,4.26637109375,0.029180501776933668,0.016730770048499106,0.10596621981561183
1772363479190441500,4.27644140625,0.049392099678516384,0.03425824343264103,0.07858253832757472
1772363479200510500,4.286510498046875,0.0845440770804882,0.04902911158502102,0.0455016681112349
1772363479210580200,4.296580322265625,0.08289338726401328,0.027122400203347205,0.0228929459400475
1772363479220650500,4.306650390625,0.06100128892958164,0.022754852643609047,0.04412745714858174
1772363479230719200,4.31671923828125,0.02060322756767273,-0.008448679393529892,0.08834113127589226
1772363479240789500,4.32678955078125,-0.04071253413856029,-0.04846797057092189,0.08303542608320713
1772363479250858200,4.336858154296875,-0.03765957630872726,-0.03574468259811401,0.08811068352088332
1772363479260928500,4.346928466796875,0.009326046749949454,-0.006878069075942039,0.10317498166188598
1772363479270997200,4.356997314453125,0.029912323182821273,0.03184825968146324,0.07854936671033501
1772363479281067300,4.3670673828125,0.05157061276137829,0.06547112782001495,0.04145882246121764
1772363479291136500,4.377136474609375,0.057498833766579625,0.07444353882670401,0.03384513258710503
1772363479301206300,4.387206298828125,0.03853109844624996,0.07257716043293476,0.043249213009327644
1772363479311275500,4.397275634765625,-0.021232173120975494,0.018109072664380072,0.009423077383637428
1772363479321345300,4.40734521484375,-0.03421615785658359,-0.022996844705939292,-0.05266133060753345
1772363479331414500,4.41741455078125,-0.003317746245861053,-0.015556465572118759,-0.09084799953028559
1772363479341484300,4.427484375,0.013373860836029051,0.008007949888706206,-0.09925196299925446
1772363479351553500,4.437553466796875,-0.010906009417772292,0.01775309883356094,-0.10300006348639726
1772363479361623300,4.447623291015625,-0.0197679457873106,0.036732524591684336,-0.0968253203742206
1772363479371692500,4.457692626953125,-0.01065817213654518,0.0420452440470457,-0.10631824812367557
1772363479381762600,4.467762451171875,-0.009817629659175871,0.016292963153123854,-0.13597893463298677
1772363479391832300,4.477832275390625,0.018165771287679672,-0.006150923845171928,-0.11827595855146646
1772363479401901600,4.487901611328125,0.048001522102952,0.03061082684099674,-0.07327946348339319
1772363479411971300,4.497971435546875,0.0336059170037508,0.05105506445467472,-0.04074760545194149
1772363479422040600,4.50804052734375,0.023062895679473876,0.0831581756800413,0.002098871975392103
1772363479432110300,4.5181103515625,0.005795534536242485,0.05586684865057468,-0.014638327813893556
1772363479442179300,4.528179443359375,-0.020269465568661688,-0.02019756937623024,-0.045223143430799244
1772363479452249300,4.538249267578125,0.010493336963653564,-0.06798983264267444,-0.04407485017850995
1772363479462318300,4.548318359375,0.06876900032162665,-0.06879939545989036,-0.019035101468116045
1772363479472388600,4.558388671875,0.08618892167806624,-0.0599134936928749,-0.022200872022658587
1772363479482457300,4.568457275390625,0.045486908933520316,-0.03411211296021938,-0.04756298455521464
1772363479492528400,4.5785283203125,-0.041889761224389074,0.02755611544549465,-0.05860869470462203
1772363479502598400,4.588598388671875,-0.06948153250515461,0.017976970717310903,-0.03531038283407688
1772363479512667400,4.59866748046875,-0.0692331107020378,-0.002777063497900963,-0.033099867177754635
1772363479522737400,4.6087373046875,0.008560907596349716,0.013656184908747673,-0.023078823900967833
1772363479532806400,4.618806396484375,0.06388824254274368,0.044917584612965585,0.024727467890828848
1772363479542876400,4.62887646484375,0.04647533544898033,0.03426116604208946,0.04582914649993181
1772363479552945400,4.6389453125,0.013785364246368408,0.020059622210264205,0.06210691208392381
1772363479563015400,4.649015380859375,0.0183563254237175,0.01481003111898899,0.08149155764207243
1772363479573084400,4.65908447265625,0.015310966378450393,0.044675592550635336,0.09430705394297838
1772363479583154400,4.669154541015625,-0.005180617508292198,0.05778700305819511,0.0895984378606081
1772363479593224200,4.67922412109375,0.018601824617385864,0.04475684109330177,0.09820464590340852
1772363479603293400,4.68929345703125,0.023302549654245375,0.0308913973480463,0.13285554191544652
1772363479613363500,4.699363525390625,-0.061470660006999966,-0.022941899648308752,0.11285992485210299
1772363479623432400,4.709432373046875,-0.1259884326249361,-0.022830255967378615,0.10062705074474215
1772363479633502500,4.71950244140625,-0.12455109329819679,-0.0048643911659717555,0.12043693597763776
1772363479643571500,4.729571533203125,-0.12467851907014846,0.031238018828630445,0.09896408596858382
1772363479653641500,4.739641357421875,-0.13847615827620027,0.03165010676085949,0.07583455479368567
1772363479663710500,4.74971044921875,-0.15654665249586106,0.04504384134113788,0.05809080831035971
1772363479673780500,4.759780517578125,-0.14138415467739104,0.04323416157066822,0.044280601883679625
1772363479683849200,4.76984912109375,-0.06128770465552807,0.05407996523380279,0.022414660903811452
1772363479693919500,4.77991943359375,0.023901100069284437,0.02688917596936226,-0.02212386126369238
1772363479703988200,4.78998828125,0.08151566917002201,-0.00279635272026062,-0.06184840727820992
1772363479714058500,4.80005859375,0.10652210013270377,-0.040996611776947973,-0.10966755855157971
1772363479724124200,4.810124267578125,0.08471943364739418,-0.05386076952517032,-0.08206438909396528
1772363479734193200,4.820193115234375,0.0510907202899456,-0.023866028755903244,-0.03446910970434546
1772363479744263200,4.83026318359375,0.004085223487019538,0.02027647983133793,-0.03367766706570983
1772363479754332200,4.840332275390625,-0.06282558174729347,0.05127192207574844,-0.0029492051944136617
1772363479764402200,4.850402099609375,-0.058905777955055236,0.07766542348265647,0.036700522018224
1772363479774471200,4.86047119140625,-0.03347673766613007,0.11270108102858066,0.049706718585640186
1772363479784541200,4.870541259765625,0.02111117708981037,0.15295067383050917,0.032812136277556414
1772363479794610200,4.880610107421875,0.0743266344487667,0.1293956107199192,0.01306917880102992
1772363479804680200,4.89068017578125,0.10077157378196716,0.032948914399743075,-0.030502105769515037
1772363479814749200,4.900749267578125,0.05675941357612609,-0.07043781031668185,-0.06647621320933103
1772363479824819200,4.910819091796875,-0.000009352350234985351,-0.11743161668181419,-0.06720116648301482
1772363479834889200,4.92088916015625,-0.031326866155862804,-0.1235614977389574,-0.06529372542649507
1772363479844958000,4.9309580078125,-0.042537996000051495,-0.10608604680299759,-0.084014792509377
1772363479855028200,4.9410283203125,-0.03923194019198417,-0.06437690284252166,-0.07363207631334662
1772363479865097000,4.951096923828125,-0.03339724268913269,-0.008858429238200188,-0.028497634079307315
1772363479875167200,4.961167236328125,0.002452069327235222,0.04291150548756122,0.018536504296213386
1772363479885236200,4.971236328125,0.01808744535446167,0.028521161085367203,-0.022212416329979896
1772363479895306000,4.981305908203125,0.033605332481861115,0.04207447014153003,-0.04843012277856469
1772363479905375200,4.991375244140625,0.09311550607085227,0.06093816056549549,-0.028376638048142194
1772363479915445000,5.001445068359375,0.1572626918107271,0.08408522739708423,-0.024886311714351177
1772363479925514200,5.01151416015625,0.15935995635092257,0.0657739101588726,-0.031973785757273436
1772363479935584000,5.021583984375,0.10463058729767799,0.005758125135302544,-0.022947452606260774
1772363479945653200,5.0316533203125,0.04991466224789619,-0.02718962022066116,0.010021920059621334
1772363479955723000,5.041722900390625,0.02332709957361221,-0.01364975516796112,0.05323138558045029
1772363479965793000,5.05179296875,0.019216157123446462,0.04643967961370945,0.10939634039476513
1772363479975862300,5.0618623046875,-0.02131166809797287,0.06333996101021766,0.1192147007063031
1772363479985932000,5.07193212890625,-0.06218085410296917,0.034515433064103124,0.0949377530619502
1772363479996001300,5.082001220703125,-0.07580781291723251,0.0392307711482048,0.10723097905442118
1772363480006071000,5.092071044921875,-0.06069558398127556,0.02366436870396137,0.12028174541592597
1772363480016140300,5.102140380859375,-0.02859188823401928,0.0007008417457342147,0.07675649194419383
1772363480026210000,5.1122099609375,-0.02721884631514549,-0.009070610684156417,0.02737842079102993
1772363480036279300,5.122279296875,-0.056541386911273,-0.022145780834555626,0.011617518687993288
1772363480046349000,5.13234912109375,-0.08110299671590328,-0.02885492308437824,0.0038598902985453602
1772363480056418300,5.142418212890625,-0.05399930121302604,-0.004211480215191841,0.04024827762767672
1772363480066488300,5.15248828125,-0.01706745465695858,-0.000692073917388916,0.07071209721341729
1772363480076558000,5.16255810546875,0.0060965633094310755,-0.0010743512332439423,0.04019245578721165
1772363480086627300,5.17262744140625,0.04290332218110561,0.019894202515482903,0.026404022800922394
1772363480096697000,5.182697021484375,0.10177052169144153,0.0707493604838848,0.032873218815028665
1772363480106766300,5.192766357421875,0.13472878844141958,0.07182312719523906,0.023172931925207377
1772363480116836000,5.202836181640625,0.10133154575228691,0.035084757384657855,-0.05480053459331393
1772363480126905000,5.212905029296875,0.08362520866990089,0.01824818887412548,-0.0644081747636199
1772363480136975000,5.22297509765625,0.11264029075205326,0.021689269238710403,-0.014114742331206798
1772363480147044000,5.233044189453125,0.10907762983441352,0.014189268872141838,-0.009047083678096533
1772363480157114400,5.2431142578125,0.05928104100823402,0.007115969485044479,-0.029748949314653873
1772363480167183000,5.25318310546875,0.001152092644572258,-0.0030126258194446563,-0.04582929263040423
1772363480177253000,5.263253173828125,-0.05805120695233345,0.03158464030921459,-0.08482362467423081
1772363480187323100,5.2733232421875,-0.09583119477033615,0.012228197932243346,-0.13118030217960477
1772363480197392100,5.28339208984375,-0.06459376046359538,0.0028916297882795334,-0.1347733582355082
1772363480207462100,5.293462158203125,-0.014079963278770445,0.0036935938209295273,-0.09632409285381435
1772363480217531100,5.30353125,0.06768295865058899,0.020578093126416206,-0.061061202423274515
1772363480227601200,5.31360107421875,0.09173018919229507,0.00286824891269207,-0.07460647430345416
1772363480237670100,5.323670166015625,0.08519464994370937,0.003385550785064697,-0.07382482240647077
1772363480247740200,5.333740234375,0.08033435043096541,0.011490531307458876,-0.011813479651510715
1772363480257809200,5.34380908203125,0.03639700902700424,0.017597616010904312,-0.012438625812530517
1772363480267879200,5.353879150390625,0.011392331629991531,0.0435877973139286,-0.03412248822376132
1772363480277948200,5.3639482421875,0.0014636428117752074,0.06196048935055733,-0.018768267225474117
1772363480288018200,5.37401806640625,-0.029119126978516575,0.05619008925557136,0.024241876330971718
1772363480298088200,5.384088134765625,-0.07677753473222255,0.021366613155603408,0.05787818847298622
1772363480308157200,5.3941572265625,-0.06751987704336643,0.01217091478705406,0.08630611831694841
1772363480318227000,5.40422705078125,-0.057363809210062025,0.006367781466245651,0.08725070569068193
1772363480328296200,5.414296142578125,-0.07819733840227126,-0.011193594187498093,0.05134484118148684
1772363480338366000,5.424365966796875,-0.07263502810001372,-0.017004326292872428,0.019571400301903484
1772363480348435200,5.434435302734375,-0.01903670890331268,0.01052490114569664,0.026812457471340895
1772363480358505200,5.444505126953125,0.027995675906538963,0.037544425496459005,0.05652750451639294
1772363480368574200,5.45457421875,0.024724106889963147,0.02427694764435291,0.019472908363491297
1772363480378644200,5.464644287109375,-0.012685878571867941,0.0006552490383386611,-0.035220074202120304
1772363480388713200,5.474713134765625,-0.0357756622582674,-0.009757423904538154,-0.04804989128932356
1772363480398783200,5.484783203125,-0.03267652719914913,-0.014574468797445296,-0.030695728645473718
1772363480408853000,5.49485302734375,-0.015558219137787817,0.006387070688605308,-0.03575476560071111
1772363480418922200,5.504922119140625,0.029567455267906186,0.03069792060256004,-0.042416853838413954
1772363480428992000,5.514991943359375,0.06698796212375163,0.032305355799198146,-0.03903188757523894
1772363480439061200,5.525061279296875,0.060272390133142464,0.018351064726710317,-0.03998217403739691
1772363480449131300,5.53513134765625,0.009006897798180579,-0.0004424830704927444,-0.047460400963574643
1772363480459200300,5.5452001953125,-0.05786474446952343,-0.005107552272081375,-0.02339782672226429
1772363480469270300,5.555270263671875,-0.049753334206342696,-0.00003507131338119507,0.01872778908461332
1772363480479339000,5.565339111328125,-0.04370645525753498,0.039300329253077505,0.012484364650398492
1772363480489409300,5.5754091796875,-0.07331658062338829,0.1171042844235897,0.0066708560660481446
1772363480499479000,5.58547900390625,-0.09960077643692493,0.06008125147521495,-0.01661941862851381
1772363480509548300,5.59554833984375,-0.0692377868771553,-0.0004956745624542236,-0.0263568226583302
1772363480519618000,5.6056181640625,-0.010461772781610488,-0.042075639185309405,-0.013108634028583765
1772363480529687000,5.61568701171875,0.04989712659120559,-0.04200374299287796,0.006648936495184898
1772363480539757300,5.62575732421875,0.06061608900427818,-0.03425590534508228,0.0002966448590159416
1772363480549826000,5.635825927734375,0.017906243568658827,-0.032119477838277816,-0.016088818883150814
1772363480559896300,5.645896240234375,0.011335633006691931,0.001835398733615875,-0.006900427038222551
1772363480569965000,5.655965087890625,0.042132337808609005,0.031089550268650054,-0.007705752071738243
1772363480580035300,5.666035400390625,0.06164075587689876,0.060444239568710326,-0.015387100354582071
1772363480590104000,5.67610400390625,0.04188274696171283,0.06670446900725364,-0.02977890606150031
1772363480600174000,5.686174072265625,0.0275409178763628,0.050641222956776616,-0.026803105121105907
1772363480610243000,5.6962431640625,0.009433598777651786,0.021265490868687627,-0.007935323043912649
1772363480620313000,5.70631298828125,0.02373158872127533,0.012648469170928,0.004010843076556921
1772363480630383400,5.71638330078125,0.04738777411878109,0.008391396248340606,0.00649374593347311
1772363480640452000,5.7264521484375,0.044562195304036135,0.01651274338364601,0.023746494029462335
1772363480650522000,5.736522216796875,0.04464578193426132,0.02243570369184017,0.04418327898904681
1772363480660591000,5.746591064453125,0.008211948028206824,0.007111877831816673,0.036190672799944874
1772363480670661000,5.7566611328125,-0.023267478340864182,-0.004641688326001167,0.022612667693942785
1772363480680730000,5.766730224609375,-0.03577449321448803,-0.008926818299293518,0.02973623596355319
1772363480690800000,5.776800048828125,-0.021739538121223447,-0.012160977914929389,0.04805442133396864
1772363480700869000,5.786869140625,0.0020925883650779725,-0.0003179799079895019,0.06569061578959226
1772363480710939100,5.796939208984375,0.0049205052673816675,-0.013857260438799857,0.049289223825931545
1772363480721008400,5.80700830078125,-0.04436287333965301,-0.04369359577596187,0.005299275451898574
1772363480731078400,5.817078369140625,-0.06901683760285376,-0.06732698481976986,-0.015538637654483317
1772363480741148200,5.827148193359375,-0.04764788635969162,-0.04292670305669308,-0.033184038329869506
1772363480751217400,5.837217529296875,-0.052720367318391796,-0.004179331511259079,-0.04912029699981212
1772363480761287200,5.847287109375,-0.06342588572800159,0.0674251844972372,-0.02859291114732623
1772363480771356400,5.8573564453125,-0.026470658296346664,0.09874737447798251,-0.024493220743536947
1772363480781426200,5.86742626953125,0.0228875391125679,0.10115560466349124,-0.04322203274145722
1772363480791495400,5.877495361328125,0.09886310981214046,0.08276713053584098,-0.06564999151825904
1772363480801565200,5.887565185546875,0.15236030672192571,0.07456102772653102,-0.07312354226931929
1772363480811634200,5.89763427734375,0.15407237133681773,0.07888298257887363,-0.029787527759373187
1772363480821704400,5.907704345703125,0.11098434023857116,0.07635492540597916,-0.01723901183158159
1772363480831773200,5.917773193359375,0.018771335965394972,0.029140169766545293,-0.049249037946015595
1772363480841843500,5.927843505859375,-0.03902092778980732,-0.0081476506203413,-0.02745674672424793
1772363480851913200,5.937913330078125,-0.0135024556517601,-0.015007599517703056,0.0071207917906343935
1772363480861982500,5.947982421875,0.04627016826570034,-0.021370704808831215,-0.009401450073719024
1772363480872052200,5.95805224609375,0.036871640801429746,-0.03877835120558738,-0.01317760761156678
1772363480882121200,5.968121337890625,-0.015317980641126631,-0.03313479236066341,-0.01451440917328
1772363480892191200,5.978191162109375,-0.07223813773691654,-0.05675707548856735,-0.050767918076366186
1772363480902260200,5.98826025390625,-0.11701543709635734,-0.04479191240668297,-0.034494098015129565
1772363480912330500,5.99833056640625,-0.09529577271938323,-0.009548749589920044,0.026210838316380977
1772363480922399200,6.008399169921875,-0.042777649974822994,0.010145546439290045,0.045844782460480925
1772363480932469200,6.01846923828125,0.017921441137790678,0.030688568252325056,0.040193186439573765
1772363480942538200,6.028538330078125,0.0918903481900692,0.08851239618957042,0.0895228884063661
1772363480952608300,6.038608154296875,0.14161445630192757,0.13204174131453036,0.14349457096010446
1772363480962678300,6.04867822265625,0.07470774272084235,0.12271744813024997,0.0946035526715219
1772363480972747300,6.058747314453125,-0.006687514939904213,0.07903320470452309,0.05494330406486988
1772363480982817300,6.0688173828125,0.014945640197396278,0.02294599130153656,0.0638654461890459
1772363480992886300,6.07888623046875,0.06525368567705155,-0.056278936582803724,0.0747539199501276
1772363481002956300,6.088956298828125,-0.005904840129613876,-0.11298749675452709,0.06954203052073717
1772363481013025300,6.099025390625,-0.2789011125326156,-0.0388560926169157,0.07998159147053957
1772363481023095300,6.10909521484375,-0.22973463830351828,0.06705810475051403,0.1762590687036514
1772363481033164300,6.119164306640625,-0.016374796217679975,0.052015433919429775,0.10470043766349553
1772363481043234300,6.129234375,0.022618659043312072,0.048040685069561,0.021955665089935062
1772363481053303300,6.13930322265625,-0.013238251757621765,0.023899931025505066,-0.02508490302637219
1772363481063373300,6.149373291015625,-0.035056115812063214,-0.008339958322048186,-0.03824453658983111
1772363481073443000,6.159443115234375,-0.06648351973295212,-0.009970774394273758,-0.032908728519827124
1772363481083512300,6.16951220703125,-0.04412497293055057,0.019473931276798247,-0.004303104021400213
1772363481093582300,6.179582275390625,-0.013250526717305183,0.011805588605999945,-0.03467237719148397
1772363481103651300,6.1896513671875,-0.03386076854765415,-0.0330962139159441,-0.11345452974438666
1772363481113721300,6.199721435546875,-0.02878478045761585,-0.047670098191499706,-0.15548603752702472
1772363481123790300,6.209790283203125,0.00220247848033905,-0.04079670529067516,-0.1417268306352198
1772363481133860400,6.2198603515625,0.053479076731204986,0.016518588602542877,-0.10789821079149842
1772363481143929300,6.229929443359375,0.058626376491785044,0.08543839557170868,-0.0734597884863615
1772363481153999400,6.239999267578125,0.005137947410345077,0.0964957961589098,-0.01736760664731264
1772363481164068000,6.250068115234375,-0.057147536110877986,0.046452539095282554,0.019307927060127256
1772363481174138400,6.260138427734375,-0.08130816389918327,-0.02082008518874645,-0.01944938135743141
1772363481184208400,6.27020849609375,-0.06654372548758983,-0.013978840991854667,-0.023761545468121766
1772363481194277400,6.28027734375,-0.04390343913435936,0.0183475575953722,0.009383622156083583
1772363481204347400,6.290347412109375,0.013318331256508827,0.045936406266689295,0.0677627458885312
1772363481214416400,6.30041650390625,0.04389408678412437,0.01541734936237335,0.0615640373788774
1772363481224486400,6.310486328125,0.027940730848908423,-0.07421148363649845,0.019541443555057048
1772363481234555100,6.32055517578125,-0.00419452908039093,-0.16689268994331358,0.0068159636251628394
1772363481244625400,6.33062548828125,-0.0005570493608713149,-0.16704349659085274,0.017003449510037898
1772363481254694100,6.340694091796875,0.011650105783343315,-0.10146773935258388,0.04784574701935053
1772363481264764400,6.350764404296875,0.03649111705124378,-0.0361287134796381,0.05775953052937984
1772363481274833200,6.360833251953125,0.06494330455362797,0.02816226464509964,0.06758300540745257
1772363481284903200,6.370903076171875,0.07975450471639632,0.07381400875151158,0.08414046471565961
1772363481294973400,6.380973388671875,0.08669511763453483,0.09877133987545966,0.09477057980149983
1772363481305042200,6.391042236328125,0.09420388582944869,0.11176935313642024,0.10505407340675592
1772363481315112400,6.401112548828125,0.08444938453435898,0.09285948548316955,0.08203253265097737
1772363481325181200,6.41118115234375,0.08474690617620945,0.06461421872973441,0.07183072597980499
1772363481335251500,6.42125146484375,0.09270809431374072,0.01796235767006874,0.0457683562234044
1772363481345320200,6.4313203125,0.07290566173493862,-0.036353169885277745,0.01723988861441612
1772363481355390200,6.44139013671875,0.04430442115068436,-0.07090893495976924,0.020326602583378553
1772363481365459200,6.451459228515625,0.019667992544174194,-0.08777063791155815,0.05076821033731103
1772363481375529200,6.461529296875,-0.006916647520661354,-0.05969838963747024,0.07807780367583037
1772363481385598200,6.47159814453125,-0.040460020682215686,-0.04608838195800781,0.05744052770808339
1772363481395668200,6.481668212890625,-0.049612464430928226,-0.041114685198664666,0.03436433415561914
1772363481405737200,6.4917373046875,-0.053230654928088185,-0.06643500441610813,-0.005806202060729265
1772363481415807200,6.50180712890625,-0.04463175340890884,-0.03876724528968334,-0.0014645195946097374
1772363481425877200,6.511877197265625,-0.04983341370522976,0.0004892448216676712,0.000025134441256523132
1772363481435946200,6.5219462890625,-0.07151157702803611,0.02607785958647728,-0.00657367930188775
1772363481446016300,6.532016357421875,-0.08383797463774681,0.04862696052491665,-0.020888766510784626
1772363481456085200,6.542085205078125,-0.05381225420832634,0.08996142595410346,0.0023543080411851406
1772363481466155300,6.5521552734375,0.011305822390317917,0.12051380060613155,0.012559914104640484
1772363481476224300,6.562224365234375,0.06576748041808604,0.10756371814012528,-0.02414893735051155
1772363481486294300,6.572294189453125,0.09809212543964385,0.028835049340128895,-0.09127923055440187
1772363481496363300,6.58236328125,0.14582418295145033,-0.028703531914949416,-0.08972089519649744
1772363481506433300,6.592433349609375,0.25468846229612824,-0.06568506283164025,-0.08905790124312042
1772363481516502300,6.602502197265625,0.3709060270130634,-0.12327683557868004,-0.1032487775504589
1772363481526572300,6.612572265625,-0.07463760009407996,-0.15579028117060661,-0.168445472343266
1772363481536642300,6.622642333984375,-0.2933668602585792,-0.07597031000256538,-0.056824295505881306
1772363481546711300,6.632711181640625,-0.030547113955020903,-0.03624094168245792,0.010001461793482304
1772363481556781300,6.64278125,0.1912012017697096,0.017982231414318085,0.041606121977418656
1772363481566850300,6.652850341796875,0.1237923838853836,0.04309095370769501,0.0688030487217009
1772363481576920300,6.66292041015625,-0.0237502934217453,0.0017021277427673339,0.08874299007505178
1772363481586989000,6.672989013671875,-0.1224023908317089,-0.05451192691028118,0.023909575636684895
1772363481597059300,6.683059326171875,-0.1429763923048973,-0.04767828149795532,-0.04242138388305902
1772363481607128300,6.69312841796875,-0.05798223336935043,-0.02517243517935276,-0.06145327048078179
1772363481617198300,6.7031982421875,0.019905308431386947,-0.002966448590159416,-0.009916121597588062
1772363481627267300,6.713267333984375,0.03140869922041893,-0.009703647890686989,-0.021469489008188247
1772363481637337000,6.723337158203125,0.03334814285039901,-0.004746902266144752,-0.02453939797282219
1772363481647407400,6.733407470703125,0.05138590384423732,-0.011817279043793677,0.006575286737084388
1772363481657476000,6.74347607421875,0.12737082689404486,-0.0072761284828186034,0.011610212164372205
1772363481667546400,6.75354638671875,0.16947861478328705,0.026901450929045674,0.038692280357331035
1772363481677615000,6.763614990234375,0.15161854844391345,0.08736907137334346,0.08347630171850323
1772363481687685400,6.773685302734375,0.08758242186307906,0.07210954292118549,0.07996317903101444
1772363481697754400,6.78375439453125,0.00018646248281002043,0.007940729871392249,0.06612170068323611
1772363481707824000,6.79382421875,-0.02960661823451519,-0.01252045887708664,0.1184234041981399
1772363481717893400,6.803893310546875,-0.06674070936441422,-0.037785833036899565,0.1301481826528907
1772363481727964000,6.8139638671875,-0.13863339466452598,-0.07334872932732105,0.06803031078353523
1772363481738033000,6.824032958984375,-0.11195172396600246,-0.053608256068825716,0.06792553523480892
1772363481748103000,6.83410302734375,-0.02019873842000961,-0.00767535693347454,0.09337941770404577
1772363481758172000,6.844171875,0.005253682744503021,0.06750058782100678,0.07842895520105958
1772363481768242000,6.854241943359375,-0.05445055211186409,0.05956336508095264,0.02936374938935041
1772363481778311700,6.864311767578125,-0.05427285745739936,0.01734276446700096,-0.005630845493823289
1772363481788381000,6.874380859375,-0.016013561689853666,-0.02766249842941761,-0.017713351345062255
1772363481798450700,6.88445068359375,0.05570318252146244,-0.039736967104673386,0.004700725036859512
1772363481808520000,6.89452001953125,0.11818155826628207,0.028359833043813704,0.04853445993587374
1772363481818590000,6.90458984375,0.06760872437059878,0.022086159601807594,0.012749883718788622
1772363481828659000,6.914658935546875,-0.0345078342795372,0.0037000235617160797,-0.03678586221411824
1772363481838729000,6.92472900390625,-0.08571721251308917,0.028794717329740524,-0.00744184043854475
1772363481848797700,6.934797607421875,-0.05099135156869888,0.03388298037946224,0.019724837297946215
1772363481858868000,6.944867919921875,-0.04764788635969162,0.04212766163349151,0.02829933502823114
1772363481868936700,6.954936767578125,-0.05698854615688324,0.009772036951780319,0.01688742191493511
1772363481879007000,6.965007080078125,-0.030301614761352538,0.005668693286180496,0.03241422300115227
1772363481889075700,6.97507568359375,0.006582300999760628,0.05408697949647903,0.07640913981124758
1772363481899145700,6.985145751953125,-0.0360720148563385,0.062488897138833994,0.05090615750327706
1772363481909216000,6.995216064453125,-0.05875087965428829,0.029564532658457755,0.015651011987775562
1772363481919284700,7.00528466796875,-0.0036368951976299283,0.007191372808814048,0.022397855899482965
1772363481929355000,7.01535498046875,0.017244564789533613,-0.048242345121502876,-0.0088240885771811
1772363481939423700,7.025423828125,0.0228396083176136,-0.10492518633008002,-0.03374401030018925
1772363481949493800,7.03549365234375,0.08361118014454841,-0.08861936369538306,-0.007587094128131866
1772363481959562800,7.045562744140625,0.10256839407086371,-0.08776420817077159,0.0036091304078698155
1772363481969632800,7.0556328125,0.05475625706017017,-0.08523205934464931,-0.03490574755594134
1772363481979701800,7.06570166015625,0.01621463721990585,-0.028621698850393295,-0.023749270508438346
1772363481989771800,7.075771728515625,0.03566284953355789,0.036629064217209815,-0.02480038699656725
1772363481999840800,7.0858408203125,0.04951601831912994,0.09319675461351871,-0.04175122953653335
1772363482009910800,7.095910888671875,0.008230068206787108,0.08139584218263625,-0.08862579343616962
1772363482019979800,7.105979736328125,0.023241174855828283,0.047754853865504265,-0.11436433806568383
1772363482030049800,7.1160498046875,0.08239888174533844,0.05080138195455074,-0.059356736592948434
1772363482040119800,7.126119873046875,0.12667056967020035,0.04171206656992435,-0.013635726642608642
1772363482050188800,7.136188720703125,0.09004793519377707,-0.007564297774434089,-0.01447889946848154
1772363482060258800,7.1462587890625,0.007810381489992141,-0.06413666434586048,-0.045954964836686846
1772363482070327800,7.156327880859375,-0.03707446989715099,-0.07452186475992202,-0.02114756357744336
1772363482080397800,7.166397705078125,-0.020770400828123092,-0.06711304980814456,0.011909195110946893
1772363482090466800,7.176466796875,-0.006813187146186828,-0.004381576085090637,0.047249680822342634
1772363482100536800,7.186536865234375,-0.04218143764734268,0.03950666548013687,0.05961743335574865
1772363482110605800,7.196605712890625,-0.10074000959992409,0.08882160826921462,0.058015258856117725
1772363482120675800,7.20667578125,-0.12727613434791565,0.13035656470656395,0.0729953858450055
1772363482130744800,7.216744873046875,-0.14411387190222738,0.10699380929768085,0.028179654171317813
1772363482140814800,7.22681494140625,-0.1441571265220642,0.05074994402825832,0.000618131898343563
1772363482150883800,7.2368837890625,-0.11141922452449798,-0.009143091398477554,-0.00907177972793579
1772363482160953900,7.246953857421875,-0.03944470615983009,-0.04282499624788761,-0.0006058569386601447
1772363482171024000,7.25702392578125,-0.018051789519190786,-0.01570668769776821,0.029942718321084975
1772363482181092900,7.2670927734375,-0.03732990596294403,0.016789222237467764,0.058802171450108284
1772363482191163000,7.277162841796875,0.015416180318593977,0.04047229564189911,0.06763064394146204
1772363482201231600,7.287231689453125,0.05764087258577347,0.055904842573404306,0.06172755737751722
1772363482211302000,7.297302001953125,0.07956862675547599,0.06740121909976005,0.048700902543962
1772363482221371000,7.307370849609375,0.10026187069416045,0.05939502277672291,0.03649623161777854
1772363482231441000,7.31744091796875,0.10656184762120247,0.004686696511507034,0.004114157320559025
1772363482241510000,7.327510009765625,0.10524258171617984,0.010516717839241027,0.014704086526483296
1772363482251579600,7.33757958984375,0.10674071131944655,0.027002573215961456,0.039174218655377624
1772363482261649000,7.34764892578125,0.05699672946333885,-0.00428688353896141,-0.015762363407760858
1772363482271718700,7.35771875,-0.039134325036406514,-0.039700726747512814,-0.08820406089276076
1772363482281789000,7.367788818359375,-0.06901625308096408,0.0027139351338148114,-0.10464695391058922
1772363482291857700,7.377857666015625,-0.06321078167259693,0.02497545130252838,-0.11075959157198667
1772363482301927700,7.387927734375,-0.0540361260920763,0.027008418434858322,-0.1036240406036377
1772363482311996700,7.39799658203125,-0.028849077865481375,0.0013987608820199965,-0.09526859245151281
1772363482322066700,7.408066650390625,0.00815115775167942,-0.028058804270625112,-0.10498144656196236
1772363482332136000,7.418135986328125,0.07200900515615939,-0.013722235882282257,-0.09237404005378484
1772363482342205700,7.428205810546875,0.13137889349162576,-0.01835807898938656,-0.03370104794129729
1772363482352275000,7.43827490234375,0.08626140239238739,-0.032465514796972274,-0.03634367140457034
1772363482362344700,7.4483447265625,-0.002899228572845459,0.0059521864026784894,-0.02050590467303991
1772363482372414000,7.4584140625,0.0027390695750713345,0.03790156837105751,-0.004047083433717489
1772363482382483700,7.468483642578125,-0.001249123278260231,0.05497486824691295,0.018579905046522616
1772363482392553000,7.478552978515625,-0.032389526951313016,0.03814414495527744,0.02908917023167014
1772363482402622700,7.488622802734375,-0.048178632235527034,0.03723696698248386,0.07592661699131131
1772363482412692700,7.498692626953125,-0.05362170007228851,0.02905541409254074,0.07549012527018785
1772363482422762000,7.508761962890625,-0.02807984705865383,0.03825988028943538,0.07543328051641583
1772363482432831700,7.518831787109375,-0.03185819655358791,0.013236498191952705,0.06393354298919439
1772363482442901000,7.52890087890625,-0.03469838841557502,-0.0017523966252803802,0.010050269371271132
1772363482452970800,7.538970703125,-0.020236147820949554,0.011949380990862846,0.005782821185141802
1772363482463040000,7.5490400390625,0.013308978906273842,0.0467728570908308,0.025606881073862314
1772363482473109800,7.55910986328125,-0.008124854266643524,0.044347091248631475,0.018858429726958274
1772363482483178800,7.5691787109375,-0.010167758271098136,0.00934767405986786,-0.007331511931866407
1772363482493248800,7.579248779296875,0.043937925925850864,0.020604981133341787,-0.006354629723727702
1772363482503317800,7.58931787109375,0.1305722532838583,0.043787703800201416,0.05163344886451959
1772363482513388000,7.599387939453125,0.13895371266007422,-0.01055880341529846,0.0050585985638201235
1772363482523457800,7.609457763671875,0.09898118323385714,-0.043615854364633555,-0.07518632001802325
1772363482533526800,7.61952685546875,0.0544108046233654,-0.04214753537774086,-0.09053528031930327
1772363482543596800,7.6295966796875,0.04235679421424866,-0.019575638085603714,-0.07663929530531167
1772363482553665800,7.639665771484375,0.006126958447694778,0.0238940858066082,-0.02092120747566223
1772363482563735800,7.64973583984375,-0.046485272321105,0.060820671665668485,0.028162118514627216
1772363482573804800,7.6598046875,-0.0342114816814661,0.09308920258581638,0.055035366262495514
1772363482583874800,7.669874755859375,0.01422317114174366,0.15007541065514088,0.0906469240002334
1772363482593943800,7.67994384765625,0.04385141668617725,0.11626549551188944,0.09804200268760323
1772363482604013800,7.690013916015625,-0.015368249523639677,0.021080197429656982,0.04220467239245772
1772363482614083800,7.700083740234375,-0.058226563519239424,-0.029060090267658233,0.03544920678287744
1772363482624152800,7.71015283203125,-0.062390112939476966,-0.07047171258628368,0.007212123335897922
1772363482634222800,7.720222900390625,-0.03671615797877312,-0.0747188486367464,-0.028800854809582232
1772363482644291800,7.730291748046875,0.0038747956067323682,-0.05911503679156303,-0.013952829767763613
1772363482654361600,7.740361572265625,-0.00497661936879158,-0.0256803847014904,-0.004851385553926229
1772363482664430800,7.750430908203125,-0.0205652336448431,-0.004070025917887687,-0.008409224165976047
1772363482674500600,7.76050048828125,-0.008683657193183899,0.03847439982295036,0.004063742307573556
1772363482684569900,7.77056982421875,0.03545183713138103,0.12989713050127027,0.06378215181976557
1772363482694639900,7.780639892578125,0.036838907575607295,0.15310498760938643,0.0373256681792438
1772363482704708900,7.790708984375,0.027985154512524604,0.13044599655568598,-0.0009082008861005306
1772363482714779000,7.80077880859375,0.06396306134462357,0.0951531493782997,-0.01808729922398925
1772363482724848400,7.810848388671875,0.0669195730626583,-0.004185761252045631,-0.06052358841523528
1772363482734917400,7.82091748046875,0.05367781417369842,-0.08870061223804951,-0.09311302185282111
1772363482744987400,7.8309873046875,0.026876316487789154,-0.12271511004269123,-0.07217398645952343
1772363482755056400,7.841056396484375,0.007995674929022789,-0.10350772074759006,-0.03876256911456585
1772363482765126400,7.85112646484375,0.010310381612181663,-0.03947743938565254,0.009878419935703276
1772363482775195400,7.8611953125,0.04566752619743347,0.011385901889204979,0.030652766286581753
1772363482785265400,7.871265380859375,0.03108136696219444,0.023980595046281812,0.027428397412598133
1772363482795334400,7.88133447265625,-0.04962298582494259,-0.0024409634113311766,0.006350538070499897
1772363482805404400,7.891404296875,-0.0996978070706129,-0.006046294426918029,-0.019747049129754304
1772363482815474400,7.901474365234375,-0.099915833735466,-0.00945522608757019,-0.0023464169956743716
1772363482825543400,7.91154345703125,-0.028090952974557874,-0.005830021327733993,-0.011959317862987517
1772363482835613400,7.921613525390625,0.019890695384144782,-0.0017635025411844253,-0.05216404860988259
1772363482845682400,7.931682373046875,0.017384850043058394,-0.02433189270198345,-0.06595657324939966
1772363482855752400,7.94175244140625,0.012981062126159668,-0.005631283885240554,-0.02655672914460301
1772363482865821400,7.951821533203125,-0.0006686930418014526,-0.011664134308695792,-0.008267185346782207
1772363482875891500,7.961891357421875,0.039088147807121276,0.010222703328728676,0.020485154145956037
1772363482885960400,7.97196044921875,0.07589958285391331,0.0209790751427412,0.061905690423399204
1772363482896030500,7.982030517578125,0.07973930714726447,0.025965046861767767,0.04345891023725271
1772363482906098400,7.992098388671875,0.08177110523581504,0.024709493842720982,0.0423895274400711
1772363482916168400,8.00216845703125,0.06766542299389838,0.007702829462289809,0.03599164309650659
1772363482926237400,8.012237548828125,0.04090191923081875,-0.033011458241939545,-0.00804462863728404
1772363482936307500,8.022307373046875,0.025913024413585662,-0.03642857320904731,-0.014484452426433562
1772363482946376400,8.03237646484375,0.051934769898653026,-0.002470189505815506,0.011064560980349778
1772363482956446500,8.042446533203124,0.04570376655459404,-0.00874152486026287,-0.03445551957041025
1772363482966516500,8.0525166015625,0.018038345515727996,-0.027373744615912434,-0.0660527271002531
1772363482976585500,8.06258544921875,-0.03735854753553867,-0.030893735435605047,-0.03846139421090483
1772363482986655500,8.072655517578125,-0.05394786328673362,-0.017031214299798012,-0.038084523722529406
1772363482996724500,8.082724365234375,0.0032651392757892606,0.013370353704690932,-0.01408741593286395
1772363483006794500,8.09279443359375,0.0425508554816246,0.09627075523138046,0.061909782076627014
1772363483016863200,8.10286328125,0.036786300605535505,0.10744564471840858,0.07318930098190904
1772363483026933500,8.11293359375,0.002645546072721481,0.0680915394514799,0.050402153503894806
1772363483037002200,8.123002197265626,0.012514613658189773,0.04981178639531135,0.05322393292635679
1772363483047072500,8.133072509765626,0.21451836447119713,0.07838438540697097,0.10812485915422439
1772363483057142500,8.143142578125,0.22653847261071203,-0.07022153721749783,-0.0012738193280994892
1772363483067211300,8.153211181640625,-0.23203823907077312,-0.09437047456800937,-0.06222191676571965
1772363483077281500,8.163281494140625,-0.39006373194754124,-0.05286942040026187,0.056294572543352836
1772363483087350300,8.173350341796874,-0.15792787772119043,-0.013263970720767975,0.15516528114005923
1772363483097420500,8.183420654296874,0.021579379123449323,0.017167992421984673,0.15733210378512738
1772363483107489300,8.1934892578125,0.020217443120479583,-0.014086393019556998,0.0897024827569723
1772363483117559600,8.2035595703125,0.008192658805847167,-0.02041091986596584,0.061193888892233365
1772363483127628300,8.213628173828125,0.019486206236481667,0.06308335590064525,0.1308228670440614
1772363483137698300,8.2236982421875,0.006596914047002792,0.09832768776118755,0.09778963536173105
1772363483147768600,8.2337685546875,-0.030015783557295797,0.0927829131156206,0.020893881077319383
1772363483157837300,8.24383740234375,-0.05227028546333313,0.05889116490781307,-0.03525499938502907
1772363483167907600,8.253907470703124,-0.012559037321805954,0.03033551703095436,-0.03636749067157507
1772363483177976300,8.263976318359376,0.043323593419790266,-0.01707446891963482,-0.027088205672800538
1772363483188046300,8.27404638671875,0.08827624934613704,-0.07200725159049033,-0.04717953819558024
1772363483198115300,8.284115234375,0.06759761845469474,-0.13363339442014693,-0.09756064891144632
1772363483208185300,8.294185302734375,0.017387772652506826,-0.12782441588044166,-0.09588730887174605
1772363483218254300,8.30425439453125,0.034355858588218685,-0.05685293707847595,-0.06452113361880182
1772363483228324400,8.314324462890625,0.036188919234275814,0.01196750116944313,-0.0318391995921731
1772363483238394600,8.32439453125,0.009709493109583854,0.05970540390014648,-0.03537701832950115
1772363483248463400,8.33446337890625,-0.06647358286082744,0.08392448387742042,-0.04346533997803926
1772363483258533400,8.344533447265626,-0.10070376924276352,0.14126082055866718,0.011996288872510193
1772363483268602400,8.354602294921875,-0.07168634907305241,0.1469248376697302,0.03516644431874156
1772363483278672400,8.36467236328125,-0.032985739278793336,0.08221534187197685,0.03865443256497383
1772363483288741400,8.374741455078125,-0.027375498181581494,0.06235153449475765,0.03794613816514611
1772363483298811400,8.384811279296875,-0.03229483440518379,0.02429974399805069,0.0648841217122972
1772363483308880400,8.39488037109375,-0.024310265392065048,-0.032575989434123036,0.037256986857205625
1772363483318950400,8.404950439453126,-0.019818214669823645,-0.05580839646160602,-0.004133154281973838
1772363483329020400,8.4150205078125,0.010613748472929,-0.06127835230529308,-0.02014335497096181
1772363483339089400,8.42508935546875,0.04438683873713016,-0.08951426670849323,-0.0452566073089838
1772363483349159400,8.435159423828125,0.054856794825196266,-0.06563245586156845,-0.054982174770534034
1772363483359228400,8.445228515625,0.06552373479008675,0.022471944049000738,-0.002530395260453224
1772363483369298400,8.45529833984375,0.040835868257284164,0.07001637003421783,0.015608634150773286
1772363483379367400,8.465367431640624,-0.02649871534705162,0.051426820376515386,-0.045289925056695934
1772363483389437400,8.4754375,-0.04193360036611557,0.05315700516998768,-0.04929258482679724
1772363483399506400,8.48550634765625,0.008428221127390861,0.07517419118881224,-0.004877981299906969
1772363483409576400,8.495576416015625,0.016986206114292145,0.08360650396943092,0.032351094637066126
1772363483419646500,8.505646484375,0.002446224108338356,0.10214286213517189,0.0878992327272892
1772363483429715500,8.515715576171875,0.004818798458576202,0.09965396792888641,0.12470248446762561
1772363483439785500,8.525785400390625,0.026293548163771628,0.060957449787855146,0.09096899556145072
1772363483449854500,8.5358544921875,0.035814825224876404,-0.012811550778150558,0.02232552131563425
1772363483459924500,8.545924560546876,0.09908990430533886,-0.06721767922639846,-0.006459259141981601
1772363483469993500,8.555993408203125,0.1069739355534315,-0.07461363469660282,0.0063012921012938015
1772363483480063500,8.5660634765625,-0.03020166151821613,-0.07743862898945808,-0.022911066118627785
1772363483490133500,8.576133544921875,-0.1268330667555332,-0.06163315709233284,-0.02961041762679815
1772363483500202500,8.586202392578125,-0.13981120627224444,-0.04426175105273723,-0.0009143383659422397
1772363483510272500,8.5962724609375,-0.14846388380527495,-0.04740414073169231,-0.013492080388218164
1772363483520341500,8.606341552734374,-0.13484393925368784,-0.02923310874700546,0.00013604746982455253
1772363483530411500,8.61641162109375,-0.0719172352194786,0.01564882003068924,0.02401683540344238
1772363483540480300,8.626480224609375,0.0037491234004497524,0.04148994825184345,0.00310527253895998
1772363483550550500,8.636550537109375,0.08692951091229915,0.12703531132936477,0.02033171714991331
1772363483560619300,8.646619384765625,0.10149345831573009,0.13054010457992554,0.026553514274209735
1772363483570689500,8.656689453125,0.06220423497855663,0.08042436680197715,0.0035150223836302756
1772363483580759600,8.666759521484375,0.06618892070055007,0.02546995682120323,0.011004793617129326
1772363483590828500,8.67682861328125,0.10757307049036026,-0.028237667968869208,-0.007392302208393812
1772363483600898600,8.686898681640624,0.1479004047036171,-0.05232639956474304,-0.013613222549855709
1772363483610967300,8.69696728515625,0.15075520961284636,-0.0750239690631628,-0.016183073037862778
1772363483621037600,8.70703759765625,0.11028642110228538,-0.09000994127094746,-0.07165843815281987
1772363483631106300,8.717106201171875,0.03780804486870765,-0.048529929891228674,-0.10067790414914488
1772363483641176600,8.727176513671875,-0.005930559092760085,-0.02304828263223171,-0.08717793271541595
1772363483651245300,8.737245361328124,-0.05963409222960472,-0.021699206110835072,-0.10600026821568607
1772363483661315300,8.7473154296875,-0.09600538229346275,-0.011499883657693862,-0.08443930153176188
1772363483671385600,8.757385498046874,-0.09439327092170714,0.020129764837026595,-0.04089665853381157
1772363483681454300,8.767454345703126,-0.028566753792762755,0.06879881093800068,0.0016993512637913225
1772363483691524600,8.777524658203125,0.04409223970472812,0.11711129868626594,0.03907411928176879
1772363483701593300,8.78759326171875,0.0891664761841297,0.09240297388732432,0.01947685388624668
1772363483711663400,8.797663330078125,0.076692779058218,0.06599719752073288,-0.02196589422300458
1772363483721732400,8.807732421875,0.0383113182157278,0.0210749367326498,-0.03564896713867784
1772363483731801900,8.8178017578125,-0.0019581483304500578,0.01892623426616192,-0.017741700656712055
1772363483741870600,8.82787060546875,-0.011513327661156654,0.04238602030873299,0.03312777809798717
1772363483751940600,8.837940673828125,-0.03766775961518287,-0.008618190741539002,0.04537979529723525
1772363483762010600,8.8480107421875,-0.059278702920675275,-0.05553659378290176,0.027253771498054264
1772363483772079600,8.85807958984375,-0.05602525408267975,-0.06624328123629093,0.02111658391728997
1772363483782149600,8.868149658203125,-0.042592941057682035,-0.041757659277319906,0.05532675042450428
1772363483792218600,8.878218505859374,-0.024716508105397224,0.01388064131438732,0.09658391283378004
1772363483802288600,8.88828857421875,-0.09224456845521926,0.02483984222412109,0.06445873590707779
1772363483812357600,8.898357666015626,-0.14633330151736734,0.018678981506824493,0.022100772649049756
1772363483822427600,8.908427734375,-0.14145312826037407,-0.021750059515237806,-0.04309124596863985
1772363483832497700,8.91849755859375,-0.06836041952073574,-0.0022977555483579635,-0.018274200098216533
1772363483842566700,8.928566650390625,-0.013887071055173873,0.017760697618126868,0.01802183277234435
1772363483852636700,8.93863671875,0.05027297416627407,0.05873159043192863,0.023415216248482463
1772363483862705700,8.94870556640625,0.08287351351976394,0.03828384568691254,-0.0010630991868674753
1772363483872775700,8.958775634765624,0.07777823620736599,0.031354338684678074,0.01803776099383831
1772363483882844700,8.9688447265625,0.05777531262040138,0.03959025211036205,0.02937324787005782
1772363483892914400,8.97891455078125,0.0688455726891756,0.02538987732231617,0.04388049665018916
1772363483902984700,8.988984619140625,0.03353460533320904,0.02345569438934326,0.0443155270665884
1772363483913053700,8.9990537109375,-0.04430617471635341,0.02420212884247303,0.04566138871759176
1772363483923123700,9.009123779296875,-0.10328151077628135,0.015628361764550208,0.07193301731050014
1772363483933192700,9.019192626953124,-0.1529401524364948,0.018507132071256635,0.09441504436209797
1772363483943262500,9.029262451171874,-0.38753918190598485,0.11226502769887446,0.18749547911956904
1772363483953331700,9.039331787109376,-0.1095791496157646,0.2132557971894741,0.22343948368206618
1772363483963401500,9.0494013671875,0.24725918907821176,0.14301263266205788,0.06538023466616869
1772363483973470700,9.059470703125,0.8517991999208927,0.17528233262598514,-0.05392243658453226
1772363483983540500,9.06954052734375,0.928366306772828,0.010148469048738479,-0.23281623770594595
1772363483993610500,9.079610595703125,-0.0609942746669054,-0.20262626662552355,-0.1317854284659028
1772363484003679700,9.0896796875,-0.46130350629687306,-0.2004500916302204,-0.024671792180836198
1772363484013749500,9.09974951171875,-0.4676490759313106,-0.2899666964262724,-0.09126768624708056
1772363484023818800,9.10981884765625,-0.4898100543349981,-0.22054361611008644,-0.010156360094249249
1772363484033888500,9.119888427734375,-0.456262589520216,-0.09604279169440269,0.08085442878231405
1772363484043957800,9.129957763671875,-0.35391923637688155,-0.004106266275048256,0.05461830989420414
1772363484054027500,9.140027587890625,-0.17052724705338476,0.1779857463657856,0.08118746012896298
1772363484064097500,9.15009765625,-0.15492752686142922,0.34225276398062704,0.13280264268442987
1772363484074166500,9.16016650390625,-0.058253451526165005,0.2706774740666151,0.028354718477278947
1772363484084236500,9.170236572265624,0.0936246246367693,0.1079898345977068,-0.07410261643454433
1772363484094305800,9.180305908203126,0.23838848488032816,0.20122341409027575,-0.008524521108716725
1772363484104375600,9.19037548828125,0.3417237716704607,0.1772533404380083,0.06176072899475693
1772363484114444800,9.20044482421875,0.3986100264966488,-0.19217443071603774,-0.26325477671995756
