time,seconds_elapsed,z,y,x
1772363434874246400,0.111246337890625,0.022339502349495888,0.03016650676727295,0.006267061457037926
1772363434884316200,0.121316162109375,0.023923275992274284,0.032739099115133286,0.017037387937307358
1772363434894385400,0.131385498046875,0.01781691238284111,0.024973854422569275,0.022920578718185425
1772363434904455200,0.141455078125,0.021352510899305344,0.023537814617156982,0.027539972215890884
1772363434914524400,0.1515244140625,0.026518777012825012,0.04691903665661812,0.029113102704286575
1772363434924594200,0.16159423828125,0.03364745154976845,0.05286983773112297,0.0036250287666916847
1772363434934663200,0.1716630859375,0.03232333064079285,0.018885504454374313,-0.0027439212426543236
1772363434944732200,0.181732177734375,0.02812117710709572,0.006628498435020447,0.0003146762028336525
1772363434954802200,0.19180224609375,0.025086503475904465,0.02626398205757141,-0.0031503625214099884
1772363434964871200,0.20187109375,0.026483118534088135,0.03660525009036064,-0.004569691605865955
1772363434974941200,0.211941162109375,0.017640890553593636,0.028025878593325615,-0.005956665612757206
1772363434985010400,0.222010498046875,0.013934985734522343,0.015988454222679138,-0.006265809293836355
1772363434995080200,0.232080078125,0.014804242178797722,0.0006158901378512383,0.0004243170842528343
1772363435005149400,0.2421494140625,0.0033588227815926075,-0.00409531407058239,0.01557126734405756
1772363435015219200,0.25221923828125,-0.005500448402017355,0.0037972303107380867,0.025089669972658157
1772363435025288400,0.262288330078125,-0.007850722409784794,0.0006780051626265049,0.018834605813026428
1772363435035357200,0.272357177734375,-0.010693913325667381,-0.012985609471797943,0.02112599089741707
1772363435045427200,0.28242724609375,-0.012163357809185982,-0.01952732354402542,0.021567245945334435
1772363435055496200,0.29249609375,-0.015366874635219574,-0.03365273028612137,0.019344041123986244
1772363435065566200,0.302566162109375,-0.01719876378774643,-0.03520414978265762,0.01433898601680994
1772363435075635200,0.31263525390625,-0.018198514357209206,-0.0287915226072073,0.003620828501880169
1772363435085705200,0.322705322265625,-0.015308615751564503,-0.02369489148259163,-0.01352637354284525
1772363435095774200,0.332774169921875,-0.008456568233668804,-0.01787535287439823,-0.031117085367441177
1772363435105844200,0.34284423828125,0.002062272746115923,-0.011228552088141441,-0.048112884163856506
1772363435115913500,0.35291357421875,0.006768344435840845,0.004309395328164101,-0.04972303286194801
1772363435125983200,0.362983154296875,0.012357826344668865,0.016333473846316338,-0.036439791321754456
1772363435136052500,0.373052490234375,0.0147938197478652,0.03374442458152771,-0.010552266612648964
1772363435146121200,0.383121337890625,0.015638887882232666,0.04373597353696823,0.005023272708058357
1772363435156191200,0.393191162109375,0.013150162994861603,0.03159249573945999,0.02063658833503723
1772363435166260200,0.40326025390625,0.015528392046689987,0.0165550597012043,0.027735311537981033
1772363435176330200,0.413330322265625,0.0154799222946167,0.008357316255569458,0.03706223517656326
1772363435186399200,0.423399169921875,0.01525604072958231,0.011254663579165936,0.03561681881546974
1772363435196469200,0.43346923828125,0.0067765358835458755,0.015282695181667805,0.039189983159303665
1772363435206538200,0.443538330078125,0.0003441278822720051,0.03055109828710556,0.0403074249625206
1772363435216608300,0.453608154296875,-0.004492172505706549,0.04299765080213547,0.05861479043960571
1772363435226677200,0.46367724609375,0.008307651616632938,0.10118001699447632,0.062255170196294785
1772363435236746200,0.473746337890625,0.014705097302794456,0.08722664415836334,-0.016047891229391098
1772363435246816300,0.483816162109375,0.016017690300941467,-0.033643629401922226,-0.020075064152479172
1772363435256885200,0.49388525390625,0.023365085944533348,-0.06502684950828552,-0.009078338742256165
1772363435266955300,0.503955322265625,0.023936055600643158,0.0007004509679973125,-0.010922253131866455
1772363435277024300,0.514024169921875,0.023006878793239594,0.040025752037763596,-0.02347026951611042
1772363435287094300,0.52409423828125,0.029921766370534897,0.04139271005988121,-0.030148888006806374
1772363435297163300,0.534163330078125,0.03120487555861473,0.055808402597904205,-0.02867988869547844
1772363435307233300,0.5442333984375,0.014307156205177307,0.05499681830406189,-0.02487342059612274
1772363435317302300,0.55430224609375,0.03009890392422676,0.03013993799686432,-0.00010309368371963501
1772363435327371300,0.564371337890625,0.04207862168550491,0.031545378267765045,0.030685067176818848
1772363435337441300,0.574441162109375,0.04759376123547554,0.04602311924099922,0.041144099086523056
1772363435347510300,0.58451025390625,0.02506115473806858,0.04806070029735565,0.04903591796755791
1772363435357580300,0.594580322265625,0.037005964666604996,0.03914950042963028,0.09029654413461685
1772363435367649300,0.604649169921875,0.03366803377866745,0.1142200455069542,0.13910380005836487
1772363435377719000,0.614718994140625,0.014229887165129185,0.13728249073028564,0.11768264323472977
1772363435387788300,0.624788330078125,-0.01915667951107025,0.046204328536987305,0.11425645649433136
1772363435397858300,0.6348583984375,-0.018772650510072708,-0.037255942821502686,0.11143749952316284
1772363435407927300,0.64492724609375,-0.04760098084807396,-0.03871247172355652,0.11981258541345596
1772363435417997300,0.654997314453125,-0.07905610650777817,-0.024289054796099663,0.12765826284885406
1772363435428066300,0.66506640625,-0.11455696821212769,-0.02775859832763672,0.12916065752506256
1772363435438135300,0.67513525390625,-0.20610925555229187,0.0673317015171051,0.13276764750480652
1772363435448205300,0.685205322265625,-0.21861232817173004,0.26742592453956604,0.11603225022554398
1772363435458274300,0.6952744140625,-0.21996068954467773,0.3986380100250244,0.10000162571668625
1772363435468344300,0.70534423828125,-0.22580109536647797,0.43494337797164917,0.11349025368690491
1772363435478413300,0.715413330078125,-0.20508170127868652,0.45311734080314636,0.12273888289928436
1772363435488483000,0.725483154296875,-0.17344039678573608,0.4284672141075134,0.10743821412324905
1772363435498552300,0.73555224609375,-0.12927080690860748,0.35522523522377014,0.09658343344926834
1772363435508622000,0.7456220703125,-0.09660199284553528,0.2564859390258789,0.046810250729322433
1772363435518691300,0.75569140625,-0.03386377543210983,0.14713044464588165,0.02332356572151184
1772363435528761300,0.76576123046875,-0.013751214370131493,0.07297433167695999,0.005514035001397133
1772363435538830300,0.775830322265625,-0.02107943408191204,0.07915126532316208,-0.007451830897480249
1772363435548899000,0.785899169921875,-0.0027384962886571884,0.07185187190771103,-0.011614756658673286
1772363435558969300,0.79596923828125,0.0009907283820211887,0.033441364765167236,-0.011839793995022774
1772363435569038300,0.806038330078125,0.006931948941200972,-0.0020445638801902533,-0.0194487813860178
1772363435579108400,0.8161083984375,0.014018886722624302,-0.004389743320643902,-0.037963610142469406
1772363435589177300,0.82617724609375,0.021535910665988922,0.013117551803588867,-0.004048114642500877
1772363435599247000,0.8362470703125,0.015638072043657303,0.04170338809490204,0.023230910301208496
1772363435609316400,0.84631640625,0.026094496250152588,0.03822071850299835,0.029339808970689774
1772363435619386000,0.85638623046875,0.02302546799182892,0.0392252616584301,0.034157998859882355
1772363435629455400,0.866455322265625,0.026882540434598923,0.05647328495979309,0.030966859310865402
1772363435639525000,0.876525146484375,0.047351326793432236,0.06901518255472183,0.032431066036224365
1772363435649594400,0.886594482421875,0.05218108743429184,0.0811668261885643,0.04157187044620514
1772363435659663000,0.8966630859375,0.05343756452202797,0.07990662008523941,0.03989487886428833
1772363435669733400,0.9067333984375,0.056977055966854095,0.07082106918096542,0.05453743413090706
1772363435679801300,0.91680126953125,0.0495564267039299,0.07652529329061508,0.0648590475320816
1772363435689871000,0.92687109375,0.03648485988378525,0.07529953867197037,0.058281637728214264
1772363435699940000,0.936940185546875,0.03979330509901047,0.06582614779472351,0.06689270585775375
1772363435710010000,0.947010009765625,0.03745395690202713,0.053303856402635574,0.06489287316799164
1772363435720079000,0.9570791015625,0.04421252757310867,0.039477258920669556,0.06050797179341316
1772363435730149400,0.9671494140625,0.03650393337011337,0.021154144778847694,0.04527972638607025
1772363435740218000,0.977218017578125,0.031392794102430344,0.008815986104309559,0.031170303001999855
1772363435750287000,0.987287109375,0.020820830017328262,0.007925362326204777,0.014395192265510559
1772363435760357000,0.997357177734375,0.007091168314218521,0.029323861002922058,0.0021521076560020447
1772363435770426000,1.007426025390625,0.010893145576119423,0.028106460347771645,-0.014987245202064514
1772363435780496100,1.01749609375,0.013536066748201847,-0.002992870518937707,-0.03001493029296398
1772363435790565400,1.0275654296875,0.010243179276585579,-0.048030734062194824,-0.03124900348484516
1772363435800635100,1.03763525390625,0.016919458284974098,-0.05065074935555458,-0.00973572302609682
1772363435810704100,1.0477041015625,0.019505582749843597,-0.010163265280425549,0.024174202233552933
1772363435820774100,1.057774169921875,0.033038169145584106,0.030936498194932938,0.04423286393284798
1772363435830843100,1.067843017578125,0.04453456401824951,0.04808430001139641,0.04904456436634064
1772363435840913200,1.0779130859375,0.05349663645029068,0.031329020857810974,0.041546694934368134
1772363435850982100,1.087982177734375,0.06577856093645096,0.03128759190440178,0.035762302577495575
1772363435861051100,1.098051025390625,0.07553105801343918,0.047525953501462936,0.02722899802029133
1772363435871121200,1.10812109375,0.07654938846826553,0.05844627320766449,0.021473214030265808
1772363435881190100,1.118190185546875,0.07222840934991837,0.05782894790172577,0.001284319907426834
1772363435891260200,1.12826025390625,0.0631953626871109,0.04741488769650459,-0.02413184568285942
1772363435901329200,1.1383291015625,0.05306629091501236,0.04819333180785179,-0.047859277576208115
1772363435911399200,1.148399169921875,0.04584377631545067,0.04012679308652878,-0.06084633618593216
1772363435921468200,1.15846826171875,0.04261762276291847,0.032656360417604446,-0.05811845883727074
1772363435931538200,1.1685380859375,0.03376578912138939,0.0323481559753418,-0.07022576779127121
1772363435941607200,1.178607177734375,0.01969045028090477,0.00018436089158058167,-0.08603508770465851
1772363435951677200,1.18867724609375,0.013458163477480412,-0.028385601937770844,-0.07694952189922333
1772363435961746200,1.19874609375,0.004484908655285835,-0.0039582885801792145,-0.06990998983383179
1772363435971815200,1.208815185546875,-0.004311134107410908,0.021993601694703102,-0.05874890834093094
1772363435981885200,1.21888525390625,-0.02054975926876068,0.023097747936844826,-0.037977054715156555
1772363435991954200,1.2289541015625,-0.03449610620737076,-0.0036117825657129288,-0.012525154277682304
1772363436002024200,1.239024169921875,-0.049516599625349045,-0.01890072412788868,0.010256057605147362
1772363436012093200,1.24909326171875,-0.05074043944478035,-0.010065622627735138,0.023834500461816788
1772363436022163200,1.2591630859375,-0.0512072928249836,0.0007750410586595535,0.028552290052175522
1772363436032232000,1.26923193359375,-0.051411017775535583,-0.003039105562493205,0.02840929850935936
1772363436042302200,1.27930224609375,-0.05126507580280304,-0.00015649991109967232,0.021992143243551254
1772363436052371200,1.28937109375,-0.051531221717596054,0.005129215773195028,0.030441388487815857
1772363436062441200,1.299441162109375,-0.05053173750638962,0.015716612339019775,0.03436395525932312
1772363436072510200,1.30951025390625,-0.0495254211127758,-0.004116574302315712,0.023184385150671005
1772363436082579200,1.3195791015625,-0.05197952315211296,-0.033498164266347885,0.01410034392029047
1772363436092649200,1.329649169921875,-0.045999571681022644,-0.04225347936153412,0.013239230029284954
1772363436102718200,1.33971826171875,-0.04358541592955589,-0.030311865732073784,0.0070138247683644295
1772363436112788200,1.349788330078125,-0.05530161038041115,-0.01099016610532999,-0.008121766149997711
1772363436122857200,1.359857177734375,-0.052928730845451355,-0.006054529454559088,-0.019947266206145287
1772363436132927200,1.36992724609375,-0.05202236771583557,-0.014136310666799545,-0.04473119229078293
1772363436142996000,1.379995849609375,-0.04176946356892586,-0.036653071641922,-0.05135447531938553
1772363436153066200,1.390066162109375,-0.03543775528669357,-0.0512733981013298,-0.06071128696203232
1772363436163135000,1.400135009765625,-0.031781233847141266,-0.04783046245574951,-0.06242423504590988
1772363436173205200,1.410205322265625,-0.029349349439144135,-0.039764199405908585,-0.06752315908670425
1772363436183274200,1.420274169921875,-0.027781810611486435,-0.0320383682847023,-0.07877927273511887
1772363436193343200,1.43034326171875,-0.02139047533273697,-0.03788767755031586,-0.07457934319972992
1772363436203413200,1.440413330078125,-0.017700668424367905,-0.048884931951761246,-0.06630809605121613
1772363436213482200,1.450482177734375,-0.010676099918782711,-0.05773669481277466,-0.06469755619764328
1772363436223552300,1.46055224609375,-0.005999322980642319,-0.07039149850606918,-0.06827764213085175
1772363436233621200,1.470621337890625,0.002536183688789606,-0.0726330503821373,-0.06815937161445618
1772363436243691300,1.480691162109375,-0.01243557594716549,-0.05061856284737587,-0.05722416937351227
1772363436253760000,1.490760009765625,-0.014130154624581337,-0.041424576193094254,-0.07538233697414398
1772363436263830300,1.500830322265625,-0.021359039470553398,-0.0679406076669693,-0.07167122513055801
1772363436273899000,1.51089892578125,-0.006728315260261297,-0.08411804586648941,-0.0684182196855545
1772363436283969300,1.52096923828125,0.0005274666473269463,-0.06483223289251328,-0.05757196992635727
1772363436294038000,1.5310380859375,-0.022535383701324463,0.0028522354550659657,-0.06798174977302551
1772363436304107300,1.541107177734375,0.004000884480774403,0.07153116166591644,-0.06867736577987671
1772363436314177000,1.551177001953125,-0.01472049206495285,0.12177081406116486,-0.05482916533946991
1772363436324246300,1.561246337890625,-0.03744444623589516,0.15659163892269135,-0.04545696824789047
1772363436334316300,1.57131640625,-0.032233454287052155,0.16008460521697998,-0.03980967774987221
1772363436344385000,1.581385009765625,-0.0533485934138298,0.1744624823331833,-0.02906062640249729
1772363436354455300,1.591455322265625,-0.03906309977173805,0.15692353248596191,-0.049677684903144836
1772363436364524000,1.60152392578125,-0.030847515910863876,0.08755139261484146,-0.07682275772094727
1772363436374594300,1.61159423828125,-0.022474244236946106,0.021263815462589264,-0.08961144834756851
1772363436384663000,1.6216630859375,0.000014819204807281494,-0.042932480573654175,-0.09413669258356094
1772363436394733300,1.6317333984375,-0.006541542708873749,-0.07703156024217606,-0.07372620701789856
1772363436404802000,1.641802001953125,-0.03501872345805168,-0.037315841764211655,-0.04921393468976021
1772363436414872000,1.6518720703125,-0.05948346108198166,0.03605262562632561,-0.04750748723745346
1772363436424941000,1.661941162109375,-0.06450697779655457,0.05755285918712616,-0.04440996050834656
1772363436435010300,1.67201025390625,-0.0673130676150322,0.02765096351504326,-0.03198981285095215
1772363436445080000,1.682080078125,-0.050701603293418884,0.002865724265575409,0.013076995499432087
1772363436455149000,1.692149169921875,-0.077461838722229,-0.00150585500523448,0.04494385048747063
1772363436465219300,1.70221923828125,-0.07413368672132492,0.0340992771089077,0.061112433671951294
1772363436475288000,1.7122880859375,-0.027130503207445145,0.012010707519948483,0.07624004036188126
1772363436485358300,1.7223583984375,0.048970919102430344,-0.05604797229170799,0.08985225856304169
1772363436495427000,1.732427001953125,0.08975400030612946,-0.11370422691106796,0.12122029066085815
1772363436505497300,1.742497314453125,0.07832637429237366,-0.11598895490169525,0.13084761798381805
1772363436515566000,1.752566162109375,0.08871708810329437,-0.05190108343958855,0.12298540771007538
1772363436525636000,1.762635986328125,0.10144779831171036,0.024779047816991806,0.10811032354831696
1772363436535705000,1.772705078125,0.10078556835651398,0.018753785640001297,0.08643440902233124
1772363436545774300,1.7827744140625,0.09764943271875381,-0.04303847625851631,0.07317133247852325
1772363436555844000,1.792843994140625,0.11550207436084747,-0.06383586674928665,0.07697462290525436
1772363436565913000,1.8029130859375,0.12667563557624817,-0.05388656258583069,0.07544410973787308
1772363436575983000,1.812983154296875,0.10903163999319077,-0.026882434263825417,0.04848719760775566
1772363436586052000,1.823052001953125,0.10371091216802597,-0.026567380875349045,0.022612720727920532
1772363436596122400,1.833122314453125,0.10841403901576996,-0.01641230657696724,0.020535040646791458
1772363436606191000,1.843191162109375,0.10547124594449997,0.01084940880537033,0.025073066353797913
1772363436616261000,1.85326123046875,0.10386469215154648,0.026023589074611664,-0.0025235693901777267
1772363436626330000,1.863330078125,0.07605436444282532,0.01138206198811531,0.006729317829012871
1772363436636400000,1.873400146484375,0.04636406525969505,0.014683375135064125,0.02111370861530304
1772363436646469000,1.88346923828125,0.0036243246868252754,0.0073317186906933784,0.00625620037317276
1772363436656538400,1.893538330078125,-0.018586374819278717,-0.006205407436937094,-0.0009017623960971832
1772363436666608000,1.903608154296875,-0.025752674788236618,-0.014073982834815979,0.006070660427212715
1772363436676681700,1.913681640625,-0.023136699572205544,-0.018451616168022156,0.01757875829935074
1772363436686751700,1.923751708984375,-0.01012103259563446,-0.017831366509199142,0.02690727636218071
1772363436696820700,1.93382080078125,-0.0018602432683110237,-0.008394721895456314,0.043794114142656326
1772363436706890800,1.943890869140625,0.006477315444499254,0.007444694172590971,0.0697290375828743
1772363436716959700,1.953959716796875,0.012995418161153793,0.017567161470651627,0.07939165085554123
1772363436727029800,1.96402978515625,-0.001569143496453762,-0.00931425392627716,0.08472196757793427
1772363436737098800,1.9740986328125,-0.012577543966472149,-0.08277498930692673,0.07552067935466766
1772363436747168800,1.984168701171875,-0.0019081225618720055,-0.16336384415626526,0.0652291551232338
1772363436757237800,1.99423779296875,-0.0015991837717592716,-0.20130851864814758,0.05635278299450874
1772363436767306800,2.004306640625,0.001962793990969658,-0.19942140579223633,0.03953012824058533
1772363436777376800,2.014376708984375,0.024722179397940636,-0.19615018367767334,0.0073452359065413475
1772363436787445800,2.02444580078125,0.05231226235628128,-0.23875439167022705,-0.03491859510540962
1772363436797515500,2.034515625,0.06210261210799217,-0.28647729754447937,-0.05908037722110748
1772363436807584800,2.044584716796875,0.06072282791137695,-0.28766825795173645,-0.0800865963101387
1772363436817654800,2.05465478515625,0.06143473833799362,-0.26992207765579224,-0.10062174499034882
1772363436827723800,2.064723876953125,0.052121661603450775,-0.2481861412525177,-0.10993614792823792
1772363436837793800,2.074793701171875,0.048593174666166306,-0.21660161018371582,-0.1148279532790184
1772363436847862800,2.08486279296875,0.0478924959897995,-0.17947128415107727,-0.09999147802591324
1772363436857932800,2.094932861328125,0.0400862954556942,-0.130563423037529,-0.08257318288087845
1772363436868001800,2.105001708984375,0.03857574984431267,-0.10487005114555359,-0.07667827606201172
1772363436878071800,2.11507177734375,0.026420019567012787,-0.0926397517323494,-0.07107418030500412
1772363436888140800,2.125140869140625,0.002824678085744381,-0.0642339363694191,-0.052083179354667664
1772363436898209800,2.135209716796875,0.0012237178161740303,-0.018623318523168564,-0.022144373506307602
1772363436908279600,2.145279541015625,-0.0018927128985524178,0.01762336865067482,-0.015842536464333534
1772363436918348800,2.155348876953125,0.01782703772187233,0.007223362103104591,-0.02637442573904991
1772363436928418600,2.16541845703125,0.027414150536060333,-0.010622480884194374,-0.03406723216176033
1772363436938487800,2.17548779296875,0.027737334370613098,0.011816817335784435,-0.02040492370724678
1772363436948557800,2.185557861328125,0.029993832111358643,0.053855881094932556,-0.007914433255791664
1772363436958626800,2.195626708984375,0.027184436097741127,0.08352605253458023,-0.01902388036251068
1772363436968696800,2.20569677734375,0.025286933407187462,0.057257432490587234,-0.02955428510904312
1772363436978765800,2.215765869140625,0.023449603468179703,0.010799860581755638,-0.029669996351003647
1772363436988835800,2.2258359375,0.021781666204333305,-0.022021204233169556,-0.02444860152900219
1772363436998904800,2.23590478515625,0.01924721524119377,-0.03954102471470833,-0.017956670373678207
1772363437008973800,2.245973876953125,0.0168937798589468,-0.041151441633701324,-0.009778101928532124
1772363437019043600,2.256043701171875,0.013122855685651302,-0.034604672342538834,-0.010733342729508877
1772363437029112800,2.26611279296875,-0.006747788283973932,-0.036114152520895004,-0.006949789822101593
1772363437039182600,2.2761826171875,-0.015474380925297737,-0.02840755507349968,0.0008962880820035934
1772363437049251800,2.286251953125,-0.023722723126411438,-0.011269581504166126,-0.004122438840568066
1772363437059321600,2.296321533203125,-0.03340747207403183,-0.016978727653622627,-0.009716583415865898
1772363437069390800,2.306390869140625,-0.04317807778716087,-0.038147661834955215,-0.029084421694278717
1772363437079460600,2.316460693359375,-0.0321822464466095,-0.06938157975673676,-0.04980716109275818
1772363437089529900,2.32652978515625,-0.02822105772793293,-0.05993694067001343,-0.05872635170817375
1772363437099600000,2.336599853515625,-0.031060876324772835,-0.02974078059196472,-0.05947325751185417
1772363437109668600,2.346668701171875,-0.03199591487646103,-0.0089739840477705,-0.0491122268140316
1772363437119737600,2.356737548828125,-0.031129226088523865,-0.004536516964435577,-0.03274676576256752
1772363437129807600,2.3668076171875,-0.028195489197969437,-0.011520124971866608,-0.02298601344227791
1772363437139876900,2.376876953125,-0.03202817589044571,-0.020043563097715378,-0.01323919277638197
1772363437149946600,2.386946533203125,-0.030832679942250252,-0.018902665004134178,-0.0016765464097261429
1772363437160016000,2.397015869140625,-0.020950980484485626,-0.016696872189641,0.020355185493826866
1772363437170085600,2.407085693359375,-0.010163845494389534,-0.031041190028190613,0.035385534167289734
1772363437180155000,2.41715478515625,0.0069889831356704235,-0.04714527726173401,0.03683183342218399
1772363437190224600,2.427224609375,0.00508562196046114,-0.056055948138237,0.046540651470422745
1772363437200294000,2.4372939453125,-0.002192547544836998,-0.029339196160435677,0.054231368005275726
1772363437210363600,2.44736376953125,-0.013930696062743664,0.002271993551403284,0.04926536977291107
1772363437220432600,2.4574326171875,-0.016638562083244324,-0.011547000147402287,0.03678528219461441
1772363437230501600,2.467501708984375,-0.02550821751356125,-0.06729042530059814,0.02179860509932041
1772363437240571600,2.477571533203125,-0.012577926740050316,-0.08317067474126816,0.010881011374294758
1772363437250640600,2.487640625,-0.010743808001279831,-0.06280335038900375,-0.010004563257098198
1772363437260710700,2.497710693359375,-0.01438063569366932,-0.041415292769670486,-0.019953196868300438
1772363437270780000,2.50777978515625,-0.02394910901784897,-0.026465637609362602,-0.0609954372048378
1772363437280849700,2.517849609375,-0.03624539077281952,-0.03838063031435013,-0.08245457708835602
1772363437290919000,2.5279189453125,-0.03805527463555336,-0.05987872928380966,-0.07538867741823196
1772363437300988700,2.53798876953125,-0.03342025727033615,-0.051856547594070435,-0.057893432676792145
1772363437311058000,2.548057861328125,-0.030683323740959167,-0.028954429551959038,-0.040260378271341324
1772363437321127700,2.558127685546875,-0.022692080587148666,-0.016354888677597046,-0.02781764790415764
1772363437331196700,2.56819677734375,-0.01850079745054245,-0.00981283187866211,-0.01735355705022812
1772363437341266700,2.5782666015625,-0.01700371876358986,-0.012008675374090672,-0.006384840700775385
1772363437351335700,2.588335693359375,-0.01541993673890829,-0.0008620144799351692,0.001024339348077774
1772363437361404700,2.59840478515625,-0.005995289888232946,0.00024979421868920326,0.014753872528672218
1772363437371474700,2.608474609375,0.002173956483602524,-0.0019491775892674923,0.02149752900004387
1772363437381543700,2.618543701171875,0.0070643192157149315,-0.0045593418180942535,0.030809272080659866
1772363437391613700,2.62861376953125,0.01331236120313406,-0.003117506392300129,0.02661532536149025
1772363437401683000,2.638682861328125,0.01000746339559555,0.002181731630116701,0.025490902364253998
1772363437411752700,2.648752685546875,0.006475579459220171,0.01308151800185442,0.02339392900466919
1772363437421822000,2.658822021484375,0.001785449218004942,0.004906794521957636,0.006136102601885796
1772363437431891700,2.6688916015625,-0.00418109679594636,-0.015078099444508553,-0.008776001632213593
1772363437441960700,2.678960693359375,-0.003792094998061657,-0.030216120183467865,-0.02226301282644272
1772363437452030700,2.68903076171875,-0.006501328200101852,-0.032202836126089096,-0.03248715400695801
1772363437462099700,2.699099609375,-0.008501101285219193,-0.03140123933553696,-0.03536595404148102
1772363437472168700,2.709168701171875,-0.0127594955265522,-0.024214698001742363,-0.05061015486717224
1772363437482238700,2.71923876953125,-0.020626382902264595,-0.02101907879114151,-0.06421156227588654
1772363437492307700,2.7293076171875,-0.017604492604732513,-0.027592558413743973,-0.06709416955709457
1772363437502377700,2.739377685546875,-0.016338491812348366,-0.0398862324655056,-0.06227419525384903
1772363437512446700,2.74944677734375,-0.013152552768588066,-0.046710580587387085,-0.05663042142987251
1772363437522516700,2.759516845703125,-0.013849847950041294,-0.03290053829550743,-0.03620099648833275
1772363437532585700,2.769585693359375,-0.00618233997374773,-0.025265522301197052,-0.011979812756180763
1772363437542655700,2.77965576171875,-0.006335211452096701,-0.03022542968392372,0.0038539944216609
1772363437552724700,2.789724853515625,-0.010582420974969864,-0.03901439160108566,0.01578575372695923
1772363437562794800,2.799794677734375,-0.011995786800980568,-0.04057937115430832,0.021055014804005623
1772363437572863700,2.80986376953125,-0.008188530802726746,-0.03424797207117081,0.021554360166192055
1772363437582933800,2.819933837890625,-0.005425805225968361,-0.030334074050188065,0.015271684154868126
1772363437593002800,2.830002685546875,0.000704791396856308,-0.032375920563936234,0.008181283250451088
1772363437603071700,2.84007177734375,0.002518249675631523,-0.02456015720963478,0.0047317249700427055
1772363437613141800,2.850141845703125,0.015360545367002487,-0.025975361466407776,0.009462564252316952
1772363437623210800,2.860210693359375,0.02293621003627777,-0.0309798214584589,0.01043995562940836
1772363437633280800,2.87028076171875,0.009620138444006443,-0.02436160109937191,0.0037735318765044212
1772363437643349800,2.880349853515625,-0.004324248060584068,-0.01503338199108839,0.013892988674342632
1772363437653419800,2.890419677734375,-0.020497625693678856,-0.003964219242334366,0.03279051557183266
1772363437663488500,2.900488525390625,-0.021400462836027145,-0.002203707117587328,0.04377065598964691
1772363437673555700,2.9105556640625,-0.014577178284525871,-0.020645832642912865,0.04901441931724548
1772363437683624400,2.92062451171875,-0.013599861413240433,-0.043593745678663254,0.053331587463617325
1772363437693694500,2.930694580078125,-0.013810517266392708,-0.05229988321661949,0.052181366831064224
1772363437703763700,2.940763671875,-0.011764587834477425,-0.04032302647829056,0.04134511947631836
1772363437713833500,2.95083349609375,-0.006086993962526321,-0.01650637574493885,0.030611783266067505
1772363437723902700,2.96090283203125,-0.003933114930987358,-0.005310526117682457,0.016060836613178253
1772363437733971700,2.9709716796875,-0.00809510238468647,-0.007917494513094425,0.000612904317677021
1772363437744041700,2.981041748046875,-0.01097127329558134,-0.006770552136003971,-0.02287881076335907
1772363437754110500,2.9911103515625,-0.009205331094563007,-0.010070474818348885,-0.0392892062664032
1772363437764180700,3.0011806640625,-0.007095495704561472,-0.0078823771327734,-0.03877447172999382
1772363437774249500,3.01124951171875,-0.008762635290622711,-0.0020700281020253897,-0.0253532063215971
1772363437784319700,3.02131982421875,-0.005718933884054422,0.007998747751116753,-0.00584349175915122
1772363437794388500,3.031388427734375,-0.0014171297661960125,0.007028824184089899,0.012198892422020435
1772363437804458500,3.04145849609375,0.01746247708797455,-0.0006408486515283585,0.026864366605877876
1772363437814527500,3.051527587890625,0.028871459886431694,0.006393092218786478,0.03609435260295868
1772363437824597500,3.061597412109375,0.036449357867240906,0.024122579023241997,0.04804325848817825
1772363437834666800,3.071666748046875,0.042036667466163635,0.04428936541080475,0.04404265806078911
1772363437844735700,3.08173583984375,0.05343790724873543,0.05085346847772598,0.03198479861021042
1772363437854805800,3.0918056640625,0.05295907333493233,0.06398338824510574,0.02038433589041233
1772363437864874500,3.10187451171875,0.04588790237903595,0.07351158559322357,0.006063327193260193
1772363437874944800,3.11194482421875,0.040257446467876434,0.0730481967329979,-0.013403847813606262
1772363437885013500,3.122013427734375,0.03613767400383949,0.06605448573827744,-0.028337951749563217
1772363437895083800,3.132083740234375,0.035735003650188446,0.05317997187376022,-0.03688536956906319
1772363437905152500,3.142152587890625,0.03195226937532425,0.03501433879137039,-0.04144909605383873
1772363437915222500,3.152222412109375,0.025720469653606415,0.029732491821050644,-0.04439428448677063
1772363437925291500,3.16229150390625,0.013120991177856922,0.022255145013332367,-0.04396054148674011
1772363437935361500,3.172361572265625,0.009178980253636837,0.020965643227100372,-0.0392502062022686
1772363437945430500,3.182430419921875,0.0028721941635012627,0.015683980658650398,-0.024769499897956848
1772363437955500500,3.19250048828125,0.00472149346023798,0.012082057073712349,-0.011907231993973255
1772363437965569500,3.202569580078125,0.00555363018065691,0.006660520099103451,0.0026583028957247734
1772363437975639600,3.2126396484375,0.0065083736553788185,0.008113807067275047,0.015675034373998642
1772363437985708800,3.222708740234375,-0.0015503629110753536,0.0019525373354554176,0.024511462077498436
1772363437995777500,3.232777587890625,-0.001937053631991148,0.013581495732069016,0.026121875271201134
1772363438005847800,3.242847900390625,-0.0031709764152765274,0.02018742263317108,0.02738773077726364
1772363438015916500,3.25291650390625,0.006269396748393774,0.016790825873613358,0.0344134159386158
1772363438025986600,3.262986572265625,0.012562702409923077,0.016049088910222054,0.047849126160144806
1772363438036055600,3.2730556640625,0.015228260308504105,0.012446898967027664,0.05498985946178436
1772363438046125600,3.28312548828125,0.01988733373582363,0.00576558243483305,0.05011717602610588
1772363438056194600,3.293194580078125,0.01878291927278042,0.005580493248999119,0.04615838825702667
1772363438066264600,3.3032646484375,0.0150605458766222,0.005973806604743004,0.03945066034793854
1772363438076333600,3.31333349609375,0.007651098538190126,0.004078434780240059,0.03169846534729004
1772363438086403600,3.323403564453125,0.004610162694007158,-0.0003562839701771736,0.01755138486623764
1772363438096472600,3.33347265625,0.0004915841855108738,-0.002570169745013118,-0.0009815534576773643
1772363438106542600,3.34354248046875,0.0025303931906819344,0.0012771515175700188,-0.012719186954200268
1772363438116611800,3.35361181640625,0.0038217599503695965,0.009265303611755371,-0.02618040144443512
1772363438126680600,3.3636806640625,0.005705099552869797,0.00494092982262373,-0.03388381004333496
1772363438136750600,3.37375048828125,0.0044733877293765545,0.003497229889035225,-0.03449367731809616
1772363438146819600,3.383819580078125,0.0017324304208159447,0.006428965367376804,-0.03169052302837372
1772363438156889600,3.3938896484375,-0.0024676411412656307,0.008113681338727474,-0.016033798456192017
1772363438166958600,3.40395849609375,-0.0009542154148221016,0.0069587635807693005,-0.0022563226521015167
1772363438177028600,3.414028564453125,-0.0008410308510065079,-0.001671475823968649,0.006650619208812714
1772363438187097600,3.42409765625,-0.0006823800504207611,-0.007406096905469894,0.016359949484467506
1772363438197167600,3.434167724609375,0.0076583740301430225,0.0040617408230900764,0.017933610826730728
1772363438207236600,3.444236572265625,0.007780490908771753,0.015135729685425758,0.01013350673019886
1772363438217306600,3.454306640625,0.003378019668161869,0.015820961445569992,0.009802741929888725
1772363438227375600,3.464375732421875,0.0012956401333212852,0.012970638461411,0.008717364631593227
1772363438237445600,3.474445556640625,-0.004071694798767567,0.011126133613288403,0.009101125411689281
1772363438247514600,3.4845146484375,-0.008207758888602257,0.00959410797804594,0.007264228537678719
1772363438257583600,3.49458349609375,-0.015538109466433525,0.009008478373289108,0.009117789566516876
1772363438267653600,3.504653564453125,-0.018914610147476196,0.0033646761439740658,0.010312188416719437
1772363438277722600,3.51472265625,-0.024620965123176575,-0.006554799620062113,0.01622946560382843
1772363438287792600,3.524792724609375,-0.026795078068971634,-0.015582292340695858,0.019342854619026184
1772363438297861600,3.534861572265625,-0.02460276335477829,-0.024281509220600128,0.023189257830381393
1772363438307931600,3.544931640625,-0.024754932150244713,-0.02590138092637062,0.027622796595096588
1772363438318000600,3.555000732421875,-0.02961679734289646,-0.020159339532256126,0.03613266348838806
1772363438328070700,3.565070556640625,-0.029338376596570015,-0.017498604953289032,0.03477255254983902
1772363438338139600,3.5751396484375,-0.03161858022212982,-0.016657313331961632,0.031967177987098694
1772363438348209700,3.585209716796875,-0.034422941505908966,-0.010982897132635117,0.03200670704245567
1772363438358278400,3.5952783203125,-0.03332465514540672,-0.010714184492826462,0.025629501789808273
1772363438368348700,3.6053486328125,-0.03258470073342323,-0.012036734260618687,0.014961574226617813
1772363438378417400,3.61541748046875,-0.02955775149166584,-0.01554571557790041,0.007065568119287491
1772363438388487700,3.62548779296875,-0.028020499274134636,-0.010153844021260738,0.0015792110934853554
1772363438398556700,3.635556640625,-0.022767415270209312,0.008413448929786682,-0.00529520632699132
1772363438408625700,3.645625732421875,-0.017464134842157364,0.028543725609779358,-0.019824184477329254
1772363438418695700,3.65569580078125,-0.012716252356767654,0.03576808422803879,-0.025231201201677322
1772363438428764700,3.6657646484375,-0.01233607903122902,0.02934802509844303,-0.02140093967318535
1772363438438834700,3.675834716796875,-0.0066222683526575565,0.029920605942606926,-0.012612241320312023
1772363438448903700,3.685903564453125,-0.014095475897192955,0.03031536564230919,0.00438268855214119
1772363438458973700,3.6959736328125,-0.02055976539850235,0.026548326015472412,0.022411223500967026
1772363438469042400,3.70604248046875,-0.019432174041867256,0.014038704335689545,0.028874656185507774
1772363438479112700,3.71611279296875,-0.007854880765080452,0.02219170518219471,0.031774573028087616
1772363438489181400,3.726181396484375,-0.0010164044797420502,0.03514963388442993,0.033604368567466736
1772363438499251700,3.736251708984375,0.0029868590645492077,0.03959790617227554,0.03192577883601189
1772363438509320400,3.746320556640625,0.004045134410262108,0.032850269228219986,0.02561134099960327
1772363438519390500,3.756390380859375,0.00550268217921257,0.017513925209641457,0.011126141995191574
1772363438529459700,3.766459716796875,0.0014764154329895973,0.011390645056962967,-0.0021775048226118088
1772363438539528700,3.77652880859375,0.00398671068251133,0.010581577196717262,-0.017995616421103477
1772363438549598700,3.7865986328125,0.008071750402450562,0.0057700988836586475,-0.025119706988334656
1772363438559667700,3.796667724609375,0.013809796422719955,0.0003455057740211487,-0.0318622961640358
1772363438569737700,3.80673779296875,0.011992850340902805,-0.00641255546361208,-0.029649047181010246
1772363438579806500,3.816806396484375,0.008463096804916859,-0.002869752235710621,-0.0175151526927948
1772363438589876700,3.826876708984375,0.006259249523282051,-0.004144650883972645,-0.011138427071273327
1772363438599945500,3.836945556640625,0.005779880564659834,-0.011601235717535019,-0.0024250969290733337
1772363438610015700,3.847015625,-0.0020555704832077026,-0.01793968677520752,0.00964843574911356
1772363438620084500,3.85708447265625,0.002355423290282488,-0.023224463686347008,0.018393725156784058
1772363438630154500,3.867154541015625,0.005307085812091827,-0.02956940047442913,0.021421417593955994
1772363438640223500,3.877223388671875,0.0042849644087255,-0.0229469183832407,0.03300457075238228
1772363438650293500,3.88729345703125,0.002086326014250517,-0.02016921155154705,0.04229617118835449
1772363438660362800,3.89736279296875,0.003348398022353649,-0.022967128083109856,0.04486026242375374
1772363438670432500,3.9074326171875,0.0008602398447692394,-0.028043270111083984,0.045005135238170624
1772363438680501200,3.917501220703125,0.0061740451492369175,-0.030799908563494682,0.04465785622596741
1772363438690570200,3.9275703125,0.014513431116938591,-0.030882883816957474,0.042512405663728714
1772363438700640300,3.93764013671875,0.029263081029057503,-0.025175729766488075,0.03382224589586258
1772363438710709000,3.947708984375,0.03510899096727371,-0.01252380758523941,0.021713927388191223
1772363438720779300,3.957779296875,0.03756123036146164,-0.009420959278941154,0.006701421923935413
1772363438730848000,3.967847900390625,0.03206067904829979,-0.0070970673114061356,-0.002838440239429474
1772363438740918300,3.977918212890625,0.02314841002225876,-0.010721895843744278,-0.008047050796449184
1772363438750986000,3.987986083984375,0.010234752669930458,-0.016916627064347267,-0.015626467764377594
1772363438761055000,3.998054931640625,0.0029683182947337627,-0.025335943326354027,-0.022504881024360657
1772363438771125000,4.008125,-0.0005251262336969376,-0.02767011523246765,-0.030051328241825104
1772363438781194200,4.0181943359375,-0.006520700640976429,-0.027040541172027588,-0.04159453511238098
1772363438791264000,4.028263916015625,-0.006408730521798134,-0.029384462162852287,-0.049548905342817307
1772363438801333200,4.038333251953125,-0.01270684041082859,-0.02825288474559784,-0.050442129373550415
1772363438811403000,4.048403076171875,-0.016633808612823486,-0.026125840842723846,-0.04917962849140167
1772363438821472300,4.05847216796875,-0.028247056528925896,-0.026672853156924248,-0.03852831572294235
1772363438831542000,4.0685419921875,-0.03821321949362755,-0.023823849856853485,-0.021089348942041397
1772363438841611300,4.078611328125,-0.045594435185194016,-0.03147564455866814,-0.0030296556651592255
1772363438851681000,4.088680908203125,-0.05049215257167816,-0.03548302873969078,0.011990130878984928
1772363438861750000,4.09875,-0.053218964487314224,-0.0352470725774765,0.02268218994140625
1772363438871820300,4.1088203125,-0.05700572580099106,-0.03201910853385925,0.027508238330483437
1772363438881889000,4.118888916015625,-0.05750533938407898,-0.029466737061738968,0.03130936622619629
1772363438891958000,4.1289580078125,-0.05501755326986313,-0.024944931268692017,0.026539284735918045
1772363438902028000,4.139028076171875,-0.05116608738899231,-0.022367257624864578,0.024479065090417862
1772363438912097300,4.14909716796875,-0.046677909791469574,-0.02101328782737255,0.022805577144026756
1772363438922167000,4.1591669921875,-0.04250739887356758,-0.01514048594981432,0.017582053318619728
1772363438932236300,4.169236328125,-0.0331241711974144,-0.0068866293877363205,0.017385011538863182
1772363438942306000,4.17930615234375,-0.027883868664503098,0.000944129191339016,0.019634850323200226
1772363438952375300,4.189375244140625,-0.02316509559750557,0.004789959639310837,0.023836836218833923
1772363438962445000,4.199445068359375,-0.01738736778497696,0.008488557301461697,0.027144484221935272
1772363438972514000,4.20951416015625,-0.01314995251595974,0.003020766656845808,0.02916189655661583
1772363438982584000,4.219583984375,-0.013841042295098305,0.0012468351051211357,0.030097197741270065
1772363438992653000,4.229653076171875,-0.018453139811754227,-0.003199421800673008,0.028841787949204445
1772363439002723300,4.239723388671875,-0.01106792688369751,-0.015853431075811386,0.01249770075082779
1772363439012792000,4.2497919921875,-0.003079792484641075,-0.026758860796689987,0.0062303487211465836
1772363439022862000,4.259862060546875,0.0049560293555259705,-0.020889252424240112,0.00024729128926992416
1772363439032931000,4.26993115234375,0.008199978619813919,-0.004526462405920029,-0.0032845400273799896
1772363439043001000,4.2800009765625,0.014866936951875687,0.015062418766319752,-0.00900154747068882
1772363439053070000,4.290070068359375,0.02275153622031212,0.033785928040742874,-0.020626042038202286
1772363439063139300,4.300139404296875,0.02840569242835045,0.03829226270318031,-0.027948670089244843
1772363439073209000,4.310208984375,0.04009944200515747,0.03176143020391464,-0.0389443077147007
1772363439083278000,4.320278076171875,0.03899689391255379,0.02271547168493271,-0.04161093011498451
1772363439093348000,4.33034814453125,0.03946740925312042,0.021341025829315186,-0.03511396422982216
1772363439103417000,4.3404169921875,0.0388341099023819,0.02973797172307968,-0.02735617756843567
1772363439113487000,4.350487060546875,0.03959530591964722,0.03524031490087509,-0.02114187553524971
1772363439123556000,4.36055615234375,0.03836385905742645,0.02639489434659481,-0.015128723345696926
1772363439133626000,4.370626220703125,0.03174562752246857,0.019448524340987206,-0.0036557642742991447
1772363439143695000,4.380695068359375,0.03292381018400192,0.021795300766825676,0.004357687197625637
1772363439153765000,4.39076513671875,0.04038415849208832,0.021155228838324547,0.012245981022715569
1772363439163834000,4.400834228515625,0.03677451238036156,0.018783682957291603,0.022130833938717842
1772363439173904100,4.410904052734375,0.033708881586790085,0.014399333856999874,0.025306038558483124
1772363439183973000,4.42097314453125,0.02754073590040207,0.01621534302830696,0.0196865051984787
1772363439194043100,4.431043212890625,0.016535285860300064,0.017007621005177498,0.014463860541582108
1772363439204112100,4.441112060546875,0.018660489469766617,0.01883161999285221,0.004063684493303299
1772363439214182100,4.45118212890625,0.021216893568634987,0.017654919996857643,-0.0066411467269063
1772363439224251100,4.461251220703125,0.021207306534051895,0.016988862305879593,-0.014713720418512821
1772363439234321200,4.471321044921875,0.021402793005108833,0.01944008469581604,-0.02126755565404892
1772363439244390000,4.481389892578125,0.011303286999464035,0.02251657098531723,-0.03016863949596882
1772363439254459100,4.491459228515625,0.0035886247642338276,0.007807079702615738,-0.0364687442779541
1772363439264529200,4.501529052734375,-0.0057233842089772224,-0.006354012992233038,-0.0361129492521286
1772363439274598100,4.51159814453125,-0.01473587192595005,-0.016302604228258133,-0.02925420179963112
1772363439284668200,4.521668212890625,-0.01563708484172821,-0.014486327767372131,-0.016339469701051712
1772363439294737200,4.531737060546875,-0.019174443557858467,-0.012776119634509087,-0.007791562471538782
1772363439304807200,4.54180712890625,-0.014818044379353523,-0.007211443968117237,0.005597214214503765
1772363439314876200,4.551876220703125,-0.012092778459191322,-0.002700641518458724,0.01106615737080574
1772363439324946200,4.5619462890625,-0.014016112312674522,-0.0024013021029531956,0.017543498426675797
1772363439335016000,4.572015869140625,-0.014185038395226002,-0.005702333990484476,0.021872254088521004
1772363439345085200,4.582085205078125,-0.00816123466938734,-0.008093586191534996,0.024873102083802223
1772363439355155200,4.5921552734375,-0.00797098409384489,-0.014999289996922016,0.02658987045288086
1772363439365224200,4.60222412109375,-0.003772243857383728,-0.019040370360016823,0.020432375371456146
1772363439375294200,4.612294189453125,-0.0047876532189548016,-0.020244179293513298,0.009609430097043514
1772363439385363200,4.62236328125,-0.006439079996198416,-0.01918024569749832,0.0022745514288544655
1772363439395433200,4.63243310546875,-0.0058229961432516575,-0.008506695739924908,0.0001838691532611847
1772363439405502200,4.642502197265625,-0.012659862637519836,-0.010849212296307087,-0.0048689465038478374
1772363439415572200,4.652572265625,-0.010483612306416035,-0.01863212138414383,-0.016435280442237854
1772363439425641000,4.662640869140625,-0.0035284999758005142,-0.0234505757689476,-0.02544049359858036
1772363439435711200,4.672711181640625,-0.0003051832318305969,-0.01696777530014515,-0.03479255363345146
1772363439445780000,4.682780029296875,0.0062531172297894955,0.0016168281435966492,-0.03984350711107254
1772363439455850200,4.692850341796875,0.0037417635321617126,0.0189667921513319,-0.04597390443086624
1772363439465919000,4.7029189453125,0.006535685621201992,0.03124369867146015,-0.049193933606147766
1772363439475989000,4.712989013671875,0.00013812212273478508,0.030666133388876915,-0.043253444135189056
1772363439486058000,4.72305810546875,0.004134461749345064,0.03175989165902138,-0.03703097254037857
1772363439496128000,4.7331279296875,0.005931957624852657,0.03173962980508804,-0.022852934896945953
1772363439506197200,4.743197265625,0.009461178444325924,0.026036471128463745,0.000028944574296474457
1772363439516266000,4.753265869140625,0.017343509942293167,0.02295643277466297,0.014245276339352131
1772363439526336300,4.763336181640625,0.01306141447275877,0.03618568554520607,0.032533202320337296
1772363439536405000,4.773405029296875,0.011360700242221355,0.03725271672010422,0.03973131999373436
1772363439546475300,4.783475341796875,0.011515163816511631,0.03697388619184494,0.03960029035806656
1772363439556544000,4.7935439453125,0.009638766758143902,0.025595564395189285,0.031328871846199036
1772363439566614300,4.8036142578125,0.01016474049538374,0.017538968473672867,0.02316202037036419
1772363439576683000,4.81368310546875,0.014295753091573715,0.020014287903904915,0.014586685225367546
1772363439586753000,4.8237529296875,0.013211846351623535,0.01716763526201248,0.006803063675761223
1772363439596822000,4.833822021484375,0.011514007113873959,0.021676063537597656,0.0035159029066562653
1772363439606892000,4.84389208984375,0.009254847653210163,0.03637990728020668,-0.0006873635575175285
1772363439616961000,4.8539609375,0.02110942266881466,0.045391712337732315,-0.006882726680487394
1772363439627031000,4.864031005859375,0.02359175682067871,0.04249605908989906,-0.007323746103793383
1772363439637100300,4.874100341796875,0.01913575455546379,0.032041553407907486,-0.0009255018085241318
1772363439647170000,4.884170166015625,0.013209154829382896,0.017609085887670517,0.0066179027780890465
1772363439657239300,4.8942392578125,0.018249012529850006,0.007820460945367813,0.01673167571425438
1772363439667309000,4.90430908203125,0.012810838408768177,-0.006224518641829491,0.028795529156923294
1772363439677378000,4.9143779296875,0.009237317368388176,-0.015391475521028042,0.031975191086530685
1772363439687447800,4.92444775390625,0.004209535196423531,-0.015002121217548847,0.029078472405672073
1772363439697516800,4.934516845703125,0.006749969907104969,-0.011456498876214027,0.021279342472553253
1772363439707586800,4.9445869140625,0.00847037136554718,-0.0013876194134354591,0.015971926972270012
1772363439717655800,4.95465576171875,0.008334421552717686,0.00922856479883194,0.015234068036079407
1772363439727724800,4.964724853515625,0.008515782654285431,0.01782764494419098,0.011421220377087593
1772363439737794800,4.974794921875,0.01291569322347641,0.02690676599740982,-0.006634386721998453
1772363439747863800,4.98486376953125,0.011147620156407356,0.026152558624744415,-0.01580817811191082
1772363439757933800,4.994933837890625,0.02141036093235016,0.03086044266819954,-0.02607319876551628
1772363439768002800,5.0050029296875,0.03008640557527542,0.0350051186978817,-0.03350767865777016
1772363439778072800,5.01507275390625,0.027196748182177544,0.03573058918118477,-0.02526696026325226
1772363439788142000,5.02514208984375,0.03136859089136124,0.03682142123579979,-0.011730910278856754
1772363439798211800,5.0352119140625,0.042201317846775055,0.04371308535337448,-0.0025130314752459526
1772363439808280800,5.04528076171875,0.052363939583301544,0.04007946699857712,0.003949128091335297
1772363439818350800,5.055350830078125,0.047304265201091766,0.04101662337779999,0.01193150319159031
1772363439828419800,5.065419921875,0.05581732466816902,0.052858904004096985,0.020340967923402786
1772363439838489900,5.07548974609375,0.054687246680259705,0.05670410022139549,0.020945413038134575
1772363439848558800,5.085558837890625,0.05299001559615135,0.05031650885939598,0.01464943215250969
1772363439858628900,5.09562890625,0.05108232796192169,0.040814097970724106,0.013780893757939339
1772363439868697900,5.10569775390625,0.04463454708456993,0.03952059894800186,0.007854029536247253
1772363439878767900,5.115767822265625,0.041338223963975906,0.048620376735925674,-0.0031202230602502823
1772363439888836900,5.1258369140625,0.04422775283455849,0.05154186487197876,-0.005557548254728317
1772363439898907000,5.135906982421875,0.044525157660245895,0.04352544993162155,-0.013032262213528156
1772363439908975900,5.145975830078125,0.04239942133426666,0.03918183222413063,-0.01772421970963478
1772363439919046000,5.1560458984375,0.04136243835091591,0.03895566985011101,-0.034310244023799896
1772363439929115000,5.166114990234375,0.0319385789334774,0.04376134276390076,-0.05044021084904671
1772363439939185000,5.176184814453125,0.029353126883506775,0.04212915524840355,-0.059870071709156036
1772363439949254000,5.18625390625,0.017319368198513985,0.04032672569155693,-0.0627438947558403
1772363439959323000,5.196322998046875,0.004055337980389595,0.02688087895512581,-0.05025336891412735
1772363439969393000,5.206392822265625,-0.0037216246128082275,0.01492115668952465,-0.037171389907598495
1772363439979462000,5.2164619140625,-0.011111813597381115,0.007800703402608633,-0.019592979922890663
1772363439989531600,5.22653173828125,-0.013057253323495388,-0.0013528470881283283,-0.013746542856097221
1772363439999601000,5.236600830078125,-0.018052544444799423,-0.010450156405568123,-0.010004261508584023
1772363440009671000,5.2466708984375,-0.025574907660484314,-0.014488840475678444,-0.004533596336841583
1772363440019740000,5.256739990234375,-0.03133608028292656,-0.019827794283628464,0.0038600964471697807
1772363440029810000,5.266809814453125,-0.03175712376832962,-0.03184637427330017,0.00873527955263853
1772363440039879000,5.27687890625,-0.03548210859298706,-0.04009796306490898,0.01581862010061741
1772363440049949000,5.286948974609375,-0.030455391854047775,-0.0380859449505806,0.017430365085601807
1772363440060018000,5.297017822265625,-0.025627760216593742,-0.03392057120800018,0.0026260800659656525
1772363440070088000,5.307087890625,-0.04359770566225052,-0.05040287598967552,0.012970596551895142
1772363440080157000,5.317156982421875,-0.044110774993896484,-0.07341820001602173,0.006230100989341736
1772363440090227000,5.32722705078125,-0.05126189813017845,-0.0760941430926323,0.01864415965974331
1772363440100295700,5.337295654296875,-0.0465271882712841,-0.04646272957324982,0.022183068096637726
1772363440110366000,5.347365966796875,-0.04547976702451706,-0.026175830513238907,0.011975440196692944
1772363440120434700,5.3574345703125,-0.03862717002630234,-0.040355514734983444,-0.0074742878787219524
1772363440130505000,5.3675048828125,-0.03413335233926773,-0.06439001113176346,-0.031513046473264694
1772363440140574000,5.377573974609375,-0.01952112838625908,-0.059494320303201675,-0.05075458437204361
1772363440150643700,5.387643798828125,-0.01523317489773035,-0.024952322244644165,-0.06272362917661667
1772363440160713000,5.397712890625,-0.0084025077521801,0.0039016064256429672,-0.06286559998989105
1772363440170782700,5.40778271484375,0.003876530099660158,0.013065011240541935,-0.06287651509046555
1772363440180852000,5.41785205078125,0.011717546731233597,0.011597367003560066,-0.0416579470038414
1772363440190921700,5.427921630859375,0.023921482264995575,0.008624481037259102,-0.01445482112467289
1772363440200991000,5.437990966796875,0.03124324604868889,0.009625894948840141,0.0037949439138174057
1772363440211059700,5.448059814453125,0.04095765948295593,0.015224924311041832,0.021728137508034706
1772363440221130000,5.4581298828125,0.044238317757844925,0.024387121200561523,0.03349835425615311
1772363440231198700,5.46819873046875,0.04450409859418869,0.035109274089336395,0.0362832173705101
1772363440241269000,5.47826904296875,0.04601350426673889,0.04224517568945885,0.03616176173090935
1772363440251337700,5.488337646484375,0.05142398178577423,0.046209026128053665,0.029533419758081436
1772363440261407700,5.49840771484375,0.05886422097682953,0.06472264975309372,0.02619372308254242
1772363440271476700,5.508476806640625,0.06133297085762024,0.06942605972290039,0.01386062428355217
1772363440281546800,5.518546630859375,0.06616353243589401,0.07490549236536026,0.011240307241678238
1772363440291616000,5.528615966796875,0.06279676407575607,0.07742723822593689,-0.0006123585626482964
1772363440301685800,5.538685791015625,0.055985234677791595,0.06022011861205101,-0.01580994948744774
1772363440311755000,5.548755126953125,0.05451170355081558,0.04005013778805733,-0.021790344268083572
1772363440321824800,5.55882470703125,0.04834402725100517,0.04137139767408371,-0.023193640634417534
1772363440331894000,5.56889404296875,0.039882101118564606,0.03340800851583481,-0.01973153091967106
1772363440341963800,5.5789638671875,0.03735793009400368,0.026155803352594376,-0.010403087362647057
1772363440352033000,5.589032958984375,0.028786277398467064,0.02276506833732128,0.006447797641158104
1772363440362102800,5.599102783203125,0.017841991037130356,0.030953917652368546,0.018661249428987503
1772363440372171800,5.609171875,0.013913827948272228,0.032823722809553146,0.019341420382261276
1772363440382242000,5.619241943359375,0.010804349556565285,0.016051290556788445,0.01996813714504242
1772363440392310800,5.629310791015625,0.0023128604516386986,-0.0017165211029350758,0.017896998673677444
1772363440402381000,5.639381103515625,-0.006780797615647316,-0.020677849650382996,0.018859922885894775
1772363440412449800,5.64944970703125,-0.0208263099193573,-0.026762640103697777,0.013262755237519741
1772363440422519800,5.659519775390625,-0.017097728326916695,-0.026257894933223724,0.002560812048614025
1772363440432588800,5.6695888671875,-0.017329422757029533,-0.017121387645602226,-0.0019684266299009323
1772363440442658800,5.679658935546875,-0.017407499253749847,-0.008061999455094337,-0.008434788323938847
1772363440452727800,5.689727783203125,-0.013827411457896233,-0.003167108865454793,-0.012143240310251713
1772363440462797800,5.6997978515625,-0.021478570997714996,-0.00392250856384635,-0.008175304159522057
1772363440472866800,5.70986669921875,-0.01945137232542038,-0.0005504139699041843,0.0003460124135017395
1772363440482935800,5.719935791015625,-0.022969041019678116,-0.007482483051717281,0.010419775731861591
1772363440493005800,5.730005859375,-0.020130110904574394,-0.029734259471297264,0.018718719482421875
1772363440503074800,5.74007470703125,-0.012901576235890388,-0.04310714453458786,0.01950865611433983
1772363440513145000,5.75014501953125,-0.006800542119890451,-0.035670265555381775,0.022135067731142044
1772363440523213800,5.7602138671875,-0.00023136800155043602,-0.02284596674144268,0.014086518436670303
1772363440533283800,5.770283935546875,0.005467796698212624,-0.01009395346045494,0.009779388085007668
1772363440543352800,5.780352783203125,0.0030284509994089603,-0.0028428244404494762,0.011443622410297394
1772363440553422800,5.7904228515625,0.0005985829047858715,0.00211411714553833,0.013508636504411697
1772363440563491800,5.800491943359375,-0.003533485811203718,0.013023629784584045,0.005010383203625679
1772363440573561900,5.810561767578125,-0.010111227631568909,0.013319507241249084,0.00009711738675832748
1772363440583630800,5.820630859375,-0.0096632931381464,0.011231270618736744,-0.008590850047767162
1772363440593700900,5.830700927734375,-0.006944471504539251,0.014466480351984501,-0.013922498561441898
1772363440603769900,5.840769775390625,-0.010572928003966808,0.014062883332371712,-0.021837055683135986
1772363440613840000,5.85083984375,-0.012291465885937214,0.014523610472679138,-0.028904549777507782
1772363440623908900,5.860908935546875,-0.008792816661298275,0.022051237523555756,-0.033145755529403687
1772363440633979000,5.870978759765625,-0.016892019659280777,0.03339603915810585,-0.025174647569656372
1772363440644048000,5.8810478515625,-0.018113981932401657,0.03796401992440224,-0.016227319836616516
1772363440654118000,5.891117919921875,-0.0219220332801342,0.035594336688518524,0.00022276025265455246
1772363440664187000,5.901186767578125,-0.022689227014780045,0.028717564418911934,0.011037677526473999
1772363440674257000,5.9112568359375,-0.021412242203950882,0.028744196519255638,0.024316465482115746
1772363440684326100,5.921326171875,-0.018363041803240776,0.03216877952218056,0.028116030618548393
1772363440694396000,5.93139599609375,-0.014930758625268936,0.036237820982933044,0.024104779586195946
1772363440704465200,5.941465087890625,-0.015426767989993095,0.03707914054393768,0.025479603558778763
1772363440714535000,5.951534912109375,-0.011471174657344818,0.03906239569187164,0.026399724185466766
1772363440724604200,5.961604248046875,-0.006015138700604439,0.03888454660773277,0.029257167130708694
1772363440734674200,5.971674072265625,-0.01050256472080946,0.03204980865120888,0.033119019120931625
1772363440744743200,5.9817431640625,-0.010418502613902092,0.021047357469797134,0.03882307931780815
1772363440754813200,5.991813232421875,-0.013709105551242828,0.010977146215736866,0.03498226776719093
1772363440764882200,6.001882080078125,-0.01858239434659481,0.005101029295474291,0.03632538020610809
1772363440774952200,6.0119521484375,-0.018599970266222954,0.003917786758393049,0.026631206274032593
1772363440785021200,6.022021240234375,-0.012805886566638947,0.0067124320194125175,0.017926428467035294
1772363440795090200,6.032090087890625,-0.01450498215854168,0.012344485148787498,0.01107730995863676
1772363440805160000,6.042159912109375,-0.010574965737760067,0.020070530474185944,-0.001071167178452015
1772363440815229200,6.052229248046875,-0.004048357717692852,0.017603378742933273,-0.016639208421111107
1772363440825299000,6.062298828125,0.0050418199971318245,0.01548834703862667,-0.026949966326355934
1772363440835368200,6.0723681640625,0.006429326720535755,0.019979767501354218,-0.03768250346183777
1772363440845438000,6.08243798828125,0.009137229062616825,0.02407757379114628,-0.03992675244808197
1772363440855507200,6.092507080078125,0.016862792894244194,0.028136497363448143,-0.038513146340847015
1772363440865577200,6.1025771484375,0.024639902636408806,0.019024569541215897,-0.03362274542450905
1772363440875646200,6.112646240234375,0.015732960775494576,0.010072620585560799,-0.019026225432753563
1772363440885716200,6.12271630859375,0.012431485578417778,0.00897927675396204,-0.005084899719804525
1772363440895785200,6.13278515625,0.006292632780969143,0.012012883089482784,0.0023434553295373917
1772363440905855200,6.142855224609375,-0.001205946784466505,0.0049092574045062065,0.014753474853932858
1772363440915924000,6.152924072265625,-0.007772769313305616,0.0040961941704154015,0.024393584579229355
1772363440925994200,6.162994140625,-0.01087680459022522,0.003920449409633875,0.022733673453330994
1772363440936063000,6.17306298828125,-0.010659223422408104,0.003912726882845163,0.022266551852226257
1772363440946133200,6.18313330078125,-0.009136877954006195,0.007189304102212191,0.018954604864120483
1772363440956202000,6.193201904296875,-0.011894047260284424,0.010111058130860329,0.013549717143177986
1772363440966272000,6.20327197265625,-0.008877623826265335,0.009739786386489868,0.0027228016406297684
1772363440976341000,6.213341064453125,-0.014738176017999649,0.005852104630321264,0.0007752319797873497
1772363440986411000,6.223410888671875,-0.021802928298711777,-0.0015255594626069069,0.002080134116113186
1772363440996480300,6.233480224609375,-0.01603718101978302,-0.003624929580837488,-0.006423871498554945
1772363441006550000,6.243550048828125,-0.01342036947607994,-0.007818927988409996,-0.012398875318467617
1772363441016619300,6.253619384765625,-0.01582254096865654,-0.016235582530498505,-0.0058115459978580475
1772363441026689000,6.26368896484375,-0.014341218397021294,-0.016630008816719055,-0.0003603072836995125
1772363441036758300,6.27375830078125,-0.012682868167757988,-0.015020128339529037,0.008994845673441887
1772363441046828000,6.283828125,-0.023193519562482834,-0.020923353731632233,0.027973011136054993
1772363441056897300,6.293897216796875,-0.026504628360271454,-0.02860923856496811,0.043689657002687454
1772363441066967000,6.303967041015625,-0.02710316702723503,-0.03223191201686859,0.0437355637550354
1772363441077036000,6.3140361328125,-0.02246953547000885,-0.03241460397839546,0.032343894243240356
1772363441087106300,6.324106201171875,-0.020395591855049133,-0.0339091420173645,0.023541981354355812
1772363441097175000,6.334175048828125,-0.02020224556326866,-0.027834206819534302,0.007946508005261421
1772363441107244000,6.344244140625,-0.02214151620864868,-0.027117079123854637,-0.004020459949970245
1772363441117314000,6.35431396484375,-0.02297721616923809,-0.02033800259232521,-0.014336214400827885
1772363441127383000,6.364383056640625,-0.027410533279180527,-0.022033486515283585,-0.020843172445893288
1772363441137453000,6.374453125,-0.025662701576948166,-0.021122684702277184,-0.028828395530581474
1772363441147522300,6.384522216796875,-0.024892358109354973,-0.023763611912727356,-0.036902591586112976
1772363441157592000,6.394592041015625,-0.026301169767975807,-0.021589141339063644,-0.03550603240728378
1772363441167661300,6.404661376953125,-0.03039645031094551,-0.018609890714287758,-0.030715106055140495
1772363441177731000,6.41473095703125,-0.03172643482685089,-0.01777099445462227,-0.018864836543798447
1772363441187800000,6.424800048828125,-0.03028220310807228,-0.014843115583062172,-0.00469975033774972
1772363441197870000,6.4348701171875,-0.024324975907802582,-0.022368144243955612,-0.0017950404435396194
1772363441207939000,6.44493896484375,-0.023796064779162407,-0.02579057402908802,-0.0020531658083200455
1772363441218009000,6.455009033203125,-0.02020425908267498,-0.019795531406998634,0.0024475762620568275
1772363441228078000,6.465078125,-0.019645225256681442,-0.000970826018601656,0.0004725847393274307
1772363441238148000,6.475148193359375,-0.016366073861718178,0.01948757842183113,-0.0015543466433882713
1772363441248217000,6.485217041015625,-0.015689942985773087,0.01555207371711731,-0.005125856027007103
1772363441258287000,6.495287109375,-0.02304026670753956,0.01236640103161335,-0.009146164171397686
1772363441268356000,6.505356201171875,-0.028876908123493195,0.00434662401676178,-0.013988204300403595
1772363441278426000,6.515426025390625,-0.034119606018066406,0.001944985706359148,-0.018807459622621536
1772363441288495000,6.5254951171875,-0.04322870820760727,-0.004292028024792671,-0.018571577966213226
1772363441298565000,6.535565185546875,-0.045908648520708084,-0.012547560967504978,-0.02371067926287651
1772363441308634000,6.545634033203125,-0.05214609578251839,-0.027937106788158417,-0.02942650392651558
1772363441318704000,6.5557041015625,-0.05377781391143799,-0.03717002272605896,-0.029926113784313202
1772363441328773000,6.565773193359375,-0.06141500174999237,-0.03680909797549248,-0.02712654322385788
1772363441338843100,6.575843017578125,-0.05773212015628815,-0.03231581300497055,-0.020422833040356636
1772363441348912000,6.585912109375,-0.06210988014936447,-0.03148484230041504,-0.006148436106741428
1772363441358982100,6.595982177734375,-0.05558566749095917,-0.03455759584903717,0.0003779064863920212
1772363441369051100,6.606051025390625,-0.04975862428545952,-0.040811557322740555,0.009000368416309357
1772363441379121200,6.61612109375,-0.043116699904203415,-0.04295513778924942,0.013941863551735878
1772363441389190100,6.626190185546875,-0.036014121025800705,-0.03812367096543312,0.016402605921030045
1772363441399260200,6.63626025390625,-0.029467009007930756,-0.036584626883268356,0.007609913125634193
1772363441409329200,6.6463291015625,-0.024032490327954292,-0.03911725431680679,-0.003930876962840557
1772363441419399000,6.65639892578125,-0.016599873080849648,-0.042255792766809464,-0.012268435209989548
1772363441429468200,6.66646826171875,-0.010349433869123459,-0.039560139179229736,-0.013838901184499264
1772363441439538000,6.676537841796875,-0.000031281728297472,-0.032038308680057526,-0.014218402095139027
1772363441449607200,6.686607177734375,0.008948033675551414,-0.03616805747151375,-0.022675354033708572
1772363441459677200,6.69667724609375,0.013063415884971619,-0.039756402373313904,-0.02916600927710533
1772363441469746200,6.70674609375,0.013482717797160149,-0.03555002063512802,-0.034095291048288345
1772363441479816200,6.716816162109375,0.010895989835262299,-0.031004268676042557,-0.04332367703318596
1772363441489885200,6.72688525390625,0.006170568522065878,-0.03062761016190052,-0.053323425352573395
1772363441499955200,6.736955078125,0.004556426778435707,-0.025586511939764023,-0.06202104315161705
1772363441510024200,6.747024169921875,0.004278705455362797,-0.022304227575659752,-0.06940977275371552
1772363441520094200,6.75709423828125,0.009678264148533344,-0.015388531610369682,-0.07638831436634064
1772363441530163000,6.767162841796875,0.012435102835297585,-0.0042253462597727776,-0.08017727732658386
1772363441540232200,6.777232177734375,0.018095917999744415,0.002598737832158804,-0.08346068859100342
1772363441550302000,6.787302001953125,0.015484249219298363,0.0038883285596966743,-0.08282270282506943
1772363441560371200,6.79737109375,0.01588319055736065,0.004241197369992733,-0.07234343141317368
1772363441570441000,6.80744091796875,0.02128618396818638,0.011595414951443672,-0.058088939636945724
1772363441580510200,6.81751025390625,0.031057855114340782,0.02096894383430481,-0.0389072559773922
1772363441590580200,6.827580322265625,0.030374936759471893,0.04075033590197563,-0.01348494179546833
1772363441600649200,6.837649169921875,0.030468415468931198,0.04699944332242012,0.002517194487154484
1772363441610719200,6.84771923828125,0.026116065680980682,0.04625076428055763,0.005962940864264965
1772363441620788200,6.857788330078125,0.027078265324234962,0.04883136972784996,0.010221068747341633
1772363441630858200,6.867858154296875,0.021135494112968445,0.044868092983961105,0.016098681837320328
1772363441640927000,6.877927001953125,0.01881401613354683,0.038843486458063126,0.01213936135172844
1772363441650997200,6.887997314453125,0.014381423592567444,0.03581670671701431,0.004540754482150078
1772363441661066000,6.89806591796875,0.010725169442594051,0.03489045798778534,-0.0034330151975154877
1772363441671136300,6.90813623046875,0.00417898315936327,0.031303420662879944,-0.01232887152582407
1772363441681205200,6.918205322265625,-0.007973819971084595,0.03195749223232269,-0.0198134183883667
1772363441691275000,6.92827490234375,-0.016127049922943115,0.025869660079479218,-0.02251598611474037
1772363441701344300,6.93834423828125,-0.027621522545814514,0.02492476999759674,-0.022857405245304108
1772363441711414300,6.948414306640625,-0.03576381504535675,0.014928262680768967,-0.02279813401401043
1772363441721483300,6.958483154296875,-0.04979148134589195,0.003055357839912176,-0.015778040513396263
1772363441731553300,6.96855322265625,-0.059171877801418304,-0.02096535637974739,-0.0040559908375144005
1772363441741622300,6.978622314453125,-0.06881199032068253,-0.04647817462682724,0.005442972294986248
1772363441751692300,6.9886923828125,-0.07368055731058121,-0.06420858949422836,0.01610998809337616
1772363441761761300,6.99876123046875,-0.07413782179355621,-0.07269847393035889,0.019615238532423973
1772363441771831300,7.008831298828125,-0.072544626891613,-0.0786084234714508,0.028401963412761688
1772363441781900300,7.018900390625,-0.07888854295015335,-0.07376812398433685,0.03183317929506302
1772363441791970300,7.02897021484375,-0.07860308140516281,-0.05780955031514168,0.0314004048705101
1772363441802039000,7.0390390625,-0.07723022252321243,-0.05307365208864212,0.029910633340477943
1772363441812109300,7.049109375,-0.07424840331077576,-0.05347517505288124,0.028459779918193817
1772363441822178000,7.059177978515625,-0.07491526007652283,-0.055424608290195465,0.025098338723182678
1772363441832248300,7.069248291015625,-0.06716416776180267,-0.056495942175388336,0.014525112695991993
1772363441842317300,7.0793173828125,-0.05863513424992561,-0.053108666092157364,0.0029329052194952965
1772363441852387000,7.089386962890625,-0.047355297952890396,-0.0467502623796463,-0.012158297002315521
1772363441862456300,7.099456298828125,-0.04056183993816376,-0.04663627967238426,-0.021912656724452972
1772363441872526000,7.109526123046875,-0.03186669200658798,-0.043809372931718826,-0.019091319292783737
1772363441882595300,7.11959521484375,-0.024123551324009895,-0.032546330243349075,-0.010722601786255836
1772363441892665000,7.1296650390625,-0.017033886164426804,-0.029326317831873894,0.003404751420021057
1772363441902734300,7.139734375,-0.004809709265828133,-0.04019467532634735,0.008627742528915405
1772363441912804000,7.14980419921875,0.005274111405014992,-0.04520105570554733,0.013559192419052124
1772363441922873300,7.159873291015625,0.013426313176751137,-0.027529649436473846,0.021255463361740112
1772363441932943400,7.169943359375,0.024199489504098892,-0.010665375739336014,0.017281999811530113
1772363441943012400,7.180012451171875,0.02610125206410885,0.001767059788107872,0.012773001566529274
1772363441953082400,7.190082275390625,0.022820476442575455,0.0015483140014111996,0.0032510608434677124
1772363441963151000,7.200151123046875,0.022514212876558304,-0.011874018236994743,-0.008591749705374241
1772363441973221400,7.210221435546875,0.0191002506762743,-0.01975158043205738,-0.016231708228588104
1772363441983290000,7.2202900390625,0.017743371427059174,-0.025727715343236923,-0.0290156789124012
1772363441993360400,7.2303603515625,0.021305182948708534,-0.02326255291700363,-0.037372056394815445
1772363442003429000,7.24042919921875,0.017346926033496857,-0.018571127206087112,-0.04828276112675667
1772363442013499100,7.2504990234375,0.019044646993279457,-0.012642872519791126,-0.05321221798658371
1772363442023568100,7.260568115234375,0.010864481329917908,-0.013019444420933723,-0.05577816814184189
1772363442033638100,7.27063818359375,0.005854478105902672,-0.010060125961899757,-0.048741914331912994
1772363442043707100,7.28070703125,-0.0023808148689568043,-0.005110906902700663,-0.04101661965250969
1772363442053777200,7.290777099609375,-0.0073442403227090836,-0.005718193016946316,-0.024182135239243507
1772363442063846400,7.300846435546875,-0.010938175953924656,-0.007323546335101128,-0.004524012096226215
1772363442073916200,7.310916259765625,-0.007012696471065283,-0.00985199585556984,0.010897679254412651
1772363442083985400,7.3209853515625,-0.007590602617710829,-0.00503939762711525,0.023639308288693428
1772363442094055200,7.33105517578125,-0.010865535587072372,0.0023111915215849876,0.028039444237947464
1772363442104124400,7.34112451171875,-0.010286564007401466,0.009412243962287903,0.03518284112215042
1772363442114194200,7.351194091796875,-0.011989124119281769,0.009894602000713348,0.033276814967393875
1772363442124263200,7.36126318359375,-0.014873061329126358,0.003940306603908539,0.0338406041264534
1772363442134333200,7.371333251953125,-0.009235040284693241,0.0035735187120735645,0.03762524574995041
1772363442144402200,7.381402099609375,-0.013970141299068928,0.00466195261105895,0.039051905274391174
1772363442154472400,7.391472412109375,-0.012600807473063469,0.0005220817402005196,0.0342264398932457
1772363442164541200,7.401541259765625,-0.016866125166416168,-0.008058889769017696,0.024120541289448738
1772363442174611500,7.411611572265625,-0.018448060378432274,-0.011883564293384552,0.01633811742067337
1772363442184680200,7.42168017578125,-0.020137568935751915,-0.020688243210315704,0.0015043113380670547
1772363442194750200,7.431750244140625,-0.024678343906998634,-0.030742771923542023,-0.010541924275457859
1772363442204819200,7.441819091796875,-0.027504490688443184,-0.02933582291007042,-0.016134031116962433
1772363442214889200,7.45188916015625,-0.024063417688012123,-0.022269923239946365,-0.021741315722465515
1772363442224958200,7.461958251953125,-0.023882323876023293,-0.015290310606360435,-0.023180222138762474
1772363442235028200,7.4720283203125,-0.02368849888443947,-0.01898437738418579,-0.027398543432354927
1772363442245097200,7.48209716796875,-0.021487398073077202,-0.01759074628353119,-0.03161139786243439
1772363442255167200,7.492167236328125,-0.021031454205513,-0.01261430885642767,-0.0325947031378746
1772363442265236200,7.502236328125,-0.021668218076229095,-0.018452756106853485,-0.023746881633996964
1772363442275306200,7.51230615234375,-0.015924613922834396,-0.023633822798728943,-0.013365089893341064
1772363442285376300,7.522376220703125,-0.009581230580806732,-0.0246341060847044,0.0037726182490587234
1772363442295445200,7.5324453125,-0.0015160045586526394,-0.022636275738477707,0.019837629050016403
1772363442305514200,7.54251416015625,0.0011234539560973644,-0.019130755215883255,0.030442602932453156
1772363442315584300,7.552584228515625,-0.0030326275154948235,-0.014879407361149788,0.03793562203645706
1772363442325654300,7.562654296875,0.0006097778677940369,-0.015032805502414703,0.04206724837422371
1772363442335723300,7.57272314453125,0.00455952063202858,-0.007163378410041332,0.042236559092998505
1772363442345793300,7.582793212890625,0.008782761171460152,-0.006716766394674778,0.033040132373571396
1772363442355862000,7.592862060546875,0.010804548859596252,-0.0017531965859234333,0.026269882917404175
1772363442365932300,7.602932373046875,0.021778371185064316,0.008371076546609402,0.008267716504633427
1772363442376001000,7.6130009765625,0.027075059711933136,0.020336616784334183,-0.0024941330775618553
1772363442386071300,7.6230712890625,0.029942482709884644,0.021990707144141197,-0.009451374411582947
1772363442396140300,7.633140380859375,0.0319674052298069,0.017905335873365402,-0.016432352364063263
1772363442406210300,7.643210205078125,0.02865683101117611,0.0026094713248312473,-0.02755877375602722
1772363442416279300,7.653279296875,0.02945619262754917,-0.003641480579972267,-0.0370345301926136
1772363442426349000,7.66334912109375,0.021363643929362297,-0.008519326336681843,-0.030326027423143387
1772363442436418300,7.673418212890625,0.015834536403417587,-0.011722764000296593,-0.020011302083730698
1772363442446488000,7.683488037109375,0.014748233370482922,-0.013864211738109589,-0.006580980494618416
1772363442456557300,7.693557373046875,0.014119828119874,-0.012126890942454338,0.008448129519820213
1772363442466627000,7.703626953125,0.01640002802014351,-0.007294319104403257,0.018391041085124016
1772363442476696300,7.7136962890625,0.015584493055939674,-0.00680566905066371,0.020574813708662987
1772363442486766300,7.723766357421875,0.01755603216588497,-0.00372359249740839,0.015329185873270035
1772363442496835300,7.73383544921875,0.013107037171721458,-0.005684650968760252,0.00820784643292427
1772363442506905300,7.7439052734375,0.007829183712601662,-0.00792010873556137,0.006572132930159569
1772363442516974300,7.753974365234375,0.0004896940663456917,-0.010481035336852074,-0.0007690964266657829
1772363442527044400,7.76404443359375,-0.00465180492028594,-0.012400641106069088,-0.004222150892019272
1772363442537113000,7.774113037109375,-0.0037092999555170536,-0.013315446674823761,-0.0028312401846051216
1772363442547183400,7.784183349609375,-0.008716309443116188,-0.0036604227498173714,-0.002245611511170864
1772363442557252000,7.794252197265625,-0.014091047458350658,0.003703214693814516,-0.004196234978735447
1772363442567322400,7.804322265625,-0.01810549572110176,0.0074377660639584064,-0.008318807929754257
1772363442577391000,7.81439111328125,-0.01212364062666893,0.017313271760940552,0.0009462293237447739
1772363442587461000,7.824461181640625,-0.01164986565709114,0.05370377004146576,0.0035563940182328224
1772363442597530000,7.834530029296875,-0.016574610024690628,0.057527169585227966,-0.007190602831542492
1772363442607600000,7.84460009765625,0.0020158514380455017,-0.0004916572943329811,0.0023429812863469124
1772363442617669400,7.85466943359375,0.020094994455575943,-0.023014219477772713,0.014176670461893082
1772363442627739100,7.8647392578125,0.03957042470574379,0.007715728599578142,0.020147211849689484
1772363442637808400,7.874808349609375,0.0537625215947628,0.03717095032334328,-0.008463626727461815
1772363442647878100,7.884878173828125,0.03370412811636925,0.01811097376048565,-0.01430207397788763
1772363442657947400,7.894947509765625,0.024515345692634583,0.006864470429718494,-0.0009873602539300919
1772363442668017200,7.90501708984375,0.027557209134101868,0.025667984038591385,0.000044347718358039856
1772363442678086400,7.91508642578125,0.03328059986233711,0.04359659552574158,0.013415082357823849
1772363442688159700,7.92515966796875,0.023468980565667152,0.05274588614702225,0.009923945181071758
1772363442698228500,7.935228515625,0.007116647437214851,0.030743703246116638,-0.013019789010286331
1772363442708298800,7.945298828125,0.01691335067152977,-0.013662110082805157,-0.02715398371219635
1772363442718367500,7.955367431640625,0.03742635250091553,-0.03952466696500778,-0.021023109555244446
1772363442728437800,7.965437744140625,0.023454878479242325,0.009327295236289501,-0.023190123960375786
1772363442738506500,7.975506591796875,0.020102204754948616,0.041162677109241486,-0.021126314997673035
1772363442748575700,7.98557568359375,0.010425609536468983,0.044592563062906265,-0.025707218796014786
1772363442758645500,7.9956455078125,0.0018453160300850868,0.022848734632134438,-0.02029005065560341
1772363442768714800,8.00571484375,0.0022085714153945446,0.007520910818129778,-0.0033427588641643524
1772363442778784500,8.015784423828125,0.006098936777561903,0.012474432587623596,0.019791997969150543
1772363442788853800,8.025853759765624,0.00010442780330777168,0.0118363406509161,0.024674903601408005
1772363442798923500,8.035923583984374,0.007359015755355358,-0.0008807587437331676,0.029752055183053017
1772363442808992500,8.045992431640625,0.006453541107475758,-0.0002754218876361847,0.03465839475393295
1772363442819062800,8.056062744140625,0.005667532794177532,0.016861291602253914,0.043275296688079834
1772363442829131500,8.066131591796875,0.004605464171618223,0.0335523895919323,0.046279072761535645
1772363442839201800,8.076201904296875,0.008037121035158634,0.03701174631714821,0.044746797531843185
1772363442849270500,8.0862705078125,0.010319716297090054,0.024936974048614502,0.044390466064214706
1772363442859340500,8.096340576171874,0.017146866768598557,0.024668823927640915,0.048113130033016205
1772363442869409500,8.106409423828126,0.016522888094186783,0.026840098202228546,0.043307989835739136
1772363442879479600,8.1164794921875,0.011409938335418701,0.016083326190710068,0.03832082822918892
1772363442889548500,8.126548583984375,0.002120566088706255,0.013715243898332119,0.032821666449308395
1772363442899618600,8.13661865234375,-0.000934140756726265,0.010278377681970596,0.01531557273119688
1772363442909687600,8.1466875,-0.004097444005310535,0.01373116672039032,0.004066913388669491
1772363442919757600,8.156757568359374,-0.0009470731019973755,0.011897830292582512,-0.008216693997383118
1772363442929826600,8.16682666015625,-0.0025191372260451317,0.015903757885098457,-0.023787930607795715
1772363442939896600,8.176896484375,-0.0029578888788819313,0.015361566096544266,-0.030766643583774567
1772363442949965800,8.1869658203125,-0.0036588329821825027,0.012726634740829468,-0.0346444733440876
1772363442960035600,8.19703564453125,-0.0047501758672297,0.013798865489661694,-0.0359860323369503
1772363442970104600,8.2071044921875,-0.005560841877013445,0.01730624958872795,-0.028582178056240082
1772363442980174600,8.217174560546875,-0.007066779769957066,0.020538359880447388,-0.019827619194984436
1772363442990243600,8.22724365234375,-0.0003529507666826248,0.024594353511929512,-0.00423694122582674
1772363443000313600,8.237313720703124,0.00306827574968338,0.02252691239118576,0.011393051594495773
1772363443010382600,8.247382568359376,-0.0011645518243312836,0.017244799062609673,0.02376796305179596
1772363443020452600,8.25745263671875,-0.0012435358949005604,0.018854275345802307,0.035795100033283234
1772363443030521600,8.267521484375,0.0015471908263862133,0.014605200849473476,0.04454810917377472
1772363443040591600,8.277591552734375,-0.0016402453184127808,0.023237979039549828,0.05578487738966942
1772363443050661600,8.28766162109375,-0.002711901441216469,0.01921580731868744,0.06445719301700592
1772363443060730600,8.297730712890624,-0.005248877219855785,0.019899563863873482,0.06174001842737198
1772363443070800600,8.307800537109374,0.0006273873150348663,0.01682521216571331,0.057318903505802155
1772363443080869600,8.31786962890625,0.003526093438267708,0.01257871650159359,0.04777756705880165
1772363443090939600,8.327939697265625,0.009746970608830452,0.009738456457853317,0.035162437707185745
1772363443101008600,8.338008544921875,0.006173529662191868,0.006694477051496506,0.015066282823681831
1772363443111078400,8.348078369140625,0.0018972917459905148,0.0030001401901245117,0.006082640960812569
1772363443121147600,8.358147705078125,-0.007421520072966814,0.0019369209185242653,0.004700695164501667
1772363443131217700,8.3682177734375,-0.011204008013010025,-0.0014903007540851831,-0.0025966335088014603
1772363443141286700,8.37828662109375,-0.01254079770296812,-0.009985264390707016,-0.00363983865827322
1772363443151356700,8.388356689453126,-0.010628649033606052,-0.023560460656881332,0.006160327233374119
1772363443161425700,8.39842578125,-0.01065223477780819,-0.02554239332675934,0.012731630355119705
1772363443171495700,8.40849560546875,-0.007775488775223494,-0.02586197480559349,0.017707480117678642
1772363443181564700,8.418564697265625,-0.009509770199656487,-0.03112754039466381,0.025449831038713455
1772363443191634700,8.428634765625,-0.012638717889785767,-0.03666931390762329,0.02999824285507202
1772363443201703400,8.438703369140624,-0.016966544091701508,-0.03280509263277054,0.0329972542822361
1772363443211773700,8.448773681640626,-0.021710433065891266,-0.027860134840011597,0.030081361532211304
1772363443221842400,8.458842529296875,-0.018508102744817734,-0.02094169147312641,0.024435225874185562
1772363443231912700,8.46891259765625,-0.01564760133624077,-0.018858835101127625,0.017355211079120636
1772363443241981400,8.4789814453125,-0.012444444000720978,-0.0130231324583292,0.017333216965198517
1772363443252051700,8.4890517578125,-0.015004275366663933,-0.0030471982900053263,0.011287574656307697
1772363443262120700,8.49912060546875,-0.013372445479035378,-0.0003247186541557312,-0.00037358514964580536
1772363443272190500,8.5091904296875,-0.010884521529078484,-0.0031782956793904305,-0.014811113476753235
1772363443282259700,8.519259765625,-0.005318486597388983,-0.0026538216043263674,-0.0272234994918108
1772363443292329500,8.52932958984375,-0.003231366630643606,-0.0005176998674869537,-0.026544660329818726
1772363443302398700,8.539398681640625,-0.0038440958596765995,0.005775601603090763,-0.01914711482822895
1772363443312468500,8.549468505859375,0.002108069136738777,0.01144440658390522,-0.014346766285598278
1772363443322537700,8.559537841796875,0.0026860316284000874,0.004488958977162838,-0.0025256434455513954
1772363443332607500,8.569607421875,0.005947072524577379,-0.00954962894320488,0.006328834220767021
1772363443342678500,8.579678466796874,0.00802560057491064,-0.01321484986692667,0.010795391164720058
1772363443352747800,8.589747802734376,0.012288788333535194,0.000561682041734457,0.02365632727742195
1772363443362817500,8.599817626953126,0.011634159833192825,0.01319767814129591,0.032671067863702774
1772363443372886800,8.60988671875,0.017335722222924232,0.019759438931941986,0.03398667275905609
1772363443382956500,8.61995654296875,0.014168580994009972,0.01785561628639698,0.029839303344488144
1772363443393025500,8.630025634765625,0.01583651825785637,0.017042286694049835,0.023352909833192825
1772363443403095800,8.640095703125,0.015364211052656174,0.02152627892792225,0.006523963063955307
1772363443413164500,8.65016455078125,0.01630057953298092,0.021936938166618347,-0.006720470264554024
1772363443423234800,8.66023486328125,0.01195230707526207,0.02792242169380188,-0.020549632608890533
1772363443433303600,8.670303466796875,0.010690235532820225,0.014672927558422089,-0.03306009992957115
1772363443443373600,8.68037353515625,0.005928014405071735,0.004124624188989401,-0.04174020141363144
1772363443453443600,8.690443603515625,0.000002214685082435608,0.004286811221390963,-0.04769742488861084
1772363443463512600,8.7005126953125,-0.004816597327589989,0.007126120384782553,-0.042982980608940125
1772363443473582600,8.71058251953125,-0.011070499196648598,0.0007478492334485054,-0.03195003420114517
1772363443483651600,8.720651611328124,-0.014817854389548302,-0.0029113769996911287,-0.023735657334327698
1772363443493721600,8.7307216796875,-0.01383940875530243,-0.011648941785097122,-0.014761069789528847
1772363443503790600,8.74079052734375,-0.0063490369357168674,-0.009866377338767052,-0.005367310717701912
1772363443513860600,8.750860595703125,-0.007349053863435984,-0.011652559041976929,0.00445389561355114
1772363443523929600,8.7609296875,-0.007404936011880636,-0.007155334576964378,0.005880757234990597
1772363443533999600,8.77099951171875,-0.006359379272907972,-0.01059214398264885,0.004306563176214695
1772363443544068600,8.781068603515624,-0.00845242291688919,-0.0056370520032942295,0.004744303412735462
1772363443554138600,8.791138671875,-0.003987632691860199,-0.010449916124343872,0.006316899321973324
1772363443564207600,8.80120751953125,0.000834775622934103,-0.008878063410520554,0.008995833806693554
1772363443574277600,8.811277587890626,0.004303276538848877,-0.0025187009014189243,0.013107487000524998
1772363443584346600,8.8213466796875,0.007309847977012396,0.0009553651325404644,0.0092396792024374
1772363443594416600,8.831416748046875,0.0018953755497932434,-0.011652305722236633,0.0035682115703821182
1772363443604485600,8.841485595703125,-0.0058325123973190784,-0.018536536023020744,0.0016190595924854279
1772363443614555600,8.8515556640625,-0.01629767008125782,-0.021866818889975548,-0.0038643889129161835
1772363443624624600,8.861624755859374,-0.014887735247612,-0.022021353244781494,-0.015707848593592644
1772363443634694700,8.871694580078126,-0.01777300424873829,-0.027934633195400238,-0.024861931800842285
1772363443644763600,8.881763671875,-0.014624826610088348,-0.026507515460252762,-0.032198257744312286
1772363443654833700,8.891833740234375,-0.009805303066968918,-0.01584421843290329,-0.039000503718853
1772363443664902700,8.901902587890625,-0.00446403119713068,-0.0036787441931664944,-0.045228563249111176
1772363443674972400,8.911972412109375,0.0020106458105146885,0.0051483032293617725,-0.046611808240413666
1772363443685037800,8.922037841796875,0.006832956802099943,0.012989487498998642,-0.04896136000752449
1772363443695107800,8.93210791015625,0.003629972692579031,0.015771159902215004,-0.0412784069776535
1772363443705176800,8.9421767578125,0.011067237704992294,0.018410000950098038,-0.02978183887898922
1772363443715246800,8.952246826171875,0.01107096578925848,0.023993585258722305,-0.016700392588973045
1772363443725315800,8.96231591796875,0.023472027853131294,0.032792672514915466,-0.007728596217930317
1772363443735385900,8.9723857421875,0.02181207947432995,0.031334590166807175,-0.0012235594913363457
1772363443745454800,8.982454833984375,0.021858058869838715,0.03719159588217735,0.010481138713657856
1772363443755524900,8.99252490234375,0.016820156946778297,0.03488556668162346,0.009464076720178127
1772363443765594000,9.002593994140625,0.017385240644216537,0.03168230503797531,0.007865455001592636
1772363443775663900,9.012663818359375,0.016352731734514236,0.02481640689074993,0.005701370537281036
1772363443785734000,9.02273388671875,0.015437105670571327,0.020958788692951202,0.0028599556535482407
1772363443795803000,9.032802978515624,0.021203648298978806,0.01920376531779766,0.00029160361737012863
1772363443805873000,9.042872802734376,0.013901224359869957,0.014767050743103027,-0.00591676402837038
1772363443815942000,9.05294189453125,0.009784509427845478,0.019129309803247452,-0.005864832550287247
1772363443826012000,9.063011962890625,0.00711445277556777,0.02181600220501423,-0.012368462048470974
1772363443836081000,9.073080810546875,-0.0005575818940997124,0.012520505115389824,-0.011407327838242054
1772363443846151000,9.08315087890625,-0.007307811174541712,-0.003043778007850051,-0.005256796721369028
1772363443856220000,9.093219970703124,-0.013018427416682243,-0.005533300805836916,-0.005014715250581503
1772363443866290000,9.1032900390625,-0.013423635624349117,-0.01874413527548313,-0.0034725917503237724
1772363443876359000,9.11335888671875,-0.009927970357239246,-0.030903860926628113,0.005684687756001949
1772363443886429000,9.123428955078126,-0.006656127516180277,-0.03996738791465759,0.012733587063848972
1772363443896498000,9.133497802734375,-0.0033261110074818134,-0.03951758146286011,0.016246560961008072
1772363443906568000,9.14356787109375,-0.0032577207311987877,-0.03516437113285065,0.025291582569479942
1772363443916637000,9.153636962890625,-0.0033887485042214394,-0.033895909786224365,0.028247958049178123
1772363443926706700,9.163706787109374,-0.003777185920625925,-0.025249971076846123,0.02475864440202713
1772363443936776000,9.17377587890625,0.0020668543875217438,-0.021407829597592354,0.013687348924577236
1772363443946846000,9.183845947265626,0.0022677863016724586,-0.020599855110049248,0.003358711488544941
1772363443956915000,9.1939150390625,0.0034755300730466843,-0.015642380341887474,-0.005523464176803827
1772363443966985000,9.20398486328125,0.00013799965381622314,-0.015058012679219246,-0.016512082889676094
1772363443977054000,9.214053955078125,0.0016666543669998646,-0.014130167663097382,-0.02700919844210148
1772363443987124000,9.2241240234375,-0.0020241406746208668,-0.010764630511403084,-0.03942570835351944
1772363443997193000,9.23419287109375,0.0011673918925225735,-0.003542404156178236,-0.04356985166668892
1772363444007263000,9.244262939453124,0.004295783117413521,0.003631182014942169,-0.05096711218357086
1772363444017331700,9.254331787109376,-0.0017796861939132214,0.0027933521196246147,-0.05378420278429985
1772363444027402000,9.264402099609375,-0.003269204404205084,-0.006876570172607899,-0.04041428118944168
1772363444037470700,9.274470703125,-0.010216061025857925,-0.0007478375919163227,-0.02326086163520813
1772363444047541000,9.284541015625,-0.006372594274580479,-0.00762843806296587,-0.011466450057923794
1772363444057609700,9.294609619140624,-0.0018524108454585075,-0.01547810435295105,0.005088291130959988
1772363444067680000,9.304679931640624,-0.0020814710296690464,-0.01162860356271267,0.018042897805571556
1772363444077750000,9.31475,-0.0014955750666558743,-0.00940672867000103,0.029155736789107323
1772363444087818800,9.32481884765625,-0.0007332218810915947,-0.0044744848273694515,0.03628339618444443
1772363444097889000,9.334888916015625,0.0023949271999299526,0.0024542612954974174,0.037949204444885254
1772363444107957800,9.344957763671875,0.0008904356509447098,0.0012531341053545475,0.03252885863184929
1772363444118028000,9.355028076171875,0.007503330707550049,-0.0029232350643724203,0.015489152632653713
1772363444128096800,9.3650966796875,0.004760146141052246,-0.0016217208467423916,0.0037625543773174286
1772363444138166800,9.375166748046874,0.009402302093803883,0.004243891220539808,-0.010127960704267025
1772363444148235800,9.38523583984375,0.010274147614836693,0.0023628585040569305,-0.01991562731564045
1772363444158305800,9.395305908203126,0.008169718086719513,-0.0006308010779321194,-0.03568180650472641
1772363444168375000,9.405375,0.005104750860482454,-0.008383275009691715,-0.04672718048095703
1772363444178444800,9.41544482421875,0.00023089954629540443,-0.0010859477333724499,-0.05922779440879822
1772363444188514000,9.42551416015625,0.0005472912453114986,-0.0021721962839365005,-0.06248011440038681
1772363444198583800,9.435583740234375,-0.0019398350268602371,-0.009509204886853695,-0.05701451003551483
1772363444208653000,9.445653076171874,-0.001903990749269724,-0.011439393274486065,-0.04080813378095627
1772363444218722800,9.455722900390626,-0.002981505822390318,-0.017649352550506592,-0.021642960608005524
1772363444228792000,9.4657919921875,0.005455073434859514,-0.019772298634052277,-0.02047458291053772
1772363444238861800,9.47586181640625,-0.0009170724079012871,-0.05594255402684212,-0.03640694543719292
1772363444248930800,9.485930908203125,-0.0050268699415028095,-0.055403586477041245,0.00688893161714077
1772363444259001000,9.4960009765625,-0.000685384962707758,-0.002176583046093583,0.003764776512980461
1772363444269069800,9.50606982421875,-0.0029763011261820793,0.020324477925896645,-0.004609084688127041
1772363444279140000,9.51614013671875,0.008267565630376339,-0.008977750316262245,0.001864793710410595
1772363444289208800,9.526208740234376,0.019857384264469147,-0.027174273505806923,0.013297410681843758
1772363444299278800,9.53627880859375,0.018463484942913055,-0.016158640384674072,0.015745921060442924
1772363444309347800,9.546347900390625,0.024745795875787735,-0.014651048928499222,0.012325391173362732
1772363444319417900,9.55641796875,0.016141388565301895,-0.018939537927508354,0.006688810884952545
1772363444329486800,9.56648681640625,0.013198573142290115,-0.017816921696066856,0.0006803944706916809
1772363444339556900,9.576556884765624,0.007355064619332552,-0.04015178978443146,-0.03025674819946289
1772363444349625900,9.5866259765625,-0.00036271102726459503,-0.06569471210241318,-0.007112197112292051
1772363444359696000,9.59669580078125,-0.006134047172963619,-0.030498376116156578,-0.013657181523740292
1772363444369764900,9.606764892578125,-0.012240409851074219,0.003573573660105467,-0.03632068261504173
1772363444379835000,9.6168349609375,-0.011842532083392143,-0.013154007494449615,-0.04631073400378227
1772363444389905000,9.62690478515625,-0.016655102372169495,-0.033373162150382996,-0.0469287745654583
1772363444399974000,9.636973876953125,-0.019016262143850327,-0.024262219667434692,-0.04425442963838577
1772363444410044000,9.6470439453125,-0.021545421332120895,-0.015560928732156754,-0.046592745929956436
1772363444420113000,9.65711279296875,-0.01578873209655285,-0.013416286557912827,-0.04509365186095238
1772363444430183000,9.667182861328126,-0.016535216942429543,-0.010407445952296257,-0.02614952251315117
1772363444440252000,9.677251953125,-0.005420513451099396,0.0010611903853714466,-0.007063711993396282
1772363444450322000,9.687322021484375,-0.004037982318550348,0.008256280794739723,0.016137175261974335
1772363444460391000,9.697390869140625,0.0005242791958153248,0.008636048063635826,0.031227177008986473
1772363444470461000,9.7074609375,-0.010811284184455872,0.003319550771266222,0.03447840362787247
1772363444480529700,9.71752978515625,-0.004995740018785,-0.004565802868455648,0.04220530018210411
1772363444490600000,9.727599853515626,0.00040906528010964394,0.02279435098171234,0.05248755216598511
1772363444500669000,9.7376689453125,0.01111417356878519,0.05772410333156586,0.11304649710655212
1772363444510739000,9.747739013671875,0.02137797698378563,0.15423674881458282,0.1764218658208847
1772363444520808000,9.757807861328125,-0.017081264406442642,0.2062765210866928,0.12279140204191208
1772363444530878000,9.7678779296875,-0.012532788328826427,0.17290151119232178,0.1337171047925949
1772363444540947000,9.777947021484374,0.009334160946309566,0.17983025312423706,0.0819748044013977
1772363444551016700,9.7880166015625,0.009015916846692562,0.11342532932758331,0.012235951609909534
1772363444561086000,9.7980859375,0.014232516288757324,-0.04589428752660751,-0.025561761111021042
1772363444571155700,9.80815576171875,0.012190602719783783,-0.12581434845924377,-0.04995401203632355
1772363444581225000,9.818224853515625,0.017207199707627296,-0.09731531888246536,-0.08046557754278183
1772363444591295000,9.828294921875,0.013744311407208443,-0.09880504757165909,-0.133026123046875
1772363444601364000,9.838364013671875,-0.004981971345841885,-0.1721399873495102,-0.1657867282629013
1772363444611434000,9.84843408203125,0.0037427975330501795,-0.28159454464912415,-0.1778305619955063
1772363444621503000,9.8585029296875,-0.0019638240337371826,-0.3762526214122772,-0.13874147832393646
1772363444631573000,9.868572998046876,-0.005527665838599205,-0.3816724121570587,-0.06870699673891068
1772363444641641700,9.878641845703125,-0.028943508863449097,-0.2737550139427185,0.010782770812511444
1772363444651712000,9.8887119140625,-0.04400273784995079,-0.11200817674398422,0.05949576199054718
1772363444661780700,9.89878076171875,-0.05976065993309021,0.007385594770312309,0.06196664273738861
1772363444671851000,9.90885107421875,-0.04854622483253479,0.011337166652083397,0.05366094410419464
