time,seconds_elapsed,z,y,x
1772364969609874400,0.12087451171875,0.0654960572719574,0.0447654128074646,0.025556568056344986
1772364969619944400,0.1309443359375,0.06046081706881523,0.021259285509586334,0.015180358663201332
1772364969630014500,0.141014404296875,0.041966866701841354,0.019431952387094498,-0.005722437519580126
1772364969640085500,0.15108544921875,0.030158676207065582,0.022968629375100136,-0.022664137184619904
1772364969650155500,0.161155517578125,0.014198455959558487,0.023551564663648605,-0.02028246596455574
1772364969660225300,0.171225341796875,0.00491973664611578,0.03584445267915726,-0.005430815741419792
1772364969670295600,0.181295654296875,0.013303902931511402,0.041813284158706665,0.0063545554876327515
1772364969680366600,0.19136669921875,0.007050001993775368,0.037657156586647034,0.015716364607214928
1772364969690436600,0.2014365234375,-0.0029378579929471016,0.045632850378751755,0.017486557364463806
1772364969700506400,0.21150634765625,0.0073757655918598175,0.05202550068497658,0.007416081614792347
1772364969710576600,0.22157666015625,0.00418433640152216,0.07477445900440216,-0.002389141358435154
1772364969720646400,0.231646484375,0.019217614084482193,0.0859283059835434,-0.005793992429971695
1772364969730717400,0.241717529296875,0.015434589236974716,0.09201624989509583,0.0037258416414260864
1772364969740787500,0.251787353515625,0.01991509273648262,0.08204697072505951,0.010470297187566757
1772364969750857500,0.261857421875,0.021043255925178528,0.05546698346734047,0.02628726325929165
1772364969760927500,0.271927490234375,0.010852934792637825,0.026269949972629547,0.040104277431964874
1772364969770997500,0.28199755859375,0.00788431242108345,0.024384858086705208,0.05853316932916641
1772364969781068500,0.292068603515625,0.005967102944850922,0.032857172191143036,0.06769417971372604
1772364969791138300,0.30213818359375,0.005889992695301771,0.03566575422883034,0.07279100269079208
1772364969801208600,0.31220849609375,-0.0009881528094410896,0.0208244901150465,0.07473457604646683
1772364969811278600,0.322278564453125,0.0016237152740359306,0.017723632976412773,0.06258239597082138
1772364969821349400,0.332349365234375,0.003311626613140106,0.02125232107937336,0.05271404981613159
1772364969831419400,0.34241943359375,0.0026351758278906345,0.01804247312247753,0.03822379559278488
1772364969841489700,0.35248974609375,0.0036245398223400116,-0.0023813091684132814,0.02432582713663578
1772364969851559400,0.362559326171875,-0.0017841309309005737,-0.010974965989589691,0.013713490217924118
1772364969861629400,0.37262939453125,-0.0053455764427781105,-0.01445571705698967,0.0016549639403820038
1772364969871700500,0.382700439453125,0.0002840803936123848,-0.019728776067495346,-0.001419123262166977
1772364969881770500,0.3927705078125,0.0012382911518216133,-0.029832808300852776,-0.0017416318878531456
1772364969891840500,0.402840576171875,-0.003712303936481476,-0.028059855103492737,-0.011061910539865494
1772364969901910500,0.41291064453125,-0.003639332950115204,-0.03536437079310417,-0.020621860399842262
1772364969911981600,0.422981689453125,-0.012601196765899658,-0.041819825768470764,-0.020183313637971878
1772364969922051300,0.43305126953125,-0.009556138888001442,-0.0551723837852478,-0.01651640608906746
1772364969932121600,0.44312158203125,-0.012820440344512463,-0.05115123093128204,-0.00784575566649437
1772364969942191600,0.453191650390625,-0.011505105532705784,-0.037269771099090576,0.004752062261104584
1772364969952261400,0.463261474609375,-0.0051667774096131325,-0.028362400829792023,0.007526092231273651
1772364969962332400,0.47333251953125,0.002993946895003319,-0.01764610782265663,0.007912516593933105
1772364969972402700,0.483402587890625,0.013398289680480957,-0.002816853579133749,0.007319677621126175
1772364969982472400,0.493472412109375,0.01859598234295845,0.013207120820879936,0.006618732586503029
1772364969992542500,0.50354248046875,0.01797226071357727,0.02420496568083763,0.00702035054564476
1772364970002612500,0.513612548828125,0.01911741867661476,0.049380093812942505,0.009077908471226692
1772364970012683300,0.523683349609375,0.029872659593820572,0.06951381266117096,0.011486014351248741
1772364970022753500,0.53375341796875,0.029892098158597946,0.07879173010587692,0.015821373090147972
1772364970032823600,0.543823486328125,0.014254496432840824,0.07650885730981827,0.015119010582566261
1772364970042893300,0.553893310546875,0.01931823045015335,0.09477042406797409,0.02666887268424034
1772364970052964400,0.56396435546875,0.008026954717934132,0.08098478615283966,0.03297293931245804
1772364970063034600,0.57403466796875,0.00362581480294466,0.07082456350326538,0.037642523646354675
1772364970073104400,0.5841044921875,0.008230537176132202,0.03387076407670975,0.03085562214255333
1772364970083174400,0.59417431640625,-0.0006210114806890488,0.010316168889403343,0.03042738512158394
1772364970093244700,0.60424462890625,0.0021444689482450485,-0.0006219558417797089,0.016795817762613297
1772364970103315700,0.614315673828125,-0.00017194822430610657,-0.025566186755895615,0.002931934781372547
1772364970113385500,0.624385498046875,-0.0033787721768021584,-0.038769785314798355,-0.011847005225718021
1772364970123455500,0.63445556640625,-0.009051571600139141,-0.04253442957997322,-0.027350865304470062
1772364970133525500,0.644525390625,-0.011167778633534908,-0.029872223734855652,-0.04324113577604294
1772364970143596300,0.65459619140625,-0.017780672758817673,-0.015310591086745262,-0.0507776141166687
1772364970153666600,0.66466650390625,-0.020496129989624023,-0.011109375394880772,-0.05501800402998924
1772364970163736600,0.674736572265625,-0.01818637177348137,-0.019229087978601456,-0.05277721956372261
1772364970173806300,0.684806396484375,-0.012568057514727116,-0.028602704405784607,-0.032896194607019424
1772364970183876600,0.694876708984375,-0.011236476711928844,-0.028845317661762238,-0.013606120832264423
1772364970193947600,0.70494775390625,-0.009748357348144054,-0.030074268579483032,0.007373021915555
1772364970204017400,0.715017333984375,-0.007086263038218021,-0.032444749027490616,0.01831967942416668
1772364970214087400,0.72508740234375,-0.0022750534117221832,-0.03537694737315178,0.025293175131082535
1772364970224157700,0.73515771484375,0.00008796900510787964,-0.035484008491039276,0.021984465420246124
1772364970234227500,0.7452275390625,0.00021745730191469193,-0.03275580704212189,0.009409807622432709
1772364970244298500,0.755298583984375,-0.001515994779765606,-0.02682281658053398,-0.0036367513239383698
1772364970254368500,0.765368408203125,-0.0012502213940024376,-0.006010578013956547,-0.014510244131088257
1772364970264438300,0.775438232421875,-0.00031225569546222687,0.013889627531170845,-0.020264269784092903
1772364970274508500,0.785508544921875,0.002034268341958523,0.017121097072958946,-0.020419105887413025
1772364970284578600,0.79557861328125,0.011923650279641151,0.002536563202738762,-0.022999443113803864
1772364970294649600,0.805649658203125,0.016779333353042603,-0.006922244559973478,-0.030138306319713593
1772364970304719400,0.81571923828125,0.013645058497786522,-0.0135111715644598,-0.041101742535829544
1772364970314789600,0.82578955078125,0.01263720914721489,-0.01680179312825203,-0.04880803823471069
1772364970324859400,0.835859375,0.0034889853559434414,-0.007539053447544575,-0.045519836246967316
1772364970334933800,0.845933837890625,-0.00047150813043117523,-0.0042754774913191795,-0.03883592039346695
1772364970345003500,0.85600341796875,-0.008047401905059814,0.0016103750094771385,-0.025047404691576958
1772364970355073800,0.86607373046875,-0.011155516840517521,-0.0057541136629879475,-0.013781356625258923
1772364970365143800,0.876143798828125,-0.012257532216608524,-0.011871394701302052,-0.0054312814027071
1772364970375213600,0.886213623046875,-0.013365726917982101,-0.01564137451350689,-0.003736533224582672
1772364970385284600,0.89628466796875,-0.015326611697673798,-0.013387808576226234,0.0029029930010437965
1772364970395354600,0.906354736328125,-0.01704441010951996,-0.006694011390209198,0.004675067029893398
1772364970405424600,0.916424560546875,-0.010028845630586147,-0.0047088912688195705,0.0023541226983070374
1772364970415494700,0.92649462890625,-0.016919396817684174,0.0017651640810072422,0.004793839529156685
1772364970425564700,0.936564697265625,-0.010742728598415852,-0.004365698900073767,0.007873784750699997
1772364970435635700,0.9466357421875,-0.008995109237730503,-0.023331016302108765,0.0044351136311888695
1772364970445705700,0.956705810546875,-0.009626013226807117,-0.04191162437200546,-0.0006097126752138138
1772364970455775700,0.966775634765625,-0.012303394265472889,-0.038514889776706696,-0.010464830324053764
1772364970465845500,0.976845458984375,-0.01727338507771492,-0.022632863372564316,-0.014499785378575325
1772364970475916500,0.98691650390625,-0.018427018076181412,-0.01776597648859024,-0.023142091929912567
1772364970485986800,0.99698681640625,-0.01937457174062729,-0.02323451079428196,-0.02718397229909897
1772364970496056800,1.007056884765625,-0.0172792486846447,-0.027120446786284447,-0.031447429209947586
1772364970506126600,1.017126708984375,-0.020208723843097687,-0.033424682915210724,-0.03351404145359993
1772364970516196600,1.027196533203125,-0.01909993775188923,-0.029895659536123276,-0.03986773267388344
1772364970526267600,1.037267578125,-0.02000141702592373,-0.024973072111606598,-0.04172475263476372
1772364970536337700,1.047337646484375,-0.018871385604143143,-0.020617621019482613,-0.036884989589452744
1772364970546407700,1.05740771484375,-0.017368564382195473,-0.022064249962568283,-0.02596629410982132
1772364970556477700,1.067477783203125,-0.022018445655703545,-0.024162977933883667,-0.01381917018443346
1772364970566547700,1.077547607421875,-0.020981410518288612,-0.028181154280900955,-0.0014668963849544525
1772364970576618800,1.08761865234375,-0.020286906510591507,-0.022607073187828064,0.0038149431347846985
1772364970586688800,1.097688720703125,-0.020639773458242416,-0.017506852746009827,0.004100967198610306
1772364970596758500,1.107758544921875,-0.023456068709492683,-0.007413786370307207,0.001909010112285614
1772364970606828800,1.117828857421875,-0.016851963475346565,-0.006751724518835545,-0.003565116785466671
1772364970616898800,1.12789892578125,-0.012203999795019627,-0.0038110241293907166,-0.00563190970569849
1772364970626969900,1.137969970703125,-0.013166998513042927,-0.0032003612723201513,-0.004384218715131283
1772364970637039600,1.14803955078125,-0.010178140364587307,-0.0008110692724585533,-0.004829312674701214
1772364970647109600,1.158109619140625,-0.009071064181625843,-0.006518223322927952,-0.0024630939587950706
1772364970657179600,1.1681796875,-0.010925416834652424,-0.0038335509598255157,0.0016709240153431892
1772364970667250700,1.178250732421875,-0.01030223723500967,0.0018802611157298088,0.0047287652269005775
1772364970677320700,1.18832080078125,-0.012120227329432964,-0.0015689169522374868,0.009454291313886642
1772364970687390700,1.198390625,-0.015419085510075092,-0.012374160811305046,0.004966067150235176
1772364970697460700,1.208460693359375,-0.016344578936696053,-0.018653273582458496,0.007117888890206814
1772364970707530800,1.21853076171875,-0.02428346313536167,-0.025881092995405197,0.00559163186699152
1772364970717601800,1.228601806640625,-0.034045010805130005,-0.02860790304839611,0.007541864179074764
1772364970727671600,1.238671630859375,-0.04118414968252182,-0.03077438473701477,0.004369507543742657
1772364970737741800,1.248741943359375,-0.04968581348657608,-0.031549904495477676,-0.004926078021526337
1772364970747811800,1.258811767578125,-0.05083043873310089,-0.026715204119682312,-0.019963882863521576
1772364970757881600,1.268881591796875,-0.05075725540518761,-0.03165271133184433,-0.03549126535654068
1772364970767952600,1.27895263671875,-0.049132462590932846,-0.01889537274837494,-0.041058603674173355
1772364970778022700,1.289022705078125,-0.042462144047021866,0.0011295443400740623,-0.0375228226184845
1772364970788092700,1.2990927734375,-0.03357171267271042,0.017065633088350296,-0.026610784232616425
1772364970798162700,1.30916259765625,-0.025319645181298256,0.017982354387640953,-0.0073774284683167934
1772364970808232700,1.319232666015625,-0.016212699934840202,0.0189935564994812,0.01957695558667183
1772364970818303500,1.329303466796875,-0.01077963411808014,0.018788689747452736,0.042008932679891586
1772364970828373800,1.339373779296875,-0.001955249346792698,0.016011545434594154,0.05165144056081772
1772364970838443800,1.34944384765625,0.00614779070019722,0.013028023764491081,0.05022549629211426
1772364970848513500,1.359513427734375,0.013264290057122707,0.015502633526921272,0.03489553928375244
1772364970858583800,1.369583740234375,0.016020063310861588,0.023453345522284508,0.008905148133635521
1772364970868654800,1.37965478515625,0.01903449557721615,0.032884396612644196,-0.014553839340806007
1772364970878724900,1.389724853515625,0.016739925369620323,0.05464491993188858,-0.023149114102125168
1772364970888794600,1.399794677734375,0.02248968929052353,0.05940478667616844,-0.026373669505119324
1772364970898864600,1.40986474609375,0.02215689979493618,0.04519109055399895,-0.02246379479765892
1772364970908935700,1.419935791015625,0.02383309230208397,0.021343018859624863,-0.019844043999910355
1772364970919005700,1.430005615234375,0.01738286390900612,-0.0045298682525753975,-0.02449347823858261
1772364970929075700,1.44007568359375,0.010158240795135498,-0.021883292123675346,-0.03675733506679535
1772364970939145700,1.450145751953125,0.00398935005068779,-0.016586363315582275,-0.04758770391345024
1772364970949215700,1.4602158203125,-0.00521453469991684,-0.007963581010699272,-0.04992329701781273
1772364970959286800,1.470286865234375,-0.010264318436384201,-0.011383799836039543,-0.038301076740026474
1772364970969356800,1.480356689453125,-0.009323423728346825,-0.01642409898340702,-0.016055427491664886
1772364970979426600,1.490426513671875,-0.011438397690653801,-0.0249741580337286,0.0067193033173680305
1772364970989496800,1.500496826171875,-0.012609388679265976,-0.03609471768140793,0.032166872173547745
1772364970999566800,1.51056689453125,-0.011787643656134605,-0.0340343602001667,0.04733961075544357
1772364971009637600,1.5206376953125,-0.01392270065844059,-0.025746602565050125,0.05744018033146858
1772364971019707600,1.530707763671875,-0.01375348586589098,-0.010105354711413383,0.05960320681333542
1772364971029777700,1.540777587890625,-0.0034382641315460205,-0.0036130999214947224,0.05895259231328964
1772364971039847700,1.55084765625,-0.0027212323620915413,-0.003431186079978943,0.05370980501174927
1772364971049917700,1.560917724609375,-0.002248520962893963,-0.004751314874738455,0.05087966471910477
1772364971059988700,1.57098876953125,-0.0031839273869991302,-0.015475303865969181,0.0440710224211216
1772364971070058500,1.58105859375,-0.0020310450345277786,-0.021896183490753174,0.029722176492214203
1772364971080128800,1.591128662109375,-0.0021553635597229004,-0.01743127591907978,0.014710205607116222
1772364971090198800,1.60119873046875,-0.0015260586515069008,-0.019801754504442215,-0.0012226877734065056
1772364971100268500,1.6112685546875,-0.004898419603705406,-0.035572197288274765,-0.011487309820950031
1772364971110339600,1.621339599609375,-0.008428174071013927,-0.05203079804778099,-0.017780093476176262
1772364971120409600,1.63140966796875,-0.013524822890758514,-0.0626486986875534,-0.026227816939353943
1772364971130479900,1.64147998046875,-0.020707901567220688,-0.05624698847532272,-0.026714377105236053
1772364971140549600,1.651549560546875,-0.021215125918388367,-0.05052037164568901,-0.031514015048742294
1772364971150619600,1.66161962890625,-0.017003070563077927,-0.05143623426556587,-0.030752353370189667
1772364971160690700,1.671690673828125,-0.01125724520534277,-0.05289601534605026,-0.02233259379863739
1772364971170760700,1.6817607421875,-0.004477635957300663,-0.04866025596857071,-0.014481860212981701
1772364971180830700,1.691830810546875,0.007469414733350277,-0.04105500131845474,-0.005264839623123407
1772364971190900700,1.701900634765625,0.009052397683262825,-0.024571366608142853,-0.009042534045875072
1772364971200970800,1.711970703125,0.014909114688634872,-0.05000297352671623,-0.0223153717815876
1772364971211041800,1.722041748046875,0.030828159302473068,-0.05436762794852257,-0.010956192389130592
1772364971221111800,1.73211181640625,0.018784545361995697,-0.003570227650925517,-0.006741739809513092
1772364971231181600,1.742181640625,0.01260867528617382,0.018883150070905685,-0.020137973129749298
1772364971241251600,1.75225146484375,0.012323345057666302,0.0008961870335042477,-0.01971772499382496
1772364971251321900,1.76232177734375,0.016751116141676903,-0.013809522613883018,-0.020710285753011703
1772364971261392600,1.772392578125,0.01667771302163601,-0.008496636524796486,-0.021186277270317078
1772364971271462700,1.782462646484375,0.01415916159749031,-0.0018845407757908106,-0.012696119025349617
1772364971281532700,1.79253271484375,0.008085714653134346,-0.006750954315066338,-0.0007224557921290398
1772364971291602700,1.802602783203125,0.0029759081080555916,-0.005347468890249729,0.0075178975239396095
1772364971301672700,1.812672607421875,-0.0018673669546842575,-0.008777315728366375,0.014192129485309124
1772364971311743700,1.82274365234375,-0.009436337277293205,-0.009580790996551514,0.02016346901655197
1772364971321813800,1.832813720703125,-0.01485874317586422,-0.020752960816025734,0.006909980438649654
1772364971331883800,1.8428837890625,-0.010402210056781769,-0.054279498755931854,-0.004630561918020248
1772364971341953800,1.852953857421875,-0.0182342492043972,-0.06726978719234467,-0.005806522909551859
1772364971352023600,1.8630234375,-0.022528065368533134,-0.055723391473293304,-0.011561080813407898
1772364971362094600,1.873094482421875,-0.02767941541969776,-0.04797252640128136,-0.0250430665910244
1772364971372164600,1.88316455078125,-0.030173731967806816,-0.057766567915678024,-0.04227984696626663
1772364971382235000,1.89323486328125,-0.025291092693805695,-0.06137430667877197,-0.059364378452301025
1772364971392304600,1.9033046875,-0.02682507410645485,-0.04938261955976486,-0.06392104923725128
1772364971402374700,1.913374755859375,-0.02871757186949253,-0.03412223234772682,-0.06696104258298874
1772364971412445700,1.92344580078125,-0.029459526762366295,-0.0266435444355011,-0.05818406492471695
1772364971422515700,1.933515625,-0.02308887243270874,-0.02972453646361828,-0.037924688309431076
1772364971432585700,1.943585693359375,-0.02339513599872589,-0.030741332098841667,-0.00981502328068018
1772364971442655700,1.95365576171875,-0.02150876633822918,-0.03799353539943695,0.017906617373228073
1772364971452725800,1.963725830078125,-0.02319161780178547,-0.04556863009929657,0.038497913628816605
1772364971462796800,1.973796875,-0.02667093463242054,-0.06033098325133324,0.043591927736997604
1772364971472866800,1.98386669921875,-0.028160175308585167,-0.0617150254547596,0.04194715991616249
1772364971482936600,1.9939365234375,-0.02762359008193016,-0.05071907863020897,0.025167101994156837
1772364971493006600,2.004006591796875,-0.028961297124624252,-0.044077690690755844,0.003664739429950714
1772364971503076900,2.014076904296875,-0.0288342647254467,-0.040435172617435455,-0.01751094125211239
1772364971513147600,2.024147705078125,-0.02479211986064911,-0.02446472831070423,-0.028490355238318443
1772364971523217700,2.0342177734375,-0.022096313536167145,-0.01538459025323391,-0.026254096999764442
1772364971533287700,2.04428759765625,-0.017812881618738174,-0.012310503050684929,-0.026877809315919876
1772364971543357700,2.054357666015625,-0.017567552626132965,-0.02300308458507061,-0.029409322887659073
1772364971553427700,2.064427734375,-0.01613956317305565,-0.02745509147644043,-0.035669080913066864
1772364971563498800,2.074498779296875,-0.018059223890304565,-0.019391315057873726,-0.038126200437545776
1772364971573568800,2.08456884765625,-0.019142065197229385,-0.012442861683666706,-0.03533201664686203
1772364971583638800,2.094638671875,-0.018423011526465416,-0.0026952694170176983,-0.026167724281549454
1772364971593708800,2.104708740234375,-0.020219579339027405,-0.0010848557576537132,-0.004116750322282314
1772364971603778600,2.114778564453125,-0.018845710903406143,-0.005110014230012894,0.014894760213792324
1772364971613849600,2.124849609375,-0.019523486495018005,-0.007519109640270472,0.02892109751701355
1772364971623919600,2.134919677734375,-0.01875009760260582,0.000910688191652298,0.041679855436086655
1772364971633990000,2.144989990234375,-0.018173258751630783,0.01018834300339222,0.046258095651865005
1772364971644059600,2.1550595703125,-0.016402415931224823,0.016065111383795738,0.049738846719264984
1772364971654129700,2.165129638671875,-0.01424712035804987,0.020668651908636093,0.04922885075211525
1772364971664200700,2.17520068359375,-0.009098378010094166,0.024906659498810768,0.05200892686843872
1772364971674270700,2.185270751953125,-0.008239508606493473,0.025236092507839203,0.0511508509516716
1772364971684340700,2.1953408203125,-0.007191396318376064,0.011046219617128372,0.04832346737384796
1772364971694410800,2.20541064453125,-0.007049982436001301,-0.009772510267794132,0.0397116020321846
1772364971704480800,2.215480712890625,-0.010657659731805325,-0.011527247726917267,0.025486504659056664
1772364971714551800,2.2255517578125,-0.014732296578586102,-0.00038458267226815224,0.019662437960505486
1772364971724621800,2.235621826171875,-0.015952400863170624,0.004551411606371403,0.015177677385509014
1772364971734691600,2.245691650390625,-0.012603742070496082,0.011225558817386627,0.012246069498360157
1772364971744761600,2.25576171875,-0.007518164813518524,0.007982565090060234,-0.013868891634047031
1772364971754832000,2.265831787109375,0.0005099354311823845,-0.02525075525045395,-0.03903869539499283
1772364971764902700,2.275902587890625,0.00204642117023468,-0.0391879677772522,-0.04155697673559189
1772364971774972700,2.28597265625,0.0009729005396366119,-0.01730131357908249,-0.03835665434598923
1772364971785042700,2.296042724609375,0.0064961835741996765,0.005306418053805828,-0.03555527329444885
1772364971795112700,2.30611279296875,0.007769174408167601,0.008832443505525589,-0.03066650778055191
1772364971805182700,2.3161826171875,0.015499532222747803,0.003945808857679367,-0.024078648537397385
1772364971815253800,2.326253662109375,0.01952250301837921,0.010850053280591965,-0.014758915640413761
1772364971825323800,2.33632373046875,0.026238515973091125,0.02173120714724064,-0.006246833596378565
1772364971835393800,2.346393798828125,0.02874881401658058,0.03665928915143013,0.0010318523272871971
1772364971845463800,2.3564638671875,0.02883312664926052,0.04613586142659187,0.0019126497209072113
1772364971855533600,2.366533447265625,0.02612282894551754,0.057757895439863205,0.0028918934985995293
1772364971865604600,2.3766044921875,0.02655906043946743,0.07263243198394775,0.008117190562188625
1772364971875674600,2.386674560546875,0.025849327445030212,0.08210849016904831,0.011727637611329556
1772364971885745000,2.396744873046875,0.02541070058941841,0.074386827647686,0.005980982445180416
1772364971895814700,2.406814697265625,0.023090820759534836,0.0682450458407402,0.005002803169190884
1772364971905884700,2.416884765625,0.024480300024151802,0.0679505243897438,0.008239252492785454
1772364971915955700,2.426955810546875,0.022840591147542,0.06962645053863525,0.014996491372585297
1772364971926025700,2.437025634765625,0.022617949172854424,0.06716473400592804,0.021793857216835022
1772364971936095700,2.447095703125,0.019696995615959167,0.05712275207042694,0.028186507523059845
1772364971946165800,2.457165771484375,0.019189344719052315,0.05185718834400177,0.0329001247882843
1772364971956235500,2.467235595703125,0.01969427987933159,0.044418446719646454,0.03114643320441246
1772364971966306600,2.477306640625,0.014836674556136131,0.037871863692998886,0.02566271647810936
1772364971976376800,2.487376953125,0.014860909432172775,0.03289175033569336,0.022445619106292725
1772364971986446600,2.497446533203125,0.01282257866114378,0.03125669062137604,0.012767424806952477
1772364971996516600,2.5075166015625,0.010372736491262913,0.03150569647550583,0.0054647717624902725
1772364972006587000,2.5175869140625,0.006792065687477589,0.03246074169874191,-0.010859785601496696
1772364972016657700,2.52765771484375,0.005177923943847418,0.01837342046201229,-0.02184266224503517
1772364972026727700,2.537727783203125,0.004765929654240608,0.013241995126008987,-0.03828945383429527
1772364972036797700,2.547797607421875,0.004606938920915127,0.015518199652433395,-0.037826865911483765
1772364972046867700,2.55786767578125,0.002398862037807703,0.023387501016259193,-0.029191920533776283
1772364972056937700,2.567937744140625,0.007707607466727495,0.03215595707297325,-0.014809786342084408
1772364972067008800,2.5780087890625,0.01112950500100851,0.02834981307387352,0.014254800044000149
1772364972077078800,2.588078857421875,0.013971630483865738,0.03575260192155838,0.04071064293384552
1772364972087148500,2.5981484375,0.015251651406288147,0.027543649077415466,0.06237412989139557
1772364972097218800,2.60821875,0.016338221728801727,0.008390726521611214,0.07297350466251373
1772364972107288600,2.61828857421875,0.014117568731307983,0.0032610376365482807,0.06947091221809387
1772364972117359600,2.628359619140625,0.01503023412078619,0.015781357884407043,0.055058952420949936
1772364972127429600,2.6384296875,0.010248691774904728,0.024012194946408272,0.034569039940834045
1772364972137500000,2.6485,0.005444349255412817,0.034269627183675766,0.010806984268128872
1772364972147569700,2.658569580078125,0.012848304584622383,0.08371391147375107,0.010956652462482452
1772364972157639700,2.6686396484375,0.029517827555537224,0.07999134808778763,0.028779057785868645
1772364972167710700,2.678710693359375,0.028072308748960495,0.09202779084444046,0.03564753755927086
1772364972177780700,2.68878076171875,0.04364008456468582,0.07193823903799057,0.033226992934942245
1772364972187850800,2.698850830078125,0.04894468933343887,0.03258267045021057,0.04168003425002098
1772364972197920800,2.708920654296875,0.03861907869577408,0.03491958975791931,0.04089759662747383
1772364972207990500,2.718990478515625,0.03838562220335007,0.026083262637257576,0.034496158361434937
1772364972218060800,2.729060791015625,0.027923129498958588,0.007918905466794968,0.025758326053619385
1772364972228131800,2.7391318359375,0.03777293488383293,-0.007168618496507406,0.03427715599536896
1772364972238201600,2.74920166015625,0.031899333000183105,0.008619399741292,0.04446108639240265
1772364972248271600,2.759271728515625,0.015348531305789948,0.030048782005906105,0.04061698913574219
1772364972258342000,2.769341796875,0.006928414572030306,0.01948029361665249,0.03437773510813713
1772364972268411600,2.77941162109375,0.013153658248484135,0.013765653595328331,0.041627928614616394
1772364972278482700,2.789482666015625,0.015098298899829388,0.028813045471906662,0.04972473904490471
1772364972288552700,2.799552734375,0.0199480801820755,0.0408579558134079,0.04949064180254936
1772364972298622700,2.809622802734375,0.02626589871942997,0.03755936399102211,0.049693040549755096
1772364972308692700,2.819692626953125,0.02895595133304596,0.029761692509055138,0.04683813452720642
1772364972318762800,2.8297626953125,0.03178662806749344,0.02425267919898033,0.04285963997244835
1772364972328833800,2.839833740234375,0.03191712498664856,0.02376270294189453,0.04119560495018959
1772364972338899700,2.849899658203125,0.028993239626288414,0.03001687116920948,0.04527636617422104
1772364972348969700,2.8599697265625,0.029861271381378174,0.057134680449962616,0.05339101701974869
1772364972359039500,2.87003955078125,0.03435908630490303,0.07654619961977005,0.0717998519539833
1772364972369109500,2.880109619140625,0.039401035755872726,0.08756488561630249,0.08761662989854813
1772364972379180500,2.8901806640625,0.04704377427697182,0.07934636622667313,0.0973435640335083
1772364972389250600,2.90025048828125,0.0481586754322052,0.075062595307827,0.1060497909784317
1772364972399320600,2.910320556640625,0.047766122967004776,0.08258922398090363,0.11870940029621124
1772364972409390600,2.920390625,0.041950371116399765,0.09811710566282272,0.12517660856246948
1772364972419460600,2.930460693359375,0.044846825301647186,0.10495823621749878,0.13612353801727295
1772364972429531600,2.94053173828125,0.04909733682870865,0.10343769192695618,0.15020082890987396
1772364972439601700,2.9506015625,0.05101561173796654,0.1000664010643959,0.16130700707435608
1772364972449671400,2.96067138671875,0.056158602237701416,0.10593561828136444,0.16830891370773315
1772364972459741700,2.97074169921875,0.06256803125143051,0.11422070860862732,0.16883382201194763
1772364972469811700,2.980811767578125,0.05135926604270935,0.14383871853351593,0.1695391982793808
1772364972479882800,2.9908828125,0.07217533886432648,0.15750420093536377,0.15617546439170837
1772364972489952500,3.000952392578125,0.08077926188707352,0.11151663959026337,0.14095760881900787
1772364972500022500,3.0110224609375,0.08740440756082535,0.08243092894554138,0.12579384446144104
1772364972510092800,3.0210927734375,0.08108466863632202,0.10178250819444656,0.11322230845689774
1772364972520162600,3.03116259765625,0.07771657407283783,0.14953646063804626,0.09498391300439835
1772364972530233600,3.041233642578125,0.0741301029920578,0.1561940759420395,0.0827266275882721
1772364972540303600,3.0513037109375,0.06949299573898315,0.11223113536834717,0.08263181895017624
1772364972550373600,3.06137353515625,0.06069459766149521,0.08661297708749771,0.0800078958272934
1772364972560443600,3.071443603515625,0.058989912271499634,0.10346172749996185,0.08293896913528442
1772364972570513700,3.081513671875,0.054639801383018494,0.11876193434000015,0.09485785663127899
1772364972580583700,3.091583740234375,0.04873397573828697,0.108127661049366,0.09386050701141357
1772364972590654700,3.10165478515625,0.0423426553606987,0.09914342314004898,0.08004508912563324
1772364972600724700,3.111724853515625,0.05576339364051819,0.09726642817258835,0.06832637637853622
1772364972610794500,3.12179443359375,0.06567146629095078,0.05503823980689049,0.041521042585372925
1772364972620864500,3.131864501953125,0.061095625162124634,0.028430331498384476,0.04685535281896591
1772364972630934800,3.141934814453125,0.05905207246541977,0.0495276115834713,0.01812659204006195
1772364972641005600,3.152005615234375,0.07990089058876038,0.04880322888493538,-0.010692272335290909
1772364972651075600,3.16207568359375,0.07166267931461334,0.01862848550081253,-0.024075455963611603
1772364972661145600,3.1721455078125,0.06645140051841736,0.022327616810798645,-0.048565883189439774
1772364972671215600,3.182215576171875,0.06281591951847076,0.008418992161750793,-0.059708286076784134
1772364972681285600,3.19228564453125,0.07198119163513184,0.01711607724428177,-0.04601617529988289
1772364972691356700,3.202356689453125,0.06602668017148972,0.046662792563438416,-0.029018457978963852
1772364972701426400,3.212426513671875,0.05769817903637886,0.06057088449597359,-0.01643342524766922
1772364972711496700,3.22249658203125,0.061461225152015686,0.04177611321210861,-0.01790393516421318
1772364972721566700,3.232566650390625,0.06436912715435028,0.013719978742301464,0.013569300994277
1772364972731636500,3.242636474609375,0.06135416775941849,0.039562758058309555,0.06314697861671448
1772364972741707500,3.25270751953125,0.054723694920539856,0.07822733372449875,0.08683978766202927
1772364972751777500,3.262777587890625,0.04954458400607109,0.06398666650056839,0.09750699251890182
1772364972761847800,3.272847900390625,0.05415957793593407,0.008591316640377045,0.10078800469636917
1772364972771917600,3.28291748046875,0.050813160836696625,-0.017158832401037216,0.10272270441055298
1772364972781987600,3.292987548828125,0.05391787737607956,0.005135021172463894,0.1087113469839096
1772364972792057600,3.3030576171875,0.03634979948401451,0.04226458817720413,0.10399188101291656
1772364972802128600,3.313128662109375,0.031086329370737076,0.059255555272102356,0.0910760760307312
1772364972812198700,3.32319873046875,0.03898978978395462,0.020494647324085236,0.08620142191648483
1772364972822268700,3.3332685546875,0.04268226400017738,-0.013265714049339294,0.07037372887134552
1772364972832338700,3.343338623046875,0.03198770433664322,-0.015931088477373123,0.05635440722107887
1772364972842408700,3.35340869140625,0.022503651678562164,-0.01143034640699625,0.03984680026769638
1772364972852479700,3.363479736328125,0.018770962953567505,-0.028375333175063133,0.02596498653292656
1772364972862549500,3.373549560546875,0.0027445913292467594,-0.01829873025417328,-0.009981829673051834
1772364972872619500,3.38361962890625,-0.0015778737142682076,-0.03616485744714737,-0.027707384899258614
1772364972882689800,3.393689697265625,-0.00917400885373354,-0.053961433470249176,-0.028016578406095505
1772364972892759600,3.403759521484375,-0.014326533302664757,-0.05934407562017441,-0.023356135934591293
1772364972902830600,3.41383056640625,-0.005286965519189835,-0.07139141857624054,-0.02411247231066227
1772364972912900600,3.423900634765625,-0.00870119221508503,-0.08622565865516663,-0.019518433138728142
1772364972922970600,3.433970703125,-0.004816971719264984,-0.07904790341854095,-0.01522861234843731
1772364972933040600,3.44404052734375,-0.010508892126381397,-0.06965561211109161,-0.018518947064876556
1772364972943110700,3.454110595703125,-0.014158221893012524,-0.06287680566310883,-0.01841428503394127
1772364972953181400,3.464181396484375,-0.012307269498705864,-0.051510266959667206,-0.014189534820616245
1772364972963251700,3.474251708984375,-0.016089491546154022,-0.04907640442252159,-0.00585517194122076
1772364972973321700,3.48432177734375,-0.024984128773212433,-0.04722188413143158,-0.002635763958096504
1772364972983391500,3.4943916015625,-0.022821906954050064,-0.04727088660001755,0.002727043814957142
1772364972993461500,3.50446142578125,-0.024584390223026276,-0.03834603354334831,0.007773730903863907
1772364973003531800,3.51453173828125,-0.022901274263858795,-0.05237370356917381,0.014241216704249382
1772364973013602800,3.524602783203125,-0.027472112327814102,-0.06147559732198715,0.020773597061634064
1772364973023672600,3.534672607421875,-0.033612027764320374,-0.045677460730075836,0.025212816894054413
1772364973033742600,3.54474267578125,-0.03711749613285065,-0.044309698045253754,0.037343695759773254
1772364973043812600,3.5548125,-0.04045896604657173,-0.05158252269029617,0.046906307339668274
1772364973053882600,3.564882568359375,-0.044509630650281906,-0.055115070194005966,0.050834741443395615
1772364973063953700,3.57495361328125,-0.048526208847761154,-0.05160821974277496,0.05431069806218147
1772364973074023700,3.585023681640625,-0.05060422420501709,-0.055032528936862946,0.054320551455020905
1772364973084093700,3.59509375,-0.055331334471702576,-0.0527920126914978,0.05345182865858078
1772364973094163700,3.605163818359375,-0.050887688994407654,-0.04931822046637535,0.05939360707998276
1772364973104233500,3.6152333984375,-0.051675714552402496,-0.05093076452612877,0.060509465634822845
1772364973114304500,3.625304443359375,-0.04832417890429497,-0.046007875353097916,0.06926257163286209
1772364973124374500,3.63537451171875,-0.040314722806215286,-0.05337870866060257,0.06691286712884903
1772364973134444800,3.64544482421875,-0.03314810246229172,-0.06754755973815918,0.057202890515327454
1772364973144514600,3.6555146484375,-0.029025530442595482,-0.0684325248003006,0.05342652648687363
1772364973154584600,3.66558447265625,-0.02446359023451805,-0.053995341062545776,0.047852978110313416
1772364973164655600,3.675655517578125,-0.02444601058959961,-0.03345251455903053,0.034487105906009674
1772364973174725600,3.6857255859375,-0.015094594098627567,-0.035280801355838776,0.016989778727293015
1772364973184795600,3.695795654296875,-0.009822866879403591,-0.049843765795230865,0.0022134967148303986
1772364973194865700,3.70586572265625,-0.00004762224853038788,-0.04722831770777702,-0.0195989478379488
1772364973204935400,3.715935302734375,0.004367631860077381,-0.043985120952129364,-0.03349079564213753
1772364973215005700,3.726005615234375,0.007508453913033009,-0.042840827256441116,-0.03967208042740822
1772364973225076700,3.73607666015625,0.017919816076755524,-0.03782103210687637,-0.04089473932981491
1772364973235146500,3.746146484375,0.026522360742092133,-0.03257375955581665,-0.04085860773921013
1772364973245216500,3.756216552734375,0.030062235891819,-0.028769169002771378,-0.0384196862578392
1772364973255286800,3.766286865234375,0.03272923454642296,-0.025477660819888115,-0.031085867434740067
1772364973265356500,3.7763564453125,0.030800040811300278,-0.02425101026892662,-0.026401100680232048
1772364973275427600,3.786427490234375,0.030281253159046173,-0.026124833151698112,-0.02177901193499565
1772364973285497600,3.79649755859375,0.02467210218310356,-0.024151429533958435,-0.015282229520380497
1772364973295567600,3.806567626953125,0.023177750408649445,-0.02410920523107052,-0.014660116285085678
1772364973305637600,3.8166376953125,0.017157407477498055,-0.025001097470521927,-0.018057510256767273
1772364973315707600,3.826707763671875,0.013708774000406265,-0.02257402054965496,-0.02566678449511528
1772364973325778700,3.83677880859375,0.016296833753585815,-0.0169140063226223,-0.03887659311294556
1772364973335848400,3.846848388671875,0.010374872013926506,-0.009485164657235146,-0.04735086113214493
1772364973345919500,3.85691943359375,0.0079655097797513,0.002002113964408636,-0.04319073632359505
1772364973355989500,3.866989501953125,0.004655413795262575,0.007192983757704496,-0.030153941363096237
1772364973366059500,3.8770595703125,0.0066149672493338585,0.0023383074440062046,-0.006717326585203409
1772364973376129300,3.88712939453125,0.011127641424536705,0.0009329929016530514,0.02324758656322956
1772364973386200300,3.897200439453125,0.016187114641070366,-0.0005184300243854523,0.05392426997423172
1772364973396270600,3.9072705078125,0.016747284680604935,-0.011065639555454254,0.08043870329856873
1772364973406340400,3.91734033203125,0.018122008070349693,-0.02199179120361805,0.0933944508433342
1772364973416410400,3.927410400390625,0.019217420369386673,-0.015566905960440636,0.09239185601472855
1772364973426480600,3.937480712890625,0.035886943340301514,-0.002985600149258971,0.06735681742429733
1772364973436551700,3.9475517578125,0.0687757059931755,0.011392660439014435,0.027944955974817276
1772364973446621400,3.957621337890625,0.05460715293884277,0.035407714545726776,0.02470974624156952
1772364973456691500,3.96769140625,0.04949105903506279,0.07018814980983734,0.025984514504671097
1772364973466761500,3.977761474609375,0.051321983337402344,0.017191510647535324,0.004791079089045525
1772364973476831500,3.98783154296875,0.024241633713245392,-0.008268486708402634,0.018003646284341812
1772364973486902500,3.997902587890625,0.021122004836797714,-0.02081650123000145,0.01847102865576744
1772364973496972500,4.00797265625,0.04444847255945206,-0.07974642515182495,0.003533092327415943
1772364973507042300,4.018042236328125,0.04667993634939194,-0.09029041230678558,-0.013824325986206532
1772364973517112600,4.028112548828125,0.03735104203224182,-0.06825161725282669,-0.03541518747806549
1772364973527182300,4.038182373046875,0.00949171558022499,-0.021835118532180786,-0.05251188576221466
1772364973537252400,4.04825244140625,0.0056433407589793205,0.0023571308702230453,-0.051754482090473175
1772364973547323400,4.058323486328125,0.011473266407847404,-0.014452741481363773,-0.044294439256191254
1772364973557393700,4.0683935546875,0.004312239587306976,-0.04297482594847679,-0.03970279544591904
1772364973567463400,4.07846337890625,0.009280898608267307,-0.049679335206747055,-0.03278123959898949
1772364973577533400,4.088533447265625,0.0026753004640340805,-0.025825917720794678,-0.01828148029744625
1772364973587603500,4.098603515625,-0.0022960221394896507,-0.0012465380132198334,-0.010473092086613178
1772364973597674500,4.108674560546875,-0.006781053729355335,0.005689996760338545,-0.0054831295274198055
1772364973607744500,4.11874462890625,-0.011886066757142544,0.006244200747460127,0.0022205961868166924
1772364973617814500,4.128814453125,-0.018703438341617584,0.0076247695833444595,0.009545894339680672
1772364973627884300,4.13888427734375,-0.023976493626832962,0.014285335317254066,0.019924497231841087
1772364973637954600,4.14895458984375,-0.02783573605120182,0.014508876949548721,0.02641018107533455
1772364973648025600,4.159025634765625,-0.03144485503435135,0.015483060851693153,0.022293731570243835
1772364973658095400,4.169095458984375,-0.03303880989551544,0.012833473272621632,0.02035459689795971
1772364973668165400,4.179165283203125,-0.0353618860244751,0.01481166947633028,0.017250681295990944
1772364973678235600,4.189235595703125,-0.04087643697857857,0.019078286364674568,0.012976217083632946
1772364973688305400,4.199305419921875,-0.04178670793771744,0.017617542296648026,0.003199486993253231
1772364973698375400,4.20937548828125,-0.04187975823879242,0.015178866684436798,-0.007938563823699951
1772364973708446500,4.219446533203125,-0.040938593447208405,0.014897903427481651,-0.019591491669416428
1772364973718516200,4.22951611328125,-0.03716373071074486,0.021053461357951164,-0.027840811759233475
1772364973728586500,4.23958642578125,-0.03232130408287048,0.020148517563939095,-0.032176971435546875
1772364973738656500,4.249656494140625,-0.026287321001291275,0.02549145370721817,-0.03213444724678993
1772364973748726300,4.259726318359375,-0.021245958283543587,0.03326548635959625,-0.028345033526420593
1772364973758797300,4.26979736328125,-0.020247697830200195,0.044254548847675323,-0.03566304221749306
1772364973768867600,4.27986767578125,-0.00965870264917612,0.02949131466448307,-0.0337064191699028
1772364973778937300,4.289937255859375,-0.005898216739296913,0.0004953448660671711,-0.037716254591941833
1772364973789007400,4.30000732421875,-0.013350008055567741,0.009753823280334473,-0.0513649545609951
1772364973799077600,4.31007763671875,-0.020090147852897644,0.007168326061218977,-0.05914174020290375
1772364973809148700,4.320148681640625,-0.019031275063753128,-0.01036832295358181,-0.0643085390329361
1772364973819218400,4.330218505859375,-0.023146387189626694,-0.025253593921661377,-0.07247858494520187
1772364973829288400,4.340288330078125,-0.027407445013523102,-0.043601445853710175,-0.07506371289491653
1772364973839358500,4.3503583984375,-0.028171241283416748,-0.06319134682416916,-0.07288320362567902
1772364973849428500,4.360428466796875,-0.02991321310400963,-0.056660741567611694,-0.06688283383846283
1772364973859498500,4.37049853515625,-0.02703007683157921,-0.04884840548038483,-0.0567568764090538
1772364973869569500,4.380569580078125,-0.02890361100435257,-0.044864051043987274,-0.043446134775877
1772364973879639300,4.390639404296875,-0.02956567332148552,-0.03711702302098274,-0.022330105304718018
1772364973889709600,4.40070947265625,-0.03480464220046997,-0.039234504103660583,0.007055746391415596
1772364973899779600,4.410779541015625,-0.03270634263753891,-0.04162003472447395,0.04229362681508064
1772364973909849300,4.420849365234375,-0.03029431775212288,-0.03864102065563202,0.07814349979162216
1772364973919920400,4.43092041015625,-0.024667318910360336,-0.03353358805179596,0.10067127645015717
1772364973929990700,4.44099072265625,-0.02119429036974907,-0.019294995814561844,0.11337827891111374
1772364973940060400,4.451060302734375,-0.014206157065927982,-0.002456360263749957,0.11755730956792831
1772364973950130400,4.46113037109375,-0.010795979760587215,0.014823293313384056,0.11732827872037888
1772364973960200400,4.471200439453125,-0.004227985627949238,0.02832598239183426,0.10818493366241455
1772364973970271200,4.481271240234375,-0.0029486026614904404,0.03891418129205704,0.09574078768491745
1772364973980341500,4.491341552734375,0.0058272057212889194,0.03834018483757973,0.07786733657121658
1772364973990411500,4.50141162109375,0.008448821492493153,0.029943767935037613,0.048318229615688324
1772364974000481300,4.511481201171875,0.014498458243906498,0.008771638385951519,0.009449662640690804
1772364974010551600,4.521551513671875,0.014928825199604034,-0.0055202157236635685,-0.027049226686358452
1772364974020621600,4.53162158203125,0.007618233561515808,-0.0016866747755557299,-0.06385305523872375
1772364974030692400,4.5416923828125,-0.0037753023207187653,0.0047376686707139015,-0.09454704821109772
1772364974040762400,4.551762451171875,-0.009472973644733429,0.00663794856518507,-0.11868824064731598
1772364974050832400,4.561832275390625,-0.025933438912034035,0.03249351307749748,-0.12887856364250183
1772364974060902400,4.57190234375,-0.010670970194041729,0.027694858610630035,-0.13485336303710938
1772364974070974500,4.581974365234375,-0.009033394046127796,-0.022018635645508766,-0.13610611855983734
1772364974081044500,4.59204443359375,-0.003212202340364456,-0.05542520806193352,-0.138488307595253
1772364974091114500,4.602114501953125,0.003588978201150894,-0.0572633221745491,-0.14199569821357727
1772364974101184300,4.612184326171875,0.013959646224975586,-0.03858964890241623,-0.1391620934009552
1772364974111255300,4.62225537109375,0.030500005930662155,-0.022482585161924362,-0.13681665062904358
1772364974121325600,4.63232568359375,0.05856461077928543,-0.0064512742683291435,-0.13570824265480042
1772364974131395300,4.642395263671875,0.09258169680833817,0.006784636527299881,-0.11612841486930847
1772364974141465300,4.65246533203125,0.10948222875595093,0.015171635895967484,-0.0751921609044075
1772364974151535600,4.66253564453125,0.1260923594236374,0.031656600534915924,-0.03597179055213928
1772364974161606700,4.672606689453125,0.12915877997875214,0.04092784970998764,-0.013846786692738533
1772364974171676400,4.682676513671875,0.129111647605896,0.028205132111907005,-0.007050932850688696
1772364974181746400,4.692746337890625,0.1198597177863121,0.020840473473072052,-0.011776878498494625
1772364974191816400,4.70281640625,0.11101402342319489,0.031797781586647034,-0.0019588693976402283
1772364974201886500,4.712886474609375,0.10132336616516113,0.02451913058757782,0.009316590614616871
1772364974211956500,4.72295654296875,0.08429910242557526,0.013522407971322536,0.025366663932800293
1772364974222027500,4.733027587890625,0.0668058693408966,-0.01064034178853035,0.0451008640229702
1772364974232097300,4.74309716796875,0.047133900225162506,-0.03514861315488815,0.05370500311255455
1772364974242167600,4.75316748046875,0.028202127665281296,-0.05616537854075432,0.04137324541807175
1772364974252237600,4.763237548828125,0.024404458701610565,-0.07598595321178436,0.002302275039255619
1772364974262307300,4.773307373046875,0.008752845227718353,-0.08339754492044449,-0.03685738891363144
1772364974272378400,4.78337841796875,-0.01112179271876812,-0.0890309289097786,-0.08076146245002747
1772364974282448600,4.79344873046875,-0.020308896899223328,-0.09489310532808304,-0.10405648499727249
1772364974292518400,4.803518310546875,-0.019743241369724274,-0.103665292263031,-0.1316729336977005
1772364974302588400,4.81358837890625,-0.02091844193637371,-0.11645697802305222,-0.14705127477645874
1772364974312658400,4.823658447265625,-0.03161182999610901,-0.12161818146705627,-0.15571001172065735
1772364974322728400,4.833728515625,-0.032173119485378265,-0.10948708653450012,-0.1496722549200058
1772364974332799500,4.843799560546875,-0.0346144400537014,-0.09483756870031357,-0.13937753438949585
1772364974342872000,4.8538720703125,-0.03625350818037987,-0.08598615974187851,-0.12903453409671783
1772364974352942300,4.8639423828125,-0.03548784926533699,-0.07404854148626328,-0.12652024626731873
1772364974363012000,4.87401220703125,-0.033850111067295074,-0.06505996733903885,-0.12464653700590134
1772364974373082000,4.88408203125,-0.030617035925388336,-0.03931092470884323,-0.11681710928678513
1772364974383153200,4.894153076171875,-0.03602980449795723,-0.012374832294881344,-0.10656429827213287
1772364974393223200,4.90422314453125,-0.04449759051203728,0.018828626722097397,-0.08367016911506653
1772364974403293200,4.914293212890625,-0.04759133234620094,0.038693733513355255,-0.06469567120075226
1772364974413363200,4.92436328125,-0.04492337629199028,0.03750569373369217,-0.0452607199549675
1772364974423433000,4.934432861328125,-0.046775929629802704,0.03304000943899155,-0.021323345601558685
1772364974433503200,4.944503173828125,-0.05420561879873276,0.03891254588961601,0.007370617240667343
1772364974443574300,4.95457421875,-0.06873203814029694,0.0602162629365921,0.038060277700424194
1772364974453644000,4.96464404296875,-0.07499951869249344,0.07771535962820053,0.0562179833650589
1772364974463714000,4.974714111328125,-0.07497917115688324,0.08128605782985687,0.07236799597740173
1772364974473784300,4.984784423828125,-0.07833235710859299,0.07657812535762787,0.09064687043428421
1772364974483854000,4.99485400390625,-0.0836791917681694,0.06739330291748047,0.09950650483369827
1772364974493925000,5.004925048828125,-0.08931630104780197,0.054077230393886566,0.1050964742898941
1772364974503995100,5.0149951171875,-0.09916658699512482,0.024789797142148018,0.10499713569879532
1772364974514065200,5.025065185546875,-0.11084241420030594,0.019579853862524033,0.09690991789102554
1772364974524135200,5.03513525390625,-0.11773408949375153,0.02222498320043087,0.08689039200544357
1772364974534205200,5.045205078125,-0.12614408135414124,0.01103890873491764,0.08239790797233582
1772364974544275000,5.05527490234375,-0.13128511607646942,0.017906390130519867,0.08198768645524979
1772364974554346000,5.065345947265625,-0.12460137158632278,0.002418512012809515,0.09188959002494812
1772364974564416300,5.075416259765625,-0.1233116090297699,-0.03754099830985069,0.10009114444255829
1772364974574486000,5.085486083984375,-0.12783658504486084,-0.07372776418924332,0.09656485170125961
1772364974584556000,5.09555615234375,-0.12577396631240845,-0.08290161937475204,0.0903109684586525
1772364974594626300,5.105626220703125,-0.12467673420906067,-0.0730455294251442,0.08362190425395966
1772364974604697300,5.115697265625,-0.1317722052335739,-0.05636042729020119,0.07208507508039474
1772364974614767000,5.12576708984375,-0.1273771971464157,-0.0596129447221756,0.04978403449058533
1772364974624837000,5.135837158203125,-0.12424105405807495,-0.07556035369634628,0.029108593240380287
1772364974634907000,5.145906982421875,-0.12018585205078125,-0.07913804054260254,0.011021733283996582
1772364974644977200,5.15597705078125,-0.10861516743898392,-0.07779984176158905,-0.014515410177409649
1772364974655047200,5.166047119140625,-0.0950426310300827,-0.0726596787571907,-0.03448352590203285
1772364974665118200,5.1761181640625,-0.08550158143043518,-0.06504794210195541,-0.04862721636891365
1772364974675188000,5.18618798828125,-0.07292987406253815,-0.039962027221918106,-0.04911297932267189
1772364974685258200,5.19625830078125,-0.05586390569806099,-0.0222688727080822,-0.038426946848630905
1772364974695328300,5.206328369140625,-0.04261601343750954,-0.013092683628201485,-0.01703031174838543
1772364974705398000,5.21639794921875,-0.026469215750694275,0.004444267600774765,0.012943197041749954
1772364974715469000,5.226468994140625,-0.01837906241416931,0.017144083976745605,0.044529348611831665
1772364974725539300,5.236539306640625,-0.0034744180738925934,0.021905772387981415,0.07424898445606232
1772364974735609000,5.246609130859375,0.0013578878715634346,0.017639387398958206,0.09375131875276566
1772364974745679000,5.25667919921875,0.010402516461908817,0.019704602658748627,0.10584712773561478
1772364974755749000,5.2667490234375,0.011303463950753212,0.02621896006166935,0.10925491154193878
1772364974765819100,5.276819091796875,0.008524561300873756,0.035150643438100815,0.1088075041770935
1772364974775890200,5.28689013671875,0.014088703319430351,0.03596583753824234,0.10712277889251709
1772364974785960200,5.296960205078125,0.032939836382865906,0.04473581537604332,0.08601661026477814
1772364974796030000,5.307030029296875,0.03261706233024597,0.05206669867038727,0.07780608534812927
1772364974806100200,5.317100341796875,0.025193501263856888,0.040380705147981644,0.0767584815621376
1772364974816170200,5.327170166015625,0.021671734750270844,0.008387884125113487,0.06847871840000153
1772364974826240000,5.337239990234375,0.031248409301042557,-0.04677513241767883,0.0461905412375927
1772364974836311000,5.34731103515625,0.014095256105065346,-0.03654699772596359,0.009140645153820515
1772364974846381300,5.35738134765625,0.007975844666361809,-0.012700363993644714,-0.012282797135412693
1772364974856451000,5.367451171875,0.006889007985591888,-0.016666077077388763,-0.02884180098772049
1772364974866521000,5.37752099609375,0.01330216508358717,-0.03228582814335823,-0.04133220762014389
1772364974876591000,5.387591064453125,0.017354164272546768,-0.04642268270254135,-0.04642763361334801
1772364974886662000,5.397661865234375,0.023151174187660217,-0.04532338306307793,-0.041314978152513504
1772364974896732200,5.407732177734375,0.02358527109026909,-0.02609456144273281,-0.038549017161130905
1772364974906802200,5.41780224609375,0.02734954282641411,-0.011051757261157036,-0.03344836086034775
1772364974916872000,5.427871826171875,0.03348173573613167,0.0011111660860478878,-0.019967705011367798
1772364974926942200,5.437942138671875,0.03606713190674782,0.008292912505567074,-0.014120468869805336
1772364974937012200,5.44801220703125,0.03910979628562927,0.01103969756513834,-0.007303309626877308
1772364974947083300,5.458083251953125,0.05049656704068184,0.015911711379885674,-0.0001825466752052307
1772364974957153000,5.468153076171875,0.05415787920355797,0.015912776812911034,0.005403699353337288
1772364974967223000,5.47822314453125,0.055141597986221313,0.01736285723745823,0.004021963104605675
1772364974977293000,5.48829296875,0.05709635838866234,0.025528376922011375,0.0021782563999295235
1772364974987363000,5.498363037109375,0.04951892048120499,0.05113851651549339,0.005305871367454529
1772364974997434000,5.50843408203125,0.04802941530942917,0.07481881231069565,0.0014562718570232391
1772364975007504100,5.518504150390625,0.05370967090129852,0.07620510458946228,-0.004111422225832939
1772364975017574100,5.52857421875,0.049575645476579666,0.0654672384262085,-0.011102486401796341
1772364975027644200,5.53864404296875,0.05247385799884796,0.0547252893447876,-0.016057737171649933
1772364975037714000,5.5487138671875,0.04614671692252159,0.0468553826212883,-0.019820252433419228
1772364975047784200,5.5587841796875,0.04285275936126709,0.04523444548249245,-0.019446788355708122
1772364975057855200,5.568855224609375,0.04032941535115242,0.05754038318991661,-0.018246235325932503
1772364975067925200,5.57892529296875,0.03806956484913826,0.06612612307071686,-0.011417094618082047
1772364975077995000,5.5889951171875,0.0427604578435421,0.07088811695575714,-0.010114275850355625
1772364975088065000,5.59906494140625,0.04722386226058006,0.058188296854496,-0.0048061516135931015
1772364975098135300,5.60913525390625,0.05425034463405609,0.05369900166988373,-0.001421540044248104
1772364975108205000,5.619205078125,0.060504138469696045,0.06719224154949188,-0.0001480989158153534
1772364975118276000,5.629276123046875,0.06366904079914093,0.08259516954421997,-0.002458125352859497
1772364975128346000,5.63934619140625,0.0731138363480568,0.0967412143945694,-0.010955295525491238
1772364975138416000,5.649416015625,0.0739671140909195,0.09994712471961975,-0.01382964476943016
1772364975148486100,5.659486083984375,0.07233262062072754,0.10949215292930603,-0.011531516909599304
1772364975158556200,5.66955615234375,0.07304821908473969,0.1088966652750969,-0.01590282842516899
1772364975168626200,5.679626220703125,0.07083054631948471,0.10347351431846619,-0.010971633717417717
1772364975178697200,5.689697265625,0.06550342589616776,0.10230491310358047,0.0012695854529738426
1772364975188767200,5.699767333984375,0.05946694314479828,0.101197250187397,0.00933409295976162
1772364975198837000,5.7098369140625,0.05778249353170395,0.09079734236001968,0.023006228730082512
1772364975208907000,5.719906982421875,0.05379755422472954,0.07712747901678085,0.037110596895217896
1772364975218977300,5.729977294921875,0.052568770945072174,0.06038791686296463,0.04570861533284187
1772364975229048000,5.740048095703125,0.049760520458221436,0.05447752773761749,0.04669841378927231
1772364975239118000,5.7501181640625,0.04454125836491585,0.05084177851676941,0.04645899683237076
1772364975249188000,5.76018798828125,0.040316469967365265,0.05027453601360321,0.04213837534189224
1772364975259258000,5.770258056640625,0.0403556227684021,0.04748993366956711,0.031195977702736855
1772364975269328100,5.780328125,0.04040110856294632,0.04830500856041908,0.01811719685792923
1772364975279398100,5.790398193359375,0.038201604038476944,0.050432875752449036,0.0018332991749048233
1772364975289469000,5.800468994140625,0.04137587919831276,0.05175217241048813,-0.0169021338224411
1772364975299539200,5.810539306640625,0.04210158810019493,0.05330346152186394,-0.03436661139130592
1772364975309609200,5.820609130859375,0.046452611684799194,0.04814426600933075,-0.04768907278776169
1772364975319679000,5.830678955078125,0.0438791960477829,0.045998021960258484,-0.054222606122493744
1772364975329749000,5.8407490234375,0.045028138905763626,0.04522453993558884,-0.0500846691429615
1772364975339816400,5.85081640625,0.041836872696876526,0.037097636610269547,-0.034402113407850266
1772364975349887500,5.860887451171875,0.04444485157728195,0.021098000928759575,-0.025516126304864883
1772364975359957200,5.870957275390625,0.03811664879322052,0.010514600202441216,-0.00720449723303318
1772364975370027300,5.88102734375,0.03609083592891693,0.005312235094606876,0.0074719153344631195
1772364975380097300,5.89109716796875,0.03336961939930916,0.0003262651152908802,0.01246986910700798
1772364975390167300,5.901167236328125,0.02997632324695587,-0.009443903341889381,0.009495923295617104
1772364975400238300,5.91123828125,0.025788504630327225,-0.018237395212054253,-0.003787658177316189
1772364975410308400,5.921308349609375,0.022985421121120453,-0.013784382492303848,-0.012926392257213593
1772364975420378400,5.93137841796875,0.017355764284729958,-0.00023288698866963387,-0.013818284496665001
1772364975430448400,5.941448486328125,0.014737503603100777,0.015568806789815426,-0.00900861993432045
1772364975440518400,5.951518310546875,0.01427544467151165,0.011864616535604,0.002741512842476368
1772364975450588200,5.961588134765625,0.010088156908750534,-0.00645975349470973,0.009149792604148388
1772364975460659200,5.9716591796875,0.016350047662854195,-0.018171537667512894,0.007665080018341541
1772364975470729500,5.9817294921875,0.010193989612162113,-0.012452734634280205,-0.0022396640852093697
1772364975480799500,5.991799560546875,0.00011232774704694748,0.00047797802835702896,-0.005816023331135511
1772364975490869200,6.001869140625,-0.002002594992518425,-0.003136548912152648,-0.013298881240189075
1772364975500939300,6.011939208984375,-0.006556067615747452,-0.0339336097240448,-0.016262978315353394
1772364975511009300,6.02200927734375,-0.0032740943133831024,-0.04748561233282089,-0.0009524635970592499
1772364975521080300,6.032080322265625,-0.007837420329451561,-0.03271199390292168,0.01992698386311531
1772364975531150300,6.042150390625,-0.012898119166493416,-0.01592622697353363,0.01875980943441391
1772364975541220400,6.052220458984375,-0.010141747072339058,-0.0189872644841671,0.013032148592174053
1772364975551290400,6.062290283203125,-0.005945458076894283,-0.028814027085900307,0.01035256963223219
1772364975561360400,6.0723603515625,-0.00042312685400247574,-0.0109873590990901,0.016185693442821503
1772364975571430400,6.082430419921875,0.005482699256390333,0.008940163999795914,0.014752203598618507
1772364975581501200,6.092501220703125,0.008403654210269451,-0.011395201086997986,-0.0011013271287083626
1772364975591571500,6.102571533203125,0.010869155637919903,-0.02513742819428444,-0.0010070577263832092
1772364975601641500,6.112641357421875,0.013202883303165436,-0.014023791998624802,0.0031810281798243523
1772364975611711200,6.122711181640625,0.010104135610163212,-0.01465749554336071,-0.008903775364160538
1772364975621781200,6.13278125,0.004791927989572287,-0.027507249265909195,-0.01680430956184864
1772364975631852300,6.142852294921875,-0.0019231252372264862,-0.039556436240673065,-0.017696820199489594
1772364975641922300,6.15292236328125,-0.004121032543480396,-0.03892393410205841,-0.020714448764920235
1772364975651992300,6.162992431640625,-0.0046227723360061646,-0.04602217301726341,-0.02051462046802044
1772364975662062300,6.173062255859375,-0.006142372265458107,-0.0550159327685833,-0.024579670280218124
1772364975672132400,6.18313232421875,-0.005276843905448914,-0.061643894761800766,-0.03265632688999176
1772364975682202400,6.193202392578125,-0.0014682570472359657,-0.05791999772191048,-0.042310021817684174
1772364975692273400,6.2032734375,-0.003805181011557579,-0.052468396723270416,-0.054338812828063965
1772364975702343200,6.21334326171875,-0.005851288326084614,-0.047941550612449646,-0.055591829121112823
1772364975712413200,6.2234130859375,-0.007289128378033638,-0.0512082539498806,-0.04621589556336403
1772364975722483500,6.2334833984375,-0.006853967905044556,-0.04367763549089432,-0.032114457339048386
1772364975732553200,6.24355322265625,-0.0022811638191342354,-0.04386090859770775,-0.017179429531097412
1772364975742623200,6.253623291015625,-0.001418832689523697,-0.0458068810403347,-0.000627618283033371
1772364975752694300,6.2636943359375,0.0037372102960944176,-0.0402163565158844,0.008124479092657566
1772364975762764300,6.273764404296875,0.004749211482703686,-0.026946360245347023,0.012799658812582493
1772364975772834300,6.283834228515625,0.008036564104259014,-0.012627283111214638,0.010227479971945286
1772364975782904300,6.293904296875,0.008243225514888763,0.0005271350964903831,0.005040441639721394
1772364975792974300,6.303974365234375,0.013076649978756905,0.01423687394708395,0.002102981321513653
1772364975803044400,6.31404443359375,0.015973370522260666,0.028390508145093918,0.0051887864246964455
1772364975813115400,6.324115478515625,0.013326878659427166,0.03455796837806702,-0.0041177887469530106
1772364975823185400,6.334185302734375,0.013331938534975052,0.02765265665948391,-0.0073580569587647915
1772364975833255200,6.344255126953125,0.008440885692834854,0.026576785370707512,-0.008091241121292114
1772364975843325400,6.354325439453125,0.00687894131988287,0.02867721952497959,-0.0020288219675421715
1772364975853395200,6.364395263671875,0.00615488039329648,0.02704741433262825,0.003433062694966793
1772364975863465200,6.37446533203125,0.005006259307265282,0.021680081263184547,0.006567071191966534
1772364975873536300,6.384536376953125,0.0032025007531046867,0.013452092185616493,0.012329259887337685
1772364975883606500,6.3946064453125,0.003408363088965416,0.012103734537959099,0.008586186915636063
1772364975893676300,6.40467626953125,0.0027760756202042103,0.010724165476858616,0.007219179533421993
1772364975903746300,6.414746337890625,-0.0008399644866585732,0.014216368086636066,0.004800231195986271
1772364975913816300,6.42481640625,-0.00019723735749721527,0.023738138377666473,-0.0015151835978031158
1772364975923886300,6.43488623046875,0.0049035148695111275,0.026580531150102615,-0.01406160183250904
1772364975933957400,6.444957275390625,0.007010715082287788,0.03296676650643349,-0.02376003935933113
1772364975944027400,6.45502734375,0.00936255231499672,0.03707335889339447,-0.041658081114292145
1772364975954097200,6.46509716796875,0.01625523716211319,0.04222215712070465,-0.05109461396932602
1772364975964167400,6.47516748046875,0.015467474237084389,0.05677872896194458,-0.05463288724422455
1772364975974237400,6.485237548828125,0.01852680742740631,0.06918474286794662,-0.0469798669219017
1772364975984307200,6.49530712890625,0.025935720652341843,0.07703840732574463,-0.024715039879083633
1772364975994378200,6.505378173828125,0.026028774678707123,0.06808274239301682,0.0018794666975736618
1772364976004448500,6.515448486328125,0.02847089245915413,0.06829392910003662,0.026925962418317795
1772364976014518300,6.525518310546875,0.03211122006177902,0.06969616562128067,0.04904119670391083
1772364976024588300,6.53558837890625,0.03181454539299011,0.059017155319452286,0.05868183821439743
1772364976034658600,6.545658447265625,0.03146173059940338,0.051190510392189026,0.05784906446933746
1772364976044729300,6.555729248046875,0.027377504855394363,0.05839170143008232,0.05485939979553223
1772364976054799400,6.56579931640625,0.02620944380760193,0.06887637078762054,0.043239492923021317
1772364976064869400,6.575869384765625,0.04685906320810318,0.07460162788629532,0.019327770918607712
1772364976074939100,6.585939208984375,0.06375596672296524,0.08200480043888092,-0.005657016299664974
1772364976085009400,6.596009521484375,0.04914852976799011,0.08957669883966446,-0.002682797610759735
1772364976095079400,6.606079345703125,0.04215847700834274,0.08593786507844925,0.002301393076777458
1772364976105150200,6.616150146484375,0.04057016596198082,0.06735751777887344,-0.003873945213854313
1772364976115220200,6.62622021484375,0.02480206824839115,0.0416385680437088,-0.011159113608300686
1772364976125290500,6.63629052734375,0.01834789663553238,0.033945225179195404,-0.017611952498555183
1772364976135360300,6.6463603515625,0.019847363233566284,0.048137035220861435,-0.025848938152194023
1772364976145430300,6.65643017578125,0.01946493424475193,0.05911991372704506,-0.029184281826019287
1772364976155500300,6.666500244140625,0.025477871298789978,0.06043252348899841,-0.022974489256739616
1772364976165571300,6.6765712890625,0.025709833949804306,0.056173063814640045,-0.015675563365221024
1772364976175641300,6.686641357421875,0.03074592351913452,0.05049616098403931,-0.00779641792178154
1772364976185711400,6.69671142578125,0.028499014675617218,0.04948629438877106,-0.00010946951806545258
1772364976195781000,6.706781005859375,0.030014675110578537,0.0519728809595108,0.006436561234295368
1772364976205851400,6.716851318359375,0.026387449353933334,0.05124343931674957,0.02361288294196129
1772364976215921400,6.72692138671875,0.01641817018389702,0.05175218731164932,0.03483420982956886
1772364976225992400,6.736992431640625,0.014976602047681808,0.05118866264820099,0.03666406869888306
1772364976236062200,6.747062255859375,0.009609266184270382,0.04234449937939644,0.04048598185181618
1772364976246132500,6.757132568359375,0.003999849781394005,0.02690109610557556,0.045050110667943954
1772364976256202200,6.7672021484375,0.0001555243507027626,0.012795502319931984,0.04396095871925354
1772364976266272300,6.777272216796875,-0.004477044567465782,0.003867254126816988,0.04023013636469841
1772364976276342300,6.78734228515625,-0.010326302610337734,0.00037913303822278976,0.03339557349681854
1772364976286413300,6.797413330078125,-0.010584364645183086,-0.007108610589057207,0.02874675579369068
1772364976296483300,6.8074833984375,-0.010770786553621292,-0.01857314258813858,0.024435006082057953
1772364976306553300,6.81755322265625,-0.008429335430264473,-0.03139732778072357,0.0158122219145298
1772364976316623000,6.827623046875,-0.006523418240249157,-0.048409152776002884,0.0010589389130473137
1772364976326693400,6.837693359375,-0.006791864521801472,-0.06077980250120163,-0.01662445068359375
1772364976336762600,6.8477626953125,-0.0067629944533109665,-0.06004270911216736,-0.027769166976213455
1772364976346833700,6.857833740234375,0.0016640452668070793,-0.045091453939676285,-0.030698111280798912
1772364976356903700,6.867903564453125,0.006734753493219614,-0.03652948886156082,-0.03336283564567566
1772364976366973700,6.8779736328125,0.013528743758797646,-0.036846138536930084,-0.03486086428165436
1772364976377043700,6.888043701171875,0.021637165918946266,-0.039076436311006546,-0.03431492671370506
1772364976387113700,6.89811376953125,0.016870373860001564,-0.03790571168065071,-0.029938820749521255
1772364976397184500,6.9081845703125,0.017242684960365295,-0.03632482886314392,-0.03188472241163254
1772364976407254800,6.9182548828125,0.015605107881128788,-0.025582434609532356,-0.03214651346206665
1772364976417324800,6.92832470703125,0.009210005402565002,-0.02061343565583229,-0.029381338506937027
1772364976427394600,6.93839453125,0.006944986525923014,-0.01838809624314308,-0.029617827385663986
1772364976437464800,6.94846484375,0.0015463335439562798,-0.021544165909290314,-0.028691060841083527
1772364976447534800,6.958534912109375,-0.004526206292212009,-0.01930391415953636,-0.028188258409500122
1772364976457605600,6.968605712890625,-0.015430307947099209,-0.018356356769800186,-0.02089276723563671
1772364976467675600,6.978675537109375,-0.019352879375219345,-0.02770378813147545,-0.011465976014733315
1772364976477745700,6.98874560546875,-0.021659065037965775,-0.03897736221551895,-0.005034203641116619
1772364976487815700,6.998815673828125,-0.026173658668994904,-0.042556118220090866,0.010807076469063759
1772364976497885700,7.0088857421875,-0.03126855194568634,-0.046956866979599,0.020359059795737267
1772364976507955700,7.018955810546875,-0.03314980864524841,-0.052233390510082245,0.02482890896499157
1772364976518026500,7.029026611328125,-0.0378153994679451,-0.052618034183979034,0.02548101171851158
1772364976528096800,7.0390966796875,-0.039283864200115204,-0.051102958619594574,0.02209799736738205
1772364976538166800,7.049166748046875,-0.0367094948887825,-0.05518646910786629,0.013951749540865421
1772364976548236500,7.059236572265625,-0.03936466574668884,-0.05687038600444794,0.002950497902929783
1772364976558306800,7.069306884765625,-0.03947683796286583,-0.061817217618227005,-0.010831449180841446
1772364976568376800,7.079376953125,-0.042043060064315796,-0.06452804803848267,-0.01850135251879692
1772364976578448000,7.08944775390625,-0.043323032557964325,-0.06390749663114548,-0.031706809997558594
1772364976588517600,7.099517578125,-0.0397285595536232,-0.06385236978530884,-0.04762132465839386
1772364976598587600,7.109587646484375,-0.037150781601667404,-0.05950840190052986,-0.05610785260796547
1772364976608657700,7.11965771484375,-0.03785998001694679,-0.0560833103954792,-0.05568920448422432
1772364976618727700,7.129727783203125,-0.03396979719400406,-0.05835166200995445,-0.048030659556388855
1772364976628797700,7.139797607421875,-0.03373410552740097,-0.06525804102420807,-0.03484748303890228
1772364976638868700,7.14986865234375,-0.036292605102062225,-0.07002969831228256,-0.01055305078625679
1772364976648938800,7.159938720703125,-0.036360785365104675,-0.07292695343494415,0.014569079503417015
1772364976659008800,7.1700087890625,-0.03502605855464935,-0.08144089579582214,0.03143414855003357
1772364976669078500,7.18007861328125,-0.029539145529270172,-0.09341154247522354,0.034373752772808075
1772364976679148800,7.190148681640625,-0.02474258281290531,-0.10012252628803253,0.029312863945961
1772364976689218800,7.20021875,-0.023060796782374382,-0.08742643892765045,0.016652461141347885
1772364976699289900,7.210289794921875,-0.024087708443403244,-0.07541514933109283,-0.004555793479084969
1772364976709359600,7.220359619140625,-0.0205124169588089,-0.059792786836624146,-0.01623748242855072
1772364976719429600,7.2304296875,-0.01955527812242508,-0.03597187623381615,-0.027780689299106598
1772364976729500000,7.2405,-0.014067300595343113,-0.030067648738622665,-0.022411756217479706
1772364976739569700,7.250569580078125,-0.007792520336806774,-0.03527890518307686,-0.02102966047823429
1772364976749639700,7.2606396484375,-0.005290481261909008,-0.04876195639371872,-0.018294062465429306
1772364976759710700,7.270710693359375,-0.005112208425998688,-0.05154300853610039,-0.02547191083431244
1772364976769780700,7.28078076171875,-0.005728996358811855,-0.0418885163962841,-0.02494114264845848
1772364976779850800,7.290850830078125,-0.009095604531466961,-0.021151943132281303,-0.027717843651771545
1772364976789920800,7.300920654296875,-0.006520860828459263,-0.004127418622374535,-0.024120710790157318
1772364976799990500,7.310990478515625,-0.003766832873225212,0.004245526622980833,-0.011324318125844002
1772364976810060800,7.321060791015625,-0.0003832867369055748,0.003969623241573572,0.005488216876983643
1772364976820131800,7.3311318359375,0.0022784899920225143,0.005758613348007202,0.018105478957295418
1772364976830201600,7.34120166015625,-0.0001780092716217041,0.01742459088563919,0.030384784564375877
1772364976840271600,7.351271728515625,0.002220645546913147,0.032342854887247086,0.0411541685461998
1772364976850342000,7.361341796875,0.005263839848339558,0.04056429862976074,0.044857293367385864
1772364976860411600,7.37141162109375,0.008720995858311653,0.038334254175424576,0.0415242463350296
1772364976870481700,7.381481689453125,0.013888327404856682,0.008978763595223427,0.0317525789141655
1772364976880552700,7.391552734375,0.020560717210173607,0.0007202047854661942,0.032657261937856674
1772364976890622700,7.401622802734375,0.015331600792706013,0.025033533573150635,0.03665066882967949
1772364976900692700,7.411692626953125,0.00843364093452692,0.03326534852385521,0.028585638850927353
1772364976910762800,7.4217626953125,0.005899110808968544,0.03031616471707821,0.008830312639474869
1772364976920832500,7.43183251953125,0.005889523308724165,0.01715497486293316,0.002169305458664894
1772364976930902800,7.44190283203125,0.01134847104549408,0.01097084954380989,-0.00017427559942007065
1772364976940973800,7.451973876953125,0.006180285941809416,0.029900362715125084,0.0025371843948960304
1772364976951043600,7.462043701171875,0.006185878533869982,0.028869720175862312,-0.005415014456957579
1772364976961113600,7.472113525390625,-0.00009215064346790314,0.014635633677244186,-0.01020125299692154
1772364976971183900,7.482183837890625,0.006497841794043779,0.006779307499527931,-0.01777608133852482
1772364976981253600,7.492253662109375,0.012556369416415691,0.02088415063917637,-0.019911739975214005
1772364976991323600,7.50232373046875,0.011879393830895424,0.03532833606004715,-0.011904147453606129
1772364977001394000,7.512393798828125,0.018109967932105064,0.0447528213262558,-0.0056719183921813965
1772364977011464700,7.522464599609375,0.023775842040777206,0.044191960245370865,-0.004467370919883251
1772364977021534700,7.53253466796875,0.026501215994358063,0.05058889463543892,-0.00022042077034711838
1772364977031604700,7.542604736328125,0.03178306296467781,0.050564393401145935,0.00020648352801799774
1772364977041674500,7.552674560546875,0.0333857536315918,0.05264641344547272,0.006850882433354855
1772364977051744800,7.562744873046875,0.03328695148229599,0.05621451884508133,0.006500410847365856
1772364977061815800,7.57281591796875,0.03075556270778179,0.061414215713739395,0.011453093960881233
1772364977071885600,7.582885498046875,0.029996562749147415,0.06229066476225853,0.014976989477872849
1772364977081955600,7.59295556640625,0.03349260240793228,0.06675272434949875,0.0111429113894701
1772364977092025900,7.60302587890625,0.034114982932806015,0.0666014552116394,0.009615588933229446
1772364977102095600,7.613095703125,0.03429975360631943,0.06806345283985138,0.0061225080862641335
1772364977112165600,7.62316552734375,0.03305445611476898,0.0707833394408226,0.006498013623058796
1772364977122235600,7.633235595703125,0.03326761722564697,0.06838593631982803,0.008160087279975414
1772364977132306700,7.643306640625,0.034242335706949234,0.06471317261457443,0.012278399430215359
1772364977142376700,7.653376708984375,0.031601596623659134,0.057906631380319595,0.02073570340871811
1772364977152446700,7.66344677734375,0.03242265060544014,0.060444626957178116,0.02187420427799225
1772364977162516500,7.6735166015625,0.03126811608672142,0.06320609152317047,0.027077052742242813
1772364977172586800,7.683586669921875,0.027077898383140564,0.06274589896202087,0.022769920527935028
1772364977182656800,7.69365673828125,0.024886757135391235,0.06488385051488876,0.019977059215307236
1772364977192727800,7.703727783203125,0.025747224688529968,0.056853894144296646,0.014131687581539154
1772364977202797600,7.713797607421875,0.02443860098719597,0.050628650933504105,0.005728798918426037
1772364977212867800,7.723867919921875,0.027128390967845917,0.04518967866897583,-0.0035097068175673485
1772364977222937600,7.7339375,0.02506619691848755,0.043265074491500854,-0.016627978533506393
1772364977233007600,7.744007568359375,0.024123704060912132,0.04275055229663849,-0.035899143666028976
1772364977243077600,7.75407763671875,0.025083297863602638,0.045260507613420486,-0.05022377520799637
1772364977253148700,7.764148681640625,0.022159945219755173,0.05563618242740631,-0.05919969081878662
1772364977263218700,7.77421875,0.02419593185186386,0.0550919845700264,-0.05379577726125717
1772364977273288700,7.784288818359375,0.023381270468235016,0.04682287201285362,-0.03566497564315796
1772364977283358700,7.794358642578125,0.020775366574525833,0.02912270277738571,-0.010029122233390808
1772364977293428700,7.8044287109375,0.02238285169005394,0.018390696495771408,0.015858402475714684
1772364977303498800,7.814498779296875,0.020272985100746155,0.016493525356054306,0.03670395538210869
1772364977313569800,7.82456982421875,0.02428477071225643,0.007336246781051159,0.04750866815447807
1772364977323639600,7.8346396484375,0.02504292130470276,0.007121168076992035,0.05094795301556587
1772364977333709800,7.844709716796875,0.030122101306915283,0.011085815727710724,0.0381634496152401
1772364977343780600,7.854780517578125,0.03610052913427353,0.014973176643252373,0.024065636098384857
1772364977353850600,7.8648505859375,0.03837886452674866,0.023595958948135376,0.007461094297468662
1772364977363920600,7.874920654296875,0.03681270778179169,0.039882682263851166,0.0018143123015761375
1772364977373991400,7.884991455078125,0.03720659017562866,0.04357914999127388,-0.002895754761993885
1772364977384061700,7.895061767578125,0.028277065604925156,0.025388969108462334,0.007352178916335106
1772364977394131700,7.905131591796875,0.018777038902044296,0.0015100017189979553,0.004879966378211975
1772364977404201500,7.915201416015625,0.01617955043911934,-0.022571228444576263,0.006141418591141701
1772364977414271500,7.925271484375,0.005704005714505911,-0.03126751631498337,-0.0018808208405971527
1772364977424341800,7.935341796875,0.002447334583848715,-0.022589517757296562,-0.012420113198459148
1772364977434412500,7.94541259765625,-0.002694963477551937,-0.01559312641620636,-0.01938534528017044
1772364977444482600,7.955482666015625,-0.0027773091569542885,-0.013015951961278915,-0.011789114214479923
1772364977454552600,7.965552490234375,-0.0011495854705572128,-0.027083301916718483,-0.005885951686650515
1772364977464622600,7.97562255859375,-0.00033401791006326675,-0.04132914915680885,0.007489049807190895
1772364977474692600,7.985692626953125,-0.0014855684712529182,-0.0525575689971447,0.017292678356170654
1772364977484761600,7.99576171875,-0.0020987922325730324,-0.04988217353820801,0.02412433549761772
1772364977494831600,8.00583154296875,-0.0008481722325086594,-0.041149936616420746,0.025647398084402084
1772364977504901600,8.015901611328125,0.0006103375926613808,-0.038155797868967056,0.023449387401342392
1772364977514971400,8.025971435546875,0.004038092214614153,-0.03890441358089447,0.01778804138302803
1772364977525041700,8.036041748046875,0.0034203450195491314,-0.03472483158111572,0.01757862977683544
1772364977535112700,8.04611279296875,0.0020208535715937614,-0.034074220806360245,0.014419056475162506
1772364977545182500,8.056182373046875,0.0016677184030413628,-0.03994207829236984,0.008370579220354557
1772364977555252500,8.06625244140625,-0.009644324891269207,-0.04419940710067749,0.0023744720965623856
1772364977565322800,8.07632275390625,-0.007384099066257477,-0.02959718182682991,0.001047324389219284
1772364977575392500,8.086392578125,-0.0001189960166811943,-0.017036646604537964,-0.0072561451233923435
1772364977585462500,8.096462646484374,-0.0006363950669765472,-0.021578127518296242,-0.006317289546132088
1772364977595533600,8.106533447265624,0.0031812461093068123,0.0022856593132019043,-0.005735921673476696
1772364977605603600,8.116603515625,-0.0075147030875086784,0.011098341085016727,-0.011105204932391644
1772364977615673600,8.126673583984376,-0.012587492354214191,0.015759937465190887,-0.006260382477194071
1772364977625743600,8.13674365234375,-0.006460781209170818,0.0256962813436985,0.0008637392893433571
1772364977635813400,8.1468134765625,-0.010227023623883724,0.027986865490674973,0.005573805421590805
1772364977645883600,8.156883544921875,-0.007747887633740902,0.018782489001750946,0.012975451536476612
1772364977655954700,8.16695458984375,-0.003724384121596813,0.02193433791399002,0.025228653103113174
1772364977666024700,8.177024658203125,0.0024679461494088173,0.0049353353679180145,0.036102861166000366
1772364977676094500,8.187094482421875,-0.0008498197421431541,0.003157408908009529,0.037669599056243896
1772364977686164700,8.197164794921875,0.008718961849808693,0.02243391051888466,0.031646281480789185
1772364977696234500,8.207234375,0.015160881914198399,0.030252421274781227,0.020059937611222267
1772364977706304500,8.217304443359374,0.01249378826469183,0.026231471449136734,0.010178329423069954
1772364977716375600,8.22737548828125,0.011847172863781452,0.021666547283530235,0.0036820806562900543
1772364977726445600,8.237445556640624,0.009131224825978279,0.0178566612303257,0.0007481733337044716
1772364977736515600,8.247515625,0.007941856980323792,0.02525758557021618,0.0036483556032180786
1772364977746585600,8.257585693359376,0.004767956677824259,0.026157323271036148,-0.002403147518634796
1772364977756655600,8.267655517578126,0.002934637013822794,0.01767701841890812,0.0015239492058753967
1772364977766725600,8.2777255859375,0.0015095248818397522,0.008500710129737854,0.00491974875330925
1772364977776796700,8.287796630859376,0.0037127574905753136,0.010319914668798447,0.014380628243088722
1772364977786866700,8.29786669921875,0.00542869046330452,0.014189261943101883,0.01710972562432289
1772364977796936400,8.3079365234375,0.0031487583182752132,0.011756731197237968,0.022965751588344574
1772364977807006700,8.3180068359375,0.0003851400688290596,0.010987796820700169,0.028476284816861153
1772364977817076700,8.32807666015625,0.0010272283107042313,0.020579703152179718,0.03671184182167053
1772364977827146500,8.338146484375,0.005139843560755253,0.030976250767707825,0.041045330464839935
1772364977837216500,8.348216552734375,0.007254660129547119,0.03585569187998772,0.047180987894535065
1772364977847287600,8.35828759765625,0.008485943078994751,0.036525264382362366,0.0464487224817276
1772364977857357600,8.368357666015624,0.00575780076906085,0.0249362550675869,0.036302875727415085
1772364977867427600,8.378427490234374,0.021387148648500443,0.00020158244296908379,0.022093486040830612
1772364977877497600,8.38849755859375,0.019717080518603325,0.025988439098000526,0.02093501016497612
1772364977887567600,8.398567626953126,0.019063755869865417,0.06373485922813416,0.0014383550733327866
1772364977897637600,8.4086376953125,0.01661870628595352,0.06711120903491974,-0.02496102824807167
1772364977907708700,8.418708740234376,0.014326523058116436,0.048937421292066574,-0.029184706509113312
1772364977917778400,8.4287783203125,0.011935004964470863,0.05187861621379852,-0.0197837483137846
1772364977927848700,8.4388486328125,0.018279720097780228,0.0492994599044323,-0.00467652827501297
1772364977937918700,8.448918701171875,0.02220175787806511,0.029362235218286514,0.019410695880651474
1772364977947988500,8.458988525390625,0.02341083064675331,0.03574187681078911,0.046917080879211426
1772364977958058500,8.46905859375,0.028382420539855957,0.03197403624653816,0.05990185588598251
1772364977968129500,8.479129638671875,0.02542625367641449,0.03751401603221893,0.06616535782814026
1772364977978199600,8.489199462890625,0.04022437334060669,0.04118198901414871,0.060921330004930496
1772364977988269600,8.49926953125,0.04506515711545944,0.03647822514176369,0.03877321630716324
1772364977998339600,8.509339599609374,0.046285681426525116,0.03403078019618988,0.007559904828667641
1772364978008409600,8.51940966796875,0.04812384396791458,0.025143099948763847,-0.013332393020391464
1772364978018479600,8.529479736328126,0.04479196295142174,0.04602921009063721,-0.01853913813829422
1772364978028550700,8.539550537109376,0.04454711824655533,0.057384029030799866,-0.02403300069272518
1772364978038620400,8.549620361328126,0.0508822426199913,0.03841140493750572,-0.034403882920742035
1772364978048690400,8.5596904296875,0.056434400379657745,0.009306292049586773,-0.04517112299799919
1772364978058760700,8.5697607421875,0.051676396280527115,-0.006785592529922724,-0.0531771183013916
1772364978068830500,8.57983056640625,0.0442996546626091,-0.013773315586149693,-0.05682884156703949
1772364978078902500,8.589902587890625,0.0385885052382946,-0.009779106825590134,-0.05015629157423973
1772364978088972500,8.59997265625,0.04321207106113434,-0.0020857593044638634,-0.041708119213581085
1772364978099042600,8.61004248046875,0.046274974942207336,0.004386787302792072,-0.027693234384059906
1772364978109112600,8.620112548828125,0.04999488219618797,0.0020042434334754944,-0.007209639064967632
1772364978119183600,8.63018359375,0.05406685546040535,0.007156128529459238,0.011208783835172653
1772364978129253600,8.640253662109375,0.05951988324522972,0.01278802752494812,0.021967094391584396
1772364978139323400,8.650323486328125,0.06398254632949829,0.021857421845197678,0.031101204454898834
1772364978149393700,8.6603935546875,0.062247760593891144,0.02628994733095169,0.036049436777830124
1772364978159463700,8.670463623046874,0.06298625469207764,0.017835743725299835,0.0324200801551342
1772364978169533400,8.680533447265624,0.06765371561050415,0.008352033793926239,0.02393816038966179
1772364978179603500,8.690603515625,0.06097104400396347,-0.0009104404598474503,0.016756150871515274
1772364978189674500,8.700674560546876,0.05818388611078262,-0.0024283546954393387,0.005730565637350082
1772364978199744500,8.71074462890625,0.05523523688316345,-0.012671937234699726,-0.007743964437395334
1772364978209814500,8.720814453125,0.05067664384841919,-0.027779823169112206,-0.02940547466278076
1772364978219884500,8.730884521484375,0.04292365163564682,-0.0321362242102623,-0.03987888619303703
1772364978229954600,8.74095458984375,0.041075579822063446,-0.03272495046257973,-0.05045990273356438
1772364978240024600,8.751024658203125,0.03233055770397186,-0.03685125336050987,-0.053624801337718964
1772364978250095600,8.761095703125,0.030322421342134476,-0.04789276793599129,-0.05355047807097435
1772364978260165600,8.77116552734375,0.026537537574768066,-0.05096552520990372,-0.05759581923484802
1772364978270235600,8.781235595703125,0.01666829362511635,-0.049714844673871994,-0.060454387217760086
1772364978280305700,8.7913056640625,0.01481100544333458,-0.038468316197395325,-0.057451941072940826
1772364978290375400,8.80137548828125,0.02178071066737175,-0.040888603776693344,-0.04934164136648178
1772364978300445400,8.811445556640624,0.010188503190875053,-0.007931453175842762,-0.042628079652786255
1772364978310516500,8.8215166015625,0.010903340764343739,0.01667787693440914,-0.022254502400755882
1772364978320586800,8.831586669921874,0.005619362462311983,0.029314575716853142,0.002214355394244194
1772364978330656500,8.841656494140626,0.000861738808453083,0.03772207349538803,0.019959142431616783
1772364978340726000,8.85172607421875,0.0005916943773627281,0.04181881621479988,0.031184101477265358
1772364978350796000,8.861796142578125,-0.008029649965465069,0.0209718719124794,0.02050500363111496
1772364978360866000,8.871865966796875,-0.0062013911083340645,0.025754377245903015,0.04187341034412384
1772364978370935800,8.881935791015625,-0.016386544331908226,0.07909031957387924,0.06159562990069389
1772364978381006800,8.8920068359375,-0.032269902527332306,0.10935661196708679,0.046934399753808975
1772364978391077000,8.9020771484375,-0.04260706901550293,0.1291942447423935,0.031595129519701004
1772364978401147000,8.91214697265625,-0.025902392342686653,0.11706036329269409,-0.0014533661305904388
1772364978411217000,8.922216796875,-0.03055610880255699,0.06840173155069351,-0.015614374540746212
1772364978421287200,8.932287109375,-0.02416238933801651,0.014510535635054111,-0.01985172927379608
1772364978431357000,8.94235693359375,-0.030610647052526474,-0.005503264255821705,-0.012650014832615852
1772364978441428000,8.952427978515624,-0.03956738859415054,-0.00742979533970356,-0.006983606610447168
1772364978451498000,8.962498046875,-0.04336117208003998,-0.027219608426094055,-0.015115923248231411
1772364978461568000,8.972568115234376,-0.0453694611787796,-0.044843874871730804,-0.010462582111358643
1772364978471638000,8.982637939453125,-0.04849926009774208,-0.051491666585206985,-0.012635544873774052
1772364978481708000,8.9927080078125,-0.047383129596710205,-0.057807616889476776,-0.01922527141869068
1772364978491777800,9.00277783203125,-0.052485909312963486,-0.06675487756729126,-0.023088175803422928
1772364978501848800,9.012848876953125,-0.058381084352731705,-0.06676393002271652,-0.02129959687590599
1772364978511919000,9.022919189453125,-0.07223217934370041,-0.06246821582317352,-0.010899624787271023
1772364978521988900,9.03298876953125,-0.07606473565101624,-0.05655226856470108,-0.008462033234536648
1772364978532059000,9.043058837890625,-0.07118678092956543,-0.04659279063344002,-0.020797159522771835
1772364978542129200,9.053129150390625,-0.07066160440444946,-0.048446882516145706,-0.029896117746829987
1772364978552199000,9.063198974609374,-0.06206471100449562,-0.04187842831015587,-0.03551768511533737
1772364978562269000,9.07326904296875,-0.050056785345077515,-0.02396094799041748,-0.04084533825516701
1772364978572340000,9.083340087890624,-0.04408906400203705,-0.0076405880972743034,-0.037304673343896866
1772364978582410000,9.093409912109376,-0.03563432767987251,-0.0031843206379562616,-0.025792092084884644
1772364978592480000,9.10347998046875,-0.02878105640411377,0.00035637523978948593,-0.0024263104423880577
1772364978602550000,9.113550048828126,-0.019750278443098068,0.007222536951303482,0.016253367066383362
1772364978612619800,9.123619873046875,-0.010619102977216244,0.0020655160769820213,0.02827276661992073
1772364978622690000,9.13368994140625,-0.008241699077188969,-0.0013854079879820347,0.0362129807472229
1772364978632761000,9.143760986328125,-0.006364964880049229,-0.002933960175141692,0.028123874217271805
1772364978642830800,9.153830810546875,-0.004548688419163227,0.0054986728355288506,0.021526694297790527
1772364978652900900,9.16390087890625,-0.0019358573481440544,0.02412675879895687,0.00720739271491766
1772364978662971100,9.17397119140625,0.007598259020596743,0.03844604641199112,-0.007370751816779375
1772364978673041000,9.184041015625,0.011295578442513943,0.04677508771419525,-0.010943025350570679
1772364978683111000,9.19411083984375,0.022046759724617004,0.03878027945756912,-0.01312149129807949
1772364978693182000,9.204181884765624,0.02767486684024334,0.027330484241247177,-0.02157052792608738
1772364978703251700,9.214251708984374,0.03229864686727524,0.026036454364657402,-0.02945641428232193
1772364978713322000,9.224322021484374,0.029590535908937454,0.027601100504398346,-0.037350136786699295
1772364978723392000,9.23439208984375,0.024585658684372902,0.03582121431827545,-0.050231315195560455
1772364978733461800,9.244461669921876,0.026217419654130936,0.027763301506638527,-0.05777609348297119
1772364978743532000,9.254531982421875,0.022135328501462936,0.01707150787115097,-0.04821374639868736
1772364978753602000,9.26460205078125,0.025689158588647842,0.0524611659348011,-0.00826181285083294
1772364978763673000,9.274673095703125,0.026592236012220383,0.059710290282964706,0.0006195632740855217
1772364978773742800,9.284742919921875,0.031612031161785126,0.03191324323415756,0.005684969946742058
1772364978783813000,9.294813232421875,0.03374389186501503,0.018463749438524246,0.014469673857092857
1772364978793883000,9.3048828125,0.03506748750805855,0.02126855030655861,0.023552458733320236
1772364978803953000,9.314952880859375,0.03658096119761467,0.02115776017308235,0.029554158449172974
1772364978814023000,9.32502294921875,0.03620811551809311,0.01916670799255371,0.03281974792480469
1772364978824094000,9.335093994140625,0.03427758812904358,0.016854017972946167,0.031181368976831436
1772364978834164000,9.3451640625,0.03373659402132034,0.015663037076592445,0.028197381645441055
1772364978844234000,9.35523388671875,0.03485805168747902,0.004767513368278742,0.024900656193494797
1772364978854303700,9.3653037109375,0.03441128134727478,-0.012760143727064133,0.011536983773112297
1772364978864374000,9.3753740234375,0.028250593692064285,-0.017888594418764114,0.0017711715772747993
1772364978874444000,9.385444091796876,0.027453720569610596,-0.009885495528578758,-0.004207528196275234
1772364978884515000,9.39551513671875,0.026591923087835312,-0.006579448003321886,-0.00679825060069561
1772364978894584800,9.405584716796875,0.02946823462843895,-0.012530189007520676,-0.008092246949672699
1772364978904655000,9.415655029296875,0.026861265301704407,-0.021612100303173065,-0.013407650403678417
1772364978914725000,9.42572509765625,0.03030681610107422,-0.0178225077688694,-0.016635077074170113
1772364978924795000,9.435794921875,0.030847173184156418,-0.007213804870843887,-0.0266680046916008
1772364978934865000,9.445864990234375,0.02934514544904232,0.004755164496600628,-0.026895683258771896
1772364978944935000,9.455934814453125,0.0338677242398262,0.013469826430082321,-0.025052510201931
1772364978955006000,9.466005859375,0.03595176339149475,0.01905250921845436,-0.014681483618915081
1772364978965076000,9.476075927734374,0.03957632556557655,0.022398505359888077,-0.003946281038224697
1772364978975146000,9.48614599609375,0.04002154991030693,0.017979174852371216,0.00704557541757822
1772364978985216000,9.496216064453124,0.03869982063770294,0.015526935458183289,0.010921006090939045
1772364978995286000,9.5062861328125,0.042164918035268784,0.017984848469495773,0.010774075984954834
1772364979005355800,9.516355712890626,0.03870600461959839,0.015280675143003464,0.003280205652117729
1772364979015426800,9.5264267578125,0.03185085952281952,0.010177351534366608,0.00002025999128818512
1772364979025496800,9.536496826171875,0.027628952637314796,0.013308964669704437,-0.003493247553706169
1772364979035567000,9.546567138671875,0.025455869734287262,0.018756430596113205,-0.009727008640766144
1772364979045636900,9.556636962890625,0.021937035024166107,0.01625305786728859,-0.012651958502829075
1772364979055707000,9.566706787109375,0.013734662905335426,0.0038788509555161,-0.007156551815569401
1772364979065777200,9.576777099609375,0.008420858532190323,-0.006326382048428059,-0.0046220216900110245
1772364979075847000,9.586846923828125,0.005486626643687487,-0.007106640376150608,0.010140827856957912
1772364979085918000,9.59691796875,0.0016498100012540817,-0.006835264153778553,0.01917293667793274
1772364979095988000,9.606988037109375,-0.0032034721225500107,-0.004879277665168047,0.02596857398748398
1772364979106058000,9.61705810546875,-0.006713251583278179,-0.0069442931562662125,0.028173141181468964
1772364979116128000,9.6271279296875,-0.00805638823658228,-0.0023888584692031145,0.029172880575060844
1772364979126198000,9.637197998046876,-0.013016526587307453,-0.0001318291760981083,0.03339745104312897
1772364979136267800,9.647267822265626,-0.018816150724887848,-0.010721933096647263,0.030963174998760223
1772364979146338800,9.6573388671875,-0.02152937836945057,-0.025766130536794662,0.02437983825802803
1772364979156409000,9.6674091796875,-0.022591661661863327,-0.023368630558252335,0.014456098899245262
1772364979166478800,9.677478759765625,-0.029002156108617783,-0.02971174754202366,0.0018239272758364677
1772364979176548900,9.687548828125,-0.03304553031921387,-0.03600238263607025,-0.011983048170804977
1772364979186619100,9.697619140625,-0.03424528241157532,-0.03586389869451523,-0.020881466567516327
1772364979196689000,9.70768896484375,-0.033920690417289734,-0.025182008743286133,-0.02527490071952343
1772364979206759000,9.717759033203125,-0.026660114526748657,-0.0043009608052670956,-0.031256627291440964
1772364979216830000,9.727829833984375,-0.02377665787935257,-0.002910822397097945,-0.022821960970759392
1772364979226900000,9.73789990234375,-0.01962532103061676,-0.007495188154280186,-0.009584719315171242
1772364979236970000,9.747969970703124,-0.011427790857851505,-0.004311789758503437,0.010649176314473152
1772364979247040000,9.7580400390625,-0.0040740035474300385,0.0032931333407759666,0.027830293402075768
1772364979257109800,9.76810986328125,-0.0023544542491436005,-0.009198812767863274,0.03939933329820633
1772364979267180000,9.778179931640626,0.0032917135395109653,-0.016677234321832657,0.04023636505007744
1772364979277251000,9.7882509765625,0.006360846571624279,-0.014776140451431274,0.029964908957481384
1772364979287320800,9.79832080078125,0.0015565035864710808,-0.013042422942817211,0.014879698865115643
1772364979297390800,9.808390869140625,-0.0004412466660141945,-0.015009334310889244,-0.008035348728299141
1772364979307461000,9.818461181640625,-0.005763042718172073,-0.017724692821502686,-0.025377586483955383
1772364979317531000,9.82853076171875,-0.006132203154265881,-0.014314712956547737,-0.029530100524425507
1772364979327601000,9.838600830078125,-0.011026560328900814,-0.02413458749651909,-0.03137114271521568
1772364979337671200,9.848671142578125,-0.014099004678428173,-0.040696702897548676,-0.026230767369270325
1772364979347745500,9.85874560546875,-0.022326841950416565,-0.054126493632793427,-0.019859420135617256
1772364979357815300,9.868815185546875,-0.03154802694916725,-0.058731213212013245,-0.020931649953126907
1772364979367885300,9.87888525390625,-0.04206857830286026,-0.05396628379821777,-0.022297319024801254
1772364979377955300,9.888955322265625,-0.042088449001312256,-0.03992627188563347,-0.013842815533280373
1772364979388025300,9.899025390625,-0.042698316276073456,-0.02838466502726078,-0.00022527482360601425
1772364979398095400,9.909095458984375,-0.04132679104804993,-0.028826864436268806,0.01608242280781269
1772364979408166400,9.91916650390625,-0.03870650380849838,-0.036145761609077454,0.03389976918697357
1772364979418236200,9.929236083984375,-0.04086292162537575,-0.03893037140369415,0.052164167165756226
1772364979428306400,9.939306396484374,-0.04007808491587639,-0.027583440765738487,0.061075374484062195
1772364979438376400,9.94937646484375,-0.03731505572795868,-0.014966335147619247,0.0681835189461708
1772364979448446200,9.9594462890625,-0.029278434813022614,-0.007581922225654125,0.06573794037103653
1772364979458516500,9.9695166015625,-0.020075246691703796,-0.008146993815898895,0.0648173913359642
1772364979468586500,9.97958642578125,-0.018009699881076813,-0.013896491378545761,0.057130441069602966
1772364979478657300,9.9896572265625,-0.016075484454631805,-0.015098802745342255,0.04975103586912155
1772364979488727300,9.999727294921875,-0.01108072604984045,-0.011277698911726475,0.04337809234857559
1772364979498797300,10.00979736328125,-0.01223265565931797,-0.021139701828360558,0.026746142655611038
1772364979508867300,10.019867431640625,-0.00651644729077816,-0.02572247013449669,0.009307499043643475
1772364979518937300,10.029937255859375,-0.0057536642998456955,-0.02589849755167961,-0.00953693874180317
1772364979529007400,10.04000732421875,-0.002251874655485153,-0.07272911816835403,-0.03302095830440521
1772364979539077400,10.050077392578125,-0.018261093646287918,-0.055141475051641464,-0.004703747108578682
1772364979549148400,10.0601484375,-0.01797453686594963,-0.004065506160259247,-0.011262846179306507
1772364979559218400,10.070218505859375,-0.017179418355226517,0.019382353872060776,-0.02715758979320526
1772364979569288200,10.0802880859375,-0.018541626632213593,-0.01946331188082695,-0.0454348623752594
1772364979579358500,10.0903583984375,-0.011102461256086826,-0.0796005055308342,-0.0224575437605381
1772364979589428500,10.100428466796876,-0.016549691557884216,-0.044215619564056396,0.02087048813700676
1772364979599498200,10.110498291015626,-0.010872638784348965,0.001417605672031641,0.02169894427061081
1772364979609569300,10.1205693359375,-0.007453140802681446,-0.002075130119919777,0.0257972851395607
1772364979619639300,10.130639404296875,0.00006369221955537796,-0.015872236341238022,0.03036484494805336
1772364979629709300,10.140709228515625,0.005835560616105795,-0.002844850765541196,0.027386367321014404
1772364979639779300,10.150779296875,0.012406216003000736,0.011573518626391888,0.02088044583797455
1772364979649849300,10.160849365234375,0.013841926120221615,0.015985045582056046,0.017062541097402573
1772364979659919400,10.17091943359375,0.009799039922654629,0.009650647640228271,0.006421324796974659
1772364979669989400,10.1809892578125,0.011662453413009644,0.0037762466818094254,-0.005042518954724073
1772364979680060400,10.191060302734375,0.015019899234175682,0.0016268473118543625,-0.012657904997467995
1772364979690130200,10.201130126953124,0.013061676174402237,-0.004026511218398809,-0.014675782062113285
1772364979700200200,10.2112001953125,0.0122015830129385,-0.016031645238399506,-0.019782572984695435
1772364979710270500,10.2212705078125,0.0035769357345998287,-0.08881237357854843,-0.05496373027563095
1772364979720340200,10.23134033203125,0.0019697165116667747,-0.09120719879865646,-0.01407052855938673
1772364979730410200,10.24141015625,-0.006978238001465797,-0.010780271142721176,0.021897591650485992
1772364979740480500,10.25148046875,-0.011607185937464237,-0.004260183311998844,0.012786829844117165
1772364979750551300,10.26155126953125,-0.020159661769866943,-0.03477920964360237,0.04092765226960182
1772364979760621300,10.271621337890625,-0.03129743039608002,0.023164531216025352,0.0975828617811203
1772364979770691300,10.28169140625,-0.02661026455461979,0.12017789483070374,0.06579803675413132
1772364979780761300,10.29176123046875,-0.020040512084960938,0.1216314435005188,0.025160856544971466
1772364979790831400,10.301831298828125,0.006636371836066246,0.06819033622741699,0.025149937719106674
1772364979800901400,10.3119013671875,0.00738520035520196,0.04034190997481346,0.02081528678536415
1772364979810972200,10.32197216796875,0.01965384930372238,-0.018723804503679276,-0.005789957940578461
1772364979821042200,10.332042236328125,0.008360986597836018,-0.0756506621837616,-0.010281931608915329
1772364979831112400,10.342112548828124,-0.013015142641961575,-0.0832209587097168,-0.02533678151667118
1772364979841182200,10.35218212890625,0.008913910947740078,-0.11399590969085693,-0.05613721162080765
1772364979851252200,10.362252197265626,-0.01146779302507639,-0.1583774983882904,-0.07694342732429504
1772364979861322500,10.372322509765626,-0.017493896186351776,-0.1517101675271988,-0.06846389174461365
1772364979871392300,10.382392333984376,-0.0042625125497579575,-0.133255273103714,-0.0395163893699646
1772364979881463300,10.39246337890625,0.006859908811748028,-0.052673038095235825,-0.006643468048423529
1772364979891533300,10.402533203125,-0.03640474006533623,0.015566736459732056,-0.015345080755650997
