time,seconds_elapsed,z,y,x
1772363448231529700,0.11852978515625,0.007178574800491333,0.01836416684091091,0.05153907835483551
1772363448241598700,0.1285986328125,0.011745363473892212,0.0233626551926136,0.04179083928465843
1772363448251668700,0.138668701171875,0.005313186440616846,0.030993487685918808,0.03302661329507828
1772363448261737700,0.14873779296875,0.012956192716956139,0.03870200738310814,0.014190609566867352
1772363448271807700,0.158807861328125,0.01636902429163456,0.04677266255021095,-0.007435527164489031
1772363448281876700,0.168876708984375,0.017012709751725197,0.04430284723639488,-0.02089034952223301
1772363448291946800,0.17894677734375,0.01640964299440384,0.04067351669073105,-0.026128951460123062
1772363448302015700,0.189015625,0.01995857059955597,0.02907412126660347,-0.026917513459920883
1772363448312085800,0.199085693359375,0.015587111003696918,0.02997397817671299,-0.0051488690078258514
1772363448322154800,0.20915478515625,0.011401953175663948,0.0403299480676651,0.007110459730029106
1772363448332224800,0.219224853515625,0.0017367261461913586,0.012034036219120026,0.0036164382472634315
1772363448342293800,0.229293701171875,0.009825279004871845,-0.0032575682271271944,0.016785237938165665
1772363448352363800,0.23936376953125,0.01647130772471428,0.014472036622464657,0.028945516794919968
1772363448362432800,0.249432861328125,0.016577299684286118,0.02246072143316269,0.02908479794859886
1772363448372502800,0.259502685546875,0.015555539168417454,0.01600002869963646,0.028908660635352135
1772363448382571800,0.26957177734375,0.012688646093010902,0.016691919416189194,0.03126955032348633
1772363448392641800,0.279641845703125,0.005727831274271011,0.01811305806040764,0.0300655085593462
1772363448402710800,0.289710693359375,0.007038106210529804,0.019036374986171722,0.019403545185923576
1772363448412780800,0.29978076171875,0.0015820157714188099,0.014924202114343643,0.008149010129272938
1772363448422849500,0.309849609375,-0.007963020354509354,0.005752807483077049,0.004767329432070255
1772363448432919800,0.319919921875,-0.007835867814719677,0.0027462877333164215,0.006525775417685509
1772363448442988800,0.32998876953125,-0.010532052256166935,0.00884758960455656,0.0032343752682209015
1772363448453058800,0.340058837890625,-0.009160313755273819,0.01300644688308239,0.007653478533029556
1772363448463127800,0.3501279296875,-0.018649687990546227,0.00027174269780516624,-0.008855456486344337
1772363448473197800,0.36019775390625,-0.018818248063325882,-0.018420401960611343,-0.0011550569906830788
1772363448483266800,0.370266845703125,-0.01779399812221527,-0.0067120809108018875,0.009470422752201557
1772363448493336600,0.380336669921875,-0.02083117701113224,0.006810994353145361,0.01649448089301586
1772363448503405800,0.39040576171875,-0.02214331552386284,-0.006112527102231979,0.015778090804815292
1772363448513475600,0.4004755859375,-0.013674353249371052,-0.0029487682040780783,0.021346524357795715
1772363448523544800,0.410544921875,-0.014980367384850979,0.004887583199888468,0.0249287411570549
1772363448533614600,0.420614501953125,-0.01319345086812973,0.005556048825383186,0.02080715075135231
1772363448543683800,0.430683837890625,-0.009866628795862198,-0.002762068063020706,0.01774797961115837
1772363448553753900,0.44075390625,-0.014603078365325928,-0.0024233635049313307,0.020620860159397125
1772363448563822800,0.45082275390625,-0.008451709523797035,0.0021660616621375084,0.02412984147667885
1772363448573892900,0.460892822265625,-0.009514687582850456,0.006027987226843834,0.023682402446866035
1772363448583961600,0.470961669921875,-0.006992408540099859,-0.0002650623209774494,0.02492050640285015
1772363448594031900,0.481031982421875,-0.007321621291339397,-0.014409581199288368,0.015550493262708187
1772363448604100600,0.4911005859375,-0.007751988247036934,-0.021962039172649384,0.010681434534490108
1772363448614169900,0.501169921875,-0.014345725998282433,-0.017597435042262077,0.004948311485350132
1772363448624239600,0.511239501953125,-0.019525308161973953,-0.015132413245737553,-0.002199878916144371
1772363448634308900,0.521308837890625,-0.02243427000939846,-0.012584032490849495,-0.009156124666333199
1772363448644378600,0.531378662109375,-0.022566629573702812,-0.0045090620405972,-0.01638873666524887
1772363448654447900,0.54144775390625,-0.016836360096931458,-0.011170364916324615,-0.022651836276054382
1772363448664517600,0.551517578125,-0.011723092757165432,-0.007616642862558365,-0.030465018004179
1772363448674587000,0.5615869140625,-0.010015850886702538,-0.0008611911907792091,-0.03342994302511215
1772363448684657000,0.571656982421875,-0.010440889745950699,-0.006213611923158169,-0.03282860666513443
1772363448694725600,0.5817255859375,-0.014501862227916718,-0.005963986739516258,-0.028517786413431168
1772363448704795400,0.59179541015625,-0.012127386406064034,-0.018411867320537567,-0.018868088722229004
1772363448714864400,0.601864501953125,-0.006957300938665867,-0.02200384996831417,-0.0011302167549729347
1772363448724934400,0.611934326171875,-0.005465398542582989,-0.027792232111096382,0.008517350070178509
1772363448735003400,0.62200341796875,-0.0029025734402239323,-0.02263796143233776,0.022551491856575012
1772363448745073400,0.632073486328125,-0.0039393422193825245,-0.005832615774124861,0.03193460777401924
1772363448755142400,0.642142333984375,0.0027030124329030514,0.018015585839748383,0.0264649149030447
1772363448765212400,0.65221240234375,0.0032119425013661385,0.02606525644659996,0.023984180763363838
1772363448775281400,0.662281494140625,0.0023521557450294495,0.019122738391160965,0.018956437706947327
1772363448785351400,0.672351318359375,0.005105331540107727,0.019373875111341476,0.012002658098936081
1772363448795420400,0.68242041015625,0.004370997194200754,0.017555326223373413,0.00828106515109539
1772363448805490400,0.692490478515625,0.006330018397420645,0.0196983739733696,0.003573661670088768
1772363448815559400,0.702559326171875,0.011708768084645271,0.021121680736541748,-0.005864324979484081
1772363448825629400,0.71262939453125,0.01694534160196781,0.021872425451874733,-0.008243059739470482
1772363448835698400,0.722698486328125,0.01948595978319645,0.020594222471117973,-0.007551979273557663
1772363448845768400,0.7327685546875,0.021577339619398117,0.022817961871623993,-0.009088623337447643
1772363448855837400,0.74283740234375,0.013969837687909603,0.01483442634344101,-0.005377019755542278
1772363448865907500,0.752907470703125,0.014041476882994175,0.002259512897580862,-0.0017982637509703636
1772363448875976400,0.7629765625,0.013047236017882824,0.00011829659342765808,-0.008868910372257233
1772363448886046500,0.77304638671875,0.006924895104020834,-0.003054327331483364,-0.0005209660157561302
1772363448896115200,0.783115234375,0.0031869555823504925,-0.00678516598418355,0.0032351743429899216
1772363448906185500,0.793185546875,0.004579789005219936,0.006388693116605282,-0.00006474833935499191
1772363448916254500,0.80325439453125,0.01050298660993576,0.01764022558927536,-0.008847515098750591
1772363448926324500,0.813324462890625,0.009165015071630478,0.015486526302993298,-0.02083733305335045
1772363448936393500,0.8233935546875,0.002442134078592062,0.007144219242036343,-0.028729334473609924
1772363448946463200,0.833463134765625,0.0014839284121990204,0.001329472754150629,-0.04042380675673485
1772363448956532500,0.843532470703125,-0.0027830898761749268,-0.001704006688669324,-0.047732945531606674
1772363448966602200,0.853602294921875,-0.004019595682621002,-0.005452672019600868,-0.04588071629405022
1772363448976671500,0.86367138671875,-0.009298127144575119,-0.012147083878517151,-0.04416940361261368
1772363448986740200,0.873740234375,-0.007483449298888445,-0.008135564625263214,-0.03642786294221878
1772363448996810500,0.883810546875,-0.003994433209300041,-0.0077683161944150925,-0.02527061477303505
1772363449006879200,0.893879150390625,-0.0019951974973082542,-0.012470392510294914,-0.012266400270164013
1772363449016949500,0.903949462890625,0.001203065738081932,-0.01261975895613432,-0.006484124343842268
1772363449027018200,0.914018310546875,0.0011404813267290592,-0.009237011894583702,0.0032814210280776024
1772363449037088500,0.924088623046875,0.006073353812098503,-0.015721149742603302,0.005952479317784309
1772363449047157500,0.934157470703125,0.0033052642829716206,-0.021269045770168304,0.005679504945874214
1772363449057227300,0.944227294921875,-0.0011295601725578308,-0.024690382182598114,0.010092731565237045
1772363449067296500,0.954296630859375,-0.00247871782630682,-0.012116268277168274,0.011221911758184433
1772363449077366300,0.9643662109375,-0.008857796899974346,-0.00843183696269989,-0.001075970008969307
1772363449087435500,0.974435546875,-0.010826672427356243,-0.008473381400108337,-0.013779249042272568
1772363449097505300,0.98450537109375,-0.011359551921486855,-0.023621605709195137,-0.026183314621448517
1772363449107574500,0.994574462890625,-0.011368339881300926,-0.03961921110749245,-0.04070872813463211
1772363449117644300,1.004644287109375,-0.00747518427670002,-0.043346814811229706,-0.05476618930697441
1772363449127713500,1.014713623046875,-0.014940823428332806,-0.0431249737739563,-0.05663865804672241
1772363449137783600,1.024783447265625,-0.014616846106946468,-0.03345847502350807,-0.044094268232584
1772363449147852500,1.0348525390625,-0.015183833427727222,-0.015070678666234016,-0.03833811357617378
1772363449157922600,1.044922607421875,-0.01972273923456669,-0.010844811797142029,-0.025772470980882645
1772363449167991300,1.0549912109375,-0.020779481157660484,-0.01311062928289175,-0.0111200250685215
1772363449178061600,1.0650615234375,-0.018109479919075966,-0.01932467147707939,-0.0037115998566150665
1772363449188130300,1.07513037109375,-0.01681278645992279,-0.023846186697483063,0.006145026534795761
1772363449198200600,1.08520068359375,-0.01477288082242012,-0.02794829197227955,0.010475573129951954
1772363449208269300,1.095269287109375,-0.008232155814766884,-0.027881447225809097,0.014144343324005604
1772363449218339300,1.10533935546875,-0.002418108284473419,-0.028227785602211952,0.016454994678497314
1772363449228408300,1.115408203125,-0.0012247450649738312,-0.025238387286663055,0.01588480919599533
1772363449238478300,1.125478271484375,0.004393312614411116,-0.019276658073067665,0.021122414618730545
1772363449248547300,1.13554736328125,0.004879872314631939,-0.01936081424355507,0.01832769438624382
1772363449258617300,1.145617431640625,0.00396377220749855,-0.024434568360447884,0.014828107319772243
1772363449268686600,1.1556865234375,-0.002371621783822775,-0.02508224919438362,0.012244041077792645
1772363449278756400,1.16575634765625,-0.007451482117176056,-0.03246007859706879,0.00935527216643095
1772363449288825600,1.17582568359375,-0.009395056404173374,-0.043101273477077484,-0.0018425211310386658
1772363449298895400,1.185895263671875,-0.0062911794520914555,-0.05219319090247154,-0.01657300814986229
1772363449308964600,1.195964599609375,-0.00722515070810914,-0.04952443763613701,-0.03153970465064049
1772363449319034400,1.206034423828125,-0.005725478287786245,-0.04178854823112488,-0.0468611903488636
1772363449329103400,1.216103271484375,-0.0006196652539074421,-0.030872251838445663,-0.05623525008559227
1772363449339173400,1.22617333984375,-0.0009832149371504784,-0.032638028264045715,-0.05973818153142929
1772363449349242400,1.236242431640625,0.003778517246246338,-0.04323394596576691,-0.05599271133542061
1772363449359311400,1.246311279296875,0.0020672613754868507,-0.05326944962143898,-0.0456315241754055
1772363449369381400,1.25638134765625,0.00907616876065731,-0.04581552743911743,-0.03215726464986801
1772363449379450400,1.266450439453125,0.009360548108816147,-0.034972403198480606,-0.011419441550970078
1772363449389520400,1.276520263671875,0.011835956014692783,-0.024863842874765396,0.0044143833220005035
1772363449399589600,1.286589599609375,0.009649463929235935,-0.016291547566652298,0.015177004039287567
1772363449409659400,1.296659423828125,0.011881193146109581,-0.018620215356349945,0.019495854154229164
1772363449419728600,1.306728759765625,0.0031731249764561653,-0.02384905330836773,0.02582690492272377
1772363449429798400,1.31679833984375,0.008063754066824913,-0.030083512887358665,0.03198013827204704
1772363449439867400,1.326867431640625,0.014155322685837746,-0.018414631485939026,0.03284962847828865
1772363449449937400,1.3369375,0.022075297310948372,-0.004153937101364136,0.024862807244062424
1772363449460006400,1.34700634765625,0.03211839869618416,0.008276036940515041,0.01193330530077219
1772363449470076400,1.357076416015625,0.04344402253627777,0.028005801141262054,0.001576271839439869
1772363449480145400,1.3671455078125,0.04863861948251724,0.04305865988135338,-0.004369677044451237
1772363449490215400,1.37721533203125,0.049563270062208176,0.053081732243299484,-0.00869145430624485
1772363449500284400,1.387284423828125,0.04310320317745209,0.04742422699928284,-0.010508804582059383
1772363449510354400,1.3973544921875,0.036412809044122696,0.043253716081380844,-0.004645856097340584
1772363449520423400,1.40742333984375,0.02623501420021057,0.03567090258002281,-0.0008376073092222214
1772363449530493400,1.417493408203125,0.01858348585665226,0.025117861106991768,-0.0013705063611268997
1772363449540562400,1.4275625,0.01857345923781395,0.01342085748910904,0.001338358037173748
1772363449550632400,1.437632568359375,0.009017772041261196,0.005203408654779196,0.008065237663686275
1772363449560701400,1.447701416015625,0.0035026506520807743,0.015059070661664009,0.007283739745616913
1772363449570771500,1.457771484375,-0.004215457011014223,0.020833071321249008,0.006175065413117409
1772363449580840400,1.46784033203125,-0.004605389200150967,0.018196869641542435,0.00824199803173542
1772363449590910500,1.477910400390625,-0.010925337672233582,0.01055439654737711,0.00517217256128788
1772363449600979500,1.4879794921875,-0.009093347936868668,0.00803371425718069,0.000059436075389385223
1772363449611049500,1.498049560546875,-0.012670772150158882,0.012401032261550426,-0.005884472746402025
1772363449621118200,1.5081181640625,-0.015030095353722572,0.01676984876394272,-0.012664686888456345
1772363449631188500,1.5181884765625,-0.012935252860188484,0.014599104411900043,-0.01756410486996174
1772363449641257500,1.528257568359375,-0.01686621829867363,0.011872222647070885,-0.01559507381170988
1772363449651327500,1.538327392578125,-0.016229456290602684,0.022412749007344246,-0.002002832479774952
1772363449661396500,1.548396484375,-0.011196712031960487,0.03875540941953659,0.008371163159608841
1772363449671466200,1.55846630859375,-0.0014418205246329308,0.032170478254556656,0.015095643699169159
1772363449681535500,1.568535400390625,0.0007780520245432854,0.015285477042198181,0.02652210369706154
1772363449691601700,1.5786015625,0.00455388193950057,0.010962100699543953,0.03307640925049782
1772363449701672000,1.588671875,0.007387741934508085,0.014681155793368816,0.03434173762798309
1772363449711740700,1.59874072265625,0.008830110542476177,0.013292052783071995,0.027859337627887726
1772363449721811000,1.60881103515625,0.008997063152492046,0.01324374694377184,0.02812904119491577
1772363449731879700,1.618879638671875,0.014256007969379425,0.012124952860176563,0.023831497877836227
1772363449741949700,1.62894970703125,0.010452729649841785,0.006370076444000006,0.008821521885693073
1772363449752018700,1.639018798828125,0.006174094974994659,-0.010514364577829838,-0.010384929366409779
1772363449762088700,1.649088623046875,0.004172847606241703,-0.022632889449596405,-0.021871980279684067
1772363449772157700,1.65915771484375,-0.0036384696140885353,-0.029542727395892143,-0.027759164571762085
1772363449782227700,1.669227783203125,-0.005077642388641834,-0.02512294426560402,-0.044380221515893936
1772363449792296700,1.679296630859375,-0.004536221735179424,-0.023577246814966202,-0.05733170360326767
1772363449802366700,1.68936669921875,-0.009320644661784172,-0.024691980332136154,-0.056524910032749176
1772363449812436000,1.69943603515625,-0.010960619896650314,-0.014640412293374538,-0.054420217871665955
1772363449822505700,1.709505615234375,-0.006624846253544092,-0.012991356663405895,-0.055781327188014984
1772363449832574700,1.71957470703125,-0.005096458364278078,-0.024515654891729355,-0.03937172517180443
1772363449842644700,1.729644775390625,-0.006738030817359686,-0.036367785185575485,-0.021707776933908463
1772363449852713700,1.739713623046875,-0.0020881514064967632,-0.033180247992277145,-0.004665941931307316
1772363449862783700,1.74978369140625,-0.006215205881744623,-0.02872431091964245,0.006377869285643101
1772363449872852700,1.759852783203125,-0.01051701046526432,-0.029262270778417587,0.014834470115602016
1772363449882922800,1.7699228515625,-0.019194627180695534,-0.0434030219912529,0.022080738097429276
1772363449892991700,1.77999169921875,-0.026120176538825035,-0.05088357627391815,0.033207423985004425
1772363449903061800,1.790061767578125,-0.022862717509269714,-0.04375234991312027,0.03139491379261017
1772363449913130800,1.800130859375,-0.021247245371341705,-0.047464799135923386,0.03395474702119827
1772363449923200800,1.81020068359375,-0.018904857337474823,-0.05746174603700638,0.032959092408418655
1772363449933269800,1.820269775390625,-0.025155561044812202,-0.0722966194152832,0.027898021042346954
1772363449943339800,1.83033984375,-0.025064149871468544,-0.0996510237455368,0.02055709809064865
1772363449953408800,1.84040869140625,-0.016123918816447258,-0.11350452154874802,0.01371969934552908
1772363449963478800,1.850478759765625,-0.012978431768715382,-0.08967791497707367,-0.002460528165102005
1772363449973547800,1.8605478515625,-0.01817718893289566,-0.06648311764001846,-0.02800530195236206
1772363449983617800,1.87061767578125,-0.014334277249872684,-0.054398637264966965,-0.04660942777991295
1772363449993686800,1.880686767578125,-0.00942953210324049,-0.05232084169983864,-0.055307045578956604
1772363450003755800,1.890755859375,0.0008216002024710178,-0.038966815918684006,-0.05704805999994278
1772363450013825500,1.900825439453125,0.0010106847621500492,-0.013704869896173477,-0.05258779227733612
1772363450023894800,1.910894775390625,-0.0023329071700572968,-0.000060160644352436066,-0.04651319235563278
1772363450033964800,1.92096484375,0.0031918208114802837,0.0034469556994736195,-0.03722675144672394
1772363450044033800,1.93103369140625,0.0036376360803842545,0.010485472157597542,-0.021370284259319305
1772363450054103800,1.941103759765625,0.010578365996479988,0.008390629664063454,0.0008817585185170174
1772363450064172800,1.9511728515625,0.01391372736543417,0.008587753400206566,0.023328345268964767
1772363450074242800,1.961242919921875,0.017817389219999313,0.011150779202580452,0.038591984659433365
1772363450084311800,1.971311767578125,0.017645183950662613,0.01227237656712532,0.04144459217786789
1772363450094381800,1.9813818359375,0.017972484230995178,0.024875253438949585,0.04758024960756302
1772363450104450800,1.991450927734375,0.01999778300523758,0.050365280359983444,0.04655439034104347
1772363450114520800,2.001520751953125,0.023582929745316505,0.06757063418626785,0.041208893060684204
1772363450124589600,2.011589599609375,0.02429134026169777,0.06794246286153793,0.03408940136432648
1772363450134659800,2.021659912109375,0.024941418319940567,0.06918642669916153,0.024011999368667603
1772363450144728600,2.031728515625,0.02280449867248535,0.0739569440484047,0.01198516320437193
1772363450154798800,2.041798828125,0.017934640869498253,0.07661691308021545,0.0018025673925876617
1772363450164867600,2.05186767578125,0.013741254806518555,0.07290136814117432,-0.005966599564999342
1772363450174937600,2.0619375,0.01133642066270113,0.06616862863302231,-0.007369020022451878
1772363450185006800,2.0720068359375,0.010360061191022396,0.04909761995077133,-0.009734116494655609
1772363450195076600,2.08207666015625,0.011206147260963917,0.03636904060840607,-0.0036959312856197357
1772363450205145900,2.092145751953125,0.00758924288675189,0.032594505697488785,0.005246609449386597
1772363450215215600,2.102215576171875,0.003958289045840502,0.02960803732275963,0.016495268791913986
1772363450225284900,2.112284912109375,0.002512596547603607,0.02420983277261257,0.020425932481884956
1772363450235354600,2.122354736328125,-0.0016810833476483822,0.010905478149652481,0.0201492290943861
1772363450245423900,2.132423828125,-0.0007774634286761284,0.0028065890073776245,0.018445808440446854
1772363450255493600,2.14249365234375,0.0038505783304572105,-0.010144096799194813,0.01562365610152483
1772363450265563000,2.15256298828125,0.011610837653279305,-0.024711549282073975,0.015057221055030823
1772363450275633000,2.1626328125,0.009951421990990639,-0.033673617988824844,0.015211418271064758
1772363450285701600,2.17270166015625,0.010551008395850658,-0.021759027615189552,-0.0002157175913453102
1772363450295772000,2.18277197265625,0.005823364481329918,0.0013742540031671524,-0.01348571665585041
1772363450305840600,2.192840576171875,0.00578600587323308,0.012446308508515358,-0.018600337207317352
1772363450315910000,2.202909912109375,0.0034408261999487877,0.00848379172384739,-0.01762588694691658
1772363450325979600,2.212979736328125,0.006264430470764637,0.006994257681071758,-0.008899006061255932
1772363450336050000,2.2230498046875,0.008951826021075249,-0.0034027229994535446,0.001497708261013031
1772363450346118700,2.23311865234375,0.014281123876571655,-0.020601214841008186,0.017079010605812073
1772363450356188000,2.24318798828125,0.014633727259933949,-0.036287762224674225,0.025819238275289536
1772363450366257700,2.253257568359375,0.024365972727537155,-0.030893050134181976,0.02624380961060524
1772363450376327000,2.263326904296875,0.03535177931189537,-0.018259814009070396,0.023700490593910217
1772363450386396700,2.273396728515625,0.03777343034744263,-0.008559097535908222,0.019882328808307648
1772363450396465700,2.283465576171875,0.039615269750356674,-0.009325820952653885,0.01892438903450966
1772363450406536000,2.293535888671875,0.035564299672842026,-0.009961670264601707,0.013202576898038387
1772363450416604700,2.303604736328125,0.036099061369895935,-0.01021973043680191,0.0033542076125741005
1772363450426675000,2.313675048828125,0.032274194061756134,-0.015413046814501286,-0.008852933533489704
1772363450436743700,2.32374365234375,0.030657120048999786,-0.01709616556763649,-0.017246151342988014
1772363450446813700,2.333813720703125,0.03474654257297516,-0.015143243595957756,-0.02575618028640747
1772363450456882700,2.343882568359375,0.04168407991528511,-0.013106457889080048,-0.03195229172706604
1772363450466952700,2.35395263671875,0.04155317693948746,-0.012419920414686203,-0.02980189025402069
1772363450477021700,2.364021728515625,0.03714191913604736,-0.007039003074169159,-0.03039897233247757
1772363450487091700,2.374091796875,0.040838487446308136,0.0012355782091617584,-0.029680360108613968
1772363450497160700,2.38416064453125,0.04034074395895004,0.003433218691498041,-0.022602742537856102
1772363450507230700,2.394230712890625,0.036109935492277145,0.009088036604225636,-0.007605442311614752
1772363450517299700,2.4042998046875,0.03145100176334381,0.014896124601364136,0.010859585367143154
1772363450527369700,2.41436962890625,0.028498869389295578,0.024001900106668472,0.019337620586156845
1772363450537439000,2.42443896484375,0.029754016548395157,0.036473751068115234,0.014924229122698307
1772363450547508700,2.4345087890625,0.02613626793026924,0.044730693101882935,0.012905255891382694
1772363450557577700,2.44457763671875,0.021524472162127495,0.045445483177900314,0.008282807655632496
1772363450567647700,2.454647705078125,0.01265716552734375,0.04661712050437927,0.0055089183151721954
1772363450577716700,2.464716796875,0.009664305485785007,0.04018665850162506,0.010851752012968063
1772363450587786800,2.474786865234375,0.0024436675012111664,0.02549394592642784,0.022689830511808395
1772363450597855700,2.484855712890625,-0.0009476020932197571,0.011045495979487896,0.0322287417948246
1772363450607925800,2.49492578125,-0.004567352589219809,0.0030103106983006,0.039534732699394226
1772363450617994800,2.504994873046875,-0.011022057384252548,0.004205271136015654,0.04172331839799881
1772363450628064800,2.515064697265625,-0.013207849115133286,0.007175201550126076,0.043663859367370605
1772363450638133800,2.5251337890625,-0.020057765766978264,0.011960102245211601,0.036611542105674744
1772363450648203800,2.535203857421875,-0.03108001872897148,0.010974885895848274,0.022850200533866882
1772363450658272800,2.545272705078125,-0.028262659907341003,0.008967927657067776,0.0006674015894532204
1772363450668341800,2.555341796875,-0.032437581568956375,0.006300961598753929,-0.011840971186757088
1772363450678411800,2.565411865234375,-0.027569055557250977,0.007038123905658722,-0.015578185208141804
1772363450688480300,2.575480224609375,-0.022015787661075592,0.008933116681873798,-0.01796337217092514
1772363450698550300,2.58555029296875,-0.025903204455971718,0.009226330555975437,-0.023103538900613785
1772363450708619300,2.595619384765625,-0.022542376071214676,0.013140072114765644,-0.02210666798055172
1772363450718689300,2.605689208984375,-0.018366005271673203,0.013796540908515453,-0.010434298776090145
1772363450728758300,2.61575830078125,-0.01573779806494713,0.013136358000338078,0.005030861124396324
1772363450738828300,2.625828369140625,-0.01838524639606476,0.00920686312019825,0.028314078226685524
1772363450748897300,2.635897216796875,-0.015605145134031773,0.013320749625563622,0.04427820444107056
1772363450758967300,2.64596728515625,-0.015894629061222076,0.015016118064522743,0.049322228878736496
1772363450769036300,2.656036376953125,-0.010817432776093483,0.025424359366297722,0.04497838765382767
1772363450779106300,2.666106201171875,-0.01584707759320736,0.029955996200442314,0.04192454367876053
1772363450789175300,2.67617529296875,-0.01253928616642952,0.02639302983880043,0.031697243452072144
1772363450799245300,2.686245361328125,-0.011237265542149544,0.019789189100265503,0.013637280091643333
1772363450809314300,2.696314208984375,-0.014295961707830429,0.014007478021085262,0.002973569557070732
1772363450819384300,2.70638427734375,-0.011208027601242065,0.010766676627099514,-0.00569102494046092
1772363450829453300,2.716453369140625,-0.010795842856168747,0.009918954223394394,-0.01375482976436615
1772363450839523300,2.7265234375,-0.010123929008841515,0.004563603084534407,-0.016241690143942833
1772363450849592300,2.73659228515625,-0.007056131958961487,-0.0003223586827516556,-0.009134686551988125
1772363450859662300,2.746662353515625,-0.010455922223627567,0.0041325767524540424,0.0017650993540883064
1772363450869731000,2.75673095703125,-0.011342920362949371,0.0033979499712586403,0.014964349567890167
1772363450879801300,2.76680126953125,-0.0064269909635186195,-0.004549721255898476,0.02809666283428669
1772363450889870300,2.776870361328125,-0.020342007279396057,-0.009005456231534481,0.052311189472675323
1772363450899940400,2.7869404296875,-0.02656368538737297,-0.006555614527314901,0.06215236335992813
1772363450910009300,2.79700927734375,-0.025385159999132156,-0.004476179834455252,0.06310686469078064
1772363450920079000,2.8070791015625,-0.023108959197998047,0.0016208612360060215,0.06350607424974442
1772363450930148400,2.8171484375,-0.016390584409236908,0.002191680483520031,0.04990597814321518
1772363450940218000,2.827218017578125,-0.013478417880833149,-0.004924019332975149,0.03691641241312027
1772363450950287400,2.837287353515625,-0.011742375791072845,-0.007696143351495266,0.02705523930490017
1772363450960357000,2.847357177734375,-0.01008429192006588,0.0028952481225132942,0.02128257416188717
1772363450970426400,2.85742626953125,-0.0029438799247145653,0.02477099746465683,0.015597374178469181
1772363450980496400,2.867496337890625,-0.001426677219569683,0.03329763934016228,0.006659804843366146
1772363450990565400,2.8775654296875,0.0013729576021432877,0.03926149755716324,-0.0051353694871068
1772363451000635400,2.887635498046875,0.01029641181230545,0.04120667278766632,-0.009903493337333202
1772363451010704400,2.897704345703125,0.01636424846947193,0.04465501755475998,-0.00559327844530344
1772363451020774400,2.9077744140625,0.01888652890920639,0.044041164219379425,0.007194421254098415
1772363451030843100,2.917843017578125,0.0250808484852314,0.0448332279920578,0.017505668103694916
1772363451040913400,2.927913330078125,0.026738932356238365,0.03125695884227753,0.02740810066461563
1772363451050982100,2.937982177734375,0.02739645726978779,0.023406710475683212,0.03725333511829376
1772363451061052400,2.948052490234375,0.026345839723944664,0.03109898790717125,0.03449217230081558
1772363451071121200,2.95812109375,0.02410116419196129,0.0403490848839283,0.039375968277454376
1772363451081191400,2.96819140625,0.02927355468273163,0.04861367121338844,0.03657139465212822
1772363451091260200,2.97826025390625,0.025453874841332436,0.04358470067381859,0.03441891446709633
1772363451101330200,2.988330078125,0.022814681753516197,0.03437575697898865,0.026403866708278656
1772363451111399400,2.9983994140625,0.02463962696492672,0.04118361324071884,0.021854160353541374
1772363451121469200,3.00846923828125,0.019241666421294212,0.049641549587249756,0.010652637109160423
1772363451131538400,3.018538330078125,0.018676606938242912,0.044443048536777496,-0.001358402892947197
1772363451141607200,3.028607177734375,0.020312853157520294,0.027930648997426033,-0.015832416713237762
1772363451151677400,3.038677490234375,0.013175131753087044,0.012498521246016026,-0.022399283945560455
1772363451161746200,3.04874609375,0.009287982247769833,0.006123977713286877,-0.03025880455970764
1772363451171816400,3.05881640625,0.005103669129312038,0.004916383884847164,-0.03769014775753021
1772363451181885200,3.06888525390625,-0.002080207224935293,0.004737419076263905,-0.03316942974925041
1772363451191955200,3.078955078125,-0.007085894234478474,0.004149662796407938,-0.016014346852898598
1772363451202024200,3.089024169921875,-0.009865435771644115,-0.004072048235684633,0.002312995493412018
1772363451212094200,3.09909423828125,-0.016114287078380585,-0.006911828648298979,0.018333304673433304
1772363451222163200,3.1091630859375,-0.018750816583633423,-0.010657564736902714,0.03295059874653816
1772363451232233200,3.119233154296875,-0.020804893225431442,-0.0038680527359247208,0.040418773889541626
1772363451242302200,3.12930224609375,-0.020041365176439285,0.00039034150540828705,0.04267926514148712
1772363451252372200,3.139372314453125,-0.023581257089972496,-0.002274732803925872,0.04189029708504677
1772363451262441500,3.14944140625,-0.019787052646279335,-0.0085587278008461,0.039234060794115067
1772363451272511200,3.15951123046875,-0.011879567056894302,-0.004974279087036848,0.03600585088133812
1772363451282580500,3.16958056640625,-0.007028618361800909,0.0002934536896646023,0.032427094876766205
1772363451292650200,3.179650146484375,-0.005028363782912493,-0.00165133411064744,0.019095897674560547
1772363451302719200,3.18971923828125,-0.008992744609713554,-0.020023416727781296,0.006860801018774509
1772363451312789200,3.199789306640625,-0.010887226089835167,-0.016001956537365913,-0.0049115451984107494
1772363451322858200,3.209858154296875,-0.014554133638739586,-0.013138791546225548,-0.011407794430851936
1772363451332928300,3.21992822265625,-0.019702639430761337,-0.014449958689510822,-0.009762980043888092
1772363451342997200,3.229997314453125,-0.01941554993391037,-0.010089831426739693,-0.01287807896733284
1772363451353067500,3.240067626953125,-0.017693843692541122,-0.011971987783908844,-0.020127544179558754
1772363451363136300,3.25013623046875,-0.011679360643029213,-0.011766658164560795,-0.027114612981677055
1772363451373206300,3.260206298828125,-0.014143564738333225,-0.015400758013129234,-0.03215743601322174
1772363451383275300,3.270275146484375,-0.010420997627079487,-0.012546914629638195,-0.03747790306806564
1772363451393345300,3.28034521484375,-0.008753465488553047,-0.001340358518064022,-0.03723245859146118
1772363451403414300,3.290414306640625,-0.011522088199853897,0.00032038846984505653,-0.036947235465049744
1772363451413484300,3.300484375,-0.009708640165627003,-0.0023034843616187572,-0.03376280143857002
1772363451423553300,3.31055322265625,-0.010620771907269955,-0.007969625294208527,-0.02207019180059433
1772363451433623300,3.320623291015625,-0.008027992211282253,-0.013753997161984444,-0.010328065603971481
1772363451443692300,3.3306923828125,-0.006514517590403557,-0.017388146370649338,0.0005616005510091782
1772363451453762300,3.34076220703125,-0.0038947672583162785,-0.019143221899867058,0.013030251488089561
1772363451463831300,3.350831298828125,-0.001808180008083582,-0.013863504864275455,0.031116843223571777
1772363451473901300,3.3609013671875,-0.003011413849890232,0.0006203115917742252,0.040624458342790604
1772363451483970300,3.37097021484375,0.005982880014926195,0.014570482075214386,0.03686966747045517
1772363451494040300,3.381040283203125,0.007501064799726009,0.014001062139868736,0.023491324856877327
1772363451504109300,3.391109375,0.006086926441639662,0.0077133383601903915,0.012123089283704758
1772363451514179300,3.401179443359375,0.001929787453263998,0.008844051510095596,0.005912477150559425
1772363451524248300,3.411248291015625,0.0025953114964067936,0.009140994399785995,-0.00374494306743145
1772363451534318300,3.421318359375,-0.0022867578081786633,0.0040755486115813255,0.003077552653849125
1772363451544387300,3.43138720703125,-0.003537378739565611,-0.006197595503181219,0.002833873964846134
1772363451554457000,3.44145703125,-0.0061842575669288635,-0.013594106771051884,0.007296542637050152
1772363451564526300,3.4515263671875,-0.008157127536833286,-0.017323065549135208,0.014368566684424877
1772363451574596400,3.461596435546875,-0.00110599584877491,-0.015402102842926979,0.012960588559508324
1772363451584665300,3.471665283203125,0.001344112679362297,-0.020307911559939384,0.009876914322376251
1772363451594735400,3.4817353515625,0.009055644273757935,-0.01633491739630699,0.009449965320527554
1772363451604804400,3.491804443359375,0.015367602929472923,-0.004004748538136482,0.0043279072269797325
1772363451614874400,3.501874267578125,0.014248047024011612,0.003860517404973507,-0.0015462180599570274
1772363451624943400,3.511943359375,0.013140438124537468,0.008092546835541725,-0.006176390219479799
1772363451635012400,3.522012451171875,0.011586951091885567,0.00941428728401661,-0.012797623872756958
1772363451645082000,3.53208203125,0.012411998584866524,0.012432713061571121,-0.022959448397159576
1772363451655152400,3.54215234375,0.017810657620429993,0.011047996580600739,-0.03192427381873131
1772363451665221000,3.55222119140625,0.016562433913350105,0.01646273583173752,-0.03727216646075249
1772363451675290400,3.562290283203125,0.012211957946419716,0.017621729522943497,-0.045833878219127655
1772363451685360000,3.572360107421875,0.012568555772304535,0.015946069732308388,-0.053488604724407196
1772363451695433500,3.58243359375,0.006878023035824299,0.006020926870405674,-0.04442663863301277
1772363451705503500,3.59250341796875,0.0039056693203747272,0.0029556285589933395,-0.033483974635601044
1772363451715572500,3.602572509765625,0.0005528321489691734,-0.004238067660480738,-0.01769227534532547
1772363451725642500,3.612642578125,-0.006681910715997219,-0.013764460571110249,-0.0006142221391201019
1772363451735711200,3.622711181640625,-0.004751091357320547,-0.009950445964932442,0.007662689313292503
1772363451745781500,3.632781494140625,-0.00845927745103836,-0.002772162202745676,0.019184855744242668
1772363451755850200,3.642850341796875,-0.005545687861740589,0.017840582877397537,0.030611302703619003
1772363451765920500,3.65292041015625,-0.003193850629031658,0.024632176384329796,0.03486916422843933
1772363451775989200,3.6629892578125,-0.003686176147311926,0.022192806005477905,0.03555615246295929
1772363451786059300,3.673059326171875,-0.006822314579039812,0.018937092274427414,0.03222719952464104
1772363451796128300,3.683128173828125,-0.010584663599729538,0.01639523170888424,0.01891316846013069
1772363451806198300,3.6931982421875,-0.010150302201509476,0.01230541430413723,0.007884752005338669
1772363451816267500,3.703267578125,-0.006525436416268349,0.008798716589808464,-0.009088363498449326
1772363451826337300,3.713337158203125,-0.0092732859775424,0.00248729158192873,-0.02428942173719406
1772363451836406500,3.723406494140625,-0.010993724688887596,-0.0056248498149216175,-0.041790660470724106
1772363451846476300,3.733476318359375,-0.007563040591776371,-0.01181776449084282,-0.05264783650636673
1772363451856545500,3.743545654296875,-0.010934961028397083,-0.0048132059164345264,-0.05585337057709694
1772363451866615300,3.753615234375,-0.01157571841031313,0.0006281649693846703,-0.05187913775444031
1772363451876684500,3.7636845703125,-0.00812892522662878,0.009963050484657288,-0.04812950640916824
1772363451886754300,3.77375439453125,-0.0007698126137256622,0.01641908474266529,-0.03545978665351868
1772363451896823300,3.7838232421875,0.005847003310918808,0.017906421795487404,-0.022368768230080605
1772363451906893600,3.7938935546875,0.006669387221336365,0.014425138011574745,-0.002409174107015133
1772363451916962300,3.80396240234375,0.007072589825838804,0.014786262065172195,0.010004086419939995
1772363451927032600,3.814032470703125,0.010108061134815216,0.02029687538743019,0.015973560512065887
1772363451937101300,3.824101318359375,0.01315409317612648,0.020240861922502518,0.019224325194954872
1772363451947171300,3.83417138671875,0.01303558237850666,0.0128777539357543,0.020162289962172508
1772363451957240300,3.844240234375,0.018660839647054672,0.012649761512875557,0.0239553302526474
1772363451967310300,3.854310302734375,0.016860544681549072,0.01741335727274418,0.02071026712656021
1772363451977379300,3.86437939453125,0.02218131721019745,0.02009137161076069,0.006352579221129417
1772363451987449300,3.874449462890625,0.01816154271364212,0.009371083229780197,-0.00356157124042511
1772363451997518300,3.884518310546875,0.012608198449015617,0.0036096819676458836,-0.003257403150200844
1772363452007588400,3.89458837890625,0.0004151822067797184,-0.004763562697917223,-0.007210333365947008
1772363452017657300,3.9046572265625,-0.009464243426918983,-0.017153307795524597,-0.012638825923204422
1772363452027727400,3.914727294921875,-0.013371367007493973,-0.03233598917722702,-0.01689535565674305
1772363452037796600,3.924796630859375,-0.012963104993104935,-0.03334745764732361,-0.023237142711877823
1772363452047866400,3.934866455078125,-0.011036040261387825,-0.02672577276825905,-0.032149411737918854
1772363452057935400,3.944935302734375,-0.011126838624477386,-0.015298044309020042,-0.03460843861103058
1772363452068005400,3.95500537109375,-0.012482387945055962,-0.004131676163524389,-0.042169418185949326
1772363452078074400,3.965074462890625,-0.011872733011841774,0.0037842378951609135,-0.04935421049594879
1772363452088144400,3.975144287109375,-0.014359060674905777,0.006534218322485685,-0.04356556385755539
1772363452098213400,3.98521337890625,-0.012387780472636223,-0.0013343046884983778,-0.030767809599637985
1772363452108281300,3.99528125,-0.012079652398824692,-0.011505449190735817,-0.015299903228878975
1772363452118351400,4.005351318359375,-0.007974747568368912,-0.016161806881427765,-0.002015414647758007
1772363452128420400,4.01542041015625,-0.0021192566491663456,-0.017015349119901657,0.012777647003531456
1772363452138490400,4.025490478515625,-0.0007967664860188961,-0.01265750639140606,0.019388936460018158
1772363452148559400,4.035559326171875,0.00378999556414783,0.004039980471134186,0.017154809087514877
1772363452158629400,4.04562939453125,0.0062450263649225235,0.012876855209469795,0.016787990927696228
1772363452168698400,4.055698486328125,0.0067896428517997265,0.011615050956606865,0.02100377529859543
1772363452178768400,4.065768310546875,0.0031056739389896393,0.013416839763522148,0.02446841076016426
1772363452188837400,4.07583740234375,0.004853506572544575,0.0176432766020298,0.020540781319141388
1772363452198907400,4.085907470703125,0.004112358670681715,0.017498185858130455,0.010850274004042149
1772363452208976400,4.095976318359375,0.003052420448511839,0.011886639520525932,0.003630976192653179
1772363452219046400,4.10604638671875,0.0035962099209427834,0.015451979823410511,-0.010729661211371422
1772363452229115400,4.116115478515625,-0.003491260576993227,0.010884658433496952,-0.018077589571475983
1772363452239185400,4.126185302734375,-0.007548724301159382,0.0036706598475575447,-0.024895913898944855
1772363452249254400,4.13625439453125,-0.01304042898118496,-0.003571273759007454,-0.028738057240843773
1772363452259324400,4.146324462890625,-0.011550454422831535,-0.011557014659047127,-0.02332713082432747
1772363452269393400,4.156393310546875,-0.014252763241529465,-0.012392714619636536,-0.017688952386379242
1772363452279463200,4.166463134765625,-0.016977472230792046,-0.01590632274746895,-0.007041174452751875
1772363452289532400,4.176532470703125,-0.017649387940764427,-0.0162165816873312,0.0007275324314832687
1772363452299602200,4.186602294921875,-0.013505389913916588,-0.021939527243375778,0.012268038466572762
1772363452309671400,4.19667138671875,-0.016495052725076675,-0.03200281411409378,0.0239326860755682
1772363452319741400,4.206741455078125,-0.014533323235809803,-0.03306308016180992,0.025531325489282608
1772363452329810400,4.216810546875,-0.012206786312162876,-0.02973066456615925,0.02223539724946022
1772363452339880400,4.22688037109375,-0.014975655823946,-0.028156956657767296,0.020119652152061462
1772363452349949400,4.236949462890625,-0.017482755705714226,-0.029037930071353912,0.013601566664874554
1772363452360019500,4.24701953125,-0.014910673722624779,-0.02872474305331707,0.003089803270995617
1772363452370088400,4.25708837890625,-0.00835610181093216,-0.026527367532253265,-0.007598527241498232
1772363452380158500,4.267158447265625,-0.004448538646101952,-0.02092602849006653,-0.016228390857577324
1772363452390227200,4.277227294921875,0.0000724433921277523,-0.009840620681643486,-0.022427696734666824
1772363452400297500,4.28729736328125,-0.0014253915287554264,-0.002603786299005151,-0.027405697852373123
1772363452410366200,4.2973662109375,-0.005231048446148634,-0.006904525216668844,-0.025550005957484245
1772363452420436500,4.3074365234375,-0.00990373082458973,0.000288546085357666,-0.020673666149377823
1772363452430505200,4.317505126953125,-0.007622733246535063,-0.0033501307480037212,-0.013410426676273346
1772363452440575500,4.327575439453125,-0.0022253687493503094,-0.025748901069164276,-0.003122185356914997
1772363452450644500,4.33764453125,-0.0006381249986588955,-0.04397956654429436,0.0144299091771245
1772363452460714200,4.34771435546875,0.004281945526599884,-0.0370643250644207,0.03037002868950367
1772363452470783500,4.357783447265625,0.006566138938069344,-0.02256101742386818,0.03849320113658905
1772363452480853200,4.367853271484375,0.009690817445516586,-0.012747054919600487,0.03598456829786301
1772363452490922500,4.377922607421875,0.012451715767383575,-0.0018611177802085876,0.03229635953903198
1772363452500992300,4.3879921875,0.010228334926068783,-0.006747664883732796,0.023272927850484848
1772363452511061500,4.3980615234375,0.010202502831816673,-0.005065878853201866,0.011916941963136196
1772363452521131300,4.40813134765625,0.012058844789862633,0.001863645389676094,-0.006056237034499645
1772363452531200500,4.418200439453125,0.010487579740583897,0.0028218505904078484,-0.0187523253262043
1772363452541270500,4.4282705078125,0.012457842007279396,-0.0071706622838974,-0.03066343069076538
1772363452551339300,4.43833935546875,0.013344408012926579,-0.014503676444292068,-0.04082738608121872
1772363452561409500,4.448409423828125,0.012248856946825981,-0.01242610439658165,-0.05552375689148903
1772363452571478300,4.458478271484375,0.008463439531624317,-0.013306545093655586,-0.060679368674755096
1772363452581548500,4.468548583984375,0.0031826295889914036,-0.014599609188735485,-0.058082062751054764
1772363452591617300,4.4786171875,-0.00350323598831892,-0.021239936351776123,-0.05173548310995102
1772363452601687600,4.4886875,-0.0055534387938678265,-0.02601059526205063,-0.03445778414607048
1772363452611756300,4.49875634765625,0.00542091578245163,-0.020438464358448982,-0.01923568919301033
1772363452621826300,4.508826416015625,0.007450584787875414,-0.006133312359452248,-0.00032376497983932495
1772363452631895300,4.518895263671875,0.008287616074085236,0.0026330146938562393,0.016391299664974213
1772363452641965300,4.52896533203125,0.0032070018351078033,0.016357002779841423,0.051622964441776276
1772363452652034300,4.539034423828125,0.011963475495576859,0.030876556411385536,0.036943353712558746
1772363452662104300,4.549104248046875,0.02036723680794239,0.009221667423844337,0.013914174400269985
1772363452672173300,4.55917333984375,0.013370048254728317,-0.035689882934093475,0.027044624090194702
1772363452682243300,4.569243408203125,0.016453297808766365,-0.03108667954802513,0.03259015083312988
1772363452692308500,4.57930859375,0.01402103342115879,-0.011232015676796436,0.016766980290412903
1772363452702378500,4.58937841796875,0.00791485607624054,-0.007816871628165245,0.012703308835625648
1772363452712447500,4.599447509765625,0.0007845088839530945,-0.013759715482592583,0.018295148387551308
1772363452722517500,4.609517578125,0.0005235555581748486,-0.020312270149588585,0.015542514622211456
1772363452732586500,4.61958642578125,-0.010044400580227375,-0.03495299816131592,0.007323998957872391
1772363452742656500,4.629656494140625,-0.01543319784104824,-0.03938350826501846,-0.0028236843645572662
1772363452752725500,4.6397255859375,-0.01904897205531597,-0.028848305344581604,-0.014165021479129791
1772363452762795500,4.64979541015625,-0.017693614587187767,-0.01844063214957714,-0.025864005088806152
1772363452772864500,4.659864501953125,-0.016346586868166924,-0.016075212508440018,-0.03846528381109238
1772363452782934500,4.6699345703125,-0.01738365925848484,-0.009724792093038559,-0.04842684417963028
1772363452793003500,4.68000341796875,-0.010544395074248314,-0.003813107730820775,-0.05035630613565445
1772363452803073300,4.6900732421875,-0.014365434646606445,-0.0015856537502259016,-0.0464664101600647
1772363452813142500,4.700142578125,-0.01360376924276352,-0.0033763633109629154,-0.03481108695268631
1772363452823212300,4.71021240234375,-0.010782582685351372,0.001975132618099451,-0.020297564566135406
1772363452833281500,4.720281494140625,-0.009005988016724586,-0.004162388388067484,-0.0048536271788179874
1772363452843351600,4.7303515625,-0.0050411103293299675,-0.007153004873543978,0.009301064535975456
1772363452853420500,4.740420654296875,-0.004699959419667721,-0.007995628751814365,0.027886997908353806
1772363452863490600,4.750490478515625,0.0028066649101674557,0.002855853643268347,0.04110259562730789
1772363452873559600,4.7605595703125,0.011106406338512897,0.011954011395573616,0.04096411168575287
1772363452883629600,4.770629638671875,0.01939040794968605,0.020275963470339775,0.04248496890068054
1772363452893698600,4.780698486328125,0.0294510331004858,0.028940023854374886,0.04241599515080452
1772363452903768600,4.7907685546875,0.04873145744204521,0.041366077959537506,0.036099694669246674
1772363452913837300,4.80083740234375,0.05906718596816063,0.06084657460451126,0.02874431014060974
1772363452923907600,4.810907470703125,0.06958312541246414,0.06718060374259949,0.019845403730869293
1772363452933976300,4.820976318359375,0.07146544009447098,0.06593530625104904,0.004533023573458195
1772363452944046600,4.831046630859375,0.07531654834747314,0.0736580640077591,-0.010157862678170204
1772363452954115300,4.841115234375,0.0740177184343338,0.09790055453777313,-0.027353361248970032
1772363452964185600,4.851185546875,0.07089731097221375,0.10854984819889069,-0.03068351186811924
1772363452974254600,4.861254638671875,0.06044573336839676,0.08851968497037888,-0.01997094601392746
1772363452984324400,4.871324462890625,0.056141696870326996,0.05947563424706459,-0.004899941384792328
1772363452994393600,4.8813935546875,0.05446283891797066,0.04008995369076729,0.011373304761946201
1772363453004463400,4.89146337890625,0.05569910630583763,0.03131254389882088,0.027733176946640015
1772363453014532600,4.90153271484375,0.05763202905654907,0.035924870520830154,0.04084045812487602
1772363453024602400,4.911602294921875,0.060885120183229446,0.04249850660562515,0.04381681606173515
1772363453034671600,4.921671630859375,0.05934954062104225,0.053171657025814056,0.038830578327178955
1772363453044741400,4.931741455078125,0.056692156940698624,0.05832637846469879,0.03258737921714783
1772363453054810600,4.941810546875,0.048084557056427,0.056533534079790115,0.02453371323645115
1772363453064880600,4.951880615234375,0.047209568321704865,0.05777993053197861,0.01632494479417801
1772363453074949400,4.961949462890625,0.04140467569231987,0.0540216788649559,0.004669352434575558
1772363453085019600,4.97201953125,0.039436064660549164,0.046367157250642776,-0.012519747018814087
1772363453095088400,4.98208837890625,0.03266577795147896,0.037102553993463516,-0.023020323365926743
1772363453105158700,4.99215869140625,0.027591105550527573,0.03786124289035797,-0.028721492737531662
1772363453115227400,5.002227294921875,0.02245786413550377,0.03798641264438629,-0.02751641348004341
1772363453125297700,5.012297607421875,0.017774831503629684,0.035535797476768494,-0.012441756203770638
1772363453135366400,5.022366455078125,0.017956992611289024,0.035188522189855576,0.00351910013705492
1772363453145436400,5.0324365234375,0.016620948910713196,0.022738762199878693,0.016235779970884323
1772363453155505400,5.04250537109375,0.01852164790034294,0.008480197750031948,0.03355085477232933
1772363453165575400,5.052575439453125,0.019974924623966217,-0.0009296033531427383,0.052267614752054214
1772363453175644400,5.06264453125,0.0236053466796875,-0.004847646225243807,0.0631258487701416
1772363453185714400,5.07271435546875,0.025010833516716957,-0.002189784776419401,0.0649784505367279
1772363453195783700,5.08278369140625,0.027466801926493645,0.004582367371767759,0.05975945293903351
1772363453205853400,5.092853515625,0.02112543024122715,0.01849394105374813,0.05238333344459534
1772363453215922700,5.102922607421875,0.018691567704081535,0.01704411581158638,0.02683243528008461
1772363453225992400,5.112992431640625,0.012440338730812073,0.009685855358839035,0.009579346515238285
1772363453236061700,5.123061767578125,0.009280497208237648,-0.0036872075870633125,-0.0004376005381345749
1772363453246131500,5.13313134765625,0.007431528996676207,-0.004803352057933807,-0.00895803514868021
1772363453256200400,5.143200439453125,0.007812361232936382,-0.010782148689031601,-0.01693020761013031
1772363453266270500,5.1532705078125,0.005648413673043251,-0.01986483298242092,-0.027255183085799217
1772363453276339500,5.16333935546875,0.004167163744568825,-0.01070808619260788,-0.03402493894100189
1772363453286409700,5.17340966796875,-0.0014835232868790627,0.01115359179675579,-0.027709316462278366
1772363453296478500,5.183478515625,0.0075653656385838985,0.02775041200220585,-0.021853558719158173
1772363453306548500,5.193548583984375,0.01088782399892807,0.022872958332300186,-0.004498894326388836
1772363453316617500,5.203617431640625,0.007019849494099617,0.021280387416481972,0.016707325354218483
1772363453326687500,5.2136875,0.004816330503672361,0.025298522785305977,0.03282223641872406
1772363453336756500,5.223756591796875,0.004235494881868362,0.027512941509485245,0.04016616940498352
1772363453346826500,5.233826416015625,0.001774330623447895,0.01856522262096405,0.04093039780855179
1772363453356895500,5.2438955078125,0.008175504393875599,0.026838865131139755,0.03905393183231354
1772363453366965500,5.253965576171875,0.011106250807642937,0.04185691848397255,0.03382154181599617
1772363453377034500,5.264034423828125,0.016272516921162605,0.05286988615989685,0.04437378793954849
1772363453387104500,5.2741044921875,0.011917274445295334,0.054402150213718414,0.05660343915224075
1772363453397173500,5.284173583984375,0.011093026027083397,0.04858074709773064,0.05714060366153717
1772363453407243500,5.294243408203125,0.0033079995773732662,0.039678554981946945,0.052310142666101456
1772363453417312500,5.3043125,-0.0027805189602077007,0.022818617522716522,0.047646414488554
1772363453427382500,5.314382568359375,-0.0017000180669128895,0.0149587607011199,0.03270915895700455
1772363453437451500,5.324451416015625,-0.002047294285148382,0.019370820373296738,0.018371764570474625
1772363453447521500,5.334521484375,-0.0043291193433105946,0.020618146285414696,0.009156087413430214
1772363453457590500,5.344590576171875,-0.004023654852062464,0.03347322344779968,-0.00034473929554224014
1772363453467660500,5.35466064453125,-0.003344548400491476,0.03892790898680687,-0.008748609572649002
1772363453477729500,5.3647294921875,0.0028068209066987038,0.035297755151987076,-0.01765262335538864
1772363453487799300,5.37479931640625,0.0028992043808102608,0.021805018186569214,-0.023226693272590637
1772363453497868500,5.38486865234375,-0.0009996634908020496,0.018334919586777687,-0.019603729248046875
1772363453507938300,5.394938232421875,0.00038131512701511383,0.020279530435800552,-0.016301775351166725
1772363453518007600,5.405007568359375,-0.0035026385448873043,0.014220573008060455,-0.011178120039403439
1772363453528077600,5.41507763671875,-0.002733150962740183,0.0032090749591588974,-0.0006891684606671333
1772363453538146600,5.425146484375,-0.005163551773875952,-0.005829960573464632,0.011286000721156597
1772363453548216600,5.435216552734375,-0.0019615041092038155,-0.004583893809467554,0.02077127993106842
1772363453558285600,5.44528564453125,-0.001032327301800251,-0.010457761585712433,0.024466682225465775
1772363453568355600,5.45535546875,-0.0007330439984798431,-0.01587376557290554,0.03068501688539982
1772363453578424600,5.465424560546875,-0.004550685174763203,-0.012466249987483025,0.03519348055124283
1772363453588494600,5.47549462890625,-0.004099223762750626,-0.009026046842336655,0.03930608183145523
1772363453598563300,5.485563232421875,-0.0008861199021339417,-0.0007260385900735855,0.03616008907556534
1772363453608633600,5.495633544921875,0.004377434495836496,0.00902382843196392,0.02752714231610298
1772363453618702300,5.505702392578125,0.007486142683774233,0.011972745880484581,0.023714561015367508
1772363453628772600,5.515772705078125,0.007615149486809969,0.016816696152091026,0.019576838240027428
1772363453638841300,5.52584130859375,0.008832747116684914,0.012874685227870941,0.01741568185389042
1772363453648911400,5.535911376953125,-0.0006046518683433533,0.014478380791842937,0.01860019937157631
1772363453658980600,5.545980712890625,-0.0021104030311107635,0.02048274502158165,0.022140339016914368
1772363453669050400,5.55605029296875,-0.005233043804764748,0.026939282193779945,0.01936430111527443
1772363453679119600,5.56611962890625,-0.006879143416881561,0.021709632128477097,0.022895120084285736
1772363453689189400,5.576189453125,-0.008054468780755997,0.01476673036813736,0.029177766293287277
1772363453699259000,5.5862587890625,-0.004833907820284367,0.007188437972217798,0.033733636140823364
1772363453709328600,5.59632861328125,-0.0019967504777014256,0.0034683537669479847,0.03784704580903053
1772363453719398000,5.60639794921875,-0.000108303502202034,0.0007037268951535225,0.041602637618780136
1772363453729468000,5.616468017578125,0.006844035815447569,0.002285716123878956,0.04620801657438278
1772363453739536600,5.62653662109375,0.004237067420035601,0.0061382451094686985,0.04996680095791817
1772363453749607000,5.63660693359375,0.0011910530738532543,0.015920497477054596,0.049173738807439804
1772363453759675600,5.646675537109375,-0.0012414786033332348,0.024150729179382324,0.04560563340783119
1772363453769746000,5.656745849609375,0.0016998914070427418,0.030038893222808838,0.03571556136012077
1772363453779814700,5.666814697265625,0.00814367551356554,0.033931635320186615,0.025327369570732117
1772363453789885000,5.676885009765625,0.010017750784754753,0.03338893875479698,0.008699057623744011
1772363453799953700,5.68695361328125,0.009553294628858566,0.039173856377601624,-0.01185761671513319
1772363453810023700,5.697023681640625,0.013020766898989677,0.04701622202992439,-0.03372881934046745
1772363453820092700,5.7070927734375,0.011670278385281563,0.04547611624002457,-0.047995105385780334
1772363453830162700,5.71716259765625,0.005720796063542366,0.03985049948096275,-0.0482809878885746
1772363453840231700,5.727231689453125,-0.0042285071685910225,0.022588951513171196,-0.041746124625205994
1772363453850301700,5.7373017578125,-0.009706372395157814,0.0077364481985569,-0.026959653943777084
1772363453860370700,5.74737060546875,-0.007765460293740034,-0.009768509306013584,-0.012006804347038269
1772363453870440700,5.757440673828125,-0.010409841313958168,-0.03317234292626381,0.005199446342885494
1772363453880510000,5.767510009765625,-0.011638090014457703,-0.03866538032889366,0.021648991852998734
1772363453890579700,5.777579833984375,-0.008669288828969002,-0.02590285614132881,0.031815189868211746
1772363453900649000,5.78764892578125,-0.007894044741988182,-0.01488243043422699,0.03881397843360901
1772363453910718700,5.79771875,-0.0034089521504938602,-0.013552933000028133,0.03606993705034256
1772363453920787700,5.80778759765625,-0.012756114825606346,-0.023746713995933533,0.026128359138965607
1772363453930857700,5.817857666015625,-0.01926674321293831,-0.028101783245801926,0.012624797411262989
1772363453940926700,5.8279267578125,-0.025027161464095116,-0.03635065630078316,-0.003837266005575657
1772363453950996700,5.837996826171875,-0.03456844016909599,-0.04222741723060608,-0.01681583933532238
1772363453961065700,5.848065673828125,-0.03922577574849129,-0.05060838162899017,-0.035198308527469635
1772363453971135700,5.8581357421875,-0.04047180712223053,-0.06499765813350677,-0.04984348267316818
1772363453981204700,5.868204833984375,-0.04391314461827278,-0.07655338197946548,-0.052933014929294586
1772363453991274800,5.878274658203125,-0.047631021589040756,-0.0748041495680809,-0.056363191455602646
1772363454001343700,5.88834375,-0.05004624277353287,-0.06689909100532532,-0.0497598834335804
1772363454011413800,5.898413818359375,-0.0468052513897419,-0.06020819768309593,-0.03704197704792023
1772363454021482800,5.908482666015625,-0.04256603121757507,-0.05946304649114609,-0.022942669689655304
1772363454031552800,5.918552734375,-0.03747852146625519,-0.061148256063461304,-0.009738698601722717
1772363454041621800,5.928621826171875,-0.03147522360086441,-0.05301682651042938,-0.003984140232205391
1772363454051691800,5.93869189453125,-0.026768170297145844,-0.045653484761714935,0.003661838360130787
1772363454061760800,5.9487607421875,-0.028416931629180908,-0.0333627313375473,0.006287182681262493
1772363454071830800,5.958830810546875,-0.03235863521695137,-0.025285419076681137,0.008896487765014172
1772363454081899500,5.9688994140625,-0.029261378571391106,-0.030815474689006805,0.008530835621058941
1772363454091969800,5.9789697265625,-0.025609247386455536,-0.03241953253746033,0.012231139466166496
1772363454102038800,5.989038818359375,-0.0208808034658432,-0.031128698959946632,0.018619529902935028
1772363454112108800,5.99910888671875,-0.016564497724175453,-0.02470044046640396,0.01714916154742241
1772363454122177800,6.009177734375,-0.011403290554881096,-0.026583828032016754,0.011338678188621998
1772363454132247800,6.019247802734375,-0.011528050526976585,-0.03114168345928192,0.0018400102853775024
1772363454142316800,6.02931689453125,-0.011576520279049873,-0.030740611255168915,-0.0017944052815437317
1772363454152386600,6.039386474609375,-0.015500722452998161,-0.02923847734928131,-0.021464787423610687
1772363454162455800,6.049455810546875,-0.01429777406156063,-0.03036845475435257,-0.038488246500492096
1772363454172525600,6.059525634765625,-0.008261086419224739,-0.03008602000772953,-0.06097428873181343
1772363454182594800,6.0695947265625,-0.009151114150881767,-0.030398676171898842,-0.07674526423215866
1772363454192664800,6.079664794921875,-0.007922359742224216,-0.031674694269895554,-0.08423920720815659
1772363454202733800,6.08973388671875,-0.009029967710375786,-0.02943231351673603,-0.09537840634584427
1772363454212803800,6.099803955078125,-0.005057246424257755,-0.03237534314393997,-0.09351290762424469
1772363454222872800,6.109872802734375,-0.01023469865322113,-0.032638728618621826,-0.08595085889101028
1772363454232942800,6.11994287109375,-0.010578427463769913,-0.03154653683304787,-0.06868589669466019
1772363454243011800,6.13001171875,-0.01044553704559803,-0.022453704848885536,-0.052857134491205215
1772363454253081900,6.140081787109375,-0.008985207416117191,-0.029342254623770714,-0.037973031401634216
1772363454263150600,6.150150634765625,0.000009086448699235916,-0.03599989041686058,-0.020472334697842598
1772363454273220900,6.160220947265625,-0.000998790841549635,-0.038505952805280685,-0.002634049393236637
1772363454283289600,6.17028955078125,-0.000962838064879179,-0.03360200673341751,0.0109419459477067
1772363454293359900,6.18035986328125,-0.004900947213172913,-0.024095140397548676,0.0186561681330204
1772363454303430000,6.190429931640625,-0.009892510250210762,-0.021153146401047707,0.0283237062394619
1772363454313498600,6.20049853515625,-0.01742686703801155,-0.020212573930621147,0.040509868413209915
1772363454323569000,6.21056884765625,-0.01911984011530876,-0.00979082565754652,0.04056153446435928
1772363454333637600,6.2206376953125,-0.016118669882416725,-0.008793473243713379,0.029483456164598465
1772363454343707000,6.230706787109375,-0.012685056775808334,-0.020310578867793083,0.018396183848381042
1772363454353776600,6.240776611328125,-0.013754848390817642,-0.017392287030816078,0.01344802975654602
1772363454363846700,6.2508466796875,-0.020829003304243088,-0.0022612714674323797,0.01542729139328003
1772363454373915600,6.26091552734375,-0.01683783158659935,0.047487180680036545,0.042174190282821655
1772363454383985700,6.270985595703125,0.006703446619212627,0.09154412150382996,-0.010153725743293762
1772363454394054700,6.2810546875,0.010298337787389755,0.0358915813267231,-0.02537132054567337
1772363454404124700,6.291124755859375,0.008501769974827766,-0.02841443568468094,-0.009399277158081532
1772363454414194000,6.30119384765625,0.011978507041931152,-0.025502845644950867,-0.004923711065202951
1772363454424263700,6.311263671875,0.009665551595389843,-0.0032782345078885555,-0.0024315249174833298
1772363454434333000,6.3213330078125,0.01019455585628748,0.0027939127758145332,0.0020333556458353996
1772363454444402700,6.331402587890625,0.004196317866444588,-0.009134385734796524,0.006322643719613552
1772363454454472000,6.341471923828125,0.007276962045580149,-0.01469201035797596,0.007019235752522945
1772363454464541700,6.351541748046875,0.008384037762880325,-0.012126853689551353,0.013085382990539074
1772363454474610700,6.361610595703125,0.008840027265250683,-0.0011893201153725386,0.013905255123972893
1772363454484680700,6.3716806640625,0.007338004652410746,0.01317097619175911,0.008697975426912308
1772363454494749700,6.381749755859375,0.0038028236012905836,0.029932506382465363,-0.0041976748034358025
1772363454504820000,6.391820068359375,0.005367697216570377,0.03659280762076378,-0.022334333509206772
1772363454514888700,6.401888671875,0.009193485602736473,0.033134762197732925,-0.04461143538355827
1772363454524959000,6.411958984375,0.009078970178961754,0.026499230414628983,-0.05363395810127258
1772363454535027700,6.42202783203125,0.007312612142413855,0.022434964776039124,-0.05173170566558838
1772363454545097700,6.43209765625,0.0037546290550380945,0.02223362773656845,-0.043331295251846313
1772363454555166700,6.442166748046875,0.0013827448710799217,0.0226647537201643,-0.029339861124753952
1772363454565236700,6.45223681640625,0.00805556122213602,0.011939138174057007,-0.011155531741678715
1772363454575305700,6.4623056640625,0.008501612581312656,0.0138836819678545,0.003074727952480316
1772363454585375700,6.472375732421875,0.017084714025259018,0.01346156932413578,0.01315212994813919
1772363454595444700,6.48244482421875,0.015514010563492775,0.012351661920547485,0.028231289237737656
1772363454605514800,6.4925146484375,0.016764897853136063,0.0028718742541968822,0.032909929752349854
1772363454615583700,6.502583740234375,0.009976067580282688,-0.006563832052052021,0.03739531710743904
1772363454625653800,6.51265380859375,0.004207394551485777,-0.015073164366185665,0.027233228087425232
1772363454635722800,6.52272265625,-0.0034566866233944893,-0.03508138284087181,0.019810989499092102
1772363454645792800,6.532792724609375,0.006281960289925337,-0.012332392856478691,0.021343905478715897
1772363454655861800,6.54286181640625,0.004868435673415661,0.01180952601134777,-0.004414240829646587
1772363454665931800,6.552931884765625,0.006333706900477409,-0.012443882413208485,-0.03377159684896469
1772363454676000800,6.563000732421875,0.005219109356403351,-0.022328456863760948,-0.04111827537417412
1772363454686070800,6.57307080078125,-0.0018925960175693035,-0.0033310633152723312,-0.04142533987760544
1772363454696138500,6.583138427734375,-0.014463689178228378,0.0015199678018689156,-0.048278555274009705
1772363454706208500,6.59320849609375,-0.019800929352641106,-0.015368468128144741,-0.04965195059776306
1772363454716277500,6.603277587890625,-0.01904679462313652,-0.028385773301124573,-0.041713614016771317
1772363454726347500,6.613347412109375,-0.020380506291985512,-0.03131018951535225,-0.029659882187843323
1772363454736416500,6.62341650390625,-0.01952824927866459,-0.0330950990319252,-0.01459603849798441
1772363454746486800,6.63348681640625,-0.008721942082047462,-0.033889785408973694,-0.006089369300752878
1772363454756556500,6.643556640625,-0.004601325839757919,-0.02511262334883213,0.01033924613147974
1772363454766625500,6.65362548828125,0.0006429716013371944,-0.015275705605745316,0.023162364959716797
1772363454776695600,6.663695556640625,0.0005396436899900436,0.0059767854399979115,0.042434073984622955
1772363454786764500,6.6737646484375,0.0009095571003854275,0.03934352844953537,0.08378897607326508
1772363454796834600,6.68383447265625,0.02527759037911892,0.07839711755514145,0.04703044891357422
1772363454806903600,6.693903564453125,0.02962093986570835,0.03959698975086212,0.030474375933408737
1772363454816973600,6.7039736328125,0.031102575361728668,-0.013604460284113884,0.027511034160852432
1772363454827042600,6.71404248046875,0.02924288809299469,-0.006015249527990818,0.010726727545261383
1772363454837112300,6.7241123046875,0.0224725641310215,0.014584412798285484,-0.005500185769051313
1772363454847181600,6.734181640625,0.011080360040068626,0.013667486608028412,-0.019314534962177277
1772363454857251600,6.74425146484375,0.004140457138419151,0.007822212763130665,-0.041081007570028305
1772363454867320600,6.754320556640625,-0.00013231858611106873,-0.00012758933007717133,-0.05603944882750511
1772363454877390600,6.764390625,-0.0022492576390504837,-0.009400926530361176,-0.0624002106487751
1772363454887459600,6.77445947265625,0.0004573129117488861,-0.01900588348507881,-0.06804931163787842
1772363454897529600,6.784529541015625,-0.010239661671221256,-0.028922609984874725,-0.06432165205478668
1772363454907598600,6.7945986328125,-0.014634675346314907,-0.02630499005317688,-0.06538105756044388
1772363454917668600,6.804668701171875,-0.020315295085310936,-0.010985366068780422,-0.05729791149497032
1772363454927737600,6.814737548828125,-0.02370576746761799,0.0006467890925705433,-0.04297782853245735
1772363454937807600,6.8248076171875,-0.023702919483184814,0.013539856299757957,-0.018451130017638206
1772363454947876400,6.83487646484375,-0.01837899349629879,0.016551092267036438,0.007574079558253288
1772363454957946600,6.844946533203125,-0.01923537440598011,0.00863552838563919,0.035185616463422775
1772363454968015400,6.855015380859375,-0.019974134862422943,0.004295375198125839,0.0586232990026474
1772363454978085600,6.865085693359375,-0.015421046875417233,-0.0007116170600056648,0.061641231179237366
1772363454988154600,6.875154541015625,-0.010096854530274868,-0.0024786246940493584,0.06107690930366516
1772363454998224400,6.885224365234375,-0.008014223538339138,-0.012050811201334,0.05624879151582718
1772363455008293600,6.895293701171875,0.0009686187840998173,0.0004905462265014648,0.04307147115468979
1772363455018363400,6.90536328125,0.011177233420312405,0.02513187751173973,0.021178744733333588
1772363455028432600,6.9154326171875,0.014936285093426704,0.03865727409720421,0.006409652531147003
1772363455038502400,6.92550244140625,0.016459662467241287,0.039877939969301224,-0.006132818292826414
1772363455048571600,6.935571533203125,0.013403685763478279,0.039415083825588226,-0.014179825782775879
1772363455058641400,6.945641357421875,0.013624691404402256,0.03116738609969616,-0.020235329866409302
1772363455068710700,6.955710693359375,0.008820348419249058,0.016953829675912857,-0.022862005978822708
1772363455078780700,6.96578076171875,0.006803454831242561,0.011706775985658169,-0.02545854076743126
1772363455088849700,6.975849609375,0.009040510281920433,0.007200706750154495,-0.023692596703767776
1772363455098919700,6.985919677734375,0.003281429409980774,0.00109153613448143,-0.020273175090551376
1772363455108989400,6.995989501953125,-0.0023964298889040947,-0.006879571359604597,-0.009714805521070957
1772363455119058700,7.00605859375,-0.006134645082056522,-0.021665722131729126,-0.00017980672419071198
1772363455129128400,7.01612841796875,-0.011547785252332687,-0.03741006553173065,0.0026958752423524857
1772363455139197700,7.02619775390625,-0.016494791954755783,-0.040904831141233444,0.004121146164834499
1772363455149267500,7.036267333984375,-0.02164827659726143,-0.034948669373989105,0.006984309293329716
1772363455159336400,7.04633642578125,-0.016604790464043617,-0.02855581045150757,0.005220566876232624
1772363455169406700,7.05640673828125,-0.017476176843047142,-0.02116180956363678,0.004504975862801075
1772363455179475500,7.066475341796875,-0.014553316868841648,-0.013467852026224136,-0.00022850744426250458
1772363455189545700,7.076545654296875,-0.014129075221717358,-0.011751711368560791,-0.000904950313270092
1772363455199614500,7.086614501953125,-0.007659102790057659,-0.005832150112837553,-0.009963278658688068
1772363455209684700,7.096684814453125,-0.007321413606405258,-0.006483293138444424,-0.00969616323709488
1772363455219753500,7.10675341796875,-0.009169023483991623,-0.0018181493505835533,-0.0017022602260112762
1772363455229823500,7.116823486328125,-0.006165775004774332,0.014494245871901512,0.007723466493189335
1772363455239892500,7.126892578125,-0.0004910309799015522,0.02248968556523323,0.021876784041523933
1772363455249962500,7.13696240234375,0.0030488427728414536,0.007930450141429901,0.030793847516179085
1772363455260031500,7.147031494140625,0.009273073635995388,-0.005476365797221661,0.037702593952417374
1772363455270101500,7.1571015625,0.015050801448523998,0.0018073795363307,0.04025763273239136
1772363455280170500,7.16717041015625,0.019132204353809357,0.017716236412525177,0.04385851323604584
1772363455290240500,7.177240478515625,0.02168590947985649,0.03164243698120117,0.04063289612531662
1772363455300309800,7.187309814453125,0.020527629181742668,0.03543607145547867,0.034299347549676895
1772363455310379500,7.197379638671875,0.018204819411039352,0.04060047119855881,0.01783541962504387
1772363455320448500,7.207448486328125,0.009016647934913635,0.03387065976858139,0.004856771789491177
1772363455330518500,7.2175185546875,0.0023337113671004772,0.021213190630078316,-0.00989527627825737
1772363455340587500,7.22758740234375,-0.00043214671313762665,0.013991102576255798,-0.022942278534173965
1772363455350657500,7.237657470703125,-0.0002880701795220375,0.007055699359625578,-0.030590075999498367
1772363455360726500,7.2477265625,0.0008277376182377338,0.0038506570272147655,-0.034756746143102646
1772363455370796500,7.257796630859375,0.003761475905776024,0.0072853355668485165,-0.03157613053917885
1772363455380865500,7.267865478515625,0.001951785758137703,0.010022222995758057,-0.02374645322561264
1772363455390935600,7.277935546875,-0.0006514540873467922,0.023179572075605392,-0.009405863471329212
1772363455401005600,7.288005615234375,-0.0054484773427248,0.026846980676054955,0.004568443633615971
1772363455411074600,7.298074462890625,-0.01007811538875103,0.018498236313462257,0.01969626173377037
1772363455421144600,7.30814453125,-0.0068429154343903065,0.008741956204175949,0.02613026276230812
1772363455431213600,7.318213623046875,-0.007881548255681992,0.00002622930333018303,0.03431415557861328
1772363455441283600,7.32828369140625,-0.009922601282596588,-0.0039242287166416645,0.031101834028959274
1772363455451352600,7.3383525390625,-0.015807921066880226,0.000745624303817749,0.02673931047320366
1772363455461422300,7.34842236328125,-0.01676720567047596,0.0008285990916192532,0.0216717217117548
1772363455471491600,7.35849169921875,-0.010023549199104309,0.0011881254613399506,0.024281883612275124
1772363455481561600,7.3685615234375,-0.005132266785949469,0.0003131916746497154,0.026135414838790894
1772363455491630600,7.378630615234375,-0.0038243881426751614,-0.0026799349579960108,0.03085506707429886
1772363455501700600,7.38870068359375,-0.005812797695398331,-0.0131294634193182,0.0315723642706871
1772363455511769600,7.39876953125,-0.011330867186188698,-0.025755243375897408,0.027731284499168396
1772363455521839600,7.408839599609375,-0.01158018410205841,-0.028170941397547722,0.017821725457906723
1772363455531908600,7.41890869140625,-0.011663541197776794,-0.017293527722358704,0.015435264445841312
1772363455541978600,7.428978515625,-0.01061880961060524,-0.008468974381685257,0.015354761853814125
1772363455552047600,7.439047607421875,-0.012285683304071426,-0.0054034097120165825,0.0020008739084005356
1772363455562117600,7.44911767578125,-0.004924682434648275,-0.007129497826099396,-0.016689663752913475
1772363455572186400,7.459186279296875,-0.0040887161158025265,-0.0035800368059426546,-0.030127177014946938
1772363455582256600,7.469256591796875,-0.00363755552098155,-0.005456461105495691,-0.043472662568092346
1772363455592325400,7.479325439453125,-0.003783231135457754,-0.0020329677499830723,-0.0539812296628952
1772363455602395600,7.489395751953125,-0.01646197959780693,0.0012305672280490398,-0.04482227563858032
1772363455612464400,7.49946435546875,-0.02146179787814617,0.0008840900845825672,-0.022316966205835342
1772363455622534400,7.509534423828125,-0.015119725838303566,0.004655167460441589,-0.016030166298151016
1772363455632603600,7.519603759765625,-0.008575007319450378,0.002878572791814804,-0.0032390039414167404
1772363455642673400,7.52967333984375,-0.0027014552615582943,-0.006596294231712818,0.019223744049668312
1772363455652742700,7.53974267578125,-0.0017397874034941196,0.0025537945330142975,0.04049627482891083
1772363455662812400,7.5498125,0.008175850845873356,0.017204711213707924,0.0517430454492569
1772363455672881700,7.559881591796875,0.014146657660603523,0.03210056945681572,0.057499468326568604
1772363455682951400,7.569951416015625,0.01742933690547943,0.0380103774368763,0.060361117124557495
1772363455693021400,7.580021484375,0.017045840620994568,0.040097497403621674,0.05209626257419586
1772363455703091700,7.590091796875,0.02123929373919964,0.041651804000139236,0.03909153491258621
1772363455713161700,7.60016162109375,0.021104004234075546,0.039897046983242035,0.019176147878170013
1772363455723230700,7.610230712890625,0.019796553999185562,0.03542818874120712,0.007367325946688652
1772363455733300700,7.62030078125,0.01702313870191574,0.029490407556295395,-0.0037242071703076363
1772363455743369500,7.630369384765625,0.009349212050437927,0.019813448190689087,-0.009120380505919456
1772363455753439700,7.640439697265625,0.004923837259411812,0.010213550180196762,-0.0074247452430427074
1772363455763508500,7.650508544921875,-0.004177608992904425,-0.006210513412952423,0.005197145976126194
1772363455773578800,7.660578857421875,-0.008183270692825317,-0.011416727676987648,0.0170479454100132
1772363455783647500,7.6706474609375,-0.011881694197654724,-0.016413167119026184,0.02893773652613163
1772363455793717500,7.680717529296875,-0.016033297404646873,-0.019067272543907166,0.03712216019630432
1772363455803786500,7.690786376953125,-0.012532651424407959,-0.023221638053655624,0.04126662760972977
1772363455813856500,7.7008564453125,-0.014577692374587059,-0.02204505354166031,0.04036381468176842
1772363455823925800,7.71092578125,-0.011324720457196236,-0.01676383800804615,0.03486150875687599
1772363455833995500,7.72099560546875,-0.00822054035961628,-0.015700170770287514,0.02347676083445549
1772363455844064800,7.731064697265625,-0.011551029980182648,-0.022524196654558182,0.015296933241188526
1772363455854134500,7.741134521484375,-0.013995280489325523,-0.014914745464920998,0.006931145675480366
1772363455864203800,7.751203857421875,-0.013057567179203033,-0.006298105698078871,-0.0034709488973021507
1772363455874273500,7.7612734375,-0.009769363328814507,-0.004976378753781319,-0.012085209600627422
1772363455884342800,7.7713427734375,-0.00678285863250494,-0.009188812226057053,-0.009535757824778557
1772363455894412500,7.78141259765625,-0.0008541289716959,-0.007794647477567196,-0.006992971524596214
1772363455904481500,7.7914814453125,0.0029809968546032906,-0.011283738538622856,0.00455753318965435
1772363455914551800,7.8015517578125,0.00872649997472763,-0.021219193935394287,0.016439225524663925
1772363455924621600,7.81162158203125,0.01427772268652916,-0.01896059513092041,0.02217663824558258
1772363455934690800,7.82169091796875,0.012841746211051941,-0.012323997914791107,0.031155221164226532
1772363455944760600,7.831760498046875,0.012536115944385529,-0.003319443203508854,0.0357239656150341
1772363455954829600,7.84182958984375,0.01891172304749489,0.011951122432947159,0.03376174718141556
1772363455964899600,7.851899658203125,0.019148508086800575,0.009111758321523666,0.03454425930976868
1772363455974968600,7.861968505859375,0.011150768026709557,0.009408699348568916,0.03546438366174698
1772363455985038600,7.87203857421875,0.007183811627328396,0.00970500148832798,0.022656317800283432
1772363455995107600,7.882107666015625,0.006463159807026386,0.01295911893248558,0.0032525276765227318
1772363456005177900,7.892177734375,0.0011891284957528114,0.005035496782511473,-0.013202451169490814
1772363456015246600,7.90224658203125,0.004555097781121731,-0.010552783496677876,-0.03250877186655998
1772363456025316600,7.912316650390625,0.002822776325047016,-0.0220725666731596,-0.04714329168200493
1772363456035385600,7.922385498046875,-0.0020518735982477665,-0.029267363250255585,-0.05184776335954666
1772363456045455600,7.93245556640625,-0.0036463160067796707,-0.015184890478849411,-0.05293186753988266
1772363456055524600,7.942524658203125,-0.004977896809577942,-0.0019066364038735628,-0.05180082470178604
1772363456065594600,7.9525947265625,-0.00891202688217163,0.001565663143992424,-0.0328306183218956
1772363456075663600,7.96266357421875,-0.010546408593654633,-0.00015793461352586746,-0.014577578753232956
1772363456085733600,7.972733642578125,-0.006484051235020161,0.00710200984030962,0.005855981260538101
1772363456095802600,7.982802734375,-0.005993497557938099,0.0067025357857346535,0.02041468396782875
1772363456105872600,7.99287255859375,-0.0017651808448135853,0.003966519143432379,0.02541409805417061
1772363456115941600,8.002941650390625,-0.0017854203470051289,-0.0003688409924507141,0.020995382219552994
1772363456126011600,8.01301171875,-0.001460414845496416,0.003776242956519127,0.01699194498360157
1772363456136080600,8.02308056640625,-0.0009829099290072918,0.006960584782063961,0.011205960065126419
1772363456146150700,8.033150634765626,0.000013105105608701706,-0.0010843495838344097,0.009480834007263184
1772363456156219600,8.0432197265625,-0.0042490181513130665,-0.00583862466737628,0.003403767943382263
1772363456166289700,8.05328955078125,-0.0047667366452515125,-0.021246343851089478,-0.002400060184299946
1772363456176359700,8.063359619140625,-0.01629422791302204,-0.03238075226545334,-0.003370782360434532
1772363456186428700,8.0734287109375,-0.014504455029964447,-0.0314611941576004,-0.0037208208814263344
1772363456196498700,8.083498779296875,-0.01933143474161625,-0.03101271577179432,-0.0074527086690068245
1772363456206567400,8.0935673828125,-0.027440357953310013,-0.026876797899603844,-0.013911839574575424
1772363456216637700,8.1036376953125,-0.026376422494649887,-0.017905406653881073,-0.020396903157234192
1772363456226706700,8.113706787109376,-0.02055220678448677,-0.013179083354771137,-0.03519844263792038
1772363456236776700,8.123776611328125,-0.011335005983710289,-0.01815227046608925,-0.04358100891113281
1772363456246845700,8.133845703125,-0.00795995444059372,-0.017837386578321457,-0.04631040617823601
1772363456256915500,8.14391552734375,-0.010340554639697075,-0.014779544435441494,-0.04141152277588844
1772363456266984700,8.153984619140624,-0.0030437353998422623,-0.011650959961116314,-0.04267486184835434
1772363456277054500,8.164054443359374,0.0009872247464954853,-0.006435425020754337,-0.03902420029044151
1772363456287123700,8.174123779296876,0.0015865294262766838,0.0066322567872703075,-0.024399559944868088
1772363456297193500,8.184193359375,0.005020408891141415,0.016991153359413147,-0.010638207197189331
1772363456307262700,8.1942626953125,0.010671133175492287,0.023684309795498848,-0.0010930951684713364
1772363456317332700,8.204332763671875,0.012172089889645576,0.009358100593090057,0.008701745420694351
1772363456327401700,8.214401611328125,0.018673911690711975,0.009242478758096695,0.015000774525105953
1772363456337471700,8.2244716796875,0.018903741613030434,0.015871884301304817,0.014525401405990124
1772363456347540700,8.234540771484374,0.021517828106880188,0.02938685193657875,0.008170551620423794
1772363456357610800,8.24461083984375,0.024263015016913414,0.0375630222260952,0.005687686614692211
1772363456367679500,8.254679443359375,0.021863680332899094,0.04022716358304024,0.001455230638384819
1772363456377749800,8.264749755859375,0.02231987938284874,0.03530910611152649,-0.008095930330455303
1772363456387818500,8.274818603515625,0.019371436908841133,0.034805841743946075,-0.016989177092909813
1772363456397888800,8.284888671875,0.016329307109117508,0.03458160161972046,-0.01383892446756363
1772363456407958800,8.294958740234375,0.009492332115769386,0.033042628318071365,-0.01044075284153223
1772363456418027500,8.305027587890624,0.0062533956952393055,0.02074495144188404,-0.00546197360381484
1772363456428097800,8.315097900390626,0.006615497171878815,0.011253555305302143,0.004016604274511337
1772363456438166500,8.32516650390625,0.008649885654449463,0.011569139547646046,0.010763188824057579
1772363456448236800,8.33523681640625,0.006853082682937384,0.00711150374263525,0.014494003728032112
1772363456458305500,8.345305419921875,0.00725255673751235,0.007731487974524498,0.010078482329845428
1772363456468375800,8.355375732421875,0.004783625714480877,0.004795909859240055,0.008888281881809235
1772363456478444500,8.365444580078124,-0.0031366157345473766,0.004035843536257744,0.0030120164155960083
1772363456488514600,8.3755146484375,-0.007243742700666189,0.0012805373407900333,-0.0021095089614391327
1772363456498583600,8.38558349609375,-0.008249884471297264,-0.003510489361360669,-0.01241354551166296
1772363456508653600,8.395653564453125,-0.00982772745192051,-0.008472922258079052,-0.021203629672527313
1772363456518722600,8.40572265625,-0.006263353396207094,-0.0013002308551222086,-0.03064000979065895
1772363456528792600,8.41579248046875,-0.0018900255672633648,0.004292684607207775,-0.04213176667690277
1772363456538861600,8.425861572265624,-0.00006655929610133171,0.004845024086534977,-0.04224468767642975
1772363456548931600,8.435931640625,0.001253390684723854,0.010032754391431808,-0.024715352803468704
1772363456559000800,8.446000732421876,0.0032094824127852917,0.009630084037780762,-0.008587248623371124
1772363456569070600,8.456070556640626,0.010575330816209316,0.0017534862272441387,0.00364654790610075
1772363456579139600,8.4661396484375,0.013260862790048122,-0.0045195892453193665,0.009348376654088497
1772363456589209600,8.476209716796875,0.020455356687307358,0.0052031902596354485,0.013377463445067406
1772363456599278600,8.486278564453125,0.019220449030399323,0.010881849564611912,0.014495991170406342
1772363456609348600,8.4963486328125,0.015825551003217697,0.021549813449382782,0.017387475818395615
1772363456619417600,8.50641748046875,0.009517055936157703,0.024940017610788345,0.022938836365938187
1772363456629487600,8.516487548828126,0.008811887353658676,0.0227609071880579,0.0224381685256958
1772363456639556600,8.526556640625,0.0008082888089120388,0.014669692143797874,0.015683326870203018
1772363456649626600,8.536626708984375,-0.004014075733721256,0.0016041160561144352,0.002867273986339569
1772363456659696600,8.546696533203125,-0.00890763383358717,-0.005410916171967983,-0.009409366175532341
1772363456669765600,8.556765625,-0.009938566014170647,-0.013731338083744049,-0.0223020538687706
1772363456679835600,8.566835693359375,-0.011385994032025337,-0.020508550107479095,-0.033879078924655914
1772363456689904600,8.576904541015624,-0.011370886117219925,-0.027278615161776543,-0.04418979212641716
1772363456699974100,8.58697412109375,-0.012314710766077042,-0.01938820071518421,-0.037410981953144073
1772363456710044200,8.597044189453126,-0.017810015007853508,-0.0022510532289743423,-0.026480134576559067
1772363456720113200,8.607113037109375,-0.022953910753130913,0.004658784717321396,-0.011328347027301788
1772363456730183200,8.61718310546875,-0.021710190922021866,0.0014003114774823189,-0.001516934484243393
1772363456740252000,8.627251953125,-0.026515599340200424,-0.005810996051877737,0.011667842976748943
1772363456750322200,8.637322265625,-0.020003551617264748,-0.021762773394584656,0.01993851736187935
1772363456760391200,8.64739111328125,-0.01701495237648487,-0.026208121329545975,0.021237608045339584
1772363456770461200,8.657461181640626,-0.010081562213599682,-0.028721090406179428,0.024420570582151413
1772363456780530200,8.6675302734375,-0.008954246528446674,-0.021197926253080368,0.01778850331902504
1772363456790600000,8.677599853515625,-0.0068327514454722404,-0.017958419397473335,0.009149886667728424
1772363456800670200,8.687670166015625,-0.003766654059290886,-0.021015727892518044,0.0067892614752054214
1772363456810739000,8.697739013671875,-0.0038522067479789257,-0.019374940544366837,0.010159142315387726
1772363456820809200,8.707809326171875,-0.005905237514525652,-0.026462409645318985,0.005967326462268829
1772363456830878000,8.7178779296875,-0.01213110238313675,-0.03582630679011345,0.0024543646723031998
1772363456840948200,8.7279482421875,-0.01856636442244053,-0.04393430054187775,0.01244494691491127
1772363456851017200,8.738017333984375,-0.02504430152475834,-0.04495507851243019,0.007880471646785736
1772363456861087000,8.7480869140625,-0.027367645874619484,-0.045158274471759796,-0.006247597746551037
1772363456871156200,8.75815625,-0.02620791830122471,-0.04210958629846573,-0.018782244995236397
1772363456881226000,8.76822607421875,-0.021626215428113937,-0.02562994882464409,-0.026236433535814285
1772363456891295200,8.778295166015624,-0.016385581344366074,-0.0144252460449934,-0.03267107903957367
1772363456901365000,8.788364990234374,-0.01272986177355051,-0.010820657014846802,-0.04520551487803459
1772363456911434200,8.798434326171876,-0.012503125704824924,-0.01263386383652687,-0.04465148597955704
1772363456921504000,8.80850390625,-0.016070164740085602,-0.013153179548680782,-0.03485184907913208
1772363456931573200,8.8185732421875,-0.02211303450167179,-0.009954260662198067,-0.015758825466036797
1772363456941643300,8.828643310546875,-0.018342530354857445,-0.002237484557554126,-0.007012472487986088
1772363456951712300,8.838712158203125,-0.015553487464785576,0.007912332192063332,0.012156730517745018
1772363456961782300,8.8487822265625,-0.008209820836782455,0.01048201508820057,0.018412761390209198
1772363456971851000,8.85885107421875,-0.004720800556242466,0.009706484153866768,0.019154135137796402
1772363456981921300,8.86892138671875,0.002688113134354353,0.007603119593113661,0.015726380050182343
1772363456991990000,8.878989990234375,0.010348623618483543,0.014977637678384781,0.011806990951299667
1772363457002060300,8.889060302734375,0.015161754563450813,0.022900007665157318,0.007597863674163818
1772363457012130000,8.899130126953125,0.018130669370293617,0.02237899973988533,0.0006260350346565247
1772363457022199000,8.909198974609374,0.018943199887871742,0.02917378768324852,-0.001635521650314331
1772363457032269300,8.919269287109374,0.014781953766942024,0.046060435473918915,-0.001030871644616127
1772363457042338000,8.929338134765626,0.01764671690762043,0.04936062544584274,0.0023023411631584167
1772363457052408300,8.939408203125,0.018205739557743073,0.04047787934541702,0.003655652515590191
1772363457062477000,8.94947705078125,0.019624939188361168,0.02764996513724327,0.007394998334348202
1772363457072547000,8.959547119140625,0.01963791809976101,0.016871441155672073,0.016650183126330376
1772363457082616000,8.969615966796875,0.014949689619243145,0.00648884242400527,0.022341623902320862
1772363457092686000,8.97968603515625,0.013871129602193832,0.00037239957600831985,0.02456497959792614
1772363457102755000,8.989755126953124,0.011546457186341286,-0.0035791988484561443,0.023148974403738976
1772363457112825000,8.9998251953125,0.0100316870957613,-0.015454079955816269,0.02444860339164734
1772363457122894000,9.00989404296875,0.004518411122262478,-0.02262064628303051,0.026108551770448685
1772363457132964000,9.019964111328125,-0.00028097257018089294,-0.02536996826529503,0.01934855990111828
1772363457143033000,9.030033203125,0.0006940108723938465,-0.027041368186473846,0.005079610273241997
1772363457153103000,9.04010302734375,0.0020170407369732857,-0.03211452066898346,-0.005070839077234268
1772363457163172400,9.05017236328125,0.0034314454533159733,-0.028033224865794182,-0.015121875330805779
1772363457173242000,9.0602421875,0.006833323277533054,-0.010360701009631157,-0.030963625758886337
1772363457183311000,9.07031103515625,0.016993016004562378,0.0067114937119185925,-0.04645150899887085
1772363457193381000,9.080381103515625,0.024640686810016632,0.019258739426732063,-0.0565117672085762
1772363457203450000,9.0904501953125,0.028080426156520844,0.02061854861676693,-0.04848393052816391
1772363457213520100,9.10052001953125,0.03136090561747551,0.023764008656144142,-0.031414665281772614
1772363457223590100,9.110590087890625,0.03376840427517891,0.023495296016335487,-0.012438046745955944
1772363457233659100,9.1206591796875,0.02983732894062996,0.01287365984171629,0.005196467973291874
1772363457243729200,9.130729248046874,0.029737459495663643,0.020023714751005173,0.016482677310705185
1772363457253798100,9.140798095703126,0.028808828443288803,0.03205239772796631,0.024645481258630753
1772363457263868200,9.1508681640625,0.022791150957345963,0.0354204960167408,0.03593861684203148
1772363457273937200,9.160937255859375,0.015518374741077423,0.039380352944135666,0.043763384222984314
1772363457284007200,9.171007080078125,0.0035519935190677643,0.03557043522596359,0.045331452041864395
1772363457294076200,9.181076171875,-0.004065698944032192,0.030256077647209167,0.038052450865507126
1772363457304146200,9.191146240234374,-0.010149956680834293,0.02588263526558876,0.03187951073050499
1772363457314215200,9.201215087890626,-0.012164399959146976,0.02972228452563286,0.01832687482237816
1772363457324285000,9.211284912109376,-0.017323743551969528,0.021215347573161125,0.004337821155786514
1772363457334354200,9.221354248046875,-0.01685498282313347,0.01049820240586996,-0.009471263736486435
1772363457344424000,9.231423828125,-0.023104622960090637,0.006508254446089268,-0.015268432907760143
1772363457354493200,9.2414931640625,-0.021628964692354202,0.002973174676299095,-0.02080487832427025
1772363457364563200,9.251563232421875,-0.025150462985038757,0.005152971483767033,-0.020956678315997124
1772363457374632200,9.261632080078124,-0.020989196375012398,0.008177759125828743,-0.01436346024274826
1772363457384702200,9.2717021484375,-0.023025982081890106,0.01731053739786148,-0.009313041344285011
1772363457394771200,9.281771240234375,-0.018166402354836464,0.013271516188979149,-0.0053776646964251995
1772363457404841200,9.29184130859375,-0.014769274741411209,0.004115569870918989,0.0031449832022190094
1772363457414910000,9.301909912109375,-0.007638826034963131,0.002719414886087179,0.018155183643102646
1772363457424980200,9.311980224609375,-0.007133624516427517,0.00008634757250547409,0.023331567645072937
1772363457435050000,9.322050048828125,-0.009113367646932602,-0.007393136620521545,0.022159911692142487
1772363457445119200,9.332119140625,-0.008335191756486893,-0.02156408317387104,0.026011910289525986
1772363457455189200,9.342189208984376,-0.0035687736235558987,-0.022563500329852104,0.03657452017068863
1772363457465258200,9.35225830078125,-0.004313926678150892,-0.015263509005308151,0.04816166311502457
1772363457475328300,9.362328369140625,-0.000049903057515621185,-0.00806695967912674,0.0568249374628067
1772363457485397000,9.37239697265625,0.0026244432665407658,0.0033050039783120155,0.05320383608341217
1772363457495467300,9.38246728515625,-0.002177078742533922,0.009134465828537941,0.0494234561920166
1772363457505536000,9.392535888671874,0.004012374207377434,0.026318779215216637,0.03321971744298935
1772363457515606300,9.402606201171874,0.0015300419181585312,0.029838411137461662,0.009815594181418419
1772363457525675000,9.412675048828126,-0.0008257902227342129,0.02476722188293934,-0.009710170328617096
1772363457535745000,9.4227451171875,0.004366070497781038,0.02742488496005535,-0.02355879917740822
1772363457545814000,9.43281396484375,0.00762524688616395,0.035949934273958206,-0.03711402416229248
1772363457555884000,9.442884033203125,0.006786071229726076,0.04138040170073509,-0.04836982116103172
1772363457565953000,9.452953125,0.004101072438061237,0.03709271550178528,-0.0555875226855278
1772363457576023000,9.46302294921875,0.002255832776427269,0.03163055330514908,-0.05351097136735916
1772363457586092300,9.47309228515625,-0.007294795010238886,0.026849914342164993,-0.04202289134263992
1772363457596162000,9.483162109375,-0.009946080856025219,0.030529404059052467,-0.03032950684428215
1772363457606231300,9.493231201171875,-0.007468009367585182,0.02659005858004093,-0.007654021494090557
1772363457616301000,9.503301025390625,-0.008786208927631378,0.02600840851664543,0.016137413680553436
1772363457626371000,9.51337109375,-0.0027312464080750942,0.028911255300045013,0.024599339812994003
1772363457636440000,9.523440185546875,-0.0024413648061454296,0.026902135461568832,0.03277141600847244
1772363457646510000,9.533510009765624,-0.0043489872477948666,0.028924275189638138,0.03941626846790314
1772363457656579000,9.5435791015625,-0.0025534196756780148,0.01921837031841278,0.04180041700601578
1772363457666649000,9.553649169921876,0.0007387804798781872,0.006986205466091633,0.04415544867515564
1772363457676718300,9.56371826171875,0.000015437137335538864,-0.002303797286003828,0.04139527678489685
1772363457686788000,9.5737880859375,0.007815569639205933,-0.003100348636507988,0.03236529231071472
1772363457696856800,9.58385693359375,0.010137018747627735,0.006730613764375448,0.01994849368929863
1772363457706926600,9.593926513671875,0.010150601156055927,0.010441994294524193,0.009550980292260647
1772363457716995800,9.603995849609374,0.011562442407011986,0.0063680317252874374,-0.0017263488844037056
1772363457727065600,9.614065673828126,0.006252099759876728,-0.006404488813132048,0.001826840452849865
1772363457737134600,9.624134521484375,0.0012994804419577122,-0.013486773706972599,0.00939597375690937
1772363457747204600,9.63420458984375,-0.0012070871889591217,-0.01882880926132202,0.01782035082578659
1772363457757273600,9.644273681640625,-0.006663144566118717,-0.03370291367173195,0.03129459545016289
1772363457767343600,9.654343505859375,-0.009813664481043816,-0.037351977080106735,0.0410473570227623
1772363457777412600,9.66441259765625,-0.007884087041020393,-0.027136368677020073,0.044287845492362976
1772363457787482600,9.674482666015624,-0.00447923643514514,-0.01726243458688259,0.03734205290675163
1772363457797551600,9.684551513671876,-0.0022795083932578564,-0.005905861966311932,0.03771575912833214
1772363457807621600,9.69462158203125,-0.002242757473140955,0.005161702632904053,0.02653234452009201
1772363457817690600,9.704690673828125,-0.0003650565631687641,0.014257114380598068,0.011263219639658928
1772363457827760600,9.7147607421875,-0.003292402718216181,0.012912483885884285,-0.0023721661418676376
1772363457837830700,9.72483056640625,-0.0046861860901117325,0.01653304323554039,-0.014472819864749908
1772363457847899600,9.734899658203124,-0.00430828332901001,0.019195938482880592,-0.019252661615610123
1772363457857969400,9.744969482421874,-0.0018890309147536755,0.02918827347457409,-0.016739696264266968
1772363457868038700,9.75503857421875,-0.0025092815048992634,0.03258034214377403,-0.00432670209556818
1772363457878108700,9.765108642578125,-0.0025694044306874275,0.03336702287197113,0.011260597966611385
1772363457888177700,9.775177734375,-0.0028700754046440125,0.022748470306396484,0.025809980928897858
1772363457898247700,9.78524755859375,-0.001390884630382061,0.012325828894972801,0.0384819358587265
1772363457908316700,9.795316650390625,-0.0011173784732818604,0.010622205212712288,0.04504929110407829
1772363457918386700,9.80538671875,-0.0035620802082121372,0.014214643277227879,0.05123389512300491
1772363457928455700,9.81545556640625,0.0014614411629736423,0.02297750860452652,0.05153829604387283
1772363457938525700,9.825525634765626,-0.00588788278400898,0.02572324126958847,0.05521443486213684
1772363457948594700,9.8355947265625,-0.014478708617389202,0.025406327098608017,0.05147455632686615
1772363457958664700,9.845664794921875,-0.015218095853924751,0.019777387380599976,0.031850896775722504
1772363457968733400,9.8557333984375,-0.023613445460796356,0.008292770944535732,0.016954507678747177
1772363457978803700,9.8658037109375,-0.023648658767342567,-0.0029093448538333178,0.0050714146345853806
1772363457988872400,9.87587255859375,-0.018800638616085052,-0.004701385740190744,-0.007087513338774443
1772363457998942700,9.885942626953126,-0.019587378948926926,-0.010144965723156929,-0.018264558166265488
1772363458009011700,9.89601171875,-0.017049917951226234,-0.02326369658112526,-0.025696642696857452
1772363458019081500,9.90608154296875,-0.01613752730190754,-0.02046157792210579,-0.02658819779753685
1772363458029150700,9.916150634765625,-0.023921146988868713,-0.02124081924557686,-0.016569120809435844
1772363458039220500,9.926220458984375,-0.02672557905316353,-0.015356210991740227,-0.00739902863278985
1772363458049290800,9.936290771484375,-0.02842440828680992,-0.015265395864844322,-0.0023861611261963844
1772363458059359500,9.946359375,-0.027734627947211266,-0.02190675027668476,0.004970967769622803
1772363458069429800,9.9564296875,-0.022801654413342476,-0.02778594382107258,0.011044839397072792
1772363458079498500,9.96649853515625,-0.021857673302292824,-0.027037527412176132,0.010447469539940357
1772363458089568500,9.976568603515625,-0.02080252766609192,-0.023579146713018417,0.014768981374800205
1772363458099637800,9.9866376953125,-0.016631148755550385,-0.018038928508758545,0.018741101026535034
1772363458109707500,9.99670751953125,-0.014471056871116161,-0.015258323401212692,0.019516613334417343
1772363458119776800,10.00677685546875,-0.011524182744324207,-0.015212887898087502,0.02183317393064499
1772363458129846500,10.016846435546874,-0.011008062399923801,-0.014321794733405113,0.029285229742527008
1772363458139915800,10.026915771484376,-0.01482156477868557,-0.019585583359003067,0.0321277379989624
1772363458149985500,10.036985595703126,-0.02065229043364525,-0.028823554515838623,0.02500777877867222
1772363458160054800,10.0470546875,-0.01694556511938572,-0.027674373239278793,0.012229498475790024
1772363458170124500,10.05712451171875,-0.014583608135581017,-0.024980051442980766,0.004224834963679314
1772363458180193500,10.067193603515625,-0.016997462138533592,-0.022947903722524643,-0.004874648060649633
1772363458190263600,10.077263671875,-0.01746244914829731,-0.021686099469661713,-0.01184973306953907
1772363458200332500,10.08733251953125,-0.011410309001803398,-0.009321109391748905,-0.015111550688743591
1772363458210402800,10.09740283203125,-0.006517814006656408,-0.01076267845928669,-0.0246115792542696
1772363458220471600,10.107471435546875,-0.003016024362295866,-0.006480049341917038,-0.03184152767062187
1772363458230541800,10.117541748046875,0.0030650380067527294,0.006757458671927452,-0.03693056479096413
1772363458240611600,10.127611572265625,0.0036735632456839085,0.019371995702385902,-0.0400216244161129
1772363458250680600,10.1376806640625,0.004971321672201157,0.02078986167907715,-0.04099767282605171
1772363458260750600,10.14775048828125,0.01213369145989418,0.025715097784996033,-0.039894506335258484
1772363458270819600,10.157819580078124,0.016013117507100105,0.027338560670614243,-0.028937464579939842
1772363458280889600,10.1678896484375,0.02224387787282467,0.023804109543561935,-0.01534860860556364
1772363458290958600,10.17795849609375,0.022390885278582573,0.023969758301973343,-0.0008644750341773033
1772363458301028600,10.188028564453125,0.01934294030070305,0.028297606855630875,0.012574306689202785
1772363458311097600,10.19809765625,0.018409768119454384,0.02923930063843727,0.014820682816207409
1772363458321167600,10.208167724609375,0.022864172235131264,0.03182949125766754,0.014086184091866016
1772363458331236600,10.218236572265624,0.022735541686415672,0.03579147532582283,0.010283456183969975
1772363458341306600,10.228306640625,0.020891539752483368,0.03485314920544624,0.0012880191206932068
1772363458351375600,10.238375732421876,0.020619098097085953,0.03160355985164642,-0.009360097348690033
1772363458361445600,10.248445556640625,0.019381282851099968,0.02421971783041954,-0.022668031975626945
1772363458371514600,10.2585146484375,0.0094903027638793,0.012282630428671837,-0.038678158074617386
1772363458381584600,10.268584716796875,0.0028060059994459152,-0.002939294558018446,-0.03185335174202919
1772363458391653600,10.278653564453125,0.010986171662807465,0.025202330201864243,-0.012495100498199463
1772363458401723600,10.2887236328125,-0.00355944549664855,0.03566471114754677,-0.00912539567798376
1772363458411792600,10.298792724609376,-0.014295978471636772,-0.011793884448707104,0.003468160517513752
1772363458421862700,10.308862548828126,-0.01267925277352333,-0.027417685836553574,0.003810431808233261
1772363458431931600,10.318931640625,-0.0201366376131773,-0.023934803903102875,0.010938115417957306
1772363458442001700,10.329001708984375,-0.01856663078069687,-0.03491630405187607,0.014415420591831207
1772363458452071700,10.33907177734375,-0.02314646914601326,-0.0422075055539608,0.015480151399970055
1772363458462140700,10.349140625,-0.02449251152575016,-0.031685590744018555,0.0158497653901577
1772363458472210700,10.359210693359374,-0.01960454322397709,-0.013837882317602634,0.019665807485580444
1772363458482279400,10.369279541015626,-0.01311536505818367,-0.010721540078520775,0.014365289360284805
1772363458492349700,10.379349609375,-0.02575019933283329,-0.038284990936517715,-0.009771205484867096
1772363458502418400,10.38941845703125,-0.01931111514568329,-0.04316435381770134,0.008970152586698532
1772363458512488700,10.39948876953125,-0.00800253450870514,0.022087886929512024,0.07256431132555008
1772363458522557700,10.4095576171875,-0.016178684309124947,0.13318222761154175,0.09833239763975143
1772363458532627500,10.41962744140625,-0.03370814397931099,0.14085453748703003,0.04204356297850609
1772363458542696700,10.42969677734375,-0.016330072656273842,0.07829669117927551,0.021616078913211823
1772363458552766500,10.439766357421876,-0.0028227861039340496,0.04650254175066948,0.02226722240447998
1772363458562835700,10.449835693359375,0.013474198058247566,0.027921557426452637,-0.00005112309008836746
1772363458572905500,10.459905517578125,0.01313411258161068,-0.018321573734283447,-0.019556913524866104
1772363458582974700,10.469974609375,0.009096687659621239,-0.047714658081531525,-0.029299037531018257
1772363458593044500,10.48004443359375,0.011282609775662422,-0.06585957109928131,-0.0770559012889862
1772363458603113700,10.49011376953125,0.01908680982887745,-0.13198980689048767,-0.14981931447982788
1772363458613183700,10.500183837890624,0.002319547813385725,-0.20895037055015564,-0.13485394418239594
1772363458623252700,10.510252685546876,-0.011934828013181686,-0.18638572096824646,-0.11105968058109283
1772363458633322800,10.52032275390625,-0.011510586366057396,-0.10977216809988022,-0.11254359036684036
1772363458643392500,10.530392578125,-0.028582816943526268,-0.07103957235813141,-0.10747773945331573
1772363458653461800,10.540461669921875,-0.02889866940677166,-0.0822639986872673,-0.08088367432355881
1772363458663531500,10.550531494140625,-0.0074160341173410416,-0.05745057016611099,-0.05383196473121643
1772363458673600800,10.560600830078124,0.0015407092869281769,-0.009029507637023926,-0.046573519706726074
1772363458683670500,10.57067041015625,-0.0024541765451431274,0.0035226806066930294,-0.04192686453461647
