time,seconds_elapsed,z,y,x
1772363434874246400,0.111246337890625,-0.054717678615450856,0.08524667239189147,0.018419161526858806
1772363434884316200,0.121316162109375,-0.016934768187999723,0.06530395455956459,0.015102584324777126
1772363434894385400,0.131385498046875,0.019879589468240737,0.07017302190065383,0.01064575104638934
1772363434904455200,0.141455078125,0.044295653322339056,0.06035539224147796,0.014341682954877614
1772363434914524400,0.1515244140625,0.14317863687872887,-0.012592355069518089,-0.03872925136685371
1772363434924594200,0.16159423828125,0.10867314068675041,-0.06898176628947257,-0.07257087682262063
1772363434934663200,0.1716630859375,-0.09232406343221664,-0.03820376618802547,-0.004202712386846542
1772363434944732200,0.181732177734375,-0.09134323570132255,0.006559504646062851,0.07431129074916243
1772363434954802200,0.19180224609375,0.05355331101119518,0.0027747254103422164,0.06752616065368056
1772363434964871200,0.20187109375,0.06477788485884665,0.0025339023917913435,0.03609948738515377
1772363434974941200,0.211941162109375,-0.010590952119231223,0.014326631516218184,0.055112669282406566
1772363434985010400,0.222010498046875,-0.08383797463774681,-0.007691723546385765,0.07406111538037657
1772363434995080200,0.232080078125,-0.12979425464868544,-0.02783668595254421,0.0734888684503734
1772363435005149400,0.2421494140625,-0.08985621201395988,0.033279753789305686,0.10110402060672641
1772363435015219200,0.25221923828125,-0.004479775762557983,0.10927169110178947,0.12725333799421787
1772363435025288400,0.262288330078125,-0.049510173100233076,0.10837561904489994,0.05347103955522179
1772363435035357200,0.272357177734375,-0.16770926702320574,0.04128127393722534,-0.02570508075132966
1772363435045427200,0.28242724609375,-0.13498305546343325,0.0086748893648386,0.0074320496968925
1772363435055496200,0.29249609375,-0.0643710576236248,0.030572248396277427,0.07569076240882278
1772363435065566200,0.302566162109375,0.024864976665377615,0.07038344978094101,0.09112491677552462
1772363435075635200,0.31263525390625,0.11068974120616912,0.058814592540264124,0.0638107933923602
1772363435085705200,0.322705322265625,0.12502806316018103,0.0068956047326326365,0.0037217970021069047
1772363435095774200,0.332774169921875,0.13691373126506803,-0.06680033059716224,-0.031712942864000795
1772363435105844200,0.34284423828125,0.16197919893860815,-0.14289631280601023,-0.07187734160050749
1772363435115913500,0.35291357421875,0.1819149025082588,-0.15591186172366142,-0.09360533541440963
1772363435125983200,0.362983154296875,0.11641279502809047,-0.10616320369243622,-0.09695800684317946
1772363435136052500,0.373052490234375,0.10900631816387175,-0.005929974570870399,-0.061391457290947436
1772363435146121200,0.383121337890625,0.08024199597239494,0.02738134340047836,-0.055854573690891265
1772363435156191200,0.393191162109375,-0.015049685093760489,-0.0033183307677507397,-0.06637889031469822
1772363435166260200,0.40326025390625,-0.07365794140696526,-0.010534838017821312,-0.04400777629166841
1772363435176330200,0.413330322265625,-0.024936872857809066,0.0017027122646570204,-0.007108809091895818
1772363435186399200,0.423399169921875,0.03750935418307781,0.016985621592402456,0.016430618058145045
1772363435196469200,0.43346923828125,0.11958616436719893,0.06257891350984573,0.055957449543476104
1772363435206538200,0.443538330078125,0.1430155552715063,0.12337035908102989,0.07226750996187328
1772363435216608300,0.453608154296875,0.10814590194225311,0.10497487069070338,0.02493351185694337
1772363435226677200,0.46367724609375,0.30374446188807486,-0.008921557602286339,-0.06611658611670136
1772363435236746200,0.473746337890625,0.05332359390854835,-0.167324651619792,-0.1326117962874472
1772363435246816300,0.483816162109375,-0.5117869083434343,-0.08270634025931357,0.010228256286680698
1772363435256885200,0.49388525390625,-0.36496670009195803,-0.0015267711758613586,0.13928995887711643
1772363435266955300,0.503955322265625,0.0978898808658123,-0.015004676908254622,0.07765636339336633
1772363435277024300,0.514024169921875,0.24732524005174636,-0.0035901334464550016,0.014434329674392938
1772363435287094300,0.52409423828125,0.13079086447060106,-0.031152094110846518,-0.030803719064593314
1772363435297163300,0.534163330078125,0.10855214465558528,-0.12020283496081828,-0.06466039595901965
1772363435307233300,0.5442333984375,-0.010244330638647079,-0.1966986301422119,-0.037682664923369885
1772363435317302300,0.55430224609375,-0.14967852029204368,-0.1754103429198265,0.12959084103107452
1772363435327371300,0.564371337890625,-0.1346107150197029,0.02826806310713291,0.03329378231465816
1772363435337441300,0.574441162109375,0.05131108504235744,0.07936696670353412,-0.049559272938966746
1772363435347510300,0.58451025390625,0.07560030764639378,0.10012333900630474,-0.00417056368291378
1772363435357580300,0.594580322265625,0.131531453704834,0.0862432822138071,0.04650105441212654
1772363435367649300,0.604649169921875,0.4454898510932922,-0.06450725122392177,-0.013562223014980553
1772363435377719000,0.614718994140625,0.37982816913723944,-0.16014029307365416,0.00270136791318655
1772363435387788300,0.624788330078125,-0.17800445106625556,0.023140052568912505,0.25033202065229415
1772363435397858300,0.6348583984375,-0.4195224661439657,0.17224866401851177,0.31339959446191784
1772363435407927300,0.64492724609375,-0.2915846530169248,0.17800386654436587,0.11919321952685713
1772363435417997300,0.654997314453125,-0.031283027014136315,0.15193652835190297,0.13227291972190142
1772363435428066300,0.66506640625,-0.0008183306455612182,-0.03489420324862003,0.18735928551927208
1772363435438135300,0.67513525390625,0.292919701012969,0.07170972994863986,0.4033420234546065
1772363435448205300,0.685205322265625,0.7591232543110847,0.3250713275551796,0.550777148734033
1772363435458274300,0.6952744140625,0.5960498303949833,0.34790918230712414,0.11425839347317814
1772363435468344300,0.70534423828125,0.0988660324215889,0.26266777061223984,-0.041156770774722094
1772363435478413300,0.715413330078125,-0.011981529694795608,0.08698328692615032,-0.13349179399237035
1772363435488483000,0.725483154296875,-0.1338917530953884,-0.14183423653244973,-0.2596851015396416
1772363435498552300,0.73555224609375,-0.31478958751559255,-0.39512452246844765,-0.3254578426547348
1772363435508622000,0.7456220703125,-0.4002589627474546,-0.5114373642534017,-0.2223499348796904
1772363435518691300,0.75569140625,-0.5668202287793159,-0.3956353946000337,-0.1639405621394515
1772363435528761300,0.76576123046875,-0.468392587774992,-0.2722767259567976,-0.2692373582608998
1772363435538830300,0.775830322265625,-0.21841770999729632,0.09156301593184471,-0.0909445917725563
1772363435548899000,0.785899169921875,-0.07940612967014313,0.01871522186398506,-0.06420826827734709
1772363435558969300,0.79596923828125,-0.13751988046467303,0.10281447778642178,-0.07319295424371958
1772363435569038300,0.806038330078125,-0.11026888544559478,0.1325847621500492,-0.038314094694703815
1772363435579108400,0.8161083984375,-0.06709902128279209,0.04571604151427745,-0.06898688085600733
1772363435589177300,0.82617724609375,0.0829623608469963,0.050286418169736856,-0.09829013222977519
1772363435599247000,0.8362470703125,0.2378244212567806,0.18234861775040626,-0.043282823017984626
1772363435609316400,0.84631640625,0.1846867053091526,0.17177987746298312,-0.08214797572419047
1772363435619386000,0.85638623046875,0.12068272743225097,0.10676116958558558,-0.18085867145359516
1772363435629455400,0.866455322265625,0.1481435658097267,0.07046762093305588,-0.18707681531608103
1772363435639525000,0.876525146484375,0.11992284897565841,-0.09087795627713204,-0.18557152531966567
1772363435649594400,0.886594482421875,0.1137099658101797,-0.1910655926913023,-0.15474983220696448
1772363435659663000,0.8966630859375,0.09085574444532393,-0.11817980470061301,-0.025912586022168397
1772363435669733400,0.9067333984375,0.006737199300527573,-0.003565583527088165,0.01922404816895723
1772363435679801300,0.91680126953125,-0.07363982122838497,0.032279636836051936,-0.0057188160382211205
1772363435689871000,0.92687109375,-0.11804887179732322,0.008849076887965202,0.009228285463899373
1772363435699940000,0.936940185546875,-0.1377957747966051,-0.03056114248037338,0.059052054557949304
1772363435710010000,0.947010009765625,-0.14604220961630343,-0.091140991127491,0.1154138471186161
1772363435720079000,0.9570791015625,-0.14249123913645745,-0.009722937113046646,0.049572278551012275
1772363435730149400,0.9671494140625,-0.14957447539567947,0.05116320100426674,-0.029328385815024373
1772363435740218000,0.977218017578125,-0.10328034173250197,0.12663959001004696,-0.10643953641578555
1772363435750287000,0.987287109375,-0.011687515184283256,0.10387304692864417,-0.17318842908665535
1772363435760357000,0.997357177734375,0.17253566426634787,0.11449088705480098,-0.1395468562476337
1772363435770426000,1.007426025390625,0.20146365258693694,0.07617956883907318,-0.02386222936362028
1772363435780496100,1.01749609375,-0.022647885137796402,0.06897299846112728,-0.04995382521450519
1772363435790565400,1.0275654296875,-0.20781214483082294,0.13128010929226874,-0.09589943770095706
1772363435800635100,1.03763525390625,-0.23199790706038473,0.11664601926207542,-0.143322867655009
1772363435810704100,1.0477041015625,0.02511573655605316,0.06817687964737415,-0.1654236403040588
1772363435820774100,1.057774169921875,0.21846388722658155,-0.05889467203915119,-0.15093144296258687
1772363435830843100,1.067843017578125,0.2311538574516773,-0.14263795413076877,-0.13563231315240262
1772363435840913200,1.0779130859375,0.09512509232759475,-0.1270773969054222,-0.0776446729555726
1772363435850982100,1.087982177734375,-0.027663082951307295,-0.09878419935703277,-0.013918489106744527
1772363435861051100,1.098051025390625,0.018536358165740965,-0.0015507365733385084,0.017719050433486698
1772363435871121200,1.10812109375,0.03420914359390735,0.0349216757774353,0.00986702175885439
1772363435881190100,1.118190185546875,-0.0004126724541187286,-0.0037958851516246795,-0.005641951409727335
1772363435891260200,1.12826025390625,-0.0678565616518259,-0.027295418682694434,0.021146979055553673
1772363435901329200,1.1383291015625,-0.08718260889053345,-0.034467502269148825,0.07323986212536693
1772363435911399200,1.148399169921875,-0.09219429957270622,0.04542085795998573,0.16273659317716954
1772363435921468200,1.15846826171875,-0.1656891593724489,-0.009061258333921431,0.20167846438139675
1772363435931538200,1.1685380859375,-0.0672375529706478,0.03856149358451366,0.30326164680719375
1772363435941607200,1.178607177734375,-0.1439905377835035,0.08853519254326819,0.3660588792428374
1772363435951677200,1.18867724609375,-0.1870475892215967,0.08475508948266505,0.3668405311398208
1772363435961746200,1.19874609375,0.05021159936785698,0.11464110918045044,0.30166590204834937
1772363435971815200,1.208815185546875,0.1156008941233158,0.03364332640469074,0.19115794714987278
1772363435981885200,1.21888525390625,0.10228782356381416,0.0802390733629465,0.16853490419238804
1772363435991954200,1.2289541015625,0.03492869004011154,0.16777999417185782,0.20013503433167934
1772363436002024200,1.239024169921875,0.0010907178461551665,0.16003274104595183,0.18145868317335842
1772363436012093200,1.24909326171875,0.11891980941295623,0.11302549067735672,0.1352811616271734
1772363436022163200,1.2591630859375,0.1249602586209774,-0.018685411247611045,0.07284224110990763
1772363436032232000,1.26923193359375,0.13627251075208185,-0.12946399978101253,0.04395151605978608
1772363436042302200,1.27930224609375,0.1365939977914095,-0.19090075751841068,0.026789953378587958
1772363436052371200,1.28937109375,0.1291302377820015,-0.15546879413127898,0.037394934023171664
1772363436062441200,1.299441162109375,0.1304062490671873,-0.05686930369138717,0.025825346130132674
1772363436072510200,1.30951025390625,-0.05735445685982704,0.016231003832817077,0.027884178356081247
1772363436082579200,1.3195791015625,-0.16396189718842505,0.012052256843447684,0.05947656358033418
1772363436092649200,1.329649169921875,-0.07703647792935371,-0.030231472134590147,0.0735664637312293
1772363436102718200,1.33971826171875,0.07909574854671955,-0.020562311035394666,-0.007300970663130283
1772363436112788200,1.349788330078125,0.1682259843736887,0.016249708533287048,-0.037839316789805885
1772363436122857200,1.359857177734375,0.14847206711173055,0.0917021321415901,-0.006390139428526163
1772363436132927200,1.36992724609375,-0.009695464584231376,0.037951252731680866,-0.058493982283771034
1772363436142996000,1.379995849609375,-0.14499883804321287,-0.034168227061629294,-0.08463964640945196
1772363436153066200,1.390066162109375,-0.13353402569890022,-0.0790150845259428,-0.12114011581093072
1772363436163135000,1.400135009765625,-0.035543607068061825,-0.07449497675299643,-0.11622472511008382
1772363436173205200,1.410205322265625,0.05975099660754203,-0.044917000091075895,-0.1425483761511743
1772363436183274200,1.420274169921875,0.05503039782643318,-0.07052958025336264,-0.14733853303715586
1772363436193343200,1.43034326171875,0.03614800270199776,-0.0662491264551878,-0.12474062452092766
1772363436203413200,1.440413330078125,0.020689736807346343,-0.026076106020808218,-0.09878156900852918
1772363436213482200,1.450482177734375,0.02821487161517143,-0.005756371569633483,-0.08095891207009553
1772363436223552300,1.46055224609375,0.020195231288671494,0.002398293313384056,-0.07847966247498989
1772363436233621200,1.470621337890625,0.07124386600255966,0.016352584385871886,-0.09205284527540207
1772363436243691300,1.480691162109375,0.18897125076055526,0.08590192143023014,-0.10042495230138301
1772363436253760000,1.490760009765625,0.23622692293226719,0.06985679555833339,0.03624167233482003
1772363436263830300,1.500830322265625,0.054495560297369953,0.03663607847988605,0.06563976238518952
1772363436273899000,1.51089892578125,0.012886954101920128,0.03617138357758522,0.038229923542588945
1772363436283969300,1.52096923828125,0.05202712435722351,-0.07593757677674293,-0.07439180863946676
1772363436294038000,1.5310380859375,0.2572919227927923,-0.07897709060311317,-0.0005209551341831684
1772363436304107300,1.541107177734375,0.3196896345168352,-0.0433873063057661,0.11960121580585836
1772363436314177000,1.551177001953125,0.14898761541843414,-0.09052373601198196,-0.17229294155165553
1772363436324246300,1.561246337890625,0.07006663891673087,0.06535773057341575,0.00399038481041789
1772363436334316300,1.57131640625,-0.02670563609600067,0.09493921436667442,0.12020999535396694
1772363436344385000,1.581385009765625,-0.04798340192437172,-0.01445931798517704,0.04283244890198111
1772363436354455300,1.591455322265625,-0.0792027160525322,-0.01769698473215103,0.08093246245458721
1772363436364524000,1.60152392578125,-0.2392670212805271,-0.1957704093813896,-0.01293254680931568
1772363436374594300,1.61159423828125,-0.21129180364012717,-0.12518003885149956,-0.007366583245247602
1772363436384663000,1.6216630859375,-0.08567629598081111,-0.151673493501544,-0.03234744137525558
1772363436394733300,1.6317333984375,0.04261047671437263,-0.06629822629392147,-0.02939896683320403
1772363436404802000,1.641802001953125,0.31783202395141125,0.05213584542870521,0.12306319282799959
1772363436414872000,1.6518720703125,0.5332827008366584,0.18638883305191992,0.21235987126305697
1772363436424941000,1.661941162109375,0.3554547753810882,0.1785427957266569,0.10775514905899762
1772363436435010300,1.67201025390625,0.05070902749598026,0.06564356177747249,-0.0016850304774940013
1772363436445080000,1.682080078125,0.0022533318847417832,-0.0789846893876791,-0.07080576684623956
1772363436455149000,1.692149169921875,0.12796411661207674,-0.23455635937154293,-0.16772724107131362
1772363436465219300,1.70221923828125,0.2209972050964832,-0.31744799306988714,0.034014936196058984
1772363436475288000,1.7122880859375,0.03815057469606399,-0.4344219291120767,0.042110710498690605
1772363436485358300,1.7223583984375,-0.22464812881946564,-0.3287655058979988,-0.05504881026595831
1772363436495427000,1.732427001953125,-0.29112755689918995,-0.17295184385180473,-0.12687179133072496
1772363436505497300,1.742497314453125,-0.0930839418888092,0.10270809480249882,-0.007059855383634567
1772363436515566000,1.752566162109375,0.11845452998876571,0.17019874575138091,0.034842765322327614
1772363436525636000,1.762635986328125,0.26680209393799303,-0.027190789264440535,-0.06505041818991303
1772363436535705000,1.772705078125,0.016013561689853666,0.0372919120401144,-0.0701917266011238
1772363436545774300,1.7827744140625,-0.2980231616318226,0.04528524888157844,-0.06651859104633331
1772363436555844000,1.792843994140625,-0.15810732594132423,0.00849836375415325,-0.06496273990646004
1772363436565913000,1.8029130859375,0.04147416616082191,-0.06599252134561538,-0.02159837608486414
1772363436575983000,1.812983154296875,0.05490706370770931,0.038299043256044385,0.02204685050472617
1772363436586052000,1.823052001953125,-0.05399988573491573,0.15498305644094942,0.09834566180929541
1772363436596122400,1.833122314453125,-0.10506313349604605,0.1424801332205534,0.0535851674541831
1772363436606191000,1.843191162109375,-0.020297522619366643,0.1409498549133539,0.14268690783903
1772363436616261000,1.85326123046875,-0.02811901002526283,0.123021399512887,0.12699483318850396
1772363436626330000,1.863330078125,-0.19463176074028013,0.23403555036783216,0.018783026403188706
1772363436636400000,1.873400146484375,-0.06383622009456158,0.36095220375359055,-0.019405396085232497
1772363436646469000,1.88346923828125,-0.020674539238214492,0.4221984073549509,-0.059559127297252414
1772363436656538400,1.893538330078125,-0.12425766330957412,0.3874462429255247,-0.15644319212138652
1772363436666608000,1.903608154296875,-0.0922211875796318,0.1321054542005062,0.010310381612181663
1772363436676681700,1.913681640625,-0.060277650830149646,0.022836101186275482,0.09559899344965815
1772363436686751700,1.923751708984375,-0.026395254972577095,-0.032897476473450656,-0.0034627076745033262
1772363436696820700,1.93382080078125,0.045649406018853186,-0.012117138773202895,-0.09329086263775825
1772363436706890800,1.943890869140625,0.14947627571821212,0.04853051441311836,-0.08681289879530668
1772363436716959700,1.953959716796875,0.141813193744421,0.061489949229359624,-0.05619476543068885
1772363436727029800,1.96402978515625,-0.007972294053435325,0.11098784736990928,0.046069384996592994
1772363436737098800,1.9740986328125,-0.1691489444375038,0.14404898997247217,0.22753493630215524
1772363436747168800,1.984168701171875,-0.2791810985177755,0.14184183531701564,0.27957097461819647
1772363436757237800,1.99423779296875,-0.20866554678976534,0.24227087927162647,0.2720674671202898
1772363436767306800,2.004306640625,0.0018926818788051604,0.3673848671495914,0.30127105751186606
1772363436777376800,2.014376708984375,0.11639759745895861,0.374317881283164,0.32671792571842667
1772363436787445800,2.02444580078125,0.02935819643139839,0.36610593325495716,0.3466656119868159
1772363436797515500,2.034515625,-0.09508885197043418,0.3436725676506758,0.31967341403439636
1772363436807584800,2.044584716796875,-0.04656768990755081,0.3896241714864969,0.308721958039701
1772363436817654800,2.05465478515625,0.02729775677025318,0.3255190713226795,0.2817600090950727
1772363436827723800,2.064723876953125,0.06467793161571025,0.2155208195120096,0.19148878653943538
1772363436837793800,2.074793701171875,0.06593290011286736,0.039431846678256985,0.030361966646462676
1772363436847862800,2.08486279296875,0.08891630081534385,-0.22303835553526877,-0.1692683330334723
1772363436857932800,2.094932861328125,0.12419921112060546,-0.4000193087726831,-0.26322555062547326
1772363436868001800,2.105001708984375,0.1428682557553053,-0.44062253731787204,-0.3004410364285111
1772363436878071800,2.11507177734375,0.07174713934957981,-0.4749520924210548,-0.3470189554691315
1772363436888140800,2.125140869140625,0.10727379528284073,-0.4610971700698137,-0.2933152762018144
1772363436898209800,2.135209716796875,0.17378011136949062,-0.4822679683923721,-0.27970585304424167
1772363436908279600,2.145279541015625,0.1369154848307371,-0.5389893880456685,-0.3550871111124754
1772363436918348800,2.155348876953125,-0.06700023708343505,-0.48445466478168964,-0.35269451688751574
1772363436928418600,2.16541845703125,-0.1491372530221939,-0.2518137836426496,-0.15981471438109873
1772363436938487800,2.17548779296875,0.12269289821088314,-0.055233226922154426,0.014858546435832976
1772363436948557800,2.185557861328125,0.2959340803980827,0.009757423904538154,0.03383665701970458
1772363436958626800,2.195626708984375,0.2676648482471704,0.0942646761059761,0.05684066211879253
1772363436968696800,2.20569677734375,0.01279752225279808,0.08251110994815826,0.06893515066877007
1772363436978765800,2.215765869140625,-0.21189619927406309,0.12797229991853237,0.09677695118784904
1772363436988835800,2.2258359375,-0.2596194889575243,0.10130641131103038,0.13022563180327415
1772363436998904800,2.23590478515625,-0.1922328829050064,0.13384031516909597,0.1536218510903418
1772363437008973800,2.245973876953125,-0.07237608490288257,0.12910977951586244,0.11482421066239476
1772363437019043600,2.256043701171875,-0.015627192720770833,0.09601064299046992,0.041202217351645226
1772363437029112800,2.26611279296875,-0.02958031474947929,0.0779085845887661,0.01855287090912461
1772363437039182600,2.2761826171875,-0.002384264788031578,0.04571136533915996,0.042263562972843643
1772363437049251800,2.286251953125,0.04550444459021091,-0.025810148561000824,0.005223287606239318
1772363437059321600,2.296321533203125,0.03588672141730785,-0.037604631251096726,-0.027435850066691636
1772363437069390800,2.306390869140625,-0.018065818044543266,-0.05824117656648159,0.04000950043573975
1772363437079460600,2.316460693359375,-0.033711715465784074,-0.1512853709667921,0.02409910685941577
1772363437089529900,2.32652978515625,0.08634966519773006,-0.14600772282481192,-0.07243351417854428
1772363437099600000,2.336599853515625,0.22227555446922778,-0.16396131266653538,-0.10209902299344539
1772363437109668600,2.346668701171875,0.20204758995473385,-0.11298340510129928,-0.06723521488308906
1772363437119737600,2.356737548828125,0.08176526001691818,-0.035060207465291024,-0.04611015539839863
1772363437129807600,2.3668076171875,-0.042213586351275444,-0.004127893584966659,-0.09612973932549357
1772363437139876900,2.376876953125,-0.10340718298256396,0.008108487653732298,-0.11507774703204632
1772363437149946600,2.386946533203125,-0.05904372512102127,-0.012846037569642066,-0.06623086014613509
1772363437160016000,2.397015869140625,0.0024269348859786988,-0.0775116942256689,-0.0561174624107778
1772363437170085600,2.407085693359375,0.02948328411579132,-0.041944706282019614,-0.006079612174630164
1772363437180155000,2.41715478515625,0.04522445860505104,0.02550385909080505,0.013976795165240764
1772363437190224600,2.427224609375,0.08158522727489471,0.17135960622429847,0.02056450299248099
1772363437200294000,2.4372939453125,0.16683306871056555,0.31526889546513553,0.040915363234281535
1772363437210363600,2.44736376953125,0.15875030001997947,0.2754150239825249,0.0343343774087727
1772363437220432600,2.4574326171875,-0.038945524466037745,0.10123743772804736,0.07023512735143303
1772363437230501600,2.467501708984375,-0.2920142766058445,0.006668810239434242,0.16137348813042043
1772363437240571600,2.477571533203125,-0.34467619173526765,-0.09334756126105785,0.09648425185158849
1772363437250640600,2.487640625,-0.21468086155653,-0.06907353622615336,0.030475948414951562
1772363437260710700,2.497710693359375,-0.0852805746614933,-0.04463584506213665,0.03515168514102697
1772363437270780000,2.50777978515625,-0.010246668726205825,-0.1295090079665184,0.04244768736809492
1772363437280849700,2.517849609375,-0.06423135689198971,-0.11482055740058421,0.12681801531687378
1772363437290919000,2.5279189453125,-0.09554361000061035,-0.020108137527108192,0.13466755977347492
1772363437300988700,2.53798876953125,-0.06196867265701293,0.040597967848181725,0.028579905535280704
1772363437311058000,2.548057861328125,-0.023368016105890274,0.01983984197974205,-0.09046177669167518
1772363437321127700,2.558127685546875,0.025308628779649733,-0.05656593683063984,-0.18316417191699147
1772363437331196700,2.56819677734375,0.057031216254830354,-0.08090367475152015,-0.2286808914668858
1772363437341266700,2.5782666015625,0.11636603327691554,-0.04068798421919346,-0.1700805261991918
1772363437351335700,2.588335693359375,0.15479425587058065,-0.027118893072009084,-0.1265197630226612
1772363437361404700,2.59840478515625,0.14287760810554026,0.01732230620086193,-0.10940919987633824
1772363437371474700,2.608474609375,0.11053016673028468,0.08616144914925097,-0.07058715565949678
1772363437381543700,2.618543701171875,0.08944880025684833,0.10720189909040927,-0.05770780034214258
1772363437391613700,2.62861376953125,0.09134557378888129,0.11140402695536612,-0.02690349675565958
1772363437401683000,2.638682861328125,0.09418342756330966,0.12400748794078827,0.016086042404174803
1772363437411752700,2.648752685546875,0.0442021298199892,0.12453063503205776,0.017228636568039656
1772363437421822000,2.658822021484375,-0.049667409488558766,0.12306816126406192,0.0018465046495199202
1772363437431891700,2.6688916015625,-0.16766250527203083,0.08177636593282223,-0.004795855974406004
1772363437441960700,2.678960693359375,-0.15585808570981025,0.043511809468269345,-0.0029815000288188455
1772363437452030700,2.68903076171875,-0.10986907247304915,0.0002484218031167984,-0.02339987254887819
1772363437462099700,2.699099609375,-0.07616670935750007,-0.02561374920606613,-0.029463556502014397
1772363437472168700,2.709168701171875,-0.004422492617368698,-0.014725275444984436,-0.002850420995056629
1772363437482238700,2.71923876953125,-0.01191957037448883,-0.033795302096009255,0.04748728897050023
1772363437492307700,2.7293076171875,-0.0010229133069515229,-0.06358779829144477,0.06648249681964516
1772363437502377700,2.739377685546875,0.04406827430725097,0.004189852905273437,0.05477773823961615
1772363437512446700,2.74944677734375,0.05456628744602203,0.03023264117836952,0.004889233346283436
1772363437522516700,2.759516845703125,0.0770066673129797,0.03741758424639702,-0.044452597449719904
1772363437532585700,2.769585693359375,0.05625730927288532,0.028572014489769933,-0.058137862322479486
1772363437542655700,2.77965576171875,-0.0063525838971138,-0.0011281272470951079,-0.12950944635793565
1772363437552724700,2.789724853515625,0.022219430592656134,0.0024117373168468475,-0.12979235495254396
1772363437562794800,2.799794677734375,0.10315525404810905,-0.011413374418020247,-0.06865092689990997
1772363437572863700,2.80986376953125,0.14680793329179287,-0.0409258846282959,-0.05529167911112308
1772363437582933800,2.819933837890625,0.1377478440016508,-0.04536649742424488,-0.02673398540765047
1772363437593002800,2.830002685546875,0.116154436352849,-0.07673486463427544,-0.0006873977422714233
1772363437603071700,2.84007177734375,0.06888590469956397,-0.1833569180101156,0.03618935762569308
1772363437613141800,2.850141845703125,0.051914311632514,-0.2592126617223024,0.09703677116781473
1772363437623210800,2.860210693359375,0.04885200145244598,-0.014632920986413955,0.08045549259260297
1772363437633280800,2.87028076171875,0.04752279867529869,0.2127501857548952,0.04228343671709299
1772363437643349800,2.880349853515625,0.0284036721855402,0.2933645221710205,0.054503743603825566
1772363437653419800,2.890419677734375,0.01436170282959938,0.2583803025513887,0.09023542058989405
1772363437663488500,2.900488525390625,-0.047718028986454004,0.1558732832789421,0.08863836065679788
1772363437673555700,2.9105556640625,-0.13075228602588176,0.03490589368641376,0.04696560318395495
1772363437683624400,2.92062451171875,-0.1467933202445507,0.002975216418504715,0.06888210530728102
1772363437693694500,2.930694580078125,-0.07970657392144202,0.004003390422463417,0.10351210466176271
1772363437703763700,2.940763671875,0.008114332872629165,-0.04846855509281158,0.06799918499290943
1772363437713833500,2.95083349609375,0.025640637212991712,-0.08836451215147971,-0.0023291735999286176
1772363437723902700,2.96090283203125,0.00013327099084854124,-0.11902268526554106,-0.07622340798079967
1772363437733971700,2.9709716796875,-0.018365093252062797,-0.13028466851413248,-0.06891673822924495
1772363437744041700,2.981041748046875,-0.011004209095239638,-0.11370821224451065,-0.05485825612992048
1772363437754110500,2.9911103515625,-0.011001871007680892,-0.08626783213317393,-0.06413213430121541
1772363437764180700,3.0011806640625,-0.007120061138272285,-0.034030864417552945,-0.07602773927822709
1772363437774249500,3.01124951171875,-0.020523732590675352,0.037084406769275664,-0.07645370960533618
1772363437784319700,3.02131982421875,-0.018875380861759185,0.09144026633501053,-0.05801891211792826
1772363437794388500,3.031388427734375,0.0151145670235157,0.13566811511814594,-0.02019406224489212
1772363437804458500,3.04145849609375,0.036626141607761384,0.10738543896377085,-0.06070566698387265
1772363437814527500,3.051527587890625,0.08133212929666042,0.06256546950638293,-0.10480462869033216
1772363437824597500,3.061597412109375,0.17016718156933783,0.045347208201885224,-0.11997092590108513
1772363437834666800,3.071666748046875,0.20905834549963473,0.02539981419444084,-0.09642053896561265
1772363437844735700,3.08173583984375,0.15920973422527313,-0.05618541308045387,-0.14218334223106502
1772363437854805800,3.0918056640625,0.07745265751481056,-0.099397362819314,-0.16778934652209282
1772363437864874500,3.10187451171875,0.0800783298432827,-0.11140168886780738,-0.10505421953722834
1772363437874944800,3.11194482421875,0.047906245034933084,-0.07140110239088535,-0.041768034540861844
1772363437885013500,3.122013427734375,-0.051958735296130175,-0.036983284482359886,0.012859335442632435
1772363437895083800,3.132083740234375,-0.1871305913299322,-0.038758477461338044,0.05770706968978047
1772363437905152500,3.142152587890625,-0.25872283237874505,0.0017383680999279022,0.08545899996832013
1772363437915222500,3.152222412109375,-0.22366262491345404,0.009772036951780319,0.12826792186424135
1772363437925291500,3.16229150390625,-0.1430629015445709,0.034683190846443175,0.1449855401702225
1772363437935361500,3.172361572265625,-0.07490121946632862,0.04708557630181312,0.13512947819679974
1772363437945430500,3.182430419921875,-0.05081541047990322,0.07111644023060798,0.09918825011327863
1772363437955500500,3.19250048828125,-0.03872925136685371,0.06416881304979324,0.030615649146586654
1772363437965569500,3.202569580078125,-0.0025239655196666716,0.03453472228646278,-0.028771920976042746
1772363437975639600,3.2126396484375,0.056605099797248835,-0.008752046254277229,-0.03372822820916772
1772363437985708800,3.222708740234375,0.13684125055074692,-0.014648118555545805,-0.018885025472939014
1772363437995777500,3.232777587890625,0.19045184470713136,0.020506196933984755,0.013633096294105052
1772363438005847800,3.242847900390625,0.175541860345006,0.030579262658953665,-0.01537467926442623
1772363438015916500,3.25291650390625,0.0878162306189537,0.028132454028725624,-0.027393033838272095
1772363438025986600,3.262986572265625,-0.0009060089290142059,0.00024900632500648496,-0.047990708447992796
1772363438036055600,3.2730556640625,-0.015289923590421675,0.004229600393772125,-0.0036009471014142036
1772363438046125600,3.28312548828125,-0.02796118911504745,0.015007014995813368,0.010764408989995717
1772363438056194600,3.293194580078125,-0.0326689284145832,0.02080138048827648,-0.011140841086953878
1772363438066264600,3.3032646484375,-0.053045946010947226,0.03590367255210876,-0.03240326321572065
1772363438076333600,3.31333349609375,-0.04239654170274734,0.05467793112695217,-0.005297375755757093
1772363438086403600,3.323403564453125,-0.025112813946604726,0.017955927929282186,0.02439662850126624
1772363438096472600,3.33347265625,-0.027577742755413054,-0.042082653447985646,-0.0015454758763313293
1772363438106542600,3.34354248046875,-0.03426291960775852,-0.04683773902058601,-0.013479074776172637
1772363438116611800,3.35361181640625,-0.08495558049082756,-0.07564414678812026,-0.031104893968254325
1772363438126680600,3.3636806640625,-0.09331775064468384,-0.07158347322046757,-0.03365428619012236
1772363438136750600,3.37375048828125,-0.05997779110074043,-0.03186637986004352,-0.01812032471075654
1772363438146819600,3.383819580078125,0.0019219079732894896,0.012855974441766739,-0.007463029357045889
1772363438156889600,3.3938896484375,0.03475274895131588,0.050930561292171474,-0.00034530630633234976
1772363438166958600,3.40395849609375,0.03651508244872093,0.05519640204310417,0.00850713158249855
1772363438177028600,3.414028564453125,0.04059153810739517,0.02643324889540672,-0.0025577216587960717
1772363438187097600,3.42409765625,0.06979483623802661,-0.0017336919248104093,-0.0015460603982210158
1772363438197167600,3.434167724609375,0.15785422796308993,-0.023492519268393516,-0.018965689493715764
1772363438207236600,3.444236572265625,0.19100480241477488,-0.03126081518232822,-0.06295768369436264
1772363438217306600,3.454306640625,0.11958090367019175,-0.013265724286437033,-0.041471097420901055
1772363438227375600,3.464375732421875,0.0785574038863182,0.021903788772225378,0.0052076516456902025
1772363438237445600,3.474445556640625,0.017124153280258177,0.02829202850461006,0.04282864950969815
1772363438247514600,3.4845146484375,-0.012832593566179275,0.026043957316875456,0.06347483943626284
1772363438257583600,3.49458349609375,-0.02573532975912094,0.020457097095251082,0.07379179691970347
1772363438267653600,3.504653564453125,-0.05113163682222366,0.031069092002511022,0.08716697292998432
1772363438277722600,3.51472265625,-0.10796820728778839,0.0329044907361269,0.09379968894273043
1772363438287792600,3.524792724609375,-0.11811667633652687,0.015249007058143615,0.09148644356429576
1772363438297861600,3.534861572265625,-0.14232114326655865,0.0017535656690597532,0.06969400621205568
1772363438307931600,3.544931640625,-0.14356500584781168,-0.039158290433883663,0.012276713249087332
1772363438318000600,3.555000732421875,-0.07916589117348194,-0.0693815792620182,-0.01373494923338294
1772363438328070700,3.565070556640625,-0.04601356315612793,-0.06679273181259632,-0.02957651535719633
1772363438338139600,3.5751396484375,-0.01659340740442276,-0.026708558705449102,-0.03383534184545278
1772363438348209700,3.585209716796875,0.03212707662284374,0.04102116169631481,0.004060965828597545
1772363438358278400,3.5952783203125,0.05051029005348682,0.07799684739410877,0.02610562437623739
1772363438368348700,3.6053486328125,0.02735211730599403,0.07956804223358631,0.027111878809332846
1772363438378417400,3.61541748046875,0.004878419691324234,0.055471711853146546,0.05888765777647495
1772363438388487700,3.62548779296875,0.04216857816576958,0.01599777959883213,0.06897212167829275
1772363438398556700,3.635556640625,0.14035247354209424,-0.008836801928281783,0.0653567076601088
1772363438408625700,3.645625732421875,0.1973831052750349,-0.03025836014151573,0.03290551364943385
1772363438418695700,3.65569580078125,0.1358919870018959,-0.031055647999048232,-0.005600450355559587
1772363438428764700,3.6657646484375,0.07555179232954978,-0.013000351348519325,-0.001438216109573841
1772363438438834700,3.675834716796875,0.01805821925997734,-0.0038823943912982936,-0.0370556190662086
1772363438448903700,3.685903564453125,-0.010374679020047187,-0.0005611410140991211,-0.07519158071503043
1772363438458973700,3.6959736328125,0.006631400838494301,0.04121113131046295,-0.027357378003001212
1772363438469042400,3.70604248046875,0.020390461599826812,0.013987024298310278,-0.001542699397355318
1772363438479112700,3.71611279296875,0.067673606300354,-0.04360241036117077,-0.037219723586738106
1772363438489181400,3.726181396484375,0.09836334359645843,-0.09448387181460857,-0.08032792069017887
1772363438499251700,3.736251708984375,0.09620821138918399,-0.07146832240819931,-0.07016659215986729
1772363438509320400,3.746320556640625,0.06760171010792256,-0.04062777846455574,-0.030482378155738114
1772363438519390500,3.756390380859375,0.024462825605273245,-0.007241641691327095,-0.0038188276357948776
1772363438529459700,3.766459716796875,0.029790742629766463,-0.009308511093258857,0.011726385889947413
1772363438539528700,3.77652880859375,0.0939554640263319,-0.0011807342171669005,0.04210515754073858
1772363438549598700,3.7865986328125,0.042352118039131165,-0.03623918811678886,0.012632102558016776
1772363438559667700,3.796667724609375,-0.06115384914278984,-0.07193301731050014,0.009819529355317354
1772363438569737700,3.80673779296875,-0.10104454550445079,-0.045910687303543085,0.06627791415825486
1772363438579806500,3.816806396484375,-0.04422726426124572,0.03570727319717407,0.10177753595411777
1772363438589876700,3.826876708984375,0.010614332994818686,0.10720306813418864,0.08864698235467076
1772363438599945500,3.836945556640625,-0.019821721801161766,0.12883154709637165,0.021609774261713028
1772363438610015700,3.847015625,-0.03499707910120487,0.11762392438352107,-0.01823649843633175
1772363438620084500,3.85708447265625,-0.0064496145308017725,0.06284662453532218,-0.039651042386889455
1772363438630154500,3.867154541015625,-0.008703530937433243,-0.0010322656571865082,-0.1021618590965867
1772363438640223500,3.877223388671875,0.03790975167751312,0.002453238371014595,-0.12284224355369805
1772363438650293500,3.88729345703125,0.07192658756971358,0.029519524472951888,-0.11006021113097667
1772363438660362800,3.89736279296875,0.04873568159639835,0.03486205454468727,-0.11576456025242805
1772363438670432500,3.9074326171875,-0.007789923223853111,0.05309796845912933,-0.10070873767882585
1772363438680501200,3.917501220703125,-0.01420914261639118,0.06005377894639968,-0.0627164222843945
1772363438690570200,3.9275703125,-0.019164719197154043,-0.003601239362359047,-0.05037015093043446
1772363438700640300,3.93764013671875,-0.048714054286479944,-0.0186176067084074,-0.07488879837617278
1772363438710709000,3.947708984375,-0.05435059886872768,-0.002763619494438171,-0.049477147613465784
1772363438720779300,3.957779296875,-0.033197336202859876,-0.009828735575079918,-0.013040098837018012
1772363438730848000,3.967847900390625,-0.04857727616429328,-0.014110942938923834,-0.00623100334405899
1772363438740918300,3.977918212890625,-0.04884615623354911,0.041755321189761156,0.028827742816507816
1772363438750986000,3.987986083984375,-0.04805880524814129,0.0406990901350975,0.030971915238350627
1772363438761055000,3.998054931640625,-0.03682020287513733,0.09820143103301525,0.11031681624054908
1772363438771125000,4.008125,-0.056931263011693954,0.08665537014603614,0.1721719455204904
1772363438781194200,4.0181943359375,-0.03917290348112583,0.05888824229836464,0.19711130259633064
1772363438791264000,4.028263916015625,-0.00988835680782795,0.000054945057630538935,0.19367182966694235
1772363438801333200,4.038333251953125,-0.018723405170440674,-0.05538461809158325,0.19207374682053924
1772363438811403000,4.048403076171875,0.023249358162283896,-0.08219020743072032,0.19683672343865036
1772363438821472300,4.05847216796875,0.048610009390115734,-0.07445055308938026,0.17452157738655805
1772363438831542000,4.0685419921875,0.05714169089198112,-0.04846913961470127,0.14501549691706894
1772363438841611300,4.078611328125,0.06635960109233856,0.009505494970083236,0.1492431976146996
1772363438851681000,4.088680908203125,0.044027357774972915,0.04519347894489765,0.13251140465289354
1772363438861750000,4.09875,0.03283201002180576,0.05726794762015342,0.10899155898615717
1772363438871820300,4.1088203125,0.043866614255309105,0.06064414605498313,0.0826956727348268
1772363438881889000,4.118888916015625,0.09806757552027702,0.06697568716406822,0.07616144866049289
1772363438891958000,4.1289580078125,0.1279185239046812,0.0654424862474203,0.08079042363539338
1772363438902028000,4.139028076171875,0.1139408519566059,0.030175358033180236,0.053743572886288164
1772363438912097300,4.14909716796875,0.10881459498405456,0.002059270617365837,0.019894202515482903
1772363438922167000,4.1591669921875,0.09826046774387359,-0.00023497779965400695,-0.005925152265280485
1772363438932236300,4.169236328125,0.08903554328083992,-0.005412672698497772,-0.027300094857811926
1772363438942306000,4.17930615234375,0.04861059391200542,-0.034922260299324985,-0.0808661192201078
1772363438952375300,4.189375244140625,0.028863106390833854,-0.015865093129873276,-0.1002918274410069
1772363438962445000,4.199445068359375,-0.011318097350001334,0.005572831696271896,-0.11207374291047453
1772363438972514000,4.20951416015625,-0.05972878477573394,-0.0017325228810310363,-0.14229732399955392
1772363438982584000,4.219583984375,-0.11818506539762019,-0.019047814819216725,-0.17489201813414693
1772363438992653000,4.229653076171875,-0.08919570227861404,-0.007382511466741562,-0.13922741503491998
1772363439002723300,4.239723388671875,-0.037509938704967494,0.014528291568160056,-0.08564999249577522
1772363439012792000,4.2497919921875,-0.029950901627540587,0.03570551963150501,-0.07821750440746546
1772363439022862000,4.259862060546875,-0.05794950014352798,0.04970248080193996,-0.1270988780848682
1772363439032931000,4.26993115234375,-0.007886369335651398,0.052584173718094825,-0.1505481427334249
1772363439043001000,4.2800009765625,0.08954758445620536,0.03148468706607818,-0.1386624746285379
1772363439053070000,4.290070068359375,0.13917232384681702,0.02415419804751873,-0.11373802286088466
1772363439063139300,4.300139404296875,0.11851239765584468,-0.00046411038041114806,-0.10969839208126067
1772363439073209000,4.310208984375,0.06450023696124553,-0.016381225958466528,-0.10149170475006103
1772363439083278000,4.320278076171875,0.004943886142969131,-0.045880292165279384,-0.08699760771244763
1772363439093348000,4.33034814453125,-0.018465046495199203,-0.04281272128820419,-0.07716580339744687
1772363439103417000,4.3404169921875,0.005882628297805786,-0.001980360162258148,-0.056597647143155336
1772363439113487000,4.350487060546875,0.022602292430400846,0.006022913551330566,-0.07150295533016324
1772363439123556000,4.36055615234375,0.02347439908981323,-0.009300912308692932,-0.05974734334573149
1772363439133626000,4.370626220703125,0.006838906109333038,-0.028328853383660316,-0.03587283902242779
1772363439143695000,4.380695068359375,0.019034370815753935,-0.017179682859778403,0.03623012802749872
1772363439153765000,4.39076513671875,0.003544540739059448,0.011959902384877204,0.06240633342191577
1772363439163834000,4.400834228515625,-0.018837386938929557,0.021727847683429717,0.04249254942312836
1772363439173904100,4.410904052734375,0.014609540110826491,0.056848260903358455,0.05011427647322416
1772363439183973000,4.42097314453125,0.04918868606090546,0.07750584900677204,0.0543878621391952
1772363439194043100,4.431043212890625,0.11746025825440883,0.08747077818214893,0.06685308369770646
1772363439204112100,4.441112060546875,0.14675240371227263,0.0890928264260292,0.11302987459152937
1772363439214182100,4.45118212890625,0.09548106615841388,0.05864332762658596,0.11996551907360553
1772363439224251100,4.461251220703125,-0.0027834932386875152,0.004402034351229668,0.11589067085012793
1772363439234321200,4.471321044921875,-0.07049509346187115,-0.061493456360697744,0.11046470027863979
1772363439244390000,4.481389892578125,-0.07290332364737986,-0.06459200689792632,0.12145531923994421
1772363439254459100,4.491459228515625,-0.045456513795256615,-0.010175357055664061,0.1346701901219785
1772363439264529200,4.501529052734375,-0.06701777274012566,0.013093874850869177,0.11155293390676378
1772363439274598100,4.51159814453125,-0.1098807629108429,0.025319150173664092,0.07169599368423223
1772363439284668200,4.521668212890625,-0.10194763182401656,0.051965749558806416,0.07087970886528491
1772363439294737200,4.531737060546875,-0.06790156983733177,0.026761750197410582,0.04749547227695584
1772363439304807200,4.54180712890625,-0.045405075868964195,0.0006827215671539307,0.026459260119497775
1772363439314876200,4.551876220703125,-0.018492519024014473,-0.020231471645832062,-0.002472673723846674
1772363439324946200,4.5619462890625,0.005409165567159652,-0.013693009787797927,-0.021319413013011216
1772363439335016000,4.572015869140625,-0.043460371541976926,0.04432955559194088,-0.04264364833161235
1772363439345085200,4.582085205078125,-0.06526712968051433,0.027332828083634374,-0.03577186286598444
1772363439355155200,4.5921552734375,-0.09339256944656371,0.04940495916008949,-0.014598872586339712
1772363439365224200,4.60222412109375,-0.08042612036764621,0.05365326425433158,0.01076031733676791
1772363439375294200,4.612294189453125,-0.07701368157565593,0.038863691401481625,0.020108868179470298
1772363439385363200,4.62236328125,-0.04370645525753498,0.027666005560755727,0.0024395021066069603
1772363439395433200,4.63243310546875,-0.015007014995813368,0.038111411729454994,-0.011531155578792094
1772363439405502200,4.642502197265625,-0.007805120792984962,0.07208148587048054,-0.011454144819825887
1772363439415572200,4.652572265625,-0.021516250759363174,0.05512742846012115,0.0053406303755939005
1772363439425641000,4.662640869140625,-0.04109831858575344,-0.027506431084871292,-0.0354347398661077
1772363439435711200,4.672711181640625,0.0033376199901103973,-0.0843307265907526,-0.09179740920960902
1772363439445780000,4.682780029296875,0.08146598480939865,-0.12104513100385665,-0.08669526376500725
1772363439455850200,4.692850341796875,0.15007950230836867,-0.10101122775673865,-0.05630567845925689
1772363439465919000,4.7029189453125,0.15343582699894903,-0.07268705054819584,-0.05463014646247029
1772363439475989000,4.712989013671875,0.12918868997097013,-0.022063363248109816,-0.018735241738706825
1772363439486058000,4.72305810546875,0.09889292042851447,0.007583586996793746,-0.022662352054566143
1772363439496128000,4.7331279296875,0.06386486166715621,0.004411386701464653,-0.07427081260830164
1772363439506197200,4.743197265625,0.04023614879846572,0.01843640492260456,-0.05720744960457086
1772363439516266000,4.753265869140625,0.06650923869609833,0.0185305129468441,-0.032006080591678615
1772363439526336300,4.763336181640625,0.11694997064471244,0.06571019727289676,-0.05876870757192373
1772363439536405000,4.773405029296875,0.12099193951189517,0.10426701468229294,-0.0386826357461512
1772363439546475300,4.783475341796875,0.06957388696372509,0.06908639570772647,-0.06140519355535507
1772363439556544000,4.7935439453125,-0.006022913551330566,0.02806464948952198,-0.07500599501505494
1772363439566614300,4.8036142578125,-0.01806289543509483,-0.025804303342103957,-0.0653060003861785
1772363439576683000,4.81368310546875,0.005205167427659034,-0.058609425356984136,-0.06033420332297682
1772363439586753000,4.8237529296875,0.05735328781604766,-0.06604045214056968,-0.05116583135277033
1772363439596822000,4.833822021484375,0.09707856448292732,-0.03990063323378563,-0.026682109089940786
1772363439606892000,4.84389208984375,0.11968085691332817,-0.04054945253133774,-0.012356646617501974
1772363439616961000,4.8539609375,0.08227145597338675,-0.03599836509823799,-0.014379238486289978
1772363439627031000,4.864031005859375,-0.04287468060851097,-0.022835516664385793,-0.04212473902404308
1772363439637100300,4.874100341796875,-0.12704115654826165,-0.01578501363098621,-0.026347616438567638
1772363439647170000,4.884170166015625,-0.1513029066234827,0.012730302235484122,0.0016435294233262537
1772363439657239300,4.8942392578125,-0.16263035632371903,0.021807342660427092,-0.002116992153972387
1772363439667309000,4.90430908203125,-0.13990648334026337,0.023201427367329597,-0.016180588819831608
1772363439677378000,4.9143779296875,-0.06086275724172592,0.0274058933198452,0.00819280493631959
1772363439687447800,4.92444775390625,0.057684127205610274,0.0275409178763628,0.03416968836635351
1772363439697516800,4.934516845703125,0.12320552390813827,-0.005728899040818214,0.013575374757498503
1772363439707586800,4.9445869140625,0.1310562374085188,-0.04397299723923206,-0.038122663775831456
1772363439717655800,4.95465576171875,0.11434300301671027,-0.05088555310666561,-0.052306379690021276
1772363439727724800,4.964724853515625,0.10651450134813785,-0.028070494708418846,-0.02255363098308444
1772363439737794800,4.974794921875,0.06158405725359916,-0.05870645599067211,-0.0235356277577579
1772363439747863800,4.98486376953125,0.022907412856817244,-0.06742752258479595,-0.046090281654149294
1772363439757933800,4.994933837890625,0.02984802577495575,-0.06967968542575836,-0.03232844441384077
1772363439768002800,5.0050029296875,0.05280687655806541,-0.08847206417918205,-0.03375438556373119
1772363439778072800,5.01507275390625,0.04011456824541092,-0.030938159099221228,-0.030766601924598215
1772363439788142000,5.02514208984375,0.032170915764570235,0.05419628508985042,0.0019885434687137602
1772363439798211800,5.0352119140625,0.022703414717316628,0.05918517941832542,-0.04558554700240493
1772363439808280800,5.04528076171875,-0.017719781085848808,-0.020843466064333915,-0.10367226365953683
1772363439818350800,5.055350830078125,-0.005306289714574814,-0.08045359289646148,-0.09261077141910791
1772363439828419800,5.065419921875,0.05989011281728744,-0.09585340660214424,-0.057340720595419406
1772363439838489900,5.07548974609375,0.06283961027264595,-0.06215221253037452,-0.03491363860145211
1772363439848558800,5.085558837890625,0.04050327530205249,-0.020583353823423384,0.024265695597976446
1772363439858628900,5.09562890625,0.013495441389083861,0.017630933758616445,0.07979732094481587
1772363439868697900,5.10569775390625,0.040405660146474835,0.07831424278020858,0.1080162842132151
1772363439878767900,5.115767822265625,0.0806137518942356,0.08922142124176025,0.1237418227419257
1772363439888836900,5.1258369140625,0.022646716094017028,0.03680149817466736,0.13389087631255386
1772363439898907000,5.135906982421875,-0.06317161870598792,-0.007170914542675018,0.17094781055301428
1772363439908975900,5.145975830078125,-0.10105798950791359,-0.03935819692015648,0.2047491039983928
1772363439919046000,5.1560458984375,-0.0664928720831871,-0.05475274992883205,0.22950360602661965
1772363439929115000,5.166114990234375,-0.027640871119499207,-0.06009644904434681,0.2134083574026823
1772363439939185000,5.176184814453125,-0.00902735606431961,-0.04363105193376541,0.2057319775559008
1772363439949254000,5.18625390625,-0.015530162087082862,0.008644494226574897,0.19876783763170242
1772363439959323000,5.196322998046875,-0.05338496870696544,0.06539689354002476,0.1895899671807885
1772363439969393000,5.206392822265625,-0.09442015892863273,0.08039864783883094,0.21330007472261786
1772363439979462000,5.2164619140625,-0.07556056015789508,0.06180500652790069,0.22434110869690774
1772363439989531600,5.22653173828125,-0.039377486142516134,0.012880524361133575,0.17262407320216297
1772363439999601000,5.236600830078125,-0.0011824877828359604,-0.03988309757709503,0.12248247033059596
1772363440009671000,5.2466708984375,0.040464112335443496,-0.05205401236414909,0.10476444281041622
1772363440019740000,5.256739990234375,0.05110591785907745,-0.010004092141985893,0.1295725747220218
1772363440029810000,5.266809814453125,0.031679332855343814,0.03010112375319004,0.13071312305927277
1772363440039879000,5.27687890625,0.02045534352958202,0.03879004164338112,0.08664397196918726
1772363440049949000,5.286948974609375,0.026826047605276106,0.03899813143610954,0.0551797431692481
1772363440060018000,5.297017822265625,0.039760347980260846,-0.019527122768759727,0.014941110152751206
1772363440070088000,5.307087890625,0.018104981011152266,0.04088613713979721,0.07342603234723209
1772363440080157000,5.317156982421875,-0.06433306370079517,0.03458148403763771,0.09980930462107061
1772363440090227000,5.32722705078125,-0.11701485257446766,0.07024374904930591,0.03690758889764547
1772363440100295700,5.337295654296875,0.06445113712251185,0.08525310213267803,-0.015072189186513422
1772363440110366000,5.347365966796875,0.13396890998482702,0.030540099692344665,-0.06495894051417708
1772363440120434700,5.3574345703125,0.04071604126989841,-0.033491350713372225,-0.08755597224757075
1772363440130505000,5.3675048828125,-0.08162263667583465,-0.11139584364891052,-0.08376286357492208
1772363440140574000,5.377573974609375,-0.030002924075722692,-0.1721212382465601,-0.11223112542927265
1772363440150643700,5.387643798828125,0.14836451508402823,-0.1623515393823385,-0.14892697127237914
1772363440160713000,5.397712890625,0.2580313429832458,-0.09717384155094623,-0.16292144822478294
1772363440170782700,5.40778271484375,0.15951017847657203,-0.06365794091820716,-0.22034458640664814
1772363440180852000,5.41785205078125,0.01917933224439621,-0.03172200295329094,-0.21705153621062634
1772363440190921700,5.427921630859375,-0.03879588686227798,0.00005085340440273285,-0.161361213170737
1772363440200991000,5.437990966796875,-0.024452304211258886,0.024829320830106735,-0.14141235785856843
1772363440211059700,5.448059814453125,0.03933598508834839,0.05613397515416145,-0.11685980814322829
1772363440221130000,5.4581298828125,0.12745733613371849,0.06991875487864017,-0.11571312232613563
1772363440231198700,5.46819873046875,0.17389058600664137,0.09033259735405444,-0.09894523513764142
1772363440241269000,5.47826904296875,0.14329203412532807,0.050994274178147316,-0.08155892378985881
1772363440251337700,5.488337646484375,0.10414075795412063,0.00011865794360637664,-0.053879474225640295
1772363440261407700,5.49840771484375,0.06483166087269783,-0.07799450930655003,-0.057308864152431485
1772363440271476700,5.508476806640625,0.020805472141504286,-0.10499006825983524,-0.04326207249090075
1772363440281546800,5.518546630859375,0.0005354220509529113,-0.08557751178145408,0.018833733677119015
1772363440291616000,5.528615966796875,0.02258651033937931,-0.019544658425450324,0.07345905783399939
1772363440301685800,5.538685791015625,-0.08230360467731952,0.007181435936689376,0.09493731467053293
1772363440311755000,5.548755126953125,-0.14451193130910395,0.006236848562955856,0.09630801850184798
1772363440321824800,5.55882470703125,-0.09336801952719688,0.013549801924824714,0.07371887781396508
1772363440331894000,5.56889404296875,-0.05753332055807113,-0.034572131687402724,0.05584419842734933
1772363440341963800,5.5789638671875,-0.04695113626718521,-0.052178515526652335,0.05106397841349244
1772363440352033000,5.589032958984375,-0.027380758878588676,-0.023518238231539725,0.08131912368461489
1772363440362102800,5.599102783203125,0.028219547790288922,-0.023966566520929336,0.09578794015049934
1772363440372171800,5.609171875,0.0412087932229042,-0.013844400957226752,0.09185045457109808
1772363440382242000,5.619241943359375,0.015486322945356368,0.0023158757269382477,0.07546367565467953
1772363440392310800,5.629310791015625,-0.023333529314398763,0.04937924019694328,0.0850922124825418
1772363440402381000,5.639381103515625,-0.021363106024265287,0.10511983211934565,0.11382497049197554
1772363440412449800,5.64944970703125,0.02412321838736534,0.12363573201894759,0.15130933636426924
1772363440422519800,5.659519775390625,0.037270869252085684,0.07007716031074523,0.10902195412442088
1772363440432588800,5.6695888671875,0.07511866160929202,-0.0016553659915924071,0.028325346252322196
1772363440442658800,5.679658935546875,0.10568506478667258,-0.040810149294137954,0.008900660944730044
1772363440452727800,5.689727783203125,0.12674421942830086,-0.05400339286625385,-0.0016185411125421523
1772363440462797800,5.6997978515625,0.06838321587443351,0.001387070444226265,0.008908990381658077
1772363440472866800,5.70986669921875,-0.03351297802329063,0.029087562796473503,-0.027880817355215547
1772363440482935800,5.719935791015625,-0.11684358766078948,0.06194704534709453,-0.06422419649884105
1772363440493005800,5.730005859375,-0.16705401798486708,0.019486790758371352,-0.06597454729750753
1772363440503074800,5.74007470703125,-0.1156447332650423,-0.03814882113039493,-0.07319193133041262
1772363440513145000,5.75014501953125,-0.0212099612891674,-0.09565642272531985,-0.06745382606983184
1772363440523213800,5.7602138671875,0.05024374807178974,-0.09772153856158255,-0.04577902374789118
1772363440533283800,5.770283935546875,0.05562427206635475,-0.0932499461054802,-0.04239332683235407
1772363440543352800,5.780352783203125,0.052902153626084324,-0.02824059057831764,-0.018530805207788943
1772363440553422800,5.7904228515625,0.07417115162611007,0.05648877994120121,0.02214534244313836
1772363440563491800,5.800491943359375,0.08120411900281906,0.06799450881779194,0.02394830021187663
1772363440573561900,5.810561767578125,0.06981061832904815,0.06401216118335723,0.0460714308232069
1772363440583630800,5.820630859375,0.025810148561000824,0.046727264383435246,0.07553732541278005
1772363440593700900,5.830700927734375,-0.03575520399212837,0.018501871374249457,0.06681377460062503
1772363440603769900,5.840769775390625,-0.06456044271588325,0.0026624972075223923,0.07171279868856072
1772363440613840000,5.85083984375,-0.037568975415825843,-0.009379238241910934,0.07296148357540369
1772363440623908900,5.860908935546875,0.033738603472709655,-0.008285013264417648,0.0444734941072762
1772363440633979000,5.870978759765625,0.07027063705623149,0.0065676879525184625,0.04121244648471475
1772363440644048000,5.8810478515625,0.06215513513982296,0.03410451417565345,0.049388446416705846
1772363440654118000,5.891117919921875,-0.007546177595853805,0.05601823982000351,0.026414690325409173
1772363440664187000,5.901186767578125,-0.06006722294986248,0.04473579830527305,0.014238953232765196
1772363440674257000,5.9112568359375,-0.04760638530552387,-0.00790624307990074,-0.028443273543566464
1772363440684326100,5.921326171875,0.04047580277323723,-0.03550152149200439,-0.05160159242153167
1772363440694396000,5.93139599609375,0.07792787381112574,-0.07096037288606166,-0.08879705834984779
1772363440704465200,5.941465087890625,0.06451075835525989,-0.0658136576473713,-0.09258227597698569
1772363440714535000,5.951534912109375,0.05926292082965374,-0.04676584282815456,-0.06304360841214657
1772363440724604200,5.961604248046875,0.0391436773866415,-0.0028986440509557723,-0.057172962813079355
1772363440734674200,5.971674072265625,-0.02363572713136673,0.07024374904930591,-0.025591683504730463
1772363440744743200,5.9817431640625,-0.056069677746295926,0.11923135958015918,0.02778159476444125
1772363440754813200,5.991813232421875,-0.06545709929466247,0.08947335017621516,0.005509995593130588
1772363440764882200,6.001882080078125,-0.05461772537231445,0.047160395103693006,-0.008498071493208408
1772363440774952200,6.0119521484375,0.0026712650358676907,0.04104045091867447,-0.01438581435754895
1772363440785021200,6.022021240234375,0.021634324181079863,0.033654432320594785,-0.05257072971463203
1772363440795090200,6.032090087890625,0.04450082050561904,0.02446399464905262,-0.06666106825694441
1772363440805160000,6.042159912109375,0.04338847534954548,-0.0016109423279762267,-0.051170069136470556
1772363440815229200,6.052229248046875,-0.008018471282720565,-0.053743280625343316,-0.054349868216365574
1772363440825299000,6.062298828125,-0.04632628236711025,-0.09596446576118468,-0.07114464341178536
1772363440835368200,6.0723681640625,-0.008521744629740714,-0.0926788682192564,-0.06459229915887117
1772363440845438000,6.08243798828125,0.05308393993377685,-0.09495090480446815,-0.05606865483298897
1772363440855507200,6.092507080078125,0.0705751729607582,-0.08777356052100659,-0.05640957722514867
1772363440865577200,6.1025771484375,0.008562661162018776,-0.051500470134615894,-0.06184869953915476
1772363440875646200,6.112646240234375,0.01911386579275131,0.05017477448880672,0.008023878110200167
1772363440885716200,6.12271630859375,0.05081950213313102,0.09741115743815898,0.07134732637703418
1772363440895785200,6.13278515625,0.04254617930650711,0.08080898220539093,0.04619418042004108
1772363440905855200,6.142855224609375,0.025797873601317405,0.10435293940007687,0.060745414472371334
1772363440915924000,6.152924072265625,0.03134732442200184,0.12396423332095145,0.09622004795745015
1772363440925994200,6.162994140625,0.03344166635274887,0.06683306382298469,0.07266060093268752
1772363440936063000,6.17306298828125,0.037411154505610465,0.017474866414070128,0.06726356419473886
1772363440946133200,6.18313330078125,0.05824176108837127,-0.02643207985162735,0.05322247162163257
1772363440956202000,6.193201904296875,0.08137538391649722,-0.04743219778239727,0.050557051804661746
1772363440966272000,6.20327197265625,0.06571370440423488,-0.053395490100979805,0.04651259871944785
1772363440976341000,6.213341064453125,0.04217325434088707,-0.029662147814035415,0.046523704635351895
1772363440986411000,6.223410888671875,0.05595218884646892,-0.004188099339604377,0.07184416998326779
1772363440996480300,6.233480224609375,0.05521978291869163,-0.044561026260256764,0.05201587231084704
1772363441006550000,6.243550048828125,0.009443535649776458,-0.0696557200282812,0.034893910987675185
1772363441016619300,6.253619384765625,-0.011813771912455558,-0.0550514406144619,0.025522563791275023
1772363441026689000,6.26368896484375,-0.011359013882279395,-0.008026654589176178,0.023824235440790653
1772363441036758300,6.27375830078125,-0.05115384865403175,0.0398451036542654,0.0024319033220410345
1772363441046828000,6.283828125,-0.06646072337925434,0.10015198057889937,0.02285188327729702
1772363441056897300,6.293897216796875,-0.04445756588578224,0.1603390305161476,0.069476125677675
1772363441066967000,6.303967041015625,-0.021080197429656982,0.12782850753366948,0.06063391692191362
1772363441077036000,6.3140361328125,-0.03453121515512466,0.02086860050559044,0.020311551144719123
1772363441087106300,6.324106201171875,-0.025810148561000824,-0.02527472651004791,0.006212883165478706
1772363441097175000,6.334175048828125,0.019436521875858304,-0.011289455777406691,0.007279927875101566
1772363441107244000,6.344244140625,0.0353401934504509,0.008002689191699027,0.009117518565803766
1772363441117314000,6.35431396484375,0.016340309426188467,0.03246200766563415,0.027315000165998936
1772363441127383000,6.364383056640625,-0.001952303111553192,0.05967500876188278,0.027126053465157746
1772363441137453000,6.374453125,-0.006529109507799148,0.02881926724910736,0.03231426975801587
1772363441147522300,6.384522216796875,-0.03807692493796348,-0.012194295662641524,0.024412264461815356
1772363441157592000,6.394592041015625,-0.033493104279041286,-0.01944061352908611,0.026974370034784076
1772363441167661300,6.404661376953125,-0.03607727555334568,-0.012647884649038314,0.003214139740914106
1772363441177731000,6.41473095703125,-0.057168578898906704,0.022895137897133825,-0.03532733396887779
1772363441187800000,6.424800048828125,-0.007486556363105774,0.07037760456204414,-0.01826703970506787
1772363441197870000,6.4348701171875,0.02377601238489151,0.05716740985512733,-0.007324936060607433
1772363441207939000,6.44493896484375,0.045543607556819916,0.016279519149661064,0.012148118433356284
1772363441218009000,6.455009033203125,0.10878653793334961,0.004632920497655868,0.033264117828756566
1772363441228078000,6.465078125,0.17271569700837133,-0.013835048606991767,0.051678310919553036
1772363441238148000,6.475148193359375,0.2088847424983978,-0.026014731222391126,0.08509484283104539
1772363441248217000,6.485217041015625,0.15231646758019923,-0.027613398590683937,0.0700363899089396
1772363441258287000,6.495287109375,0.09145487938225269,-0.01113923365175724,0.04596870110109448
1772363441268356000,6.505356201171875,0.044482115805149075,0.03750643157362938,0.08154927917867899
1772363441278426000,6.515426025390625,0.0036433249384164807,0.035812487137317654,0.08130114963650703
1772363441288495000,6.5254951171875,-0.019552841731905937,0.037703415450453755,0.10647943003475666
1772363441298565000,6.535565185546875,-0.053232408493757245,0.03541910390555859,0.1275736559897661
1772363441308634000,6.545634033203125,-0.08100421251654624,-0.0012310030996799469,0.08797112891972064
1772363441318704000,6.5557041015625,-0.07760580224990844,0.002836100208759308,0.05153451853469014
1772363441328773000,6.565773193359375,-0.033712884509563446,0.02458031450510025,0.02325754146873951
1772363441338843100,6.575843017578125,0.020119243443012236,0.030662849289178847,-0.04044891476631164
1772363441348912000,6.585912109375,0.04191957184076309,0.05566752668619156,-0.06407075950279832
1772363441358982100,6.595982177734375,0.008805237746238708,0.05095511121153831,-0.08490779582634568
1772363441369051100,6.606051025390625,-0.02886719804406166,0.015626608198881148,-0.14261881103888152
1772363441379121200,6.61612109375,-0.024265841728448867,-0.014993570992350578,-0.16822043141573667
1772363441389190100,6.626190185546875,0.021096564042568204,-0.027032968354225157,-0.17215952443033455
1772363441399260200,6.63626025390625,0.023536358410120008,-0.03246609931886196,-0.17832637649700045
1772363441409329200,6.6463291015625,-0.03147007401883602,-0.03658054890036583,-0.17941051847189665
1772363441419399000,6.65639892578125,-0.07158405774235725,-0.0339022696018219,-0.15807225462794303
1772363441429468200,6.66646826171875,-0.06361819342970848,-0.005116320100426674,-0.1333104460760951
1772363441439538000,6.676537841796875,-0.061219315594434734,0.030559973436594008,-0.10739859070628881
1772363441449607200,6.686607177734375,-0.08758300638496876,0.024627076256275176,-0.11235650537461042
1772363441459677200,6.69667724609375,-0.10395195738375186,0.010202245062589644,-0.12804536515474318
1772363441469746200,6.70674609375,-0.07062251923382282,-0.0034352351456880567,-0.11667334566041826
1772363441479816200,6.716816162109375,-0.019230770170688628,0.031685178074240684,-0.09095145990476011
1772363441489885200,6.72688525390625,-0.0024117373168468475,0.04582476258575916,-0.08641483938843011
1772363441499955200,6.736955078125,0.013341127610206603,0.008897592204809188,-0.061384443028271195
1772363441510024200,6.747024169921875,0.01777764875292778,-0.035761049211025235,-0.05954392972812056
1772363441520094200,6.75709423828125,0.020489245799183844,-0.04587912312150001,-0.027209932356327772
1772363441530163000,6.767162841796875,0.026415713238716124,-0.038971827951073644,-0.024500965658575295
1772363441540232200,6.777232177734375,0.050666357398033136,-0.033329438149929044,-0.03200067376419902
1772363441550302000,6.787302001953125,0.08869768962860107,-0.017968202888965605,-0.01906140495315194
1772363441560371200,6.79737109375,0.11801964570283889,0.020108722048997878,0.0025767186202108857
1772363441570441000,6.80744091796875,0.12358020243942737,0.017961773148179053,-0.008903437423706055
1772363441580510200,6.81751025390625,0.10873334644138813,-0.01485094765126705,-0.05472147800773382
1772363441590580200,6.827580322265625,0.11213409479558467,0.004662146592140198,-0.04740501751452684
1772363441600649200,6.837649169921875,0.1137801084369421,0.04793488660752773,0.021355653370171784
1772363441610719200,6.84771923828125,0.07867723087370396,0.03536591241359711,0.05187763288393616
1772363441620788200,6.857788330078125,0.02875263175368309,0.013962474378943442,0.058480684410780664
1772363441630858200,6.867858154296875,0.02459843468368053,0.014193360525369644,0.09159969468042253
1772363441640927000,6.877927001953125,0.05184709161520004,0.010964461606740951,0.13010215155407787
1772363441650997200,6.887997314453125,0.05337327826917171,0.017381342911720273,0.1661615991897881
1772363441661066000,6.89806591796875,0.05875263321995735,0.02881225298643112,0.2062983792670071
1772363441671136300,6.90813623046875,0.03137596599459648,0.017875848430395126,0.21485826395004987
1772363441681205200,6.918205322265625,0.02116904475688934,0.013946107766032218,0.24822131210863588
1772363441691275000,6.92827490234375,-0.030468203499913214,0.006643091276288032,0.23816315169185398
1772363441701344300,6.93834423828125,-0.06882102276980877,0.0019961422532796856,0.21630378658324478
1772363441711414300,6.948414306640625,-0.07952069596052169,-0.015126841983199118,0.18961510162204503
1772363441721483300,6.958483154296875,-0.09450082294940948,0.018072247785329818,0.18529519259631633
1772363441731553300,6.96855322265625,-0.11373276216387748,0.0632335780262947,0.19351269358247516
1772363441741622300,6.978622314453125,-0.15177110865712165,0.09817103589475154,0.1682975883051753
1772363441751692300,6.9886923828125,-0.11485738227963446,0.07317863345742225,0.15108867935091255
1772363441761761300,6.99876123046875,-0.05378185907006264,0.002616319978237152,0.1006321653112769
1772363441771831300,7.008831298828125,0.021586393386125564,-0.0361111778229475,0.034790158352255816
1772363441781900300,7.018900390625,0.126973352009058,-0.04718728311061859,-0.00007847206369042396
1772363441791970300,7.02897021484375,0.18046353465616702,-0.030110476103425023,-0.03601794658154249
1772363441802039000,7.0390390625,0.1411415780931711,-0.028554478833079336,-0.08127338484674691
1772363441812109300,7.049109375,0.11278525218069553,0.0003179799079895019,-0.10108458525389433
1772363441822178000,7.059177978515625,0.09976970326304435,-0.005617839881777763,-0.12179945650249718
1772363441832248300,7.069248291015625,0.11472294224500655,-0.007235211950540542,-0.12412161583974957
1772363441842317300,7.0793173828125,0.13064824112951753,-0.005027472773194313,-0.13416267899125814
1772363441852387000,7.089386962890625,0.12620704381167888,-0.021411621341109275,-0.15694076637998222
1772363441862456300,7.099456298828125,0.11768880631327629,-0.01831131723821163,-0.15469167227894068
1772363441872526000,7.109526123046875,0.04633621923923492,0.004045475998520851,-0.16657865555807946
1772363441882595300,7.11959521484375,-0.038624037426710126,-0.008456862699985504,-0.22486586322337387
1772363441892665000,7.1296650390625,-0.06818214034438133,0.0015478139638900755,-0.22628858950287103
1772363441902734300,7.139734375,-0.06759761845469474,-0.0007376666247844696,-0.199183578825742
1772363441912804000,7.14980419921875,-0.03648118017911911,-0.0019651625931262967,-0.18353914270922542
1772363441922873300,7.159873291015625,0.02494797877371311,-0.010457681128382683,-0.1545879196435213
1772363441932943400,7.169943359375,0.05461655632853508,-0.005486322456598282,-0.11063947232365608
1772363441943012400,7.180012451171875,0.04058920001983642,-0.014366379004716873,-0.07899579530358314
1772363441953082400,7.190082275390625,-0.0006394669473171234,-0.0038648587346076964,-0.05668371799141168
1772363441963151000,7.200151123046875,-0.07200783611238003,-0.00904606076478958,-0.05238879727646708
1772363441973221400,7.210221435546875,-0.05805354503989219,-0.000893149447441101,-0.015117781893908977
1772363441983290000,7.2202900390625,0.017203648257255552,0.027863573959469794,0.058587944177538154
1772363441993360400,7.2303603515625,0.03974222780168056,0.004939794489741325,0.08638517490252852
1772363442003429000,7.24042919921875,-0.012012509354948997,-0.006450199052691459,0.09707491122111678
1772363442013499100,7.2504990234375,-0.05623743552863598,-0.014053075271844863,0.10581906642988323
1772363442023568100,7.260568115234375,-0.07098959898054599,-0.00920037454366684,0.08740604238286614
1772363442033638100,7.27063818359375,-0.03790858263373375,0.027185528567433354,0.07564750778898596
1772363442043707100,7.28070703125,0.014602525848150253,0.04138239622414112,0.060992374970763916
1772363442053777200,7.290777099609375,0.009864391410350799,0.031605683097243306,0.06777502084821463
1772363442063846400,7.300846435546875,0.02420212884247303,0.013420038065314293,0.07761793107911943
1772363442073916200,7.310916259765625,0.038109658163785934,-0.008192074283957481,0.05440525166541338
1772363442083985400,7.3209853515625,0.08873919068276882,0.007473112359642982,0.06301029066443443
1772363442094055200,7.33105517578125,0.13395663502514363,0.011889759758114814,0.05543401019126176
1772363442104124400,7.34112451171875,0.13744681522846222,0.030906010395288466,0.034328970581293104
1772363442114194200,7.351194091796875,0.07898118225634097,0.010430208599567413,0.014057897577434777
1772363442124263200,7.36126318359375,0.021012392890453337,0.008290858483314513,0.03356748468950391
1772363442134333200,7.371333251953125,-0.0068622869849205015,0.014939210456609725,0.057466977323591704
1772363442144402200,7.381402099609375,-0.04082183973193168,0.04632102167010307,0.058899640475213524
1772363442154472400,7.391472412109375,-0.08941314442157745,0.05964169101417064,0.07406944481730461
1772363442164541200,7.401541259765625,-0.11370879676640033,0.02075169612765312,0.06016366906166076
1772363442174611500,7.411611572265625,-0.12045242580771445,-0.000009936872124671935,0.05787453521117568
1772363442184680200,7.42168017578125,-0.10587211179137229,-0.014271686458587646,0.05017930453345179
1772363442194750200,7.431750244140625,-0.07632394574582577,-0.00985036288499832,0.03481777701154351
1772363442204819200,7.441819091796875,-0.013417699977755547,0.01961363200843334,0.056643970502913
1772363442214889200,7.45188916015625,0.018742109870910642,0.022532734325528145,0.020631576879322527
1772363442224958200,7.461958251953125,-0.03052022594809532,-0.012065700846910476,-0.035614480347186325
1772363442235028200,7.4720283203125,-0.04590542660653591,-0.03662438804209232,-0.04002294443920255
1772363442245097200,7.48209716796875,0.022138766571879385,-0.05092003989815712,-0.05009484112039208
1772363442255167200,7.492167236328125,0.06948679320216178,-0.03335106545984745,-0.0646823155298829
1772363442265236200,7.502236328125,0.06623802053928375,-0.030060207220911978,-0.07550546896979213
1772363442275306200,7.51230615234375,0.06192892516851425,-0.0174848032861948,-0.05102101605460047
1772363442285376300,7.522376220703125,0.09883154563009738,0.02584112822115421,-0.03625730829536915
1772363442295445200,7.5324453125,0.11975976736843585,0.08673837225437164,-0.03895633812099695
1772363442305514200,7.54251416015625,0.130602648422122,0.10800094051361084,-0.06808861684203148
1772363442315584300,7.552584228515625,0.12203355751931666,0.09036942223310471,-0.10069090976119041
1772363442325654300,7.562654296875,0.11121171925365925,0.07414660170674324,-0.10796133915558456
1772363442335723300,7.57272314453125,0.0870534295529127,0.028443419674038885,-0.12623247051388026
1772363442345793300,7.582793212890625,0.028754969841241835,-0.06726911715269088,-0.15675401163622735
1772363442355862000,7.592862060546875,-0.008950783696770668,-0.11627367881834506,-0.1098126661106944
1772363442365932300,7.602932373046875,-0.008839724537730216,-0.15153262372612952,-0.10174757920727133
1772363442376001000,7.6130009765625,-0.037084406769275664,-0.14728256506621837,-0.10985782042667269
1772363442386071300,7.6230712890625,-0.08363456102013588,-0.09101414987742901,-0.08304784717336297
1772363442396140300,7.633140380859375,-0.1022854854762554,-0.015928806015849114,-0.037843408443033695
1772363442406210300,7.643210205078125,-0.1025999582529068,0.04520400033891201,0.03397007414102554
1772363442416279300,7.653279296875,-0.09452420382499695,0.07986205674409866,0.060733870165050025
1772363442426349000,7.66334912109375,-0.05909633209109306,0.11829787812232971,0.08338935408741235
1772363442436418300,7.673418212890625,-0.03390811482071876,0.14290508063435553,0.09014248160943389
1772363442446488000,7.683488037109375,-0.03963409125208855,0.11019815829694271,0.05650397751033306
1772363442456557300,7.693557373046875,-0.041322774991393085,0.05558627814352512,0.0482499439060688
1772363442466627000,7.703626953125,-0.02201134079992771,-0.015995441511273384,0.03739887954592704
1772363442476696300,7.7136962890625,0.003157587248086929,-0.05689210004508495,0.04920446815192699
1772363442486766300,7.723766357421875,0.02565992643535137,-0.06659574793577194,0.06420329984128474
1772363442496835300,7.73383544921875,0.03013151889145374,-0.042999183771014214,0.07950959004461765
1772363442506905300,7.7439052734375,0.05781213749945163,-0.0129927525639534,0.09195932177305222
1772363442516974300,7.753974365234375,0.05133154330849647,0.0070423197269439694,0.07822758741006254
1772363442527044400,7.76404443359375,0.04881926822662353,0.029501404294371602,0.0744178198635578
1772363442537113000,7.774113037109375,0.059493806976079935,0.040056116056442256,0.04660933709219098
1772363442547183400,7.784183349609375,0.08919570227861404,0.029547581523656843,0.023756723162531853
1772363442557252000,7.794252197265625,0.11063654971420764,-0.010382277804613113,0.04390738465711474
1772363442567322400,7.804322265625,0.11508476129472255,-0.03199146754443645,0.07465718157738446
1772363442577391000,7.81439111328125,0.12278934432268142,-0.011288871255517006,0.015236001446098088
1772363442587461000,7.824461181640625,0.11489245359301567,0.06300795257687568,-0.1275154960617423
1772363442597530000,7.834530029296875,-0.02758534153997898,-0.17150339860916136,-0.10465645239129662
1772363442607600000,7.84460009765625,-0.21714579036533832,-0.1091916116029024,0.008755114994198083
1772363442617669400,7.85466943359375,-0.1610679293125868,-0.021926585125923156,-0.06168415662720799
1772363442627739100,7.8647392578125,0.041403439012169835,-0.018413608568906784,-0.16623174181655048
1772363442637808400,7.874808349609375,0.12079612467885016,0.03617489070892334,-0.21047055038511753
1772363442647878100,7.884878173828125,-0.09091595019996165,-0.04492284530997276,-0.114430242908746
1772363442657947400,7.894947509765625,0.00798515353500843,0.009158288967609405,0.1721579169951379
1772363442668017200,7.90501708984375,0.12926876946985721,-0.020745850908756254,0.20987419192716478
1772363442678086400,7.91508642578125,0.1094014549612999,0.01655190635025501,0.03684928283914923
1772363442688159700,7.92515966796875,0.11865209838747978,0.1588438235223293,-0.011904957327246665
1772363442698228500,7.935228515625,-0.035649405530095095,0.026340309914946555,-0.0015855156257748603
1772363442708298800,7.945298828125,-0.1806120032161474,-0.026331542086601257,0.09540376313850284
1772363442718367500,7.955367431640625,-0.1883382135540247,-0.09756547121703624,0.03900602248162031
1772363442728437800,7.965437744140625,0.08418342707455158,-0.042322891944646834,0.009498042315989733
1772363442738506500,7.975506591796875,0.21578210079669952,-0.03242576730847359,0.014488397949188946
1772363442748575700,7.98557568359375,0.21836334946155547,-0.03401391328275204,0.012708090403676032
1772363442758645500,7.9956455078125,0.1176052196830511,0.021838322320580483,0.021646306879818437
1772363442768714800,8.00571484375,-0.04638765716552734,0.02868541173636913,0.014397504795342683
1772363442778784500,8.015784423828125,-0.11971651274859904,0.03534896127879619,-0.007746230212599039
1772363442788853800,8.025853759765624,-0.050722471499443054,0.028532267001271247,-0.02962108515128493
1772363442798923500,8.035923583984374,0.03914250834286213,0.03969663509428501,-0.03734159640073776
1772363442808992500,8.045992431640625,0.04809153847396373,-0.00987783541381359,-0.019242898999899626
1772363442819062800,8.056062744140625,0.10363923817276954,-0.03833119195997715,-0.030178865164518353
1772363442829131500,8.066131591796875,0.1981061588525772,-0.014093991804122925,-0.018513415681570767
1772363442839201800,8.076201904296875,0.19871230805218218,0.01514203955233097,-0.0090299864128232
1772363442849270500,8.0862705078125,0.06635258682966232,-0.0130406833589077,-0.03649769292250275
1772363442859340500,8.096340576171874,-0.08409691783487797,-0.025421441504359245,-0.03510726147741079
1772363442869409500,8.106409423828126,-0.130641811388731,-0.008489011403918266,-0.020743074429780243
1772363442879479600,8.1164794921875,-0.09186638279259204,0.0218722245901823,0.021634178050607442
1772363442889548500,8.126548583984375,-0.054575639796257014,0.039132571470737454,0.062474722483009094
1772363442899618600,8.13661865234375,-0.043945524710416795,0.08745616513490677,0.11630202812999486
1772363442909687600,8.1466875,-0.010059621721506118,0.10908172148764132,0.10999211433082819
1772363442919757600,8.156757568359374,-0.013681319350004195,0.07317103467285632,0.03853168296813965
1772363442929826600,8.16682666015625,-0.022549685460329056,0.012572481325268744,-0.0013628127858042716
1772363442939896600,8.176896484375,-0.02075344969332218,-0.065765726852417,-0.012667173871397971
1772363442949965800,8.1869658203125,-0.016588731229305265,-0.08909341094791888,0.024967121865600347
1772363442960035600,8.19703564453125,0.006648936495184898,-0.08039455618560314,0.05307312627881765
1772363442970104600,8.2071044921875,0.0393178649097681,-0.0629810645699501,0.042062925834208724
1772363442980174600,8.217174560546875,0.07857610858678818,-0.05146306073367595,0.018190175076574087
1772363442990243600,8.22724365234375,0.09028525108098984,-0.05278232663869858,-0.010170242489129304
1772363443000313600,8.237313720703124,0.08767945249676704,-0.05766717607080936,-0.05306172810196876
1772363443010382600,8.247382568359376,0.04949380648732185,-0.01205810206234455,-0.07976780258938669
1772363443020452600,8.25745263671875,0.029676760861277577,0.037137598261237144,-0.06265358618125319
1772363443030521600,8.267521484375,0.03552899402081966,0.07689619267582892,-0.021446108132600783
1772363443040591600,8.277591552734375,0.0527507624566555,0.09138824388682841,-0.027344080130010842
1772363443050661600,8.28766162109375,0.07678221090734004,0.10218027153611182,-0.017636778977513312
1772363443060730600,8.297730712890624,0.07449965292811393,0.11768822179138659,0.02563859138637781
1772363443070800600,8.307800537109374,0.029812369939684866,0.11304536442160605,0.047062341556698084
1772363443080869600,8.31786962890625,-0.03695815004110336,0.06361994699537754,0.044130233627557754
1772363443090939600,8.327939697265625,-0.101392920550704,0.00952536871433258,0.020199761333316562
1772363443101008600,8.338008544921875,-0.08704992242157458,-0.02956219457089901,0.02569017544314265
1772363443111078400,8.348078369140625,-0.039732290929555894,-0.05416705899536609,0.017028730081766842
1772363443121147600,8.358147705078125,-0.02571662505865097,-0.03362403718233108,0.03624927111938596
1772363443131217700,8.3682177734375,-0.004766191488504409,0.02767301982343197,0.06523308128044009
1772363443141286700,8.37828662109375,-0.018557400953769683,0.045191140857338906,0.06996200949847697
1772363443151356700,8.388356689453126,-0.07409399473667144,0.010599719947576523,0.027338381041586396
1772363443161425700,8.39842578125,-0.10866145024895667,0.00258241770863533,-0.0007851590283215045
1772363443171495700,8.40849560546875,-0.08760989439189433,-0.025881460231542586,0.004411532831937074
1772363443181564700,8.418564697265625,-0.07362754626870155,-0.026935353198647496,-0.003527297343313694
1772363443191634700,8.428634765625,-0.07673895628750324,-0.02664601486325264,-0.015370441480726003
1772363443201703400,8.438703369140624,-0.01447276198863983,-0.0015887304961681365,0.00017126491367816925
1772363443211773700,8.448773681640626,0.08755845646560191,0.03266542128324509,0.04429609171375632
1772363443221842400,8.458842529296875,0.14548048408031464,0.056634910413622855,0.049793227825313806
1772363443231912700,8.46891259765625,0.1475683962702751,0.008151742273569107,-0.016514058557897806
1772363443241981400,8.4789814453125,0.11625672768354416,-0.0007487725406885147,-0.04367372203171253
1772363443252051700,8.4890517578125,0.09840893630385399,-0.011911387068033217,-0.046171530196815726
1772363443262120700,8.49912060546875,0.10924188048541546,-0.0006190086811780929,-0.02617123695835471
1772363443272190500,8.5091904296875,0.09183072695732117,-0.017456746235489845,-0.028089930061250924
1772363443282259700,8.519259765625,0.05958966856598854,-0.025281156250834463,-0.03316109584569931
1772363443292329500,8.52932958984375,0.0434223776191473,-0.06346738678216934,-0.052197512488067144
1772363443302398700,8.539398681640625,0.050855157968401905,-0.08786474593579768,-0.07724135285168886
1772363443312468500,8.549468505859375,0.026819033342599868,-0.04287526513040066,-0.05288754057884216
1772363443322537700,8.559537841796875,-0.0240858089864254,0.006003039807081222,-0.08584127728417515
1772363443332607500,8.569607421875,-0.08185527638792992,0.04323357704877853,-0.1047555288515985
1772363443342678500,8.579678466796874,-0.018871873730421065,0.03669686875641346,-0.05213160764500498
1772363443352747800,8.589747802734376,0.04017009782493114,0.022165070056915284,-0.06959113035947084
1772363443362817500,8.599817626953126,0.09492401679754256,0.04822597850859165,-0.03180997349768877
1772363443372886800,8.60988671875,0.12323650356829166,0.047963528180122374,0.020645605404675006
1772363443382956500,8.61995654296875,0.08919453323483467,0.035353052932024,0.02535816700980067
1772363443393025500,8.630025634765625,0.07855272771120071,0.02844634228348732,0.03404182420298457
1772363443403095800,8.640095703125,0.0850929431349039,-0.0025818331867456436,0.017056787132471798
1772363443413164500,8.65016455078125,0.03880991538763046,-0.023376199412345883,-0.0060294894225895405
1772363443423234800,8.66023486328125,-0.0040092356413602825,-0.045808980494737625,0.025073797110468147
1772363443433303600,8.670303466796875,-0.04801087445318698,-0.04157295036017895,0.07459419934377073
1772363443443373600,8.68037353515625,-0.07311258248388766,-0.027154548907279967,0.09572072013318537
1772363443453443600,8.690443603515625,-0.05347790768742561,-0.002980477115511894,0.10026640073880552
1772363443463512600,8.7005126953125,-0.013894085317850111,0.03296995718777179,0.08485022042021155
1772363443473582600,8.71058251953125,0.016718495088815687,0.06359948872923851,0.06769260326176882
1772363443483651600,8.720651611328124,0.025180033963918685,0.06918225729763508,0.0689022713124752
1772363443493721600,8.7307216796875,-0.006371288597583771,0.04090016566514969,0.043884734433889384
1772363443503790600,8.74079052734375,-0.00797989283800125,0.007383680510520935,0.015003653994947672
1772363443513860600,8.750860595703125,0.028175124126672745,-0.012706336838006973,-0.03460632621794939
1772363443523929600,8.7609296875,0.07698737809062003,-0.0023690672188997268,-0.026398615973442792
1772363443533999600,8.77099951171875,0.07954056970477104,-0.038057051193714136,-0.02571574827581644
1772363443544068600,8.781068603515624,0.05977145487368107,-0.040807811206579205,-0.02352846736460924
1772363443554138600,8.791138671875,0.045912440869212146,-0.03035772886276245,-0.020917846474796532
1772363443564207600,8.80120751953125,0.029154782813787458,-0.0368517670571804,-0.015250468362867831
1772363443574277600,8.811277587890626,0.005001753810048103,0.0031067338436841963,-0.017228928828984497
1772363443584346600,8.8213466796875,-0.009424830949306488,0.03334112858772278,0.009952654215693474
1772363443594416600,8.831416748046875,-0.05683715498745441,0.0505418542355299,0.06270546249896287
1772363443604485600,8.841485595703125,-0.10370645819008349,0.0674596712887287,0.08116495603621006
1772363443614555600,8.8515556640625,-0.08926993655860424,0.09578443301916122,0.08429331718981266
1772363443624624600,8.861624755859374,-0.06642448302209376,0.06343932973146438,0.033672698629647495
1772363443634694700,8.871694580078126,-0.04541267465353012,0.027553777357935905,0.012015139703452587
1772363443644763600,8.881763671875,-0.01305588092803955,-0.019592004698514937,-0.011917524547874927
1772363443654833700,8.891833740234375,0.040917116799950595,-0.06297697291672229,-0.03660919047296047
1772363443664902700,8.901902587890625,0.05785656116306782,-0.08076397401988505,-0.05102013927176594
1772363443674972400,8.911972412109375,0.07111877831816672,-0.06835106717050075,-0.050467181564122436
1772363443685037800,8.922037841796875,0.08174071009755134,-0.09024901072382926,-0.09551394551470875
1772363443695107800,8.93210791015625,0.09745499657988548,-0.06004968729317188,-0.07594239908233284
1772363443705176800,8.9421767578125,0.11241291173696517,-0.013132453295588492,-0.026089842285215853
1772363443715246800,8.952246826171875,0.10467676452696323,-0.00807926155924797,-0.05088599149808287
1772363443725315800,8.96231591796875,0.08268822008073329,-0.04060264402329922,-0.09149053521752357
1772363443735385900,8.9723857421875,0.08462123396992682,-0.019873159727454185,-0.08732990840673446
1772363443745454800,8.982454833984375,0.11067629720270633,0.02447393152117729,-0.002811988680809736
1772363443755524900,8.99252490234375,0.09437573526501655,0.03885317000746727,0.03683277009576559
1772363443765594000,9.002593994140625,0.01599251890182495,0.04215162703096866,0.05594985075891017
1772363443775663900,9.012663818359375,-0.05013035082519054,0.025032149925827977,0.05343406854569912
1772363443785734000,9.02273388671875,-0.019931027394533157,0.024739888980984687,0.06663739512041211
1772363443795803000,9.032802978515624,-0.013232991060614586,0.009039631024003028,0.03591930851265788
1772363443805873000,9.042872802734376,-0.02029284644424915,-0.015603811845183372,0.036470074263215066
1772363443815942000,9.05294189453125,0.02313070021867752,-0.011515081226825713,0.05925809852406382
1772363443826012000,9.063011962890625,0.02855506335496902,0.012141104170680045,0.0657043520539999
1772363443836081000,9.073080810546875,-0.020281740528345107,0.0180120420306921,0.04777078208699822
1772363443846151000,9.08315087890625,-0.047864159458875656,0.06026420682668686,0.05670490690991282
1772363443856220000,9.093219970703124,-0.07561842782497405,0.06680909842550754,0.03977203841805458
1772363443866290000,9.1032900390625,-0.10391688607037067,0.046125206837058064,-0.0021447569437325
1772363443876359000,9.11335888671875,-0.11892039393484592,0.029665654945373533,-0.041584494667500256
1772363443886429000,9.123428955078126,-0.0735994892179966,0.04236322395503521,-0.05043634803444147
1772363443896498000,9.133497802734375,-0.03162380327582359,0.025320319217443463,-0.04947159465551376
1772363443906568000,9.14356787109375,0.005498012894392014,0.0022241057902574538,-0.02693272285014391
1772363443916637000,9.153636962890625,0.04137362839579582,0.04379939423799514,0.029703064346313476
1772363443926706700,9.163706787109374,0.0753729286313057,0.03645779930353164,0.03364011153429747
1772363443936776000,9.17377587890625,0.04535714507400989,-0.016366028389334677,-0.03243672709390521
1772363443946846000,9.183845947265626,0.03240238643288612,-0.044670331853628155,-0.05711290318891406
1772363443956915000,9.1939150390625,0.05500292529761791,-0.027464930030703542,-0.012756459590047597
1772363443966985000,9.20398486328125,0.056658875811100004,-0.012423428243398666,0.056945145406574006
1772363443977054000,9.214053955078125,0.037546179062128066,-0.006724339818954468,0.05943360122144222
1772363443987124000,9.2241240234375,0.030817163068056104,-0.013314824125170707,0.03752060622945428
1772363443997193000,9.23419287109375,0.029229017093777655,-0.04351940825283527,0.020051731164753436
1772363444007263000,9.244262939453124,0.08974807546436786,-0.07564648487567902,0.004514262554049492
1772363444017331700,9.254331787109376,0.07067103455066681,-0.07109364387691021,-0.0011880407407879828
1772363444027402000,9.264402099609375,-0.0048655602097511285,-0.03400046927928924,0.004801408932358026
1772363444037470700,9.274470703125,-0.023667291313409805,0.04797931027114391,0.019717676904797553
1772363444047541000,9.284541015625,-0.04757306755781173,0.058090369918942446,-0.01573240666091442
1772363444057609700,9.294609619140624,-0.04614741866886615,0.03741758424639702,-0.04574322178214788
1772363444067680000,9.304679931640624,0.019034370815753935,0.0325514395147562,-0.05812441831901669
1772363444077750000,9.31475,0.05472177026867866,0.03182663237154484,-0.036880262499302624
1772363444087818800,9.32481884765625,0.088304306396842,0.06524608689248561,0.0031203239776194094
1772363444097889000,9.334888916015625,0.10824527066349983,0.07134498828947544,0.018358517380803824
1772363444107957800,9.344957763671875,0.06697334907650947,0.03340484147369861,-0.029371932695806024
1772363444118028000,9.355028076171875,0.00673076955974102,-0.012352116572856902,-0.03182955498099327
1772363444128096800,9.3650966796875,0.004075871136784553,-0.032628011882305144,-0.006237871476262808
1772363444138166800,9.375166748046874,0.018815759629011154,-0.04471124838590622,0.023079116161912678
1772363444148235800,9.38523583984375,-0.05432429538369178,-0.06194236917197704,0.024508856704086063
1772363444158305800,9.395305908203126,-0.11879647529423236,-0.04020400009453296,0.05922098138406873
1772363444168375000,9.405375,-0.12057809801399708,-0.02634966226518154,0.07238587564453482
1772363444178444800,9.41544482421875,-0.05853636012077331,-0.007286065354943275,0.08004618113934993
1772363444188514000,9.42551416015625,-0.05364274286031723,0.008524082717299462,0.0376058002948761
1772363444198583800,9.435583740234375,-0.06818681651949882,0.01823766748011112,-0.0015565817922353743
1772363444208653000,9.445653076171874,-0.051178398573398586,0.04346387867331505,-0.0054116497851908205
1772363444218722800,9.455722900390626,-0.019127309796214104,0.06565875934660434,0.019465747970342635
1772363444228792000,9.4657919921875,-0.0036649522483348843,0.027250410497188567,-0.020581892518699168
1772363444238861800,9.47586181640625,-0.15654782153964042,-0.038954876816272736,-0.07239800447374582
1772363444248930800,9.485930908203125,-0.0020645313143730164,0.04174363075196743,0.002862842085212469
1772363444259001000,9.4960009765625,0.3465864092707634,-0.011674655702710151,-0.015101561411470173
1772363444269069800,9.50606982421875,0.25539514926075935,-0.05833820720016956,-0.10493073928803205
1772363444279140000,9.51614013671875,0.007412906605005264,-0.013486673560738563,-0.05576660314649343
1772363444289208800,9.526208740234376,-0.09324176279902457,0.0005658171892166138,-0.02121069194152951
1772363444299278800,9.53627880859375,-0.0013297872990369797,0.025713702449202538,0.002220160267502069
1772363444309347800,9.546347900390625,0.044858547902107235,0.0406599271684885,0.048351796845346684
1772363444319417900,9.55641796875,-0.05813946975767612,-0.051045127582550046,0.008875672633945942
1772363444329486800,9.56648681640625,-0.04413432528078556,0.0023006781578063964,0.04218056086450815
1772363444339556900,9.576556884765624,-0.1147954229593277,0.026177228307723996,0.07356368725225329
1772363444349625900,9.5866259765625,-0.1648094539284706,0.06960603566765784,0.12630553575009107
1772363444359696000,9.59669580078125,0.12100187638401984,0.08795359326303005,0.15566782383471728
1772363444369764900,9.606764892578125,0.14146248061060904,0.0223211374014616,0.020621201615780592
1772363444379835000,9.6168349609375,-0.07817512657046317,-0.03178279322981834,-0.002011778213828802
1772363444389905000,9.62690478515625,-0.15759820737540722,-0.03694470603764057,0.04909209381863475
1772363444399974000,9.636973876953125,-0.03877718216180801,-0.03148760967552662,0.04867635262459516
1772363444410044000,9.6470439453125,0.06171732824444771,-0.03398994788527489,0.04156140605285764
1772363444420113000,9.65711279296875,0.058476154366135596,-0.07333586984574794,-0.015770108322799205
1772363444430183000,9.667182861328126,0.09226970289647579,-0.03480535592138767,-0.02583469848036766
1772363444440252000,9.677251953125,0.13064941017329693,0.020916531300544737,0.013045505664497614
1772363444450322000,9.687322021484375,0.126328039842844,0.0743441701054573,-0.010137655393779277
1772363444460391000,9.697390869140625,0.11530395700335502,0.11686579949259757,-0.019073387651890514
1772363444470461000,9.7074609375,0.08818915558457374,0.1247504152625799,-0.015202099176496266
1772363444480529700,9.71752978515625,0.015368249523639677,0.10962532684504986,0.01602905151993036
1772363444490600000,9.727599853515626,0.10653729770183562,0.04618775067925453,-0.018902853390574455
1772363444500669000,9.7376689453125,0.23853286178708075,0.03428454691767693,-0.027178514304757116
1772363444510739000,9.747739013671875,0.8590145381271839,0.07067687976956367,-0.13343904089182615
1772363444520808000,9.757807861328125,0.8245224859386682,0.005473462975025177,-0.2030444920375943
1772363444530878000,9.7678779296875,0.03571253389418125,0.11196925962269305,-0.0051405777588486665
1772363444540947000,9.777947021484374,-0.2686088510990143,-0.03362637526988983,-0.13165887947678565
1772363444551016700,9.7880166015625,-0.7004524541556835,-0.24900164883136747,-0.05019245627596974
1772363444561086000,9.7980859375,-1.0522837783426047,-0.1625350792557001,0.18873700361326337
1772363444571155700,9.80815576171875,-0.8187386418402195,-0.0885918911665678,0.2785086060836911
1772363444581225000,9.818224853515625,-0.26911855418682096,-0.035602643778920175,0.16601590710878372
1772363444591295000,9.828294921875,-0.1795756459057331,-0.0923433526545763,0.038314386955648656
1772363444601364000,9.838364013671875,-0.48512394234538075,-0.058547466036677355,0.047642333401739595
1772363444611434000,9.84843408203125,-0.5538052643835544,0.003153495594859123,0.12074205640405415
1772363444621503000,9.8585029296875,-0.49688335372209547,0.005166004461050033,0.0787174167536199
1772363444631573000,9.868572998046876,-0.10000585010647774,0.13290157301425934,0.08402882103472947
1772363444641641700,9.878641845703125,0.4895902741044759,0.5210042340219021,0.07317541858702897
1772363444651712000,9.8887119140625,0.9076648795276879,0.3009118688106537,-0.12739552294388412
1772363444661780700,9.89878076171875,0.9017115240812301,0.12072715109586715,-0.13927125417664646
1772363444671851000,9.90885107421875,0.3926759602725506,0.08089899857640266,-0.03061711045131087
