time,seconds_elapsed,z,y,x
1772363385457678000,0.123677978515625,-0.027515560388565063,-0.01644999161362648,0.016852013766765594
1772363385467748000,0.133748046875,-0.026554424315690994,0.0021063820458948612,0.03632984310388565
1772363385477817000,0.143817138671875,-0.026679620146751404,0.04166035354137421,0.04317009449005127
1772363385487887000,0.15388720703125,-0.014011496677994728,0.02699965424835682,0.028286751359701157
1772363385497956000,0.1639560546875,-0.020226530730724335,-0.016152314841747284,0.029655393213033676
1772363385508026000,0.174026123046875,-0.023183971643447876,-0.03629247099161148,0.0411171056330204
1772363385518095000,0.18409521484375,-0.016356877982616425,-0.024159688502550125,0.04163246974349022
1772363385528165000,0.1941650390625,-0.01908981241285801,-0.012398634105920792,0.036784715950489044
1772363385538235100,0.204235107421875,-0.02173389494419098,-0.01607654057443142,0.0347733348608017
1772363385548304100,0.21430419921875,-0.028083402663469315,-0.0012459284625947475,0.039387259632349014
1772363385558374100,0.2243740234375,-0.023445045575499535,0.030537519603967667,0.021454855799674988
1772363385568443100,0.234443115234375,-0.01614052802324295,0.0363975390791893,0.010934035293757915
1772363385578513200,0.24451318359375,-0.009879198856651783,0.007903752848505974,-0.011356433853507042
1772363385588582100,0.25458203125,0.0035364748910069466,-0.020675960928201675,-0.024373166263103485
1772363385598652200,0.264652099609375,0.007713967002928257,-0.02371337078511715,-0.03104715794324875
1772363385608721000,0.274720947265625,0.009407470934092999,-0.02679464966058731,-0.039156217128038406
1772363385618791200,0.284791259765625,0.00487169623374939,-0.018606966361403465,-0.042949218302965164
1772363385628859400,0.294859375,-0.007143154740333557,0.008846761658787727,-0.03592459857463837
1772363385638929200,0.30492919921875,-0.014282217249274254,0.0353376530110836,-0.017860528081655502
1772363385648999200,0.314999267578125,-0.022220566868782043,0.03573206812143326,-0.006866734009236097
1772363385659068200,0.325068115234375,-0.019863706082105637,0.024424396455287933,0.02268902212381363
1772363385669138200,0.33513818359375,-0.019850656390190125,0.029203172773122787,0.038120973855257034
1772363385679207400,0.34520751953125,-0.014408200047910213,0.011778557673096657,0.04447559267282486
1772363385689277200,0.355277099609375,-0.007021657191216946,-0.015555860474705696,0.041326407343149185
1772363385699346200,0.36534619140625,-0.001421906054019928,-0.027331136167049408,0.03960872441530228
1772363385709416200,0.375416259765625,-0.0033867862075567245,-0.019619153812527657,0.04253580421209335
1772363385719485200,0.385485107421875,-0.002603679895401001,-0.0033085928298532963,0.04859033599495888
1772363385729555200,0.39555517578125,-0.0019927509129047394,0.01287410594522953,0.04614927992224693
1772363385739625200,0.405625244140625,0.0024288524873554707,0.008504174649715424,0.04857202619314194
1772363385749694200,0.415694091796875,0.002827793825417757,0.017552264034748077,0.04978456348180771
1772363385759764200,0.42576416015625,0.0033590784296393394,0.03145984932780266,0.04242229834198952
1772363385769833200,0.435833251953125,0.008908839896321297,0.031978901475667953,0.03260721638798714
1772363385779903200,0.4459033203125,0.01456938311457634,0.02151540480554104,0.021683093160390854
1772363385789972200,0.45597216796875,0.017133207991719246,0.02128690481185913,0.019759491086006165
1772363385800042200,0.466042236328125,0.019203780218958855,0.05418385565280914,0.009044432081282139
1772363385810111200,0.476111328125,0.03072141855955124,0.048960596323013306,0.009674268774688244
1772363385820181200,0.48618115234375,0.038645826280117035,0.04306427761912346,0.013827571645379066
1772363385830250200,0.496250244140625,0.038638900965452194,0.056753724813461304,0.010189693421125412
1772363385840320000,0.506320068359375,0.045712221413850784,0.07560102641582489,-0.0014211609959602356
1772363385850389200,0.51638916015625,0.05892229825258255,0.08917675912380219,-0.009611979126930237
1772363385860459300,0.526459228515625,0.049866337329149246,0.12094917893409729,-0.0007515978068113327
1772363385870529300,0.536529296875,0.055395856499671936,0.13392703235149384,0.0074448129162192345
1772363385880598300,0.546598388671875,0.05473132058978081,0.10572446137666702,0.029398009181022644
1772363385890668000,0.55666796875,0.05157174542546272,0.08029500395059586,0.03907566890120506
1772363385900737300,0.5667373046875,0.045874468982219696,0.061777010560035706,0.046753183007240295
1772363385910807000,0.57680712890625,0.051703594624996185,0.04850461706519127,0.05876857042312622
1772363385920876300,0.586876220703125,0.047011200338602066,0.06103886663913727,0.06658776849508286
1772363385930946000,0.596946044921875,0.0411439873278141,0.07941680401563644,0.07073670625686646
1772363385941015300,0.607015380859375,0.039199694991111755,0.09674476832151413,0.07699082046747208
1772363385951085000,0.6170849609375,0.03334153816103935,0.11049333959817886,0.0882895439863205
1772363385961154300,0.627154296875,0.028939835727214813,0.13084618747234344,0.08956698328256607
1772363385971224300,0.637224365234375,0.03186318650841713,0.14160189032554626,0.08866070955991745
1772363385981293300,0.647293212890625,0.024981874972581863,0.1435181200504303,0.06715176999568939
1772363385991363300,0.65736328125,0.014574240893125534,0.11772941797971725,0.056209906935691833
1772363386001433000,0.66743310546875,0.009222381748259068,0.09098657965660095,0.06437070667743683
1772363386011502300,0.67750244140625,-0.0003266488201916218,0.14060845971107483,0.07145018875598907
1772363386021572000,0.687572021484375,-0.005653273314237595,0.19310986995697021,0.0722922682762146
1772363386031641300,0.697641357421875,-0.012650195509195328,0.2230302095413208,0.07497167587280273
1772363386041711000,0.707711181640625,-0.01945437863469124,0.19570347666740417,0.07137959450483322
1772363386051780000,0.717780029296875,-0.007620887830853462,0.13472001254558563,0.05940255895256996
1772363386061850400,0.727850341796875,0.0038859755732119083,0.06766516715288162,0.043296586722135544
1772363386071919000,0.737919189453125,0.010462651960551739,0.024727022275328636,0.034997645765542984
1772363386081989400,0.7479892578125,0.002589008305221796,0.0010059187188744545,0.03603634983301163
1772363386092058000,0.75805810546875,-0.0018161265179514885,0.0019854293204844,0.03138007968664169
1772363386102128400,0.76812841796875,-0.0030429218895733356,0.019966203719377518,0.0197305865585804
1772363386112198100,0.7781982421875,-0.0031164255924522877,0.016779731959104538,0.009123214520514011
1772363386122267100,0.78826708984375,0.007373874541372061,0.015323184430599213,0.010587974451482296
1772363386132337200,0.798337158203125,-0.0020726239308714867,0.017202576622366905,0.005118905566632748
1772363386142406100,0.80840625,0.0017440016381442547,0.01562599651515484,-0.0023873504251241684
1772363386152476400,0.818476318359375,0.010014981031417847,0.03349767252802849,-0.00021793972700834274
1772363386162545200,0.828545166015625,0.007786390837281942,0.050744231790304184,0.01701638288795948
1772363386172615200,0.838615234375,0.018895767629146576,0.04079705849289894,0.025759804993867874
1772363386182684200,0.84868408203125,0.025613432750105858,0.010134154930710793,0.02404049038887024
1772363386192754200,0.858754150390625,0.02948673442006111,-0.017110515385866165,0.036512341350317
1772363386202823200,0.8688232421875,0.0326358787715435,-0.012877902016043663,0.056298620998859406
1772363386212893200,0.87889306640625,0.029166579246520996,0.011659132316708565,0.06437652558088303
1772363386222962200,0.888962158203125,0.02904827892780304,0.03577625751495361,0.07074372470378876
1772363386233032200,0.8990322265625,0.02460585907101631,0.044221676886081696,0.06792876124382019
1772363386243102200,0.909102294921875,0.022794347256422043,0.03396708145737648,0.047360025346279144
1772363386253171200,0.919171142578125,0.020103488117456436,0.007673424202948809,0.02656073495745659
1772363386263241200,0.9292412109375,0.020487574860453606,-0.019197147339582443,0.013665866106748581
1772363386273310200,0.939310302734375,0.02353076823055744,-0.028550967574119568,0.009421853348612785
1772363386283380200,0.949380126953125,0.02443642169237137,-0.029772315174341202,0.010458390228450298
1772363386293449200,0.95944921875,0.021632380783557892,-0.023122135549783707,0.011824325658380985
1772363386303519200,0.969519287109375,0.01917070522904396,-0.013414107263088226,0.004519322887063026
1772363386313588200,0.979588134765625,0.01868574321269989,-0.011468668468296528,-0.0019375104457139969
1772363386323658200,0.989658203125,0.009802036918699741,-0.018506085500121117,-0.002720661461353302
1772363386333727200,0.999727294921875,0.007364179007709026,-0.03268449008464813,-0.0010495278984308243
1772363386343797200,1.00979736328125,-0.008746239356696606,-0.04425466060638428,0.012925163842737675
1772363386353866000,1.019865966796875,-0.019500084221363068,-0.031726349145174026,0.029742762446403503
1772363386363936300,1.029936279296875,-0.02080506831407547,-0.010929081588983536,0.037441153079271317
1772363386374006300,1.04000634765625,-0.019691068679094315,-0.0011518190149217844,0.025289680808782578
1772363386384075300,1.0500751953125,-0.021136753261089325,-0.02379552274942398,0.01809278130531311
1772363386394145300,1.060145263671875,-0.012990943156182766,-0.04161339998245239,0.007421229034662247
1772363386404214000,1.070214111328125,-0.009582738392055035,-0.03657516837120056,-0.0017459243535995483
1772363386414284300,1.0802841796875,-0.01183896791189909,-0.0270618237555027,0.0007478604093194008
1772363386424353000,1.09035302734375,-0.013266416266560555,-0.021889371797442436,0.0087508549913764
1772363386434423300,1.10042333984375,-0.018805257976055145,-0.02534349262714386,0.005169968120753765
1772363386444492000,1.110491943359375,-0.0193423330783844,-0.031334519386291504,0.0018505696207284927
1772363386454562300,1.120562255859375,-0.019963379949331284,-0.0407746247947216,-0.0009228456765413284
1772363386464631300,1.13063134765625,-0.021639617159962654,-0.03880995884537697,-0.014424210414290428
1772363386474701000,1.140701171875,-0.02258690446615219,-0.03912634402513504,-0.02122858725488186
1772363386484770300,1.150770263671875,-0.02507343888282776,-0.028085075318813324,-0.0230069849640131
1772363386494840000,1.160840087890625,-0.022154349833726883,-0.015534130856394768,-0.017213277518749237
1772363386504910300,1.170910400390625,-0.014483530074357986,-0.009825527667999268,-0.0141705721616745
1772363386514979000,1.18097900390625,-0.0110698901116848,-0.011547527275979519,-0.014788425527513027
1772363386525049000,1.191049072265625,-0.011784762144088745,-0.01310969889163971,-0.013619069010019302
1772363386535118000,1.2011181640625,-0.012635909020900726,-0.020915158092975616,-0.012941027991473675
1772363386545188000,1.21118798828125,-0.012459196150302887,-0.02895769104361534,-0.00827957596629858
1772363386555257300,1.22125732421875,-0.008420778438448906,-0.035424377769231796,0.004639684222638607
1772363386565327000,1.2313271484375,-0.008085804060101509,-0.03871138393878937,0.02025517076253891
1772363386575396400,1.241396240234375,-0.010870140045881271,-0.028599627315998077,0.03657688573002815
1772363386585466000,1.251466064453125,-0.011939636431634426,-0.022557619959115982,0.04492810368537903
1772363386595535400,1.261535400390625,-0.0016358653083443642,-0.01569225639104843,0.04182285815477371
1772363386605605000,1.271605224609375,-0.004578176885843277,-0.016745934262871742,0.04220825433731079
1772363386615674400,1.28167431640625,-0.001310477964580059,-0.007891455665230751,0.039466798305511475
1772363386625745000,1.291744873046875,0.004359276965260506,0.016154762357473373,0.027547340840101242
1772363386635813600,1.301813720703125,0.006061037071049213,0.017148654907941818,0.016599353402853012
1772363386645884000,1.3118837890625,0.009091786108911037,0.008640965446829796,0.00828124862164259
1772363386655953700,1.32195361328125,0.0115149961784482,0.004035028629004955,-0.006697435397654772
1772363386666022700,1.332022705078125,0.008267601951956749,0.0017355028539896011,-0.008845100179314613
1772363386676092700,1.3420927734375,0.006267034914344549,0.002910223323851824,-0.017406364902853966
1772363386686161700,1.35216162109375,-0.004525128751993179,-0.0003239531069993973,-0.008990520611405373
1772363386696231700,1.362231689453125,-0.008777397684752941,0.0029522678814828396,0.0014546634629368782
1772363386706300700,1.37230078125,-0.007308600470423698,0.01334097795188427,0.004741355776786804
1772363386716371000,1.382370849609375,-0.0030480753630399704,0.018667301163077354,0.004154127091169357
1772363386726439700,1.392439697265625,0.0017896289937198162,0.0034822672605514526,-0.0008952124044299126
1772363386736509700,1.402509765625,-0.0031715743243694305,-0.008222325704991817,-0.006354160141199827
1772363386746578700,1.41257861328125,-0.004189073573797941,-0.011834290809929371,-0.008261353708803654
1772363386756648700,1.422648681640625,-0.00565514387562871,-0.0017156100366264582,-0.00513799861073494
1772363386766717700,1.4327177734375,-0.003592533990740776,0.023025095462799072,-0.012449903413653374
1772363386776787700,1.44278759765625,0.006640130188316107,0.04312637075781822,-0.02337179332971573
1772363386786857700,1.452857666015625,0.018976187333464622,0.03862199932336807,-0.03761696442961693
1772363386796926700,1.4629267578125,0.0301516093313694,0.03253640979528427,-0.04551350697875023
1772363386806996700,1.472996826171875,0.028242627158761024,0.033104099333286285,-0.038458336144685745
1772363386817065700,1.483065673828125,0.03169861435890198,0.03488441929221153,-0.02422347292304039
1772363386827135700,1.4931357421875,0.03071512095630169,0.041390374302864075,-0.01284446008503437
1772363386837204700,1.503204833984375,0.03308480232954025,0.03945212811231613,-0.006050735712051392
1772363386847274800,1.513274658203125,0.03482026606798172,0.034420356154441833,0.004736980423331261
1772363386857343700,1.52334375,0.03734228014945984,0.04487699270248413,0.013610366731882095
1772363386867413800,1.533413818359375,0.0376143716275692,0.06815486401319504,0.02973637543618679
1772363386877482800,1.543482666015625,0.0439486987888813,0.08961141854524612,0.032757461071014404
1772363386887552800,1.553552734375,0.04575438052415848,0.07011433690786362,0.030316833406686783
1772363386897621500,1.56362158203125,0.04571869224309921,0.03735346719622612,0.02380886673927307
1772363386907691800,1.57369189453125,0.03903413936495781,0.01475544273853302,0.018747912719845772
1772363386917760500,1.583760498046875,0.03650892898440361,0.012233428657054901,0.005584441125392914
1772363386927830800,1.593830810546875,0.0317770317196846,0.011861979961395264,-0.008381513878703117
1772363386937900800,1.60390087890625,0.029270995408296585,0.03708770498633385,-0.009348507970571518
1772363386947969800,1.6139697265625,0.030214518308639526,0.054870009422302246,-0.017722291871905327
1772363386958039800,1.624039794921875,0.02807440236210823,0.05178260803222656,-0.011521920561790466
1772363386968108500,1.634108642578125,0.033917687833309174,0.047711119055747986,-0.024487584829330444
1772363386978178800,1.6441787109375,0.03682878613471985,0.029822666198015213,-0.03813522309064865
1772363386988247600,1.65424755859375,0.03383326530456543,0.0031235315836966038,-0.04015966132283211
1772363386998317800,1.66431787109375,0.027134349569678307,-0.007964006625115871,-0.022044040262699127
1772363387008386600,1.674386474609375,0.016378510743379593,0.007112443447113037,-0.0061360811814665794
1772363387018456600,1.68445654296875,0.002856310922652483,0.012901357375085354,0.0033160103484988213
1772363387028525600,1.694525634765625,0.005279766395688057,0.002002333290874958,0.0016282172873616219
1772363387038595600,1.704595703125,0.0005273553542792797,-0.006461458746343851,0.0008966466411948204
1772363387048664800,1.714664794921875,-0.00043692532926797867,-0.020020276308059692,-0.005113883409649134
1772363387058734600,1.724734619140625,0.0012778844684362411,-0.022729776799678802,-0.006963449064642191
1772363387068804900,1.734804931640625,0.0009987205266952515,-0.017279870808124542,-0.004306497983634472
1772363387078873600,1.74487353515625,0.0003710133023560047,-0.003551274538040161,0.006811933591961861
1772363387088943600,1.754943603515625,-0.0001043328084051609,-0.004344800021499395,0.031169017776846886
1772363387099012600,1.7650126953125,0.0013015498407185078,0.006723829545080662,0.0271481741219759
1772363387109082600,1.77508251953125,-0.002841982524842024,-0.0260918028652668,0.017706414684653282
1772363387119151600,1.785151611328125,-0.00654883636161685,-0.06622990220785141,0.02436910942196846
1772363387129221600,1.7952216796875,-0.011478448286652565,-0.06092742457985878,0.024414293467998505
1772363387139291000,1.805290771484375,-0.01800905168056488,-0.04282192140817642,0.017432551831007004
1772363387149360600,1.815360595703125,-0.023925993591547012,-0.03885536640882492,0.022333581000566483
1772363387159430000,1.825429931640625,-0.025333471596240997,-0.035220153629779816,0.021882440894842148
1772363387169499600,1.835499755859375,-0.023363668471574783,-0.03517970070242882,0.013166881166398525
1772363387179568600,1.845568603515625,-0.02671632170677185,-0.03846657648682594,0.012216930277645588
1772363387189638700,1.855638671875,-0.02796454355120659,-0.04032333195209503,0.006378215737640858
1772363387199707600,1.865707763671875,-0.02334609068930149,-0.028674397617578506,0.001886795274913311
1772363387209777700,1.875777587890625,-0.023759882897138596,-0.016924278810620308,0.0024594608694314957
1772363387219847700,1.88584765625,-0.023647762835025787,-0.013849927112460136,0.009361308999359608
1772363387229917000,1.8959169921875,-0.02445187419652939,-0.011552024632692337,0.00977347418665886
1772363387239986700,1.905986572265625,-0.016732167452573776,-0.014664461836218834,0.008253341540694237
1772363387250055700,1.9160556640625,-0.01385544240474701,-0.011218367144465446,0.014937195926904678
1772363387260125700,1.926125732421875,-0.011541688814759254,-0.0015782567206770182,0.01560991071164608
1772363387270194700,1.936194580078125,-0.009157761931419373,0.009661851450800896,0.017322223633527756
1772363387280264700,1.9462646484375,-0.008318066596984863,0.0006467844359576702,0.009811046533286572
1772363387290333700,1.956333740234375,-0.008903194218873978,-0.0013610685709863901,0.0003303801640868187
1772363387300403700,1.96640380859375,-0.015634600073099136,-0.006045302376151085,-0.00417275819927454
1772363387310472700,1.97647265625,-0.016563575714826584,0.002872839570045471,-0.008610468357801437
1772363387320542700,1.986542724609375,-0.010390100069344044,0.016268540173768997,-0.010933011770248413
1772363387330611700,1.99661181640625,-0.009242329746484756,0.02643541619181633,-0.0060963099822402
1772363387340681700,2.006681640625,-0.008701175451278687,0.02583247609436512,0.0001621181145310402
1772363387350750700,2.016750732421875,-0.007318389136344194,0.018811628222465515,0.0013352548703551292
1772363387360820700,2.02682080078125,-0.009999392554163933,0.012317776679992676,0.010330081917345524
1772363387370890500,2.036890380859375,-0.012703992426395416,-0.0031997293699532747,0.015827663242816925
1772363387380959700,2.046959716796875,-0.008710049092769623,-0.013985265046358109,0.021429356187582016
1772363387391029500,2.057029541015625,-0.009489398449659348,-0.015272039920091629,0.026480555534362793
1772363387401098800,2.0670986328125,-0.018031487241387367,-0.004426049534231424,0.026739683002233505
1772363387411168800,2.077168701171875,-0.013071946799755096,0.010119352489709854,0.019484080374240875
1772363387421237800,2.08723779296875,-0.009083596989512444,0.018324285745620728,0.011714309453964233
1772363387431307800,2.097307861328125,-0.008934468030929565,0.015195544809103012,0.00079355388879776
1772363387441376800,2.107376708984375,-0.0035101412795484066,0.018037403002381325,-0.013721472583711147
1772363387451446800,2.11744677734375,-0.0023306268267333508,0.00826040655374527,-0.02797364443540573
1772363387461515800,2.127515869140625,0.004025539383292198,-0.0005724993534386158,-0.03625074774026871
1772363387471585800,2.137585693359375,0.004012107849121094,0.0014949217438697815,-0.03689438849687576
1772363387481654500,2.147654541015625,0.005598020274192095,0.00711445789784193,-0.03477930277585983
1772363387491724800,2.157724853515625,0.00556078739464283,0.004676072392612696,-0.023704148828983307
1772363387501793500,2.16779345703125,0.006699555087834597,0.00021261442452669144,-0.003983441740274429
1772363387511863800,2.17786376953125,0.010401240549981594,0.011817939579486847,0.008424738422036171
1772363387521933800,2.187933837890625,0.014847388491034508,0.02157895639538765,0.01679398864507675
1772363387532002600,2.19800244140625,0.02240276150405407,0.020022626966238022,0.01641240529716015
1772363387542072800,2.20807275390625,0.023029936477541924,0.006336643360555172,0.02039276622235775
1772363387552141600,2.2181416015625,0.024201057851314545,-0.0013921468053013086,0.02473362162709236
1772363387562211800,2.2282119140625,0.022980529814958572,0.0009793979115784168,0.018190767616033554
1772363387572280600,2.238280517578125,0.022321125492453575,0.006791421677917242,0.00756722129881382
1772363387582350800,2.248350830078125,0.017311986535787582,0.008102761581540108,0.0009655104950070381
1772363387592419600,2.258419677734375,0.019339723512530327,0.002034542616456747,-0.010895746760070324
1772363387602489600,2.268489501953125,0.018198292702436447,-0.006391965784132481,-0.02101442590355873
1772363387612558600,2.27855859375,0.013094042427837849,-0.013272929936647415,-0.029831893742084503
1772363387622632400,2.288632568359375,0.009764292277395725,-0.011724568903446198,-0.03023775853216648
1772363387632701700,2.29870166015625,0.00749368779361248,-0.00848530512303114,-0.03503258526325226
1772363387642771500,2.308771484375,0.0012395204976201057,-0.006206704303622246,-0.03449569270014763
1772363387652840700,2.3188408203125,-0.0013720467686653137,-0.012833759188652039,-0.028735555708408356
1772363387662910700,2.32891064453125,-0.0034945858642458916,-0.024844348430633545,-0.020185209810733795
1772363387672980500,2.33898046875,-0.0040883710607886314,-0.026116667315363884,-0.0031997431069612503
1772363387683049700,2.3490498046875,-0.009222147054970264,-0.01970537379384041,0.0055833617225289345
1772363387693119500,2.359119384765625,-0.013016387820243835,-0.024698957800865173,0.007098427042365074
1772363387703188700,2.369188720703125,-0.015171684324741364,-0.02348482236266136,0.010491827502846718
1772363387713258500,2.379258544921875,-0.014129121787846088,-0.02133164182305336,0.012346900068223476
1772363387723327700,2.38932763671875,-0.014664682559669018,-0.017982183024287224,0.01684204861521721
1772363387733397500,2.3993974609375,-0.011430734768509865,-0.011117041110992432,0.02116330713033676
1772363387743466500,2.409466552734375,-0.006615472957491875,-0.01089786272495985,0.0250115767121315
1772363387753536800,2.419536865234375,-0.00611745472997427,-0.01697966456413269,0.019560281187295914
1772363387763605500,2.42960546875,-0.005202393047511578,-0.03294584900140762,0.020409032702445984
1772363387773675800,2.43967578125,-0.007151826284825802,-0.028018467128276825,0.019732855260372162
1772363387783744500,2.44974462890625,-0.014163130894303322,-0.01974748820066452,0.01568218693137169
1772363387793814800,2.459814697265625,-0.017597220838069916,-0.023210737854242325,0.013107065111398697
1772363387803884500,2.469884521484375,-0.018238510936498642,-0.02848539501428604,0.013385631144046783
1772363387813953500,2.47995361328125,-0.01329044159501791,-0.017063383013010025,0.010543271899223328
1772363387824023600,2.4900234375,-0.01093993615359068,-0.004647193010896444,0.0029436759650707245
1772363387834092500,2.500092529296875,-0.0039648148231208324,-0.002052317839115858,-0.017780238762497902
1772363387844162800,2.510162841796875,0.002822251059114933,-0.009315557777881622,-0.03992815315723419
1772363387854231600,2.5202314453125,0.00020842300727963448,-0.015001954510807991,-0.047081317752599716
1772363387864301600,2.530301513671875,0.00028245896100997925,-0.015574267134070396,-0.039916083216667175
1772363387874370600,2.54037060546875,-0.0004433831200003624,0.00022709649056196213,-0.024025436490774155
1772363387884440600,2.550440673828125,0.0013989917933940887,0.012658465653657913,-0.0075825476087629795
1772363387894509600,2.560509521484375,0.005266083404421806,0.01083696261048317,0.00045819953083992004
1772363387904579600,2.57057958984375,0.0031400821171700954,0.008298704400658607,0.004783705808222294
1772363387914648600,2.580648681640625,0.00408599991351366,0.0072838845662772655,0.008697479963302612
1772363387924718600,2.590718505859375,0.0035286005586385727,0.012225380167365074,0.010965695604681969
1772363387934788400,2.600788330078125,0.002423172350972891,0.014794276095926762,0.025032106786966324
1772363387944857600,2.610857666015625,0.0010902602225542068,0.027723122388124466,0.02873816341161728
1772363387954927600,2.620927734375,0.003843926591798663,0.022487664595246315,0.027680953964591026
1772363387964996600,2.63099658203125,0.007681807968765497,0.015810586512088776,0.023211373016238213
1772363387975066600,2.641066650390625,0.010439302772283554,0.015794267877936363,0.014604189433157444
1772363387985135600,2.651135498046875,0.014531516470015049,0.01710028201341629,0.01006376463919878
1772363387995205600,2.66120556640625,0.022447818890213966,0.021351944655179977,0.009562445804476738
1772363388005274600,2.671274658203125,0.020445920526981354,0.02280869334936142,0.009168032556772232
1772363388015344600,2.6813447265625,0.017431575804948807,0.015227369964122772,0.012771961279213428
1772363388025413600,2.69141357421875,0.009211195632815361,0.002716371789574623,0.016878556460142136
1772363388035483600,2.701483642578125,0.006296899169683456,-0.00304084992967546,0.015722475945949554
1772363388045552400,2.711552490234375,-0.0033930125646293163,0.0003429623320698738,0.017296139150857925
1772363388055622700,2.72162255859375,-0.004687603563070297,0.005961338058114052,0.016806572675704956
1772363388065692700,2.731692626953125,-0.007867151871323586,0.00839147251099348,0.009980623610317707
1772363388075761700,2.74176171875,-0.003714592196047306,0.0010819598101079464,0.00005633477121591568
1772363388085831700,2.751831787109375,-0.011083824560046196,-0.018894944339990616,-0.028025366365909576
1772363388095900400,2.761900390625,-0.0036301929503679276,-0.028355859220027924,-0.024862214922904968
1772363388105970700,2.771970703125,0.005036798305809498,0.023132100701332092,-0.02920529618859291
1772363388116039400,2.782039306640625,0.005058493465185165,0.029077250510454178,-0.03535110130906105
1772363388126109700,2.792109619140625,0.005864632315933704,-0.0006809118203818798,-0.03672609105706215
1772363388136178400,2.802178466796875,0.008319498039782047,-0.007510211318731308,-0.02621007151901722
1772363388146248700,2.812248779296875,0.008553590625524521,0.0021884883753955364,-0.007118136156350374
1772363388156317400,2.8223173828125,0.004590338561683893,0.006544339004904032,0.01563306525349617
1772363388166387500,2.832387451171875,0.0063616069965064526,-0.006096621043980122,0.036913055926561356
1772363388176456700,2.842456787109375,0.008998416364192963,-0.0037422655150294304,0.04158543050289154
1772363388186526500,2.8525263671875,0.014349506236612797,-0.0008889543823897839,0.04358866065740585
1772363388196596700,2.8625966796875,0.014733554795384407,0.0007776860147714615,0.052548475563526154
1772363388206665500,2.87266552734375,0.014262974262237549,0.012704385444521904,0.055151186883449554
1772363388216735500,2.882735595703125,0.00913095660507679,0.0267568901181221,0.04177144542336464
1772363388226804500,2.892804443359375,0.008632944896817207,0.027571018785238266,0.027433786541223526
1772363388236874500,2.90287451171875,0.0032225102186203003,0.018236586824059486,0.01324839424341917
1772363388246943500,2.912943603515625,0.0007510967552661896,-0.0009477604180574417,-0.0032461611554026604
1772363388257013500,2.923013427734375,-0.0005015982314944267,-0.0177152156829834,-0.012390866875648499
1772363388267082800,2.933082763671875,-0.008391479961574078,-0.028597958385944366,-0.021082358434796333
1772363388277152500,2.943152587890625,-0.01486981101334095,-0.026035301387310028,-0.02602214366197586
1772363388287221800,2.9532216796875,-0.019118351861834526,-0.011147698387503624,-0.02498564124107361
1772363388297291500,2.96329150390625,-0.020894544199109077,0.013311337679624557,-0.005426224786788225
1772363388307360800,2.97336083984375,-0.023771289736032486,0.027422629296779633,0.012671819888055325
1772363388317430500,2.983430419921875,-0.020472289994359016,0.032285917550325394,0.024429965764284134
1772363388327500500,2.99350048828125,-0.01976841688156128,0.01624676212668419,0.03198162466287613
1772363388337569500,3.003569580078125,-0.014278553426265717,0.006546766497194767,0.034684620797634125
1772363388347639600,3.0136396484375,-0.014063635841012001,0.007302305661141872,0.03873502463102341
1772363388357708800,3.023708740234375,-0.01623724400997162,0.006980846635997295,0.0410589799284935
1772363388367778600,3.033778564453125,-0.008851232007145882,0.01431572437286377,0.04095884785056114
1772363388377847600,3.04384765625,-0.007700552698224783,0.021586643531918526,0.0462726354598999
1772363388387917600,3.05391748046875,-0.011352546513080597,0.02949116937816143,0.05144902318716049
1772363388397986600,3.063986572265625,-0.0072633340023458,0.03473995253443718,0.04461933299899101
1772363388408056600,3.074056640625,-0.00872194766998291,0.03367255628108978,0.036153942346572876
1772363388418125600,3.08412548828125,-0.015607737004756927,0.024148663505911827,0.03157910704612732
1772363388428195600,3.094195556640625,-0.014336876571178436,0.016616711392998695,0.021454034373164177
1772363388438265600,3.104265625,-0.01546584814786911,0.009886711835861206,-0.0002490188926458359
1772363388448334600,3.11433447265625,-0.009461218491196632,0.004671710077673197,-0.021681074053049088
1772363388458404600,3.124404541015625,-0.011106735095381737,0.006121665704995394,-0.030869554728269577
1772363388468473600,3.1344736328125,-0.007980717346072197,0.0033650281839072704,-0.035184141248464584
1772363388478543600,3.144543701171875,-0.007878487929701805,0.002404802944511175,-0.03582224249839783
1772363388488612600,3.154612548828125,-0.004240077920258045,0.0033954991959035397,-0.03873787075281143
1772363388498682600,3.1646826171875,-0.0031569264829158783,0.0042391372844576836,-0.03766255080699921
1772363388508751600,3.174751708984375,-0.007524510845541954,-0.0011428447905927896,-0.028495680540800095
1772363388518821400,3.1848212890625,-0.012472130358219147,-0.017743658274412155,-0.013036297634243965
1772363388528890600,3.194890625,-0.014250855892896652,-0.027494557201862335,0.003279825672507286
1772363388538960600,3.204960693359375,-0.016022255644202232,-0.02805006317794323,0.027840126305818558
1772363388549029600,3.215029541015625,-0.01835252158343792,-0.025211399421095848,0.04741222783923149
1772363388559099600,3.225099609375,-0.021469902247190475,-0.02144557237625122,0.05660204589366913
1772363388569169400,3.23516943359375,-0.01728554256260395,-0.017137909308075905,0.05294099450111389
1772363388579238700,3.24523876953125,-0.01587832160294056,-0.01840152032673359,0.051018126308918
1772363388589308400,3.255308349609375,-0.010748540982604027,-0.01628989912569523,0.04687850549817085
1772363388599377700,3.265377685546875,-0.004688079468905926,-0.014677437022328377,0.039816707372665405
1772363388609447400,3.275447509765625,0.0008150767534971237,-0.0031464819330722094,0.036982566118240356
1772363388619516700,3.2855166015625,0.0047190189361572266,0.012706639245152473,0.028262969106435776
1772363388629582600,3.29558251953125,0.008129463531076908,0.019225524738430977,0.02720329910516739
1772363388639651600,3.305651611328125,0.007995989173650742,0.024466615170240402,0.019642457365989685
1772363388649721600,3.3157216796875,0.009777643717825413,0.019534973427653313,0.02116791531443596
1772363388659790600,3.32579052734375,0.007212630473077297,0.012337070889770985,0.018923696130514145
1772363388669860600,3.335860595703125,0.0029004402458667755,0.0037736771628260612,0.029380064457654953
1772363388679929900,3.345929931640625,-0.0006407140754163265,-0.001680079149082303,0.0409967303276062
1772363388689999600,3.35599951171875,-0.008227260783314705,0.00606306130066514,0.05045201629400253
1772363388700069600,3.366069580078125,-0.006811611354351044,0.011963007040321827,0.04733961448073387
1772363388710138600,3.376138671875,-0.010099816136062145,0.008525931276381016,0.04234911873936653
1772363388720208600,3.386208740234375,-0.008318305015563965,0.017432784661650658,0.03425867483019829
1772363388730277600,3.396277587890625,-0.011951657012104988,0.024137824773788452,0.021974846720695496
1772363388740347600,3.40634765625,-0.00495505053550005,0.026716699823737144,0.001779068261384964
1772363388750416600,3.416416748046875,0.00020802021026611328,0.016001204028725624,-0.01443026214838028
1772363388760486700,3.426486572265625,0.0052855536341667175,0.009425317868590355,-0.026181858032941818
1772363388770555600,3.4365556640625,0.0039438530802726746,0.013618998229503632,-0.033009935170412064
1772363388780625700,3.446625732421875,0.004887280985713005,0.010721508413553238,-0.04483693465590477
1772363388790694700,3.456694580078125,0.009759534150362015,0.002532287035137415,-0.044695254415273666
1772363388800764700,3.4667646484375,0.0009432178921997547,-0.0011970975901931524,-0.03402988612651825
1772363388810833700,3.476833740234375,0.0012492150999605656,-0.01559867337346077,-0.02296604961156845
1772363388820903400,3.4869033203125,-0.0018780832178890705,-0.015553269535303116,-0.004898938816040754
1772363388830973700,3.4969736328125,0.0012484677135944366,-0.016912279650568962,0.010448059998452663
1772363388841042400,3.50704248046875,0.010556992143392563,-0.020757123827934265,0.024801548570394516
1772363388851112700,3.51711279296875,0.013840137049555779,-0.008586209267377853,0.0478336326777935
1772363388861181700,3.527181640625,0.008153856731951237,0.019724667072296143,0.05224711075425148
1772363388871251500,3.53725146484375,0.006796443369239569,0.023100223392248154,0.04819884151220322
1772363388881320700,3.54732080078125,0.005423908121883869,0.018461985513567924,0.03243441879749298
1772363388891390500,3.557390380859375,0.0024635381996631622,0.0040830462239682674,0.018669869750738144
1772363388901459700,3.567459716796875,0.00017396081238985062,0.0007035704329609871,0.006301994435489178
1772363388911529500,3.577529541015625,-0.0020950529724359512,0.004345975816249847,-0.003182055428624153
1772363388921598700,3.5875986328125,0.002057089004665613,0.005333003122359514,-0.011787333525717258
1772363388931668500,3.59766845703125,0.0011404291726648808,0.006693878676742315,-0.019981347024440765
1772363388941738500,3.607738525390625,-0.0005391761660575867,0.007210129406303167,-0.026155926287174225
1772363388951807700,3.617807861328125,-0.003374643623828888,0.0016909944824874401,-0.033856190741062164
1772363388961877500,3.62787744140625,-0.005922648124396801,-0.0013765001203864813,-0.03358452767133713
1772363388971946800,3.63794677734375,-0.0065511539578437805,-0.002684112172573805,-0.03261540085077286
1772363388982016500,3.6480166015625,-0.009149197489023209,-0.00981150008738041,-0.025739289820194244
1772363388992085800,3.658085693359375,-0.008692998439073563,-0.00501381466165185,-0.013844814151525497
1772363389002155500,3.668155517578125,-0.006993829272687435,-0.0017604513559490442,0.00042148586362600327
1772363389012224800,3.678224853515625,-0.009301991201937199,-0.00915471836924553,0.014767667278647423
1772363389022294500,3.68829443359375,-0.005881642457097769,-0.017046067863702774,0.02092858776450157
1772363389032363800,3.69836376953125,-0.010926734656095505,-0.022995036095380783,0.02982274815440178
1772363389042433800,3.708433837890625,-0.010168727487325668,-0.016636960208415985,0.036615949124097824
1772363389052502500,3.71850244140625,-0.006107407156378031,-0.004480428993701935,0.040656231343746185
1772363389062572800,3.72857275390625,-0.0028890189714729786,-0.007762724533677101,0.04044244438409805
1772363389072642600,3.738642578125,-0.0019273520447313786,-0.016551155596971512,0.04174260050058365
1772363389082711800,3.7487119140625,-0.005056947935372591,-0.015494262799620628,0.023074595257639885
1772363389092781600,3.758781494140625,-0.0036547943018376827,-0.018071403726935387,0.007487645372748375
1772363389102850600,3.7688505859375,-0.007570995483547449,-0.0172629002481699,-0.008071491494774818
1772363389112920600,3.778920654296875,-0.012844054028391838,-0.0182352215051651,-0.01171895768493414
1772363389122989600,3.788989501953125,-0.018083620816469193,-0.0099915387108922,-0.0176806952804327
1772363389133059800,3.799059814453125,-0.01938457414507866,-0.0064860195852816105,-0.01810253970324993
1772363389143128600,3.809128662109375,-0.019188610836863518,-0.0021991992834955454,-0.019549202173948288
1772363389153198600,3.819198486328125,-0.013446835801005363,-0.005136399529874325,-0.0177446436136961
1772363389163267600,3.829267578125,-0.007850884459912777,-0.0069445716217160225,-0.017626620829105377
1772363389173337600,3.839337646484375,-0.0035149920731782913,-0.004970370326191187,-0.02900151163339615
1772363389183407600,3.84940771484375,-0.005996554158627987,-0.0052943057380616665,-0.03323628380894661
1772363389193476600,3.8594765625,-0.00911724753677845,0.0006088572554290295,-0.02771235629916191
1772363389203546600,3.869546630859375,-0.0075433701276779175,0.009687976911664009,-0.020967861637473106
1772363389213615600,3.87961572265625,-0.005639210343360901,0.01360122486948967,-0.008592951111495495
1772363389223685600,3.889685546875,-0.005520469043403864,0.014830649830400944,0.0030796779319643974
1772363389233754600,3.899754638671875,-0.005485048983246088,0.012797060422599316,0.008871253579854965
1772363389243824600,3.90982470703125,-0.0038952133618295193,0.013445494696497917,0.016644742339849472
1772363389253893600,3.9198935546875,0.002428196370601654,0.01574966125190258,0.01976463571190834
1772363389263963600,3.929963623046875,0.008611711673438549,0.024472206830978394,0.02031756564974785
1772363389274032600,3.94003271484375,0.012235742062330246,0.032720282673835754,0.016199521720409393
1772363389284102700,3.9501025390625,0.017775757238268852,0.03137452155351639,0.0028648264706134796
1772363389294171600,3.960171630859375,0.015014058910310268,0.027999233454465866,-0.004611998796463013
1772363389304241700,3.97024169921875,0.008698608726263046,0.024329034611582756,-0.007494947873055935
1772363389314311700,3.980311767578125,0.0027810651808977127,0.02867850847542286,-0.010731487534940243
1772363389324380700,3.990380615234375,0.000038247089833021164,0.0374591238796711,-0.014611526392400265
1772363389334450700,4.00045068359375,-0.0003878585994243622,0.029196400195360184,-0.014080225490033627
1772363389344519700,4.010519775390625,0.002198683563619852,0.016178295016288757,-0.011364561505615711
1772363389354589700,4.020589599609375,0.003520676866173744,0.0013897614553570747,-0.0077826096676290035
1772363389364658700,4.03065869140625,0.008272295817732811,-0.008832190185785294,0.0003426242619752884
1772363389374728700,4.040728759765625,0.00973730068653822,-0.01862436719238758,0.006899327039718628
1772363389384797700,4.050797607421875,0.004039891995489597,-0.021848056465387344,0.010753700509667397
1772363389394867700,4.06086767578125,0.002214294858276844,-0.011230832897126675,0.016400933265686035
1772363389404936400,4.0709365234375,-0.0026817540638148785,0.00367186963558197,0.022686365991830826
1772363389415006700,4.0810068359375,-0.0015080985613167286,0.006265788339078426,0.02042907103896141
1772363389425075500,4.091075439453125,0.004323424771428108,0.0065139951184391975,0.015070523135364056
1772363389435145700,4.101145751953125,0.014295099303126335,-0.003039296716451645,0.004494843073189259
1772363389445215700,4.1112158203125,0.019378475844860077,-0.0000685257837176323,-0.009532908909022808
1772363389455284500,4.121284423828125,0.023773225024342537,0.015716295689344406,-0.020693153142929077
1772363389465354800,4.131354736328125,0.02727445214986801,0.029694601893424988,-0.028340764343738556
1772363389475423500,4.141423583984375,0.02149512805044651,0.04043086990714073,-0.02955889329314232
1772363389485493800,4.15149365234375,0.016087153926491737,0.02930385060608387,-0.029057133942842484
1772363389495562500,4.1615625,0.011091063730418682,0.030964063480496407,-0.017336029559373856
1772363389505632500,4.171632568359375,0.009380407631397247,0.026124101132154465,-0.012097878381609917
1772363389515701500,4.181701416015625,0.009409436024725437,0.0116841746494174,-0.005618673283606768
1772363389525771500,4.191771484375,0.00899924524128437,-0.009483146481215954,0.004084469750523567
1772363389535840500,4.201840576171875,0.011842967942357063,-0.012687727808952332,0.02142218127846718
1772363389545910500,4.21191064453125,0.0136228296905756,-0.004555454012006521,0.031226351857185364
1772363389555980800,4.221980712890625,0.008601173758506775,0.0026651746593415737,0.03529326617717743
1772363389566049500,4.232049560546875,0.0010487930849194527,0.00858762115240097,0.03863893821835518
1772363389576119600,4.24211962890625,-0.002978172618895769,0.014554699882864952,0.0312875472009182
1772363389586188500,4.2521884765625,-0.0024808868765830994,0.017147982493042946,0.013829839415848255
1772363389596258600,4.262258544921875,-0.008372331969439983,0.010167837142944336,0.004780151881277561
1772363389606327600,4.27232763671875,-0.005920547526329756,-0.0020905882120132446,-0.009503504261374474
1772363389616397600,4.2823974609375,-0.0027641686610877514,-0.011496873572468758,-0.028831128031015396
1772363389626467600,4.292467529296875,0.0036410940811038017,-0.019586145877838135,-0.04718494042754173
1772363389636537600,4.30253759765625,0.003957477863878012,-0.029799632728099823,-0.0585893951356411
1772363389646606300,4.3126064453125,0.0033919448032975197,-0.03163490816950798,-0.05709565430879593
1772363389656676600,4.322676513671875,-0.0027913828380405903,-0.021664299070835114,-0.040939055383205414
1772363389666746400,4.332746337890625,-0.012710721231997013,-0.008453392423689365,-0.016734018921852112
1772363389676815600,4.342815673828125,-0.011831612326204777,0.004236304201185703,-0.0020096683874726295
1772363389686885400,4.352885498046875,-0.010750729590654373,0.004291083663702011,0.009357606992125511
1772363389696954400,4.362954345703125,-0.009862564504146576,-0.004655006807297468,0.022622281685471535
1772363389707024600,4.373024658203125,-0.009172899648547173,-0.009902313351631165,0.024908974766731262
1772363389717093400,4.38309326171875,-0.008544925600290298,-0.013140451163053513,0.027276791632175446
1772363389727163600,4.39316357421875,-0.01496405154466629,-0.01723100058734417,0.027103131636977196
1772363389737232400,4.403232421875,-0.019910605624318123,-0.03142378479242325,0.028244031593203545
1772363389747302700,4.413302734375,-0.01876647025346756,-0.03204674646258354,0.033197976648807526
1772363389757371400,4.423371337890625,-0.021570513024926186,-0.03151411563158035,0.037642523646354675
1772363389767441400,4.43344140625,-0.01957610622048378,-0.029464170336723328,0.03241579979658127
1772363389777510400,4.443510498046875,-0.019254928454756737,-0.02778477966785431,0.020659808069467545
1772363389787580400,4.453580322265625,-0.0186605267226696,-0.030030744150280952,0.01888309046626091
1772363389797650700,4.463650634765625,-0.022641152143478394,-0.028302352875471115,0.013478470034897327
1772363389807719400,4.473719482421875,-0.020800456404685974,-0.030903156846761703,-0.0003681415691971779
1772363389817789400,4.48378955078125,-0.0186062753200531,-0.0409131795167923,-0.004473138600587845
1772363389827858400,4.4938583984375,-0.010438799858093262,-0.0370459221303463,-0.008152398280799389
1772363389837928400,4.503928466796875,-0.003455194178968668,-0.027702488005161285,-0.013416136614978313
1772363389847997400,4.51399755859375,0.0011408179998397827,-0.019076023250818253,-0.01994755119085312
1772363389858067500,4.5240673828125,0.00232858769595623,-0.022526947781443596,-0.024858154356479645
1772363389868136400,4.534136474609375,-0.0009012287482619286,-0.029482606798410416,-0.029355349019169807
1772363389878206500,4.54420654296875,-0.004134839400649071,-0.03143363818526268,-0.033613480627536774
1772363389888275500,4.554275390625,0.000016480684280395508,-0.03596524894237518,-0.0259520523250103
1772363389898345500,4.564345458984375,-0.004683465696871281,-0.03457321226596832,-0.006476355250924826
1772363389908417500,4.57441748046875,-0.006329514551907778,-0.035294268280267715,0.008752628229558468
1772363389918486300,4.584486328125,-0.004515102598816156,-0.0288158617913723,0.014295998029410839
1772363389928556500,4.594556640625,-0.007272935938090086,-0.044064827263355255,0.015549644827842712
1772363389938625500,4.60462548828125,-0.004594328347593546,-0.05424369126558304,0.01462739147245884
1772363389948695300,4.6146953125,-0.0034421863965690136,-0.04950813576579094,0.013016867451369762
1772363389958764500,4.6247646484375,-0.008809788152575493,-0.040224090218544006,0.012909808196127415
1772363389968834300,4.634834228515625,-0.010780411772429943,-0.028745338320732117,0.012352624908089638
1772363389978903600,4.644903564453125,-0.002134992741048336,-0.018492434173822403,0.006518702954053879
1772363389988973300,4.654973388671875,-0.005131013225764036,-0.020285384729504585,0.008319804444909096
1772363389999043600,4.665043701171875,-0.012514093890786171,-0.008242569863796234,0.013193389400839806
1772363390009112300,4.6751123046875,-0.01299523375928402,0.009211868047714233,0.013093418441712856
1772363390019182300,4.685182373046875,-0.016921266913414,0.029386112466454506,0.015052705071866512
1772363390029251600,4.69525146484375,-0.025667410343885422,0.0290619358420372,0.0050149234011769295
1772363390039321300,4.7053212890625,-0.032306935638189316,-0.02576376125216484,0.018471609801054
1772363390049390600,4.715390625,-0.013382961042225361,-0.005039411596953869,0.017379852011799812
1772363390059460400,4.72546044921875,-0.015454634092748165,0.029095124453306198,0.00857810489833355
1772363390069529600,4.735529541015625,-0.02379252202808857,0.0034520933404564857,0.011525608599185944
1772363390079599400,4.745599365234375,-0.02307986095547676,-0.00038632098585367203,0.003513488918542862
1772363390089668600,4.755668701171875,-0.01642400398850441,0.013385970145463943,-0.0029790662229061127
1772363390099738400,4.76573828125,-0.012664685025811195,0.009182170033454895,0.00362503994256258
1772363390109807600,4.7758076171875,-0.015731975436210632,0.0028121857903897762,0.019167348742485046
1772363390119877600,4.785877685546875,-0.013814500533044338,0.018201794475317,0.023921355605125427
1772363390129947400,4.795947509765625,-0.004838439170271158,0.039688535034656525,0.014418956823647022
1772363390140016600,4.8060166015625,0.003216290846467018,0.04982293024659157,0.0027894647791981697
1772363390150086400,4.81608642578125,0.00985897146165371,0.050653085112571716,-0.006286788731813431
1772363390160155600,4.82615576171875,0.01569369062781334,0.05350133776664734,-0.017860885709524155
1772363390170225400,4.836225341796875,0.02333012968301773,0.05457109212875366,-0.029190711677074432
1772363390180294400,4.84629443359375,0.024579418823122978,0.05912722647190094,-0.035950079560279846
1772363390190364400,4.856364501953125,0.027088448405265808,0.05411567538976669,-0.04640716314315796
1772363390200433400,4.866433349609375,0.027980074286460876,0.047688666731119156,-0.062390122562646866
1772363390210503400,4.87650341796875,0.026110954582691193,0.033733706921339035,-0.06809882074594498
1772363390220572400,4.886572509765625,0.01995665580034256,0.031320083886384964,-0.05609036237001419
1772363390230642400,4.896642333984375,0.01482558436691761,0.04014548286795616,-0.03532203286886215
1772363390240712400,4.90671240234375,0.005954328924417496,0.03844079375267029,-0.013693703338503838
1772363390250781400,4.916781494140625,-0.002594366669654846,0.021965544670820236,0.011722401715815067
1772363390260851500,4.9268515625,-0.0020183250308036804,0.006318142171949148,0.03214884549379349
1772363390270920400,4.93692041015625,-0.0029979287646710873,0.0009278231300413609,0.04517101123929024
1772363390280990500,4.946990478515625,-0.002568893600255251,0.0026945644058287144,0.05291122570633888
1772363390291059500,4.9570595703125,-0.003771066665649414,0.003500936087220907,0.05268363654613495
1772363390301129200,4.967129150390625,-0.002592352218925953,0.010836614295840263,0.046630002558231354
1772363390311198500,4.977198486328125,-0.0015864246524870396,0.006773290224373341,0.0337035171687603
1772363390321268500,4.9872685546875,-0.0014487388543784618,0.004385233856737614,0.016327455639839172
1772363390331337500,4.99733740234375,0.0029160063713788986,0.0003132252022624016,0.0068269576877355576
1772363390341407500,5.007407470703125,0.008553119376301765,-0.0034048138186335564,-0.004167636856436729
1772363390351477500,5.0174775390625,0.017284641042351723,-0.008486169390380383,-0.012823134660720825
1772363390361546500,5.02754638671875,0.01659674569964409,-0.0007432950660586357,-0.019011255353689194
1772363390371616300,5.0376162109375,0.01948929950594902,0.011296936310827732,-0.02863575890660286
1772363390381685500,5.047685546875,0.01346629485487938,0.015731632709503174,-0.036248136311769485
1772363390391755300,5.05775537109375,0.009310848079621792,0.009913310408592224,-0.034510739147663116
1772363390401824500,5.067824462890625,0.008704179897904396,-0.0018538665026426315,-0.02441975474357605
1772363390411894500,5.07789453125,0.006756395101547241,-0.00850445032119751,-0.012217453680932522
1772363390421963500,5.087963623046875,0.007213127333670855,-0.013342082500457764,-0.003466040827333927
1772363390432033500,5.098033447265625,0.006651025265455246,-0.018859921023249626,0.0015404969453811646
1772363390442102500,5.1081025390625,0.002930323127657175,-0.025449113920331,0.00476105697453022
1772363390452172500,5.118172607421875,-0.0006040716543793678,-0.024248294532299042,0.008520698174834251
1772363390462242300,5.1282421875,-0.003541272133588791,-0.027148742228746414,0.008172357454895973
1772363390472311600,5.1383115234375,-0.008087287656962872,-0.026546336710453033,0.014420399442315102
1772363390482381300,5.14838134765625,-0.0056097498163580894,-0.023978516459465027,0.01915230229496956
1772363390492450600,5.158450439453125,-0.0064848847687244415,-0.031870175153017044,0.017613478004932404
1772363390502520600,5.1685205078125,-0.013189125806093216,-0.03492854908108711,0.01884705200791359
1772363390512589600,5.178589599609375,-0.0149625763297081,-0.030564291402697563,0.010659735649824142
1772363390522659600,5.18865966796875,-0.01622225157916546,-0.013071318157017231,0.007971808314323425
1772363390532728300,5.198728271484375,-0.02354642003774643,-0.012507337145507336,0.013434907421469688
1772363390542798600,5.208798583984375,-0.02884610928595066,-0.009959490969777107,0.0155518539249897
1772363390552868400,5.218868408203125,-0.025222374126315117,-0.010515121743083,0.014979194849729538
1772363390562937600,5.2289375,-0.02210993878543377,-0.01168424915522337,0.012612711638212204
1772363390573007400,5.23900732421875,-0.019951770082116127,-0.015246151015162468,0.009215692058205605
1772363390583076400,5.249076416015625,-0.02165246568620205,-0.012018665671348572,0.0030882908031344414
1772363390593146600,5.259146728515625,-0.028874656185507774,-0.005945437587797642,-0.0034460341557860374
1772363390603215400,5.26921533203125,-0.024962740018963814,-0.0036742938682436943,-0.012862705625593662
1772363390613285600,5.27928564453125,-0.021722981706261635,-0.005623959936201572,-0.010468905791640282
1772363390623354000,5.28935400390625,-0.018339168280363083,-0.006851144600659609,-0.0004335828125476837
1772363390633424400,5.29942431640625,-0.014076931402087212,0.010260194540023804,0.006624006666243076
1772363390643493000,5.3094931640625,-0.015964580699801445,0.009318767115473747,0.012331959791481495
1772363390653563100,5.319563232421875,-0.019917666912078857,-0.010829057544469833,0.021687231957912445
1772363390663633200,5.329633056640625,-0.02312091737985611,-0.013084756210446358,0.032159045338630676
1772363390673702100,5.3397021484375,-0.018852513283491135,-0.008686598390340805,0.03628230094909668
1772363390683772400,5.3497724609375,-0.014681203290820122,-0.002015646081417799,0.041114337742328644
1772363390693841200,5.359841064453125,-0.012769332155585289,0.008157240226864815,0.03713119402527809
1772363390703911400,5.369911376953125,-0.0023071053437888622,0.008215297013521194,0.02768256515264511
1772363390713980200,5.379980224609375,0.00043403496965765953,0.00573336984962225,0.016922365874052048
1772363390724050200,5.39005029296875,-0.00395565340295434,0.0038025779649615288,0.013829637318849564
1772363390734119200,5.400119140625,-0.007542440667748451,0.011049354448914528,0.009389946237206459
1772363390744189200,5.410189208984375,-0.006618057377636433,0.01925268955528736,0.0037435125559568405
1772363390754258200,5.420258056640625,-0.010043041780591011,0.01951787620782852,0.0015637343749403954
1772363390764328200,5.430328125,-0.0076523227617144585,0.009769108146429062,0.0014710566028952599
1772363390774398200,5.440398193359375,-0.002858833409845829,-0.002505416749045253,0.002779019996523857
1772363390784467200,5.45046728515625,-0.00026784464716911316,-0.015106430277228355,0.009210553020238876
1772363390794537200,5.460537109375,0.004879519809037447,-0.01185171864926815,0.021369941532611847
1772363390804606200,5.470606201171875,0.003506926354020834,-0.005647351965308189,0.034231942147016525
1772363390814676200,5.48067626953125,0.002425640821456909,-0.006491260137408972,0.042038802057504654
1772363390824745200,5.4907451171875,0.00107595045119524,-0.0020906527061015368,0.04118232801556587
1772363390834815200,5.500815185546875,-0.0015407283790409565,0.0008197431452572346,0.04770762845873833
1772363390844884200,5.51088427734375,-0.00688675744459033,0.0024860831908881664,0.05081953480839729
1772363390854954200,5.520954345703125,-0.005608317442238331,0.006523341406136751,0.04912067949771881
1772363390865024000,5.53102392578125,0.0013606427237391472,0.022820821031928062,0.040656886994838715
1772363390875093200,5.54109326171875,0.004152966663241386,0.02877218648791313,0.02756478637456894
1772363390885163300,5.551163330078125,0.014334231615066528,0.02875620871782303,0.0056070247665047646
1772363390895232300,5.561232177734375,0.01733611896634102,0.020191121846437454,-0.016805153340101242
1772363390905302300,5.57130224609375,0.01818912848830223,0.017075225710868835,-0.03007648140192032
1772363390915371300,5.581371337890625,0.020488804206252098,0.013306742534041405,-0.032453082501888275
1772363390925441300,5.591441162109375,0.015167275443673134,0.023342065513134003,-0.029456228017807007
1772363390935510300,5.60151025390625,0.019775796681642532,0.025607775896787643,-0.02432265877723694
1772363390945580300,5.611580322265625,0.02047833800315857,0.016658488661050797,-0.01571585424244404
1772363390955649000,5.62164892578125,0.023058028891682625,0.004579991567879915,-0.009173479862511158
1772363390965719300,5.63171923828125,0.02723626419901848,-0.0010571214370429516,0.006949297152459621
1772363390975789300,5.641789306640625,0.02136874757707119,0.010253317654132843,0.028529580682516098
1772363390985858300,5.6518583984375,0.023463323712348938,0.03666228801012039,0.04298548772931099
1772363390995928300,5.66192822265625,0.024576108902692795,0.05990167707204819,0.048076171427965164
1772363391005997000,5.6719970703125,0.02172200009226799,0.058558642864227295,0.044292617589235306
1772363391016067300,5.6820673828125,0.018985673785209656,0.042254284024238586,0.038247786462306976
1772363391026136000,5.692135986328125,0.018057560548186302,0.03000267967581749,0.024592161178588867
1772363391036206300,5.702206298828125,0.018167290836572647,0.027486585080623627,0.008833897300064564
1772363391046275000,5.712275146484375,0.01565007120370865,0.018886972218751907,-0.0037487391382455826
1772363391056345300,5.722345458984375,0.017172623425722122,0.0020515667274594307,-0.015651054680347443
1772363391066415400,5.732415283203125,0.017725761979818344,-0.008239420130848885,-0.026147371158003807
1772363391076484000,5.742484130859375,0.015413510613143444,-0.006173952482640743,-0.034056857228279114
1772363391086554400,5.752554443359375,0.011855261400341988,0.0009137848392128944,-0.028990991413593292
1772363391096623000,5.762623046875,0.0025652917101979256,0.009535783901810646,-0.016263296827673912
1772363391106693400,5.772693359375,-0.002949848771095276,0.015723373740911484,-0.008882611989974976
1772363391116762000,5.78276220703125,0.0034616822376847267,0.011600971221923828,-0.0011374196037650108
1772363391126832000,5.79283203125,0.005024691578000784,0.001251394860446453,0.009011354297399521
1772363391136901000,5.802901123046875,0.007940969429910183,-0.006187766790390015,0.013714810833334923
1772363391146971100,5.81297119140625,0.01156712882220745,0.0034110648557543755,0.01544293574988842
1772363391157040000,5.8230400390625,0.011365843005478382,0.0151441665366292,0.018861763179302216
1772363391167110100,5.833110107421875,0.008572453632950783,0.02570200338959694,0.022945720702409744
1772363391177180400,5.843180419921875,0.007611478213220835,0.032991938292980194,0.025142543017864227
1772363391187249200,5.853249267578125,0.008762496523559093,0.022098010405898094,0.023488987237215042
1772363391197319200,5.863319091796875,0.003911555744707584,0.00808132253587246,0.01583099737763405
1772363391207388200,5.87338818359375,0.0025253798812627792,-0.006999359931796789,0.010644224472343922
1772363391217458200,5.883458251953125,-0.004407101310789585,-0.012929482385516167,0.012548722326755524
1772363391227527200,5.893527099609375,-0.01837005466222763,-0.003341836389154196,0.006878586485981941
1772363391237597200,5.90359716796875,-0.0279461108148098,0.0033235535956919193,0.00043063797056674957
1772363391247666200,5.913666259765625,-0.02693730592727661,0.010489322245121002,-0.013413804583251476
1772363391257736200,5.923736083984375,-0.026303287595510483,0.010099593549966812,-0.02126767486333847
1772363391267805200,5.93380517578125,-0.027406636625528336,-0.004048449452966452,-0.016481973230838776
1772363391277875200,5.943875244140625,-0.024296747520565987,-0.007695118896663189,-0.02043016254901886
1772363391287945200,5.9539453125,-0.021868210285902023,-0.009347343817353249,-0.016128625720739365
1772363391298014200,5.96401416015625,-0.024722889065742493,-0.017359353601932526,-0.01367293018847704
1772363391308084200,5.974084228515625,-0.024752449244260788,-0.01563309319317341,-0.009141029790043831
1772363391318153200,5.9841533203125,-0.02519180253148079,-0.02136150561273098,-0.000524359755218029
1772363391328223200,5.99422314453125,-0.021740609779953957,-0.023747965693473816,0.00286797434091568
1772363391338292200,6.004292236328125,-0.015758689492940903,-0.02449556067585945,0.022913046181201935
1772363391348362200,6.0143623046875,-0.015403957106173038,-0.00815307255834341,0.03912237286567688
1772363391358431000,6.024430908203125,-0.010138880461454391,0.016147268936038017,0.04063098132610321
1772363391368501200,6.034501220703125,-0.003585639875382185,0.005400082562118769,0.043487221002578735
1772363391378571300,6.0445712890625,-0.0033714445307850838,-0.012045376002788544,0.04388343542814255
1772363391388640300,6.05464013671875,0.006634318269789219,0.0004027709364891052,0.03422361612319946
1772363391398710300,6.064710205078125,0.00619920389726758,0.011676527559757233,0.008963307365775108
1772363391408779300,6.074779296875,0.012270678766071796,-0.02023053914308548,0.00488334521651268
1772363391418849300,6.084849365234375,0.017655562609434128,-0.011352453380823135,0.003011598251760006
1772363391428918000,6.09491796875,-0.00006378069519996643,0.049311958253383636,-0.005185345187783241
1772363391438988300,6.10498828125,-0.008933236822485924,0.045063432306051254,-0.018964357674121857
1772363391449057000,6.11505712890625,-0.010859768837690353,0.011453807353973389,-0.02506859041750431
1772363391459127300,6.125127197265625,-0.014325830154120922,-0.005853590555489063,-0.024173036217689514
1772363391469196300,6.1351962890625,-0.017635874450206757,-0.01566547527909279,-0.01410415768623352
1772363391479266000,6.14526611328125,-0.024479426443576813,-0.022082073614001274,-0.00001654587686061859
1772363391489336300,6.15533642578125,-0.024668775498867035,-0.025765491649508476,0.01342256460338831
1772363391499405000,6.165405029296875,-0.027032997459173203,-0.030101200565695763,0.03178292512893677
1772363391509475300,6.175475341796875,-0.02569502592086792,-0.0264127217233181,0.043986596167087555
1772363391519544000,6.1855439453125,-0.02606542408466339,-0.01964529976248741,0.05242645740509033
1772363391529614300,6.1956142578125,-0.028996765613555908,-0.008956171572208405,0.05205121636390686
1772363391539683000,6.20568310546875,-0.026961931958794594,0.0021087131462991238,0.05185550078749657
1772363391549753000,6.215753173828125,-0.020954372361302376,0.013630080036818981,0.0428399033844471
1772363391559822300,6.225822265625,-0.016257327049970627,0.012728694826364517,0.03162620961666107
1772363391569892000,6.23589208984375,-0.0028512408025562763,0.01322351023554802,0.01566828414797783
1772363391579962400,6.24596240234375,0.002202864270657301,0.015172991901636124,-0.0031178556382656097
1772363391590031000,6.256031005859375,0.0076642087660729885,0.015011338517069817,-0.02681572735309601
1772363391600101000,6.26610107421875,0.011119263246655464,0.018579205498099327,-0.048762738704681396
1772363391610170000,6.276170166015625,0.015625067055225372,0.02371511049568653,-0.06178799271583557
1772363391620240100,6.286240234375,0.014615461230278015,0.021110273897647858,-0.05831150338053703
1772363391630308600,6.29630859375,0.01807330921292305,0.017774131149053574,-0.05107010155916214
1772363391640378600,6.306378662109375,0.017199259251356125,0.014333860948681831,-0.03950692340731621
1772363391650447600,6.316447509765625,0.02150479331612587,-0.003221164457499981,-0.029555492103099823
1772363391660517600,6.326517578125,0.018379999324679375,-0.014352314174175262,-0.01657313108444214
1772363391670588000,6.336587890625,0.01612350158393383,-0.009750105440616608,0.0037060407921671867
1772363391680656600,6.34665673828125,0.020294344052672386,0.01201722677797079,0.008968797512352467
1772363391690726700,6.3567265625,0.02333567477762699,0.02575460821390152,0.013816549442708492
1772363391700795600,6.366795654296875,0.02631302922964096,0.01885417103767395,0.011285325512290001
1772363391710865700,6.37686572265625,0.02848510444164276,0.006266471929848194,0.004992276430130005
1772363391720934700,6.3869345703125,0.02846345119178295,0.0008943905122578144,-0.011904727667570114
1772363391731004700,6.397004638671875,0.026154756546020508,0.0032161343842744827,-0.025255419313907623
1772363391741073700,6.40707373046875,0.023670107126235962,0.008668377064168453,-0.03642280772328377
1772363391751143700,6.417143798828125,0.021826934069395065,0.013954485766589642,-0.04764057323336601
1772363391761213000,6.427212890625,0.022737642750144005,0.008582809939980507,-0.055350590497255325
1772363391771282700,6.43728271484375,0.020917637273669243,-0.009403379634022713,-0.0658266693353653
1772363391781352700,6.447352783203125,0.02210863307118416,-0.025431787595152855,-0.061096012592315674
1772363391791421700,6.457421630859375,0.018049975857138634,-0.031009778380393982,-0.04813254624605179
1772363391801491700,6.46749169921875,0.012663199566304684,-0.02390073612332344,-0.03142280876636505
1772363391811560700,6.477560791015625,0.011259714141488075,-0.020426642149686813,-0.020353645086288452
1772363391821630700,6.487630615234375,0.009128853678703308,-0.02162211947143078,-0.008058713749051094
1772363391831699700,6.49769970703125,0.004411329515278339,-0.01994113251566887,0.003602735698223114
1772363391841769700,6.507769775390625,0.002600214909762144,-0.013610923662781715,0.010732374154031277
1772363391851838700,6.517838623046875,0.002837502397596836,-0.006551416125148535,0.010909740813076496
1772363391861908700,6.52790869140625,0.0071320864371955395,-0.016425713896751404,0.0022687697783112526
1772363391871978800,6.537978759765625,0.007993352599442005,-0.025635723024606705,0.001448516733944416
1772363391882047700,6.5480478515625,0.006645224988460541,-0.022708000615239143,0.008773799985647202
1772363391892117800,6.55811767578125,0.00813979096710682,-0.012505697086453438,0.019516460597515106
1772363391902186800,6.568186767578125,0.012011553160846233,0.0024904864840209484,0.021630369126796722
1772363391912256800,6.5782568359375,0.010227235034108162,0.00019777100533246994,0.014727720990777016
1772363391922325500,6.588325439453125,0.008039922453463078,-0.006723441183567047,0.00648081861436367
1772363391932395800,6.598395751953125,0.002106399741023779,-0.007226778659969568,-0.002635447308421135
1772363391942464500,6.608464599609375,-0.004563558846712112,-0.006333600729703903,-0.020064782351255417
1772363391952534800,6.61853466796875,-0.014857475645840168,-0.007732825353741646,-0.030461497604846954
1772363391962603800,6.628603759765625,-0.020339807495474815,-0.01164194941520691,-0.0450841560959816
1772363391972673500,6.638673583984375,-0.019081996753811836,-0.019518248736858368,-0.053541556000709534
1772363391982743800,6.648743896484375,-0.017691705375909805,-0.024115338921546936,-0.06087762489914894
1772363391992812500,6.6588125,-0.014829874038696289,-0.032228659838438034,-0.06247898191213608
1772363392002882800,6.6688828125,-0.01641535386443138,-0.034446682780981064,-0.064801886677742
1772363392012951600,6.67895166015625,-0.017885684967041016,-0.02575119398534298,-0.06529483199119568
1772363392023021800,6.689021728515625,-0.016349874436855316,-0.011244313791394234,-0.05826862156391144
1772363392033090600,6.699090576171875,-0.014938665553927422,-0.013122906908392906,-0.03690021485090256
1772363392043160600,6.70916064453125,-0.011058700270950794,-0.012844011187553406,-0.021778061985969543
1772363392053229800,6.719229736328125,-0.009940971620380878,-0.01834370568394661,-0.006989262532442808
1772363392063299600,6.729299560546875,-0.009379145689308643,-0.019705520942807198,0.011207228526473045
1772363392073369900,6.739369873046875,-0.016680199652910233,-0.017698297277092934,0.02496218867599964
1772363392083438600,6.7494384765625,-0.014026930555701256,-0.012455487623810768,0.020449191331863403
1772363392093508600,6.759508544921875,-0.01441521942615509,-0.01980208419263363,0.01543365977704525
1772363392103577600,6.76957763671875,-0.013267502188682556,-0.03984763100743294,0.012715619057416916
1772363392113647600,6.779647705078125,-0.010548414662480354,-0.03956666961312294,0.011848758906126022
1772363392123716600,6.789716552734375,-0.012052776291966438,-0.030808676034212112,0.010249953716993332
1772363392133786600,6.79978662109375,-0.015957236289978027,-0.017219629138708115,0.0007155714556574821
1772363392143855900,6.80985595703125,-0.014285707846283913,-0.009192360565066338,-0.012643475085496902
1772363392153925600,6.819925537109375,-0.01270565576851368,-0.005540633574128151,-0.01924918033182621
1772363392163995000,6.829994873046875,-0.011161806993186474,-0.007745075970888138,-0.02406831458210945
1772363392174064600,6.840064697265625,-0.009774300269782543,-0.014671159908175468,-0.02320704609155655
1772363392184134700,6.850134765625,-0.008868559263646603,-0.0285749901086092,-0.01332059409469366
1772363392194203600,6.86020361328125,-0.007223258726298809,-0.03196146711707115,-0.004314316436648369
1772363392204273700,6.870273681640625,-0.003852897323668003,-0.0358012430369854,0.0004750145599246025
1772363392214342700,6.8803427734375,-0.004926950670778751,-0.025717182084918022,0.012881351634860039
1772363392224412700,6.89041259765625,-0.005358814727514982,-0.027293898165225983,0.025584720075130463
1772363392234482000,6.90048193359375,-0.004366521257907152,-0.022878378629684448,0.03857056051492691
1772363392244551700,6.9105517578125,-0.011241593398153782,-0.0021647519897669554,0.04309103637933731
1772363392254620700,6.92062060546875,-0.0069323331117630005,0.009328385815024376,0.043416205793619156
1772363392264690700,6.930690673828125,-0.005040076561272144,0.001083994284272194,0.03384324908256531
1772363392274760700,6.9407607421875,0.0004332517273724079,-0.006328914314508438,0.01346021331846714
1772363392284829700,6.95082958984375,0.008764260448515415,-0.0030628785025328398,-0.01065735425800085
1772363392294899700,6.960899658203125,0.007958387956023216,0.012165077030658722,-0.0310856644064188
1772363392304968700,6.97096875,0.01491386629641056,0.019503025338053703,-0.05155196785926819
1772363392315038700,6.981038818359375,0.011441903188824654,0.012057892978191376,-0.07149638235569
1772363392325107700,6.991107666015625,0.01782357133924961,-0.020235849544405937,-0.07007379829883575
1772363392335177700,7.001177734375,0.029569976031780243,-0.01513642817735672,-0.04769099876284599
1772363392345246700,7.011246826171875,0.02056536078453064,0.059881605207920074,-0.03740658611059189
1772363392355316700,7.021316650390625,0.01623239740729332,0.05370893329381943,-0.019881654530763626
1772363392365386800,7.03138671875,0.016524415463209152,0.0011448217555880547,-0.003464767709374428
1772363392375455700,7.041455810546875,0.018218452110886574,-0.009513681754469872,0.003629094921052456
1772363392385525800,7.05152587890625,0.01929423213005066,0.002110719680786133,0.01600630395114422
1772363392395594500,7.061594482421875,0.01893417350947857,0.01737143285572529,0.025175567716360092
1772363392405664800,7.071664794921875,0.015905987471342087,0.014920870773494244,0.031146273016929626
1772363392415733800,7.081733642578125,0.013330977410078049,0.004149981774389744,0.023024164140224457
1772363392425803800,7.0918037109375,0.011761806905269623,-0.003162682056427002,0.013686846941709518
1772363392435872800,7.101872802734375,0.011611870490014553,-0.003725408110767603,0.011789079755544662
1772363392445942500,7.111942626953125,0.01510004885494709,-0.0006064083427190781,0.0036567719653248787
1772363392456011800,7.12201171875,0.014575140550732613,-0.010155439376831055,-0.012784784659743309
1772363392466081500,7.13208154296875,0.025164680555462837,-0.018888354301452637,-0.029779359698295593
1772363392476151800,7.14215185546875,0.024430979043245316,-0.019069980829954147,-0.04938288778066635
1772363392486220500,7.152220458984375,0.015183556824922562,-0.009585367515683174,-0.05027761682868004
1772363392496290600,7.16229052734375,0.008103808388113976,0.004040428902953863,-0.048977725207805634
1772363392506359800,7.17235986328125,0.0005732178688049316,0.0028871078975498676,-0.04172931984066963
1772363392516429600,7.1824296875,-0.0037813172675669193,-0.004851505160331726,-0.029069984331727028
1772363392526498800,7.192498779296875,-0.004693816415965557,-0.01918291486799717,-0.018569497391581535
1772363392536568600,7.202568603515625,-0.0038724979385733604,-0.03259352967143059,-0.006463831756263971
1772363392546637800,7.212637939453125,-0.010251857340335846,-0.03424258902668953,0.003506091423332691
1772363392556707600,7.22270751953125,-0.012768277898430824,-0.031457990407943726,0.008122148923575878
1772363392566777600,7.232777587890625,-0.013257469981908798,-0.024124348536133766,0.00980667769908905
1772363392576846600,7.2428466796875,-0.01056448183953762,-0.022504080086946487,0.01630399003624916
1772363392586916600,7.25291650390625,-0.006180068477988243,-0.01254905853420496,0.023697422817349434
1772363392596985900,7.26298583984375,-0.006588064134120941,-0.001269505824893713,0.03223791718482971
1772363392607055600,7.2730556640625,-0.0033653373830020428,0.000030274037271738052,0.03134949132800102
1772363392617124900,7.283124755859375,-0.0007964526303112507,-0.005641992669552565,0.028641056269407272
1772363392627199000,7.293198974609375,-0.00016947276890277863,-0.011455893516540527,0.024271883070468903
1772363392637267700,7.303267822265625,-0.0025663175620138645,-0.017773445695638657,0.020743727684020996
1772363392647338000,7.313337890625,-0.00716438889503479,-0.01828308030962944,0.004662787541747093
1772363392657406700,7.32340673828125,-0.004872205667197704,-0.017704907804727554,-0.010626154951751232
1772363392667477000,7.33347705078125,-0.0043417466804385185,-0.009112171828746796,-0.019169773906469345
1772363392677546800,7.343546630859375,0.000040218234062194824,-0.012898920103907585,-0.02581143006682396
1772363392687615700,7.35361572265625,-0.0029461197555065155,-0.012142347171902657,-0.0368892140686512
1772363392697685800,7.363685791015625,-0.00019214535132050514,-0.015815379098057747,-0.03561302646994591
1772363392707754800,7.373754638671875,-0.002997051924467087,-0.005412523169070482,-0.04301350191235542
1772363392717825000,7.383824951171875,-0.002099566161632538,-0.0011578572448343039,-0.04417863488197327
1772363392727893800,7.393893798828125,0.0005070054903626442,0.0033144205808639526,-0.03288673609495163
1772363392737964000,7.403964111328125,0.003236479591578245,0.005599145777523518,-0.01814747042953968
1772363392748032800,7.41403271484375,0.010907541960477829,0.004206391517072916,-0.00399207416921854
1772363392758102800,7.424102783203125,0.012538195587694645,-0.0013162053655833006,0.012478779070079327
1772363392768172800,7.4341728515625,0.011632000096142292,-0.001928357407450676,0.02211376652121544
1772363392778241800,7.44424169921875,0.008814642205834389,-0.002167509403079748,0.029474478214979172
1772363392788311800,7.454311767578125,0.006681177765130997,0.011874211952090263,0.03284211829304695
1772363392798380800,7.464380859375,0.0051461318507790565,0.018424522131681442,0.028007682412862778
1772363392808450800,7.474450927734375,0.0006380262784659863,-0.015016978606581688,0.010641906410455704
1772363392818519800,7.484519775390625,0.0020998353138566017,-0.027752481400966644,0.008003778755664825
1772363392828589800,7.49458984375,0.0012767529115080833,-0.0027175606228411198,0.0010900367051362991
1772363392838658800,7.504658935546875,-0.0009885318577289581,0.021104414016008377,-0.002890324220061302
1772363392848728800,7.514728759765625,-0.008602510206401348,0.012315183877944946,-0.0070288763381540775
1772363392858798800,7.524798828125,-0.015652962028980255,-0.011055918410420418,-0.0274361465126276
1772363392868867800,7.534867919921875,-0.003961138427257538,-0.04420016333460808,-0.029265884310007095
1772363392878937600,7.5449375,-0.0005008932203054428,-0.02990325167775154,-0.00865142047405243
1772363392889006800,7.5550068359375,-0.011092493310570717,-0.01739499345421791,0.007007060572504997
1772363392899076900,7.565076904296875,-0.014338353648781776,-0.04542556405067444,0.0038323048502206802
1772363392909145900,7.575145751953125,-0.012681939639151096,-0.05866578221321106,0.009774603880941868
1772363392919215900,7.5852158203125,-0.023343373090028763,-0.0288719329982996,0.027898482978343964
1772363392929284900,7.595284912109375,-0.022351976484060287,-0.010663775727152824,0.03162601590156555
1772363392939355000,7.60535498046875,-0.024345621466636658,-0.017839396372437477,0.02198324352502823
1772363392949423900,7.615423828125,-0.01954486221075058,-0.03777279704809189,0.003917180933058262
1772363392959494000,7.625493896484375,-0.016574371606111526,-0.03526809439063072,-0.006279530003666878
1772363392969563600,7.635563720703125,-0.013758484274148941,-0.029774557799100876,-0.01627340354025364
1772363392979633000,7.6456328125,-0.01723870262503624,-0.02630925178527832,-0.03362895920872688
1772363392989703000,7.655702880859375,-0.014656406827270985,-0.019414516165852547,-0.04699946194887161
1772363392999772000,7.66577197265625,-0.017383750528097153,-0.016878386959433556,-0.044477179646492004
1772363393009842000,7.675842041015625,-0.010994227603077888,-0.0075762467458844185,-0.042897045612335205
1772363393019911000,7.685910888671875,-0.017640147358179092,-0.003154067788273096,-0.034415408968925476
1772363393029981000,7.69598095703125,-0.010593481361865997,-0.0011153407394886017,-0.019048593938350677
1772363393040049700,7.706049560546875,-0.0023355516605079174,-0.01710549183189869,-0.008071044459939003
1772363393050120000,7.716119873046875,-0.004775735549628735,-0.029124291613698006,0.010787343606352806
1772363393060189700,7.726189697265625,-0.0017136326059699059,-0.03407297655940056,0.027686964720487595
1772363393070259000,7.736259033203125,0.005530360620468855,-0.019441884011030197,0.03191738575696945
1772363393080329000,7.746328857421875,0.0034858519211411476,-0.013395177200436592,0.030366361141204834
1772363393090398000,7.75639794921875,0.004528680816292763,-0.010728804394602776,0.020156780257821083
1772363393100468000,7.766468017578125,0.005132952239364386,-0.01484312117099762,0.01177421398460865
1772363393110536700,7.77653662109375,-0.0016681766137480736,-0.021499300375580788,0.003945816308259964
1772363393120607000,7.78660693359375,-0.0009216926991939545,-0.02494569681584835,-0.0025791944935917854
1772363393130675700,7.79667578125,-0.0027632848359644413,-0.01939750276505947,-0.0023495880886912346
1772363393140746000,7.80674609375,-0.002196297515183687,-0.01614152267575264,-0.003038814291357994
1772363393150815700,7.816815673828125,0.00008812593296170235,-0.015093192458152771,-0.00740587105974555
1772363393160884700,7.826884765625,-0.00043119024485349655,-0.012394877150654793,-0.011073043569922447
1772363393170955000,7.836955078125,0.0030557154677808285,-0.005720369517803192,-0.018731683492660522
1772363393181023700,7.847023681640625,0.0006468864157795906,-0.0043408521451056,-0.019354863092303276
1772363393191094000,7.857093994140625,-0.0014625322073698044,-0.003983409143984318,-0.016845354810357094
1772363393201162800,7.867162841796875,-0.0003519942983984947,-0.007466291077435017,-0.013586444780230522
1772363393211233000,7.87723291015625,-0.0021944111213088036,-0.004596421029418707,-0.009653953835368156
1772363393221301800,7.8873017578125,-0.004537726752460003,0.0014428296126425266,-0.0014721909537911415
1772363393231371800,7.897371826171875,-0.0020981933921575546,0.01266949437558651,-0.005400147754698992
1772363393241441800,7.90744189453125,-0.0037887683138251305,0.013341942802071571,-0.008601799607276917
1772363393251510800,7.9175107421875,-0.007648528553545475,0.008266802877187729,-0.007090655155479908
1772363393261581000,7.9275810546875,-0.006133989430963993,0.006692609284073114,-0.0005877483636140823
1772363393271649800,7.93764990234375,-0.0022660791873931885,0.014589962549507618,0.01037906389683485
1772363393281719800,7.9477197265625,0.00016565294936299324,0.017017167061567307,0.020548608154058456
1772363393291788800,7.957788818359375,0.004957372322678566,0.014299210160970688,0.027766823768615723
1772363393301858800,7.96785888671875,0.008633066900074482,0.009662378579378128,0.02660674974322319
1772363393311927800,7.977927734375,0.00987563282251358,0.01416207104921341,0.0306679867208004
1772363393321995800,7.987995849609375,0.009590408764779568,0.016475027427077293,0.026418648660182953
1772363393332064800,7.998064697265625,0.0033884812146425247,0.019808989018201828,0.013916370458900928
1772363393342135000,8.008135009765626,0.004156802780926228,0.018155699595808983,0.0028730416670441628
1772363393352203800,8.018203857421875,0.004014879465103149,0.010409396141767502,-0.0039772577583789825
1772363393362274000,8.028274169921875,0.005017825402319431,0.012213421985507011,-0.004103491082787514
1772363393372343800,8.03834375,0.007082752883434296,0.016398828476667404,-0.007295526098459959
1772363393382412800,8.048412841796875,0.00656583346426487,0.021742461249232292,-0.00857677310705185
1772363393392482800,8.05848291015625,0.009432431310415268,0.03207197040319443,-0.011031487956643105
1772363393402551800,8.0685517578125,0.009582633152604103,0.03967609629034996,-0.009087912738323212
1772363393412621800,8.078621826171876,0.006238754838705063,0.03582051023840904,-0.005998499225825071
1772363393422690800,8.08869091796875,0.012406636029481888,0.02955089509487152,-0.003050912171602249
1772363393432760800,8.0987607421875,0.011353734880685806,0.01842447556555271,0.0034095942974090576
1772363393442829800,8.108829833984375,0.012392368167638779,0.013098951429128647,0.01365530677139759
1772363393452899800,8.11889990234375,0.011749664321541786,0.014127826318144798,0.02151629514992237
1772363393462969900,8.128969970703125,0.011159507557749748,0.008657161146402359,0.020739717409014702
1772363393473038800,8.139038818359374,0.008286381140351295,0.008664149791002274,0.028179235756397247
1772363393483108900,8.14910888671875,0.009767364710569382,0.015403279103338718,0.027312111109495163
1772363393493177900,8.159177734375,0.011934500187635422,0.020669206976890564,0.020804017782211304
1772363393503247600,8.16924755859375,0.015627771615982056,0.011906608939170837,0.01023127045482397
1772363393513316900,8.17931689453125,0.01690206490457058,0.014025324955582619,0.004984229803085327
1772363393523386600,8.18938671875,0.017646418884396553,0.01511775329709053,-0.0017106905579566956
1772363393533456000,8.199455810546874,0.013670666143298149,0.01920938864350319,-0.007786915171891451
1772363393543526000,8.20952587890625,0.007686011027544737,0.014053244143724442,-0.008002098649740219
1772363393553596000,8.219595947265624,0.015586982481181622,0.028799884021282196,0.008820128627121449
1772363393563665000,8.229664794921876,0.0017952704802155495,0.04140302911400795,0.007941550575196743
1772363393573734700,8.239734619140625,-0.0020099319517612457,0.0020022522658109665,0.017050419002771378
1772363393583804000,8.249803955078125,-0.007523740641772747,-0.01807132363319397,0.02885355055332184
1772363393593873700,8.259873779296875,-0.012175766751170158,-0.005074271000921726,0.04648451879620552
1772363393603943000,8.26994287109375,-0.01543281227350235,-0.00478212209418416,0.05087021365761757
1772363393614012700,8.2800126953125,-0.014967967756092548,-0.023733535781502724,0.04520723968744278
1772363393624082000,8.29008203125,-0.017934728413820267,-0.04542338475584984,0.03432796150445938
1772363393634151200,8.300151123046875,-0.008603467606008053,-0.039063915610313416,0.04033999145030975
1772363393644220200,8.31022021484375,-0.015291462652385235,-0.012989969924092293,0.038007594645023346
1772363393654290200,8.320290283203125,-0.017301687970757484,-0.015046775341033936,0.025441190227866173
1772363393664360200,8.330360107421875,-0.0122829619795084,-0.02638198807835579,0.007607065141201019
1772363393674429200,8.34042919921875,-0.007541967090219259,-0.019890641793608665,-0.004369432106614113
1772363393684499200,8.350499267578124,-0.00791960209608078,-0.018679969012737274,-0.027547989040613174
1772363393694568200,8.360568115234376,0.004339252598583698,-0.028373952955007553,-0.02899685688316822
1772363393704638200,8.37063818359375,0.003093425650149584,0.0006044358015060425,-0.027765944600105286
1772363393714707200,8.380707275390625,-0.0002504037693142891,0.017802488058805466,-0.020027322694659233
1772363393724777200,8.390777099609375,-0.0028943903744220734,0.0021742586977779865,-0.017733542248606682
1772363393734846200,8.40084619140625,-0.003964785952121019,-0.009674455970525742,-0.008490522392094135
1772363393744916200,8.410916259765624,0.0000792238861322403,-0.012616450898349285,0.010539628565311432
1772363393754986200,8.420986328125,-0.0036013228818774223,-0.017937369644641876,0.020691705867648125
1772363393765055200,8.43105517578125,0.007488612551242113,-0.024654662236571312,0.03824140876531601
1772363393775125200,8.441125244140625,0.00611052755266428,-0.0019350929651409388,0.03821805864572525
1772363393785194200,8.4511943359375,0.0015029925853013992,-0.012329410761594772,0.035966888070106506
1772363393795264300,8.46126416015625,-0.0013406891375780106,-0.02447693422436714,0.030948631465435028
1772363393805333200,8.471333251953125,-0.006519205868244171,-0.015167055651545525,0.02409764751791954
1772363393815403300,8.4814033203125,-0.00896374136209488,-0.010384736582636833,0.01443991158157587
1772363393825472000,8.491471923828126,-0.012840237468481064,-0.013683861121535301,0.005297812633216381
1772363393835542300,8.501542236328126,-0.012113620527088642,-0.019382024183869362,-0.0049345665611326694
1772363393845612300,8.5116123046875,-0.007419266737997532,-0.0166618712246418,-0.014144309796392918
1772363393855681300,8.521681396484375,-0.006629402749240398,-0.024510834366083145,-0.026811979711055756
1772363393865751300,8.531751220703125,-0.006688258610665798,-0.041417114436626434,-0.025624476373195648
1772363393875820000,8.541820068359375,-0.010883405804634094,-0.023376358672976494,-0.01794055476784706
1772363393885890300,8.551890380859374,-0.017698435112833977,-0.01745215803384781,-0.01973579078912735
1772363393895959000,8.561958984375,-0.01799609884619713,-0.031164931133389473,-0.012291786260902882
1772363393906029300,8.572029296875,-0.022058483213186264,-0.02374669536948204,0.0011177631095051765
1772363393916098000,8.58209814453125,-0.022056490182876587,-0.01944039575755596,0.010305038653314114
1772363393926168300,8.592168212890625,-0.020164314657449722,-0.021456673741340637,0.018158167600631714
1772363393936238300,8.60223828125,-0.01556725986301899,-0.019831158220767975,0.022462204098701477
1772363393946307000,8.61230712890625,-0.013995196670293808,-0.01107947900891304,0.022742103785276413
1772363393956377300,8.62237744140625,-0.004416178911924362,-0.016862737014889717,0.01943337544798851
1772363393966446000,8.632446044921876,-0.0038089780136942863,-0.022829551249742508,0.014266577549278736
1772363393976516400,8.642516357421876,-0.006856583524495363,-0.022362317889928818,0.022826824337244034
1772363393986585000,8.652585205078125,-0.010114694014191628,-0.004907961469143629,0.026684146374464035
1772363393996655000,8.662655029296875,-0.004422226455062628,0.015182923525571823,0.019932391121983528
1772363394006724000,8.67272412109375,-0.0017795716412365437,0.011628935113549232,0.011790040880441666
1772363394016794000,8.682794189453125,-0.0004932652227580547,0.0017515374347567558,0.013968506827950478
1772363394026863000,8.692863037109374,0.002009041141718626,-0.00175850884988904,0.00850343331694603
1772363394036933000,8.70293310546875,0.0022614826448261738,0.0008037351071834564,-0.0011012312024831772
1772363394047003400,8.71300341796875,0.00220875209197402,-0.0002402239479124546,-0.008680853992700577
1772363394057072000,8.723072021484375,0.005099029280245304,-0.005907026119530201,-0.018269261345267296
1772363394067142100,8.73314208984375,0.008357672952115536,-0.008741428144276142,-0.031917963176965714
1772363394077211100,8.743211181640625,0.00804362166672945,-0.0055994149297475815,-0.03452395275235176
1772363394087281200,8.75328125,0.006552783772349358,0.002011366654187441,-0.04455794394016266
1772363394097350100,8.76335009765625,-0.0010884362272918224,0.010507008992135525,-0.04411153495311737
1772363394107420200,8.773420166015624,-0.00041252607479691505,0.027447376400232315,-0.04192614555358887
1772363394117489200,8.7834892578125,0.0053887516260147095,0.029302265495061874,-0.039289139211177826
1772363394127559200,8.79355908203125,0.008979225531220436,0.017934562638401985,-0.02307421714067459
1772363394137629200,8.803629150390625,0.013863089494407177,0.01297049317508936,-0.0034107835963368416
1772363394147698200,8.8136982421875,0.015331557020545006,0.022531509399414062,0.015667568892240524
1772363394157768200,8.823768310546875,0.015340445563197136,0.039075739681720734,0.026141870766878128
1772363394167837200,8.833837158203124,0.015176661312580109,0.04646521061658859,0.025586601346731186
1772363394177907200,8.8439072265625,0.018047038465738297,0.04677284136414528,0.023628266528248787
1772363394187976200,8.85397607421875,0.020559199154376984,0.04519891366362572,0.01691017486155033
1772363394198046200,8.864046142578125,0.02250118926167488,0.040306273847818375,0.00556496437638998
1772363394208115200,8.874115234375,0.020973864942789078,0.03419299051165581,-0.006544428877532482
1772363394218185200,8.884185302734375,0.018462972715497017,0.030253656208515167,-0.01755348965525627
1772363394228255200,8.894255126953125,0.020246226340532303,0.027307670563459396,-0.030225344002246857
1772363394238324200,8.90432421875,0.020448926836252213,0.028994672000408173,-0.034587062895298004
1772363394248394200,8.914394287109374,0.017985235899686813,0.018953489139676094,-0.0386505126953125
1772363394258463200,8.924463134765626,0.015611247159540653,0.014566715806722641,-0.039296988397836685
1772363394268533200,8.934533203125,0.007121356204152107,0.011649489402770996,-0.03582102805376053
1772363394278602200,8.944602294921875,-0.002305464819073677,-0.006033196114003658,-0.021515142172574997
1772363394288672300,8.95467236328125,0.001630154438316822,0.003745398949831724,0.007400129921734333
1772363394298741000,8.964740966796874,-0.005511667113751173,0.010683167725801468,0.011455971747636795
1772363394308811300,8.974811279296874,-0.007288261782377958,-0.03417884558439255,0.0065733324736356735
1772363394318881300,8.98488134765625,-0.006218015216290951,-0.051405612379312515,0.008076483383774757
1772363394328950300,8.9949501953125,-0.010071876458823681,-0.030052386224269867,0.00676354393362999
1772363394339020300,9.005020263671875,-0.015288261696696281,-0.02610837109386921,0.0024774884805083275
1772363394349089000,9.015089111328125,-0.013658672571182251,-0.02725353091955185,-0.004105313681066036
1772363394359159300,9.0251591796875,-0.010137872770428658,-0.026498382911086082,-0.013450255617499352
1772363394369228000,9.03522802734375,-0.009088322520256042,-0.01770089566707611,-0.017504917457699776
1772363394379298300,9.04529833984375,-0.002645537257194519,-0.008904226124286652,-0.022684413939714432
1772363394389367000,9.055366943359376,-0.004051153548061848,0.0057639325968921185,-0.029274940490722656
1772363394399437300,9.065437255859376,-0.006998646073043346,0.01789231225848198,-0.03292756527662277
1772363394409507300,9.07550732421875,-0.0024427762255072594,0.02307828515768051,-0.03032885491847992
1772363394419576000,9.085576171875,-0.006692792754620314,0.017524171620607376,-0.023998545482754707
1772363394429646300,9.095646240234375,-0.00338967377319932,-0.0014399320352822542,-0.020058397203683853
1772363394439715000,9.105715087890625,-0.001287390012294054,-0.02317901886999607,-0.015411140397191048
1772363394449785300,9.115785400390624,0.002501755952835083,-0.03317546099424362,-0.009288533590734005
1772363394459854000,9.12585400390625,-0.0000400724820792675,-0.03156045824289322,-0.006601154338568449
1772363394469924000,9.135924072265626,-0.0009388895705342293,-0.02512706071138382,-0.0038506416603922844
1772363394479993000,9.1459931640625,-0.008215817622840405,-0.021879537031054497,-0.015675095841288567
1772363394490063000,9.15606298828125,-0.011391372419893742,-0.06235106289386749,-0.011051581241190434
1772363394500133400,9.16613330078125,-0.00945765059441328,-0.048578258603811264,0.034050650894641876
1772363394510202000,9.1762021484375,-0.008110622875392437,0.02646695449948311,0.024052876979112625
1772363394520272100,9.186272216796874,-0.006368672009557486,0.025231748819351196,-0.0024103084579110146
1772363394530341000,9.196341064453126,-0.005262927617877722,-0.019321603700518608,-0.014153783209621906
1772363394540411100,9.2064111328125,-0.0012132246047258377,-0.026177236810326576,-0.017301548272371292
1772363394550480100,9.216480224609375,0.006056139711290598,-0.005692469421774149,-0.01987762376666069
1772363394560550100,9.226550048828125,0.007781027350574732,0.011291887611150742,-0.024779636412858963
1772363394570619100,9.236619140625,0.005186309572309256,0.02446840889751911,-0.03836468607187271
1772363394580689200,9.246689208984375,0.003268437460064888,0.017816398292779922,-0.04384510964155197
1772363394590759200,9.25675927734375,0.0065957908518612385,-0.0022782180458307266,-0.04442621394991875
1772363394600828200,9.266828125,0.005303164012730122,-0.013262111693620682,-0.03321988508105278
1772363394610898200,9.276898193359376,0.005972416140139103,-0.007210877723991871,-0.020483851432800293
1772363394620967200,9.28696728515625,0.00008642766624689102,-0.0002145189791917801,-0.007584127131849527
1772363394631038000,9.297037841796875,-0.008209851570427418,0.008976316079497337,0.006469373591244221
1772363394641107000,9.30710693359375,-0.009955928660929203,0.011781752109527588,0.009681393392384052
1772363394651177000,9.317177001953125,-0.011426526121795177,0.010729005560278893,0.008017717860639095
1772363394661245700,9.32724560546875,-0.011739309877157211,0.0020758938044309616,0.01787523925304413
1772363394671316000,9.33731591796875,-0.006941624451428652,-0.007228924427181482,0.02246066927909851
1772363394681386000,9.347385986328124,0.0026860395446419716,-0.003074612468481064,0.024326225742697716
1772363394691455000,9.357455078125,0.01118951290845871,0.010108301416039467,0.02494434453547001
1772363394701525000,9.36752490234375,0.011788148432970047,0.01901981607079506,0.02282639965415001
1772363394711594000,9.377593994140625,0.009054147638380527,0.021932251751422882,0.023123078048229218
1772363394721664000,9.3876640625,0.004112968221306801,0.01967550441622734,0.019558291882276535
1772363394731732700,9.397732666015624,-0.0009845881722867489,0.008332834579050541,0.010741633363068104
1772363394741803000,9.407802978515624,-0.005266023799777031,-0.005001645535230637,0.003031419590115547
1772363394751871700,9.417871826171876,-0.005692928098142147,-0.01098204031586647,0.004136364907026291
1772363394761942000,9.42794189453125,-0.0028451569378376007,-0.008808240294456482,-0.004926940891891718
1772363394772011800,9.43801171875,-0.0016318215057253838,-0.003651561914011836,-0.012676740065217018
1772363394782080800,9.448080810546875,-0.0006279135122895241,-0.0036717853508889675,-0.023426786065101624
1772363394792151000,9.458151123046875,0.0021305885165929794,0.0007969988510012627,-0.024653172120451927
1772363394802219800,9.4682197265625,-0.0023190760985016823,0.014469054527580738,-0.021137584000825882
1772363394812290000,9.4782900390625,0.0037729048635810614,0.018884576857089996,-0.008148280903697014
1772363394822358800,9.48835888671875,0.0024377447552978992,0.019433345645666122,0.00573579128831625
1772363394832429000,9.498428955078126,0.005971493199467659,0.01336906012147665,0.02117680013179779
1772363394842497800,9.508497802734375,0.007692090235650539,0.010952195152640343,0.04029295966029167
1772363394852567800,9.51856787109375,0.008970939554274082,0.009307426400482655,0.05446656420826912
1772363394862637800,9.528637939453125,0.008353648707270622,0.014798957854509354,0.06176477298140526
1772363394872706800,9.538706787109374,0.00731714628636837,0.03048603981733322,0.0640106201171875
1772363394882777000,9.548777099609374,0.019436826929450035,0.027697304263710976,0.05048699676990509
1772363394892845800,9.558845703125,0.02077879197895527,0.014178566634654999,0.036728836596012115
1772363394902915800,9.568915771484376,0.022110000252723694,0.012687791138887405,0.02269662544131279
1772363394912984800,9.57898486328125,0.021290812641382217,0.006610192358493805,0.010788566432893276
1772363394923054800,9.589054931640625,0.028577350080013275,0.028864864259958267,0.021569479256868362
1772363394933123800,9.599123779296875,0.021792415529489517,0.04848916828632355,0.010974626056849957
1772363394943193900,9.60919384765625,0.017554929479956627,0.02528374455869198,0.0035735303536057472
1772363394953262800,9.619262939453124,0.0199123602360487,0.018444480374455452,0.001009172759950161
1772363394963332900,9.629332763671876,0.014569583348929882,0.03273199498653412,0.007871762849390507
1772363394973403000,9.63940283203125,0.008413420058786869,0.039388567209243774,0.00915194395929575
1772363394983471900,9.649471923828125,0.00950616504997015,0.0262815672904253,0.006140569224953651
1772363394993542000,9.6595419921875,0.005278662778437138,0.009461043402552605,0.0044430699199438095
1772363395003611000,9.66961083984375,0.0021074945107102394,0.0037173093296587467,0.009681218303740025
1772363395013681000,9.679680908203125,-0.008040746673941612,-0.00012323493137955666,0.010085486806929111
1772363395023750000,9.68975,-0.010890352539718151,0.006134895142167807,0.009297572076320648
1772363395033820000,9.69981982421875,-0.014511720277369022,0.005721040535718203,0.02128179743885994
1772363395043889000,9.709888916015625,-0.015327789820730686,0.007179811131209135,0.02191302925348282
1772363395053959000,9.719958984375,-0.013149856589734554,0.0020191376097500324,0.011889954097568989
1772363395064029000,9.73002880859375,-0.004734693095088005,-0.012264523655176163,0.002259981818497181
1772363395074098000,9.740097900390625,-0.0008430154994130135,-0.014064554125070572,-0.004290862008929253
1772363395084168000,9.75016796875,-0.0021302509121596813,-0.010581906884908676,-0.007785898633301258
1772363395094237000,9.76023681640625,-0.0053638615645468235,0.002625240944325924,-0.009742257185280323
1772363395104307000,9.770306884765626,-0.012102285400032997,0.016122862696647644,-0.013880174607038498
1772363395114376000,9.7803759765625,-0.006923769135028124,0.029732145369052887,-0.025878246873617172
1772363395124446000,9.790446044921875,-0.007488272152841091,0.023516610264778137,-0.03164295479655266
1772363395134514700,9.8005146484375,-0.0023086899891495705,0.016085859388113022,-0.027838096022605896
1772363395144585000,9.8105849609375,-0.0014766110107302666,0.005773238372057676,-0.022445444017648697
1772363395154655000,9.820655029296875,0.00415837112814188,-0.0065681166015565395,-0.015586206689476967
1772363395164724000,9.830723876953124,0.008007518947124481,-0.018092457205057144,-0.004040295258164406
1772363395174794000,9.8407939453125,0.009331109933555126,-0.016172584146261215,0.009568990208208561
1772363395184863000,9.850863037109375,0.009496375918388367,-0.005216985009610653,0.02253906801342964
1772363395194933000,9.86093310546875,0.011826375499367714,0.008334243670105934,0.02439502626657486
1772363395205001700,9.871001708984375,0.010487828403711319,0.008690355345606804,0.022593732923269272
1772363395215072000,9.881072021484375,0.006672849878668785,0.010060019791126251,0.020274385809898376
1772363395225140700,9.891140625,0.009613431058824062,0.017669251188635826,0.009882951155304909
1772363395235211000,9.9012109375,-0.003418215084820986,-0.007908813655376434,-0.035582803189754486
1772363395245281000,9.911281005859376,0.008986841887235641,-0.0454680472612381,-0.010881483554840088
1772363395255349800,9.921349853515625,0.031803205609321594,0.058236245065927505,0.0976998582482338
1772363395265420000,9.931419921875,-0.0016289139166474342,0.2049380987882614,0.09556835144758224
1772363395275488800,9.94148876953125,-0.021593034267425537,0.12598682940006256,0.06456755846738815
1772363395285559000,9.95155908203125,0.02013976499438286,0.06727131456136703,0.020295176655054092
1772363395295627800,9.961627685546874,0.030392136424779892,0.022562431171536446,-0.037584636360406876
1772363395305697800,9.97169775390625,0.046258825808763504,-0.08588234335184097,-0.04232265055179596
1772363395315766800,9.981766845703126,0.049386706203222275,-0.16789545118808746,-0.06527190655469894
1772363395325836800,9.9918369140625,0.029105065390467644,-0.2078903317451477,-0.07281691581010818
1772363395335907000,10.001906982421875,0.015496045351028442,-0.2125316858291626,-0.08180002868175507
1772363395345975800,10.011975830078125,0.009998072870075703,-0.2463882863521576,-0.09434061497449875
1772363395356046000,10.022046142578125,-0.00749783031642437,-0.2810882031917572,-0.07932571321725845
1772363395366114800,10.03211474609375,-0.01173442229628563,-0.24372553825378418,-0.06304287910461426
1772363395376184800,10.042184814453124,-0.02672775462269783,-0.18783004581928253,-0.0356844961643219
1772363395386253800,10.05225390625,-0.032798923552036285,-0.09380166232585907,0.024342361837625504
1772363395396323800,10.06232373046875,-0.04106004908680916,0.07216600328683853,0.04508119821548462
1772363395406392800,10.072392822265625,-0.03247576951980591,0.13331963121891022,0.019776584580540657
