time,seconds_elapsed,z,y,x
1772363385457678000,0.123677978515625,-0.06623100627660751,0.03601590075492859,0.09607684009447694
1772363385467748000,0.133748046875,-0.12458324200212954,0.03196399501562119,0.13166910860985517
1772363385477817000,0.143817138671875,-0.002590601015090942,0.005105798706412315,0.000943564460426569
1772363385487887000,0.15388720703125,-0.03793371707499027,-0.06408288833200931,-0.11319675559103488
1772363385497956000,0.1639560546875,-0.26700258494615553,-0.14025135125517843,-0.15004837651774286
1772363385508026000,0.174026123046875,-0.32867665857076644,-0.1020025768816471,-0.051128421951830386
1772363385518095000,0.18409521484375,-0.15079846423268317,-0.02055997294783592,0.053973728380352255
1772363385528165000,0.1941650390625,0.024454057776927947,0.020769816306233403,0.020552666424214838
1772363385538235100,0.204235107421875,0.08155132500529289,0.08395663258135318,0.027834493995457885
1772363385548304100,0.21430419921875,0.08206687331199645,0.09369535178542136,0.037299218563735484
1772363385558374100,0.2243740234375,0.20966741730868815,0.0685275927811861,0.02633534147888422
1772363385568443100,0.234443115234375,0.2126677681684494,-0.0005552957952022552,-0.038295536124706264
1772363385578513200,0.24451318359375,0.08101648747622966,-0.03786357444822788,-0.043752632486820216
1772363385588582100,0.25458203125,-0.12457447417378426,-0.0931885713070631,-0.017531418906897304
1772363385598652200,0.264652099609375,-0.17156535792946814,-0.10552665935456752,-0.006545329990237951
1772363385608721000,0.274720947265625,-0.04713935231566429,-0.05102642288208008,0.033314678972214455
1772363385618791200,0.284791259765625,0.00618657968044281,-0.03755962306559086,0.038963206253200766
1772363385628859400,0.294859375,0.12464987749755382,0.010856909579038619,0.04904591658934951
1772363385638929200,0.30492919921875,0.19777590398490427,0.0768581987529993,0.05836947912126779
1772363385648999200,0.314999267578125,0.14133680840432644,0.11460545334517955,0.05312587937936186
1772363385659068200,0.325068115234375,-0.08843231669068335,0.10309913994669914,0.0209486800044775
1772363385669138200,0.33513818359375,-0.16082067655324936,0.05412497341930866,-0.0364791343525052
1772363385679207400,0.34520751953125,-0.08881459400653839,-0.011481763479113578,-0.057817690457403655
1772363385689277200,0.355277099609375,-0.15683306822180748,-0.06645896981358528,-0.07462415609061718
1772363385699346200,0.36534619140625,-0.1593418361723423,-0.09457856436073779,-0.06512830573171377
1772363385709416200,0.375416259765625,-0.0881213510453701,-0.05851707089841365,-0.06619169717952608
1772363385719485200,0.385485107421875,0.02835164973735809,0.010104629907011985,-0.02882818120792508
1772363385729555200,0.39555517578125,0.06855097365677357,0.04523439547717571,-0.021972323963791132
1772363385739625200,0.405625244140625,0.04012099798619747,0.03866144682765007,-0.037125177171081304
1772363385749694200,0.415694091796875,-0.007360884156823158,0.06601414865553379,-0.0192690563544631
1772363385759764200,0.42576416015625,0.019925766697525975,0.030478724893927573,-0.03453457615599036
1772363385769833200,0.435833251953125,-0.01021159741282463,-0.013875380617380141,-0.04661138291880488
1772363385779903200,0.4459033203125,-0.0603974778175354,-0.03145253836214542,-0.07221782560124992
1772363385789972200,0.45597216796875,-0.056361938691139216,-0.025544191101193426,-0.07369608146026731
1772363385800042200,0.466042236328125,0.02128770270049572,0.02682254047393799,-0.026674802566319704
1772363385810111200,0.476111328125,0.07976970228552818,0.04950257431566715,-0.01122720419615507
1772363385820181200,0.48618115234375,-0.07736614827513694,-0.06763736594319343,-0.09282309899553656
1772363385830250200,0.496250244140625,-0.046559506601095195,-0.08816343662142753,-0.1035363623201847
1772363385840320000,0.506320068359375,0.04268295742869377,-0.14104279389381408,-0.09181114547401666
1772363385850389200,0.51638916015625,0.03126782944500446,-0.16412264070808885,-0.08779913335368036
1772363385860459300,0.526459228515625,-0.011431494596600532,-0.19343349086642264,-0.1091084633640945
1772363385870529300,0.536529296875,0.09112637808024883,-0.04667582645714283,0.017058102306723593
1772363385880598300,0.546598388671875,0.05307692567110062,0.03825111246109009,0.04430325210690498
1772363385890668000,0.55666796875,-0.06739595840275288,0.09587328034639359,0.02275602168738842
1772363385900737300,0.5667373046875,-0.05037351193130016,0.22437223448753355,0.05289776971191167
1772363385910807000,0.57680712890625,-0.035869770282506944,0.30723464209139345,0.05153218044713139
1772363385920876300,0.586876220703125,-0.0022445640563964844,0.2520510995298624,0.02379208673685789
1772363385930946000,0.596946044921875,0.07657879728972912,0.13618074081540107,0.021787176655232905
1772363385941015300,0.607015380859375,0.14146189608871937,0.030581016224622726,0.034100860913842915
1772363385951085000,0.6170849609375,0.13725216943919658,-0.010129179826378822,0.05956789512559771
1772363385961154300,0.627154296875,0.1563572674036026,0.022671266013383862,0.1122200195133686
1772363385971224300,0.637224365234375,0.11969488543868065,0.030054946523904797,0.08313903258815407
1772363385981293300,0.647293212890625,0.00952536871433258,-0.021920155385136603,0.00959463455826044
1772363385991363300,0.65736328125,-0.15593115094602106,-0.08035831582844256,0.007930208477377892
1772363386001433000,0.66743310546875,-0.2549228555738926,-0.04403904821276664,0.07311813544183969
1772363386011502300,0.67750244140625,-0.174260588362813,0.008366261807084083,0.09820201555490493
1772363386021572000,0.687572021484375,0.09927753583192825,0.12030921794474124,0.09956249025315046
1772363386031641300,0.697641357421875,0.07519523397684097,0.13573299704790115,0.01862710518911481
1772363386041711000,0.707711181640625,-0.0755991386026144,0.10721885022521019,-0.005101268661767244
1772363386051780000,0.717780029296875,-0.2951882304668426,0.04058452384471893,-0.01098477374240756
1772363386061850400,0.727850341796875,-0.37836218823790546,-0.10878653793334961,-0.03818476922661066
1772363386071919000,0.737919189453125,-0.3701473176002502,-0.13352759595811367,-0.03330766470953822
1772363386081989400,0.7479892578125,-0.1636941861629486,-0.03996083898842334,0.014520838914066553
1772363386092058000,0.75805810546875,-0.013515315133333206,0.16469313407242298,0.0857585674367845
1772363386102128400,0.76812841796875,0.08205167574286461,0.22317980983257293,0.10338482502028346
1772363386112198100,0.7781982421875,0.05257306780219078,0.16901099727153776,0.024461072039604185
1772363386122267100,0.78826708984375,-0.013301380121707916,0.06675356884598732,-0.03621522271931171
1772363386132337200,0.798337158203125,0.030476971328258513,-0.023357494711875915,-0.0665144993931055
1772363386142406100,0.80840625,0.08220131334662437,0.012529226705431938,-0.030160306594520805
1772363386152476400,0.818476318359375,0.020785598397254943,-0.06747603790163993,-0.06939020095989108
1772363386162545200,0.828545166015625,-0.002292494851350784,-0.06375204894244671,-0.12970730701759456
1772363386172615200,0.838615234375,-0.021108254480361938,0.009541150805354118,-0.10287190706208348
1772363386182684200,0.84868408203125,-0.11521452515423297,-0.03404489294290542,-0.13177841420322656
1772363386192754200,0.858754150390625,-0.1968459296584129,-0.04867489131987095,-0.12094473936930299
1772363386202823200,0.8688232421875,-0.11803192066252231,0.017562544697523115,-0.05415259207859635
1772363386212893200,0.87889306640625,0.04476911605298519,0.12208324187994003,-0.009782119954377413
1772363386222962200,0.888962158203125,0.11331775162220001,0.14452537531256676,-0.004400865307450294
1772363386233032200,0.8990322265625,0.08912731321752071,0.1074748708128929,-0.008823504055291413
1772363386243102200,0.909102294921875,0.024807108998298643,0.06861001036763191,-0.006607143180072307
1772363386253171200,0.919171142578125,-0.05831248823702335,0.01333820500075817,-0.014672230083495377
1772363386263241200,0.9292412109375,-0.111723175907135,-0.02042670195698738,0.0049330724880099295
1772363386273310200,0.939310302734375,-0.10782324585914611,-0.0034866730719804763,0.05493818949833512
1772363386283380200,0.949380126953125,-0.04181786503195763,0.022514029625058173,0.13684125055074692
1772363386293449200,0.95944921875,-0.006271919876337051,0.04410977536141872,0.1533808819413185
1772363386303519200,0.969519287109375,0.015736498314142228,0.04395779967010021,0.10041399251595139
1772363386313588200,0.979588134765625,-0.006311082842946052,0.030621932756900786,0.04972966106981039
1772363386323658200,0.989658203125,-0.06804302413463592,0.006383563557267189,0.007588993824273347
1772363386333727200,0.999727294921875,-0.10099544566571712,0.04084931226074695,0.04986161688640713
1772363386343797200,1.00979736328125,-0.15778116272687912,0.05452537091374397,0.05959492926299571
1772363386353866000,1.019865966796875,-0.09713818571567535,0.11650222687721251,0.09782382989227771
1772363386363936300,1.029936279296875,0.026563012754917143,0.14192951360046863,0.11691373028755188
1772363386374006300,1.04000634765625,0.006002455285191536,0.04522738121449947,0.004341828596591949
1772363386384075300,1.0500751953125,-0.11366729571223258,-0.04433773889839649,-0.09384995782524347
1772363386394145300,1.060145263671875,-0.18899463163614272,-0.10171265402436255,-0.09335910556837916
1772363386404214000,1.070214111328125,-0.1428507200986147,-0.1496598155915737,-0.07471651054918765
1772363386414284300,1.0802841796875,-0.021059154641628264,-0.09904080446660518,-0.06663228055387735
1772363386424353000,1.09035302734375,0.037947745600342746,0.04643091178536415,0.028329876296967267
1772363386434423300,1.10042333984375,0.05100421105027198,0.15482289744317532,0.10072992659732699
1772363386444492000,1.110491943359375,0.026025252616405484,0.1340057348638773,0.0702193452604115
1772363386454562300,1.120562255859375,-0.00030278233885765074,0.06683131025731563,0.017275544449687003
1772363386464631300,1.13063134765625,0.03251753724515438,0.018014380118250847,-0.02133124958127737
1772363386474701000,1.140701171875,0.0691594609439373,-0.00343465062379837,-0.045620764446258545
1772363386484770300,1.150770263671875,0.07670563853979111,-0.01781681171953678,-0.04196589520052075
1772363386494840000,1.160840087890625,0.0878600697606802,-0.004690203642845153,-0.02392170446589589
1772363386504910300,1.170910400390625,0.038814007040858266,-0.010837035834789276,-0.006748305216431617
1772363386514979000,1.18097900390625,-0.028303134420514107,-0.041457215026021,-0.03539163137674332
1772363386525049000,1.191049072265625,-0.05063187060654163,-0.052289574685692786,-0.04734232754185796
1772363386535118000,1.2011181640625,-0.03619125732183456,-0.044020343512296674,-0.028938948106020688
1772363386545188000,1.21118798828125,-0.023755554118752478,-0.014718845704197884,-0.022989976573735475
1772363386555257300,1.22125732421875,-0.028804654201865194,0.022805706048011777,-0.0349446182616055
1772363386565327000,1.2313271484375,-0.048693596020340915,0.07050444581210613,-0.03143251848742366
1772363386575396400,1.241396240234375,-0.014098667979240417,0.12889993615746498,-0.0398038948610425
1772363386585466000,1.251466064453125,0.044891281127929686,0.18376082263588905,-0.022221184158325195
1772363386595535400,1.261535400390625,0.0518704724907875,0.12992460303008554,-0.04918400988578796
1772363386605605000,1.271605224609375,0.04207096301019191,0.023778350472450256,-0.07563450217694044
1772363386615674400,1.28167431640625,0.09983516971468925,-0.006086626437306404,-0.028912790751457213
1772363386625745000,1.291744873046875,0.17238836475014685,-0.003914543095231056,0.018917466437816617
1772363386635813600,1.301813720703125,0.15972294444441795,-0.018199089035391806,-0.015500351470708846
1772363386645884000,1.3118837890625,0.015349544823169707,-0.03524491638243198,-0.04715367310196161
1772363386655953700,1.32195361328125,-0.04261398384571075,-0.033494273322820664,-0.046545039684325454
1772363386666022700,1.332022705078125,-0.04452595494687557,-0.03436930259168148,-0.03654357789084315
1772363386676092700,1.3420927734375,-0.028224808487296103,0.000800210466980934,-0.020132541316002606
1772363386686161700,1.35216162109375,-0.00833586666882038,0.04472995308637619,0.0060628071703016755
1772363386696231700,1.362231689453125,-0.03783551739752292,0.08950725244581699,0.028274054456502197
1772363386706300700,1.37230078125,-0.028636311897635457,0.07959317667484284,0.02035831289589405
1772363386716371000,1.382370849609375,-0.015423194581270217,0.009730535897612571,-0.044458734929561615
1772363386726439700,1.392439697265625,-0.04795826748311519,-0.06007832886576652,-0.0908095672160387
1772363386736509700,1.402509765625,-0.048636897397041315,-0.06716565677821636,-0.06041983577981591
1772363386746578700,1.41257861328125,0.028873043262958524,0.0003308393895626068,0.020987989101558923
1772363386756648700,1.422648681640625,0.08639759599268436,0.08305588434934616,0.07057122743800281
1772363386766717700,1.4327177734375,0.16319149733781813,0.10044657961130142,0.04862725278586149
1772363386776787700,1.44278759765625,0.19368191266953944,0.020615502527356146,-0.03934270709007978
1772363386786857700,1.452857666015625,0.12217384277284145,-0.1043166990429163,-0.11848068734332919
1772363386796926700,1.4629267578125,0.03379705566167831,-0.1962976481258869,-0.1629813617184758
1772363386806996700,1.472996826171875,0.018950199663639068,-0.18655308370292187,-0.15535758884176612
1772363386817065700,1.483065673828125,0.036600422644615174,-0.07029986315071582,-0.0655767801515758
1772363386827135700,1.4931357421875,0.020419687694311142,0.033359248766303064,-0.024777736773341892
1772363386837204700,1.503204833984375,0.010298106652498244,0.07098784541487693,-0.01434928173944354
1772363386847274800,1.513274658203125,0.0032832594543695448,0.02043722335100174,-0.022302871092408895
1772363386857343700,1.52334375,0.009202128109335898,-0.014214987835288047,-0.02116349179893732
1772363386867413800,1.533413818359375,0.02627075181007385,-0.007432780349254608,-0.027190789264440535
1772363386877482800,1.543482666015625,0.0544891305565834,0.039780806246399875,0.009367693934589624
1772363386887552800,1.553552734375,-0.006399930170178413,0.040512043130397794,0.01347220664396882
1772363386897621500,1.56362158203125,-0.157494162479043,0.029835166293382644,-0.016275427496433258
1772363386907691800,1.57369189453125,-0.16765139935612677,0.021928338691592216,-0.005730652606487274
1772363386917760500,1.583760498046875,-0.06722177087962627,0.052746086281538006,0.021154431709647176
1772363386927830800,1.593830810546875,0.01038110876083374,0.06955868939459324,0.03136500620916485
1772363386937900800,1.60390087890625,0.02068330706655979,0.045350130811333655,0.0476876338481903
1772363386947969800,1.6139697265625,0.09132102386951446,-0.006955225965380668,0.0405269484385848
1772363386958039800,1.624039794921875,0.007481880187988281,-0.008252864560484886,0.034859278065711256
1772363386968108500,1.634108642578125,-0.04728314470052719,-0.012478957822918892,0.03662979486957192
1772363386978178800,1.6441787109375,-0.11148059932291507,-0.00575695609152317,0.02670475931316614
1772363386988247600,1.65424755859375,-0.21084932056963443,-0.0019616554617881772,0.016192863779515027
1772363386998317800,1.66431787109375,-0.21152561239600182,0.03591887012124061,0.05934943006932735
1772363387008386600,1.674386474609375,-0.07010346379578113,0.08564064014554024,0.11227934848517179
1772363387018456600,1.68445654296875,0.06751578539013862,0.17673194691240787,0.1779068359106779
1772363387028525600,1.694525634765625,0.019620061749219892,0.21535890694856644,0.17125731489360332
1772363387038595600,1.704595703125,-0.08525076404511928,0.13834697893857956,0.09653130586370826
1772363387048664800,1.714664794921875,-0.12480009962320326,0.01779109275639057,0.03136354490444064
1772363387058734600,1.724734619140625,-0.09817103589475154,-0.08416472237408161,0.006089549046754837
1772363387068804900,1.734804931640625,-0.025071897414326666,-0.13334230251908302,0.003457446977496147
1772363387078873600,1.74487353515625,0.052609892681241034,-0.06915420024693011,0.026604659939557313
1772363387088943600,1.754943603515625,0.04751578441262245,0.030506197422742843,0.04946180391386151
1772363387099012600,1.7650126953125,0.05572597887516021,0.08843757738769054,0.05919350885525346
1772363387109082600,1.77508251953125,-0.014607786545157432,0.061580550122261046,0.005921499003469943
1772363387119151600,1.785151611328125,-0.22878771284222602,0.08398878128528595,0.013096212938427925
1772363387129221600,1.7952216796875,-0.13603811747431754,0.1049175875455141,0.029942572190612554
1772363387139291000,1.805290771484375,0.08202361869215964,0.07467208688557148,-0.0028575813882052896
1772363387149360600,1.815360595703125,0.14716916781961917,0.06597790829837322,0.0031746845133602615
1772363387159430000,1.825429931640625,0.08686462898254393,0.06080898122787475,0.04145736115649342
1772363387169499600,1.835499755859375,0.01664601437449455,0.009991817182302474,0.043146337156742806
1772363387179568600,1.845568603515625,-0.0646761780500412,-0.00959200420975685,0.010013298361748456
1772363387189638700,1.855638671875,-0.05648702637553215,0.03782148887217045,0.017684855902940035
1772363387199707600,1.865707763671875,0.04094225124120712,0.05409574732482433,0.020002777456492184
1772363387209777700,1.875777587890625,0.08132336146831512,0.0016278934627771376,-0.05234525039568543
1772363387219847700,1.88584765625,0.06311725817024708,-0.006758826610445976,-0.07979585964009166
1772363387229917000,1.8959169921875,0.009492635488510131,0.006734276691079139,-0.03744710260182619
1772363387239986700,1.905986572265625,-0.06093289986848831,-0.011932429856061934,-0.03882847395762801
1772363387250055700,1.9160556640625,-0.10754910509288311,-0.05451075786650181,-0.059736091299355025
1772363387260125700,1.926125732421875,-0.07498129896521567,-0.04775602290928364,-0.05987447685673832
1772363387270194700,1.936194580078125,-0.00014846855998039245,-0.0404945074737072,-0.05639043413326144
1772363387280264700,1.9462646484375,0.03143441818356514,-0.0038420623809099193,-0.020543167943507433
1772363387290333700,1.956333740234375,0.003819850549101829,0.050751113072037696,0.015330693992227315
1772363387300403700,1.96640380859375,0.014973697248101233,0.0743009154856205,0.054525955435633655
1772363387310472700,1.97647265625,0.06573766980171203,0.07382336110174656,0.09135653357431292
1772363387320542700,1.986542724609375,0.08256488596200942,-0.0037280806124210357,0.06004705694466829
1772363387330611700,1.99661181640625,0.0706494072407484,-0.048479661008715626,-0.004720160389691591
1772363387340681700,2.006681640625,-0.0007224690556526184,-0.06290624576807022,-0.015652619422972202
1772363387350750700,2.016750732421875,-0.04314940589666366,-0.03383271149694919,0.007623188354820012
1772363387360820700,2.02682080078125,-0.10047463666200637,-0.0021878654330968854,-0.0015581892274320124
1772363387370890500,2.036890380859375,-0.09593407062292099,0.026976269730925557,-0.01000292309820652
1772363387380959700,2.046959716796875,-0.06451660357415676,0.03185235133469105,-0.008883417548984288
1772363387391029500,2.057029541015625,-0.01924596773982048,0.024292145213484762,-0.011211714366078375
1772363387401098800,2.0670986328125,0.043732758742570876,0.030044425129890442,0.01228533494696021
1772363387411168800,2.077168701171875,0.11237024163901806,0.0010936404556035994,0.031345424725860355
1772363387421237800,2.08723779296875,0.0828442874252796,-0.040321488994359965,-0.00018543956950306891
1772363387431307800,2.097307861328125,0.0298632233440876,-0.06124561907947063,-0.026966771250218152
1772363387441376800,2.107376708984375,0.0067167410343885415,-0.09093114776909351,-0.04479775762557983
1772363387451446800,2.11744677734375,0.02173778455555439,-0.09862696296870709,-0.060587009040266274
1772363387461515800,2.127515869140625,0.027104864546656608,-0.08023615075349808,-0.06801233673542738
1772363387471585800,2.137585693359375,0.018136545193195342,-0.04993219790458679,-0.06401522992327809
1772363387481654500,2.147654541015625,0.022753099077939987,-0.012968787166476248,-0.051152095088362694
1772363387491724800,2.157724853515625,0.018071663263440133,0.010430208599567413,-0.024312603479623794
1772363387501793500,2.16779345703125,0.008614099088311195,0.02930734302699566,-0.01614595589786768
1772363387511863800,2.17786376953125,0.028103227934241293,0.08574877669513226,-0.011491554220765829
1772363387521933800,2.187933837890625,0.0178115510225296,0.09168225839734077,-0.03626870647221803
1772363387532002600,2.19800244140625,-0.018071078741550443,0.053824529168009755,-0.06668854078575968
1772363387542072800,2.20807275390625,-0.023866028755903244,-0.004306172761321067,-0.08676131473854183
1772363387552141600,2.2181416015625,0.004728782087564468,-0.034521862804889676,-0.06631970747336745
1772363387562211800,2.2282119140625,0.05680033010840416,-0.0005132102191448212,-0.017511837423592806
1772363387572280600,2.238280517578125,0.09187631966471671,0.0358802916765213,0.005237023870646953
1772363387582350800,2.248350830078125,0.06918284181952476,0.06547405042946339,0.02660612124428153
1772363387592419600,2.258419677734375,0.001364274090528488,0.0563975945264101,0.06349398252815008
1772363387602489600,2.268489501953125,-0.09861644157469272,0.013098551025986671,0.053203766921162604
1772363387612558600,2.27855859375,-0.1323404320001602,-0.009522446104884147,0.05103314488381147
1772363387622632400,2.288632568359375,-0.07432955705821513,-0.005151391413807869,0.07249430445507168
1772363387632701700,2.29870166015625,0.017379004824161527,0.04346680128276348,0.08419847851321101
1772363387642771500,2.308771484375,0.04125321688652038,0.03164016988873482,0.05923603282272815
1772363387652840700,2.3188408203125,-0.01303366909623146,0.019721184036135674,0.07367328510656952
1772363387662910700,2.32891064453125,-0.08368482990264892,0.01254910044968128,0.08579203131496906
1772363387672980500,2.33898046875,-0.1293862583696842,0.01996317609846592,0.05680383723974228
1772363387683049700,2.3490498046875,-0.08626023334860801,0.022826748836040495,0.021391747596859932
1772363387693119500,2.359119384765625,-0.008719897550344467,0.0038759646505117412,0.0033243221171200274
1772363387703188700,2.369188720703125,0.0012228197932243347,-0.015784429109096526,0.0002950374238193035
1772363387713258500,2.379258544921875,0.028381460353732107,-0.010019289711117743,0.01254106327369809
1772363387723327700,2.38932763671875,0.050745852375030515,0.005929974570870399,0.01966857706606388
1772363387733397500,2.3993974609375,0.024697218883037567,0.009074117815494536,-0.008827157317101954
1772363387743466500,2.409466552734375,0.005219195953011513,0.03668517831861973,-0.0016281857237219809
1772363387753536800,2.419536865234375,-0.003072247052192688,0.00478314262330532,-0.015413403839617966
1772363387763605500,2.42960546875,-0.045509705287218094,0.00516483541727066,0.017790362104028463
1772363387773675800,2.43967578125,-0.07694704608023166,-0.0011982698738574982,0.03306815686523914
1772363387783744500,2.44974462890625,0.018223054432868955,0.10189327128827572,0.018473668193072078
1772363387793814800,2.459814697265625,0.05993629004657268,0.151115859618783,0.05325520484745502
1772363387803884500,2.469884521484375,0.024324293917417524,0.16855799280703065,0.08398556641489267
1772363387813953500,2.47995361328125,-0.006165536892414092,0.10595219129025936,0.032847499851882456
1772363387824023600,2.4900234375,-0.02409399229288101,-0.01568506038784981,-0.04882014500945806
1772363387834092500,2.500092529296875,-0.024681436792016027,-0.10577508115768432,-0.08694441622048615
1772363387844162800,2.510162841796875,-0.038786534512042996,-0.2064981396228075,-0.10178279665112495
1772363387854231600,2.5202314453125,-0.04041735058426857,-0.24200199920237062,-0.09553484217226504
1772363387864301600,2.530301513671875,-0.01488017374575138,-0.15915712725520134,-0.008470891225337982
1772363387874370600,2.54037060546875,0.0216588741004467,-0.010167758271098136,0.07609057538136839
1772363387884440600,2.550440673828125,0.026942367461323738,0.07859364424347877,0.0670363313101232
1772363387894509600,2.560509521484375,0.008881225591897964,0.09956102894842624,0.019058920735120773
1772363387904579600,2.57057958984375,0.006502221500873566,0.09657762922346591,-0.0296877206467092
1772363387914648600,2.580648681640625,0.03297054170966148,0.07450023745000361,-0.03194470579326152
1772363387924718600,2.590718505859375,0.07264788758158683,0.04205634996294975,-0.04733604393154382
1772363387934788400,2.600788330078125,0.07084405303001404,0.05462824676632881,-0.049054099895805114
1772363387944857600,2.610857666015625,0.06485095009505748,0.07406710672974585,-0.01648249437585473
1772363387954927600,2.620927734375,0.03863572786450386,0.03283785524070263,-0.011933014377951622
1772363387964996600,2.63099658203125,-0.015392214921116828,-0.0004196867167949676,-0.0269569805085659
1772363387975066600,2.641066650390625,-0.021767010650038717,-0.02850947064757347,-0.03617620588317513
1772363387985135600,2.651135498046875,0.03229717249274253,-0.019421908828616143,-0.045633185536414385
1772363387995205600,2.66120556640625,0.030286417192220687,-0.009629413610696792,-0.046027737811952824
1772363388005274600,2.671274658203125,-0.01592588340640068,-0.007712766334414482,-0.05559475371092558
1772363388015344600,2.6813447265625,-0.050881461453437804,0.008949030131101607,-0.02530658295303583
1772363388025413600,2.69141357421875,-0.10412088420987128,0.052447980117797846,0.005846972462534904
1772363388035483600,2.701483642578125,-0.09265314925611019,0.08411386896967887,0.043360856690257785
1772363388045552400,2.711552490234375,-0.06936170551776885,0.06845043589174747,0.034402474208921195
1772363388055622700,2.72162255859375,-0.043700025516748425,0.07596738739311695,0.03861030116230249
1772363388065692700,2.731692626953125,-0.019868483552336693,0.05016074596345425,0.024199936885386703
1772363388075761700,2.74176171875,-0.057714522343873975,0.023702947148680684,0.0052586511805653565
1772363388085831700,2.751831787109375,-0.05799801546037197,-0.005010521638393402,-0.001097585978358984
1772363388095900400,2.761900390625,-0.13450842368900776,-0.024101591077446936,0.013900661189109086
1772363388105970700,2.771970703125,0.03845218799114227,-0.07188508651554584,0.0034762978084385394
1772363388116039400,2.782039306640625,0.2521732646048069,-0.09852993233501911,-0.08528978088125586
1772363388126109700,2.792109619140625,0.0794330176770687,-0.1450070213496685,-0.10862024145573378
1772363388136178400,2.802178466796875,-0.07369768889546394,-0.0506114123404026,-0.029679391209781168
1772363388146248700,2.812248779296875,-0.038057051193714136,0.02470364862382412,-0.00015197569131851195
1772363388156317400,2.8223173828125,0.007183774024248123,0.08963526273965836,-0.0161744513399899
1772363388166387500,2.832387451171875,-0.011070260068774223,0.12128595402240752,-0.02508081137314439
1772363388176456700,2.842456787109375,-0.031681670942902564,0.10240005176663398,-0.03113002840951085
1772363388186526500,2.8525263671875,0.03563070082962513,0.04359890322983265,-0.022485534182935953
1772363388196596700,2.8625966796875,0.06565817482471466,-0.006358429116010665,-0.024636866997927425
1772363388206665500,2.87266552734375,0.07074585335254668,-0.025967969471216202,-0.00908946151509881
1772363388216735500,2.882735595703125,0.09983458519279956,0.012502338698506355,0.02366977553144097
1772363388226804500,2.892804443359375,0.07563947061300277,0.03880290112495422,0.046939445829391475
1772363388236874500,2.90287451171875,-0.01930266636312008,0.06098609136044979,0.04797390344366431
1772363388246943500,2.912943603515625,-0.130201666405797,0.03933364700078964,0.053936172848939895
1772363388257013500,2.923013427734375,-0.17642565744221209,0.014357026654481887,0.0643527913145721
1772363388267082800,2.933082763671875,-0.16933131526708603,0.017435118925571442,0.09670388595163822
1772363388277152500,2.943152587890625,-0.08737374754846096,0.051418052548170085,0.12610972091704606
1772363388287221800,2.9532216796875,-0.015211013135313986,0.06632569882273674,0.13536840151920915
1772363388297291500,2.96329150390625,0.02347439908981323,0.05500818599462509,0.07710501312091946
1772363388307360800,2.97336083984375,0.024427169770002363,0.06407996572256087,0.018922727134823798
1772363388317430500,2.983430419921875,-0.03846797008216381,0.0968915174782276,-0.01281082012578845
1772363388327500500,2.99350048828125,-0.10862345632612705,0.058006783288717265,-0.06305544498041271
1772363388337569500,3.003569580078125,-0.1454980197370052,0.0045364743858575815,-0.07762129207998514
1772363388347639600,3.0136396484375,-0.08307926522493361,-0.024507833790779112,-0.06729279028922319
1772363388357708800,3.023708740234375,0.013586042281985282,-0.017058102306723593,-0.03992752124071121
1772363388367778600,3.033778564453125,0.0196808520257473,0.016019406908750533,-0.01337546827122569
1772363388377847600,3.04384765625,-0.005007014507055282,0.03903963249027729,-0.04025631480365991
1772363388387917600,3.05391748046875,-0.03718552905619144,0.07210311318039894,-0.03390899160355329
1772363388397986600,3.063986572265625,-0.03148059541285038,0.07129881106019019,-0.01572802274674177
1772363388408056600,3.074056640625,-0.03667290335893631,0.04326280314326286,-0.0408320688650012
1772363388418125600,3.08412548828125,-0.031821371674537656,0.014762684845924377,-0.0213267195366323
1772363388428195600,3.094195556640625,-0.012074468675255775,0.036710897281765936,0.013819266515970229
1772363388438265600,3.104265625,0.01464051977097988,0.04268763360381126,0.017284750669449567
1772363388448334600,3.11433447265625,0.0006564180821180344,0.01572714596390724,-0.0021489947274327278
1772363388458404600,3.124404541015625,-0.026110592812299726,-0.04946282682716846,-0.025009645833075043
1772363388468473600,3.1344736328125,-0.02803366982936859,-0.059765609654784196,-0.0011266659423708916
1772363388478543600,3.144543701171875,-0.047343934977054594,-0.012277882292866707,0.05191124289259314
1772363388488612600,3.154612548828125,-0.07472644742131233,0.009338906231522559,0.0632477526821196
1772363388498682600,3.1646826171875,-0.06836275760829448,0.0012029460489749908,0.03495572417750954
1772363388508751600,3.174751708984375,-0.04518295755088329,-0.003914543095231056,-0.006471387971192598
1772363388518821400,3.1848212890625,-0.05781389106512069,0.009242460119724273,0.0038413317285478114
1772363388528890600,3.194890625,-0.07147007597386837,0.011519757401943206,0.03707695411518216
1772363388538960600,3.204960693359375,-0.06228431447744369,0.06934592342674732,0.03801584240049124
1772363388549029600,3.215029541015625,-0.018218962779641152,0.13911036452651024,0.024657909785956143
1772363388559099600,3.225099609375,0.048424715951085086,0.15742635793983936,0.0160164842993021
1772363388569169400,3.23516943359375,0.08015782482028007,0.11998948447108268,-0.010157675268501042
1772363388579238700,3.24523876953125,0.06337620136737823,0.019919336956739423,-0.0417569286249578
1772363388589308400,3.255308349609375,0.04798047931492328,-0.04055822035968303,-0.03966711673885584
1772363388599377700,3.265377685546875,0.05578676915168762,-0.06032616614699363,-0.015597235973924397
1772363388609447400,3.275447509765625,0.06878010623753071,-0.06346680226027965,0.0014731412924826144
1772363388619516700,3.2855166015625,0.07569441567063331,-0.04396598297655582,-0.008043313463032244
1772363388629582600,3.29558251953125,0.05119242709875107,-0.013393734580278396,-0.034893910987675185
1772363388639651600,3.305651611328125,0.02301262679696083,-0.005755787047743797,-0.05847469306141138
1772363388649721600,3.3157216796875,-0.02948620672523975,-0.003981178590655327,-0.08110577319487929
1772363388659790600,3.32579052734375,-0.09137246179580688,-0.008070493730902671,-0.0730716659516096
1772363388669860600,3.335860595703125,-0.12192600549161434,0.03058861500918865,-0.01632642703130841
1772363388679929900,3.345929931640625,-0.13319149587154389,0.08698913214504718,0.024966975735127923
1772363388689999600,3.35599951171875,-0.10617372508645057,0.13762801701426505,0.0470996048271656
1772363388700069600,3.366069580078125,-0.04658230295479297,0.14159165994822978,0.03595174947753548
1772363388710138600,3.376138671875,-0.03677577921152115,0.09339724562168121,-0.010696750581264495
1772363388720208600,3.386208740234375,-0.009016250148415565,0.06003215163648128,-0.03487549854815006
1772363388730277600,3.396277587890625,0.02411094342768192,0.019963760620355604,-0.05064473008811474
1772363388740347600,3.40634765625,0.033013211807608606,-0.045671033328771586,-0.07849412939175963
1772363388750416600,3.416416748046875,0.0005015197813510895,-0.11907646127939224,-0.08173764135763048
1772363388760486700,3.426486572265625,-0.009554010286927223,-0.12240005274415015,-0.06321911110952497
1772363388770555600,3.4365556640625,0.05224865815341472,-0.09207856423854828,-0.021533348024636505
1772363388780625700,3.446625732421875,0.10519114378988742,-0.04763327331244945,0.027235066797584292
1772363388790694700,3.456694580078125,0.04672317273020744,-0.016516835036873817,0.04116188534125685
1772363388800764700,3.4667646484375,-0.012500000610947607,-0.018300211322307587,-0.02975771714299917
1772363388810833700,3.476833740234375,-0.04115034103393554,0.04782499649226665,-0.01007759576961398
1772363388820903400,3.4869033203125,-0.05129647199511528,0.08187690369784832,-0.012989391563087701
1772363388830973700,3.4969736328125,-0.002920271360874176,0.09544774841070175,-0.025388123756647108
1772363388841042400,3.50704248046875,-0.007712181812524795,0.028284429720044135,-0.0419945367731154
1772363388851112700,3.51711279296875,-0.005301613539457321,0.035708442240953445,-0.08718757732659578
1772363388861181700,3.527181640625,0.06926584392786025,0.05840659626126289,-0.06483838287442922
1772363388871251500,3.53725146484375,0.1349514912813902,0.10068506454229355,0.011537146928161383
1772363388881320700,3.54732080078125,0.0617827946960926,0.06802490395605564,0.036805735958367586
1772363388891390500,3.557390380859375,0.0028957214415073393,0.008083353212475776,0.014354980827867984
1772363388901459700,3.567459716796875,0.005610241097211838,-0.0204126734316349,-0.012785831815004348
1772363388911529500,3.577529541015625,0.05767945103049278,-0.013966566032171248,0.003331920901685953
1772363388921598700,3.5875986328125,0.05880640923380851,0.008470891225337982,0.03502382097765803
1772363388931668500,3.59766845703125,0.01894318540096283,0.00438449869453907,0.06101736328154802
1772363388941738500,3.607738525390625,-0.011545476365089416,-0.013280921855568884,0.041293256635963914
1772363388951807700,3.617807861328125,-0.016443185278773306,-0.030179449686408042,0.04129837120249867
1772363388961877500,3.62787744140625,-0.018086276310682294,-0.030958617365360257,0.025978344734758137
1772363388971946800,3.63794677734375,-0.030606735187768935,-0.01966682350039482,0.016561843222379684
1772363388982016500,3.6480166015625,-0.05539689305126667,-0.004658639460802078,0.005680822115391493
1772363388992085800,3.658085693359375,-0.04025602254271507,0.005524900901317596,-0.005790858361124992
1772363389002155500,3.668155517578125,-0.0298369198590517,0.020848726761341092,-0.00044438276663422583
1772363389012224800,3.678224853515625,-0.01341886902153492,0.04504442586302757,0.012534487402439117
1772363389022294500,3.68829443359375,-0.03200023537278175,0.05950374384820461,0.01598185137733817
1772363389032363800,3.69836376953125,-0.018455694144964216,0.057498833766579625,0.01700783342421055
1772363389042433800,3.708433837890625,0.03669102353751659,0.09632336220145225,0.03342325391322374
1772363389052502500,3.71850244140625,0.060927054649591444,0.06925181540250777,0.005048223300278186
1772363389062572800,3.72857275390625,0.01402443369925022,0.03312134835720062,-0.022999036663025618
1772363389072642600,3.738642578125,-0.08415770811140537,0.0026391163319349287,-0.02979483428299427
1772363389082711800,3.7487119140625,-0.12701076140999792,-0.005112228447198867,-0.002167407166957855
1772363389092781600,3.758781494140625,-0.10874269879162311,-0.052553194057941434,0.010939911687374114
1772363389102850600,3.7688505859375,-0.07140051786899566,-0.08738368442058563,-0.02368906475380063
1772363389112920600,3.778920654296875,0.0033171617239713667,-0.02753390361368656,-0.017016893513500688
1772363389122989600,3.788989501953125,0.06568155570030212,0.07459726808369159,0.03734130413979292
1772363389133059800,3.799059814453125,0.05891103865206241,0.1442477274149656,0.08849924444705247
1772363389143128600,3.809128662109375,0.001505143865942955,0.1185638355821371,0.07427037421688437
1772363389153198600,3.819198486328125,-0.06328735404014588,0.03408171782195568,0.019056582647562027
1772363389163267600,3.829267578125,-0.07714052282571793,-0.04425649035573005,-0.011730769804120062
1772363389173337600,3.839337646484375,-0.05138590384423732,-0.09318681774139403,-0.015705226393043992
1772363389183407600,3.84940771484375,-0.011306406912207603,-0.12562836714088915,-0.02329495086967945
1772363389193476600,3.8594765625,0.03060907327532768,-0.10437398218810558,-0.022723580722510812
1772363389203546600,3.869546630859375,0.042756022664904594,-0.05138005862534046,-0.015947656846791506
1772363389213615600,3.87961572265625,0.04503799612224102,-0.011641337954998016,-0.038970951168239114
1772363389223685600,3.889685546875,0.024496727874875068,0.02420855858325958,-0.05346607111915946
1772363389233754600,3.899754638671875,0.04646189144551754,0.06646832216382026,-0.028180092562735078
1772363389243824600,3.90982470703125,0.07808744828701018,0.08997077830433844,0.00805704972743988
1772363389253893600,3.9198935546875,0.09253741392195224,0.07735328879356383,0.01279401512145996
1772363389263963600,3.929963623046875,0.11211480557322502,0.03551028932034969,-0.005874298860877752
1772363389274032600,3.94003271484375,0.1359270583152771,-0.019352935245633123,-0.013470160817354917
1772363389284102700,3.9501025390625,0.09326865080595016,-0.05369534983038902,-0.015680091951787472
1772363389294171600,3.960171630859375,0.005911854392290115,-0.08272153782844544,-0.023996669398248193
1772363389304241700,3.97024169921875,-0.0310351897329092,-0.08302315112352371,-0.015847995864599944
1772363389314311700,3.980311767578125,-0.0025105215162038804,-0.027582418930530546,0.008508154495805501
1772363389324380700,3.990380615234375,0.019087562307715415,-0.014381576573848724,0.015291677156090736
1772363389334450700,4.00045068359375,0.0017816227197647093,-0.02103051306903362,0.016570318789780138
1772363389344519700,4.010519775390625,-0.09144961868524551,-0.019145429974794386,-0.00496244471296668
1772363389354589700,4.020589599609375,-0.1491729088574648,0.0003314239114522934,-0.012449439467489718
1772363389364658700,4.03065869140625,-0.1512543913066387,-0.006235679519176483,-0.03974602719396352
1772363389374728700,4.040728759765625,-0.13763853840827941,0.003561491873860359,-0.05414090164080262
1772363389384797700,4.050797607421875,-0.08171382209062576,0.04855272624492645,-0.02100727832391858
1772363389394867700,4.06086767578125,0.025537176838517188,0.09097849404215812,0.04176730388849974
1772363389404936400,4.0709365234375,0.1158323647916317,0.11473112555146217,0.045939621137082574
1772363389415006700,4.0810068359375,0.15241934343278407,0.09461597376167774,-0.0023496318660676477
1772363389425075500,4.091075439453125,0.1021808560580015,0.011597498813271523,-0.05672448839321732
1772363389435145700,4.101145751953125,0.07207330256402492,-0.05553133308589458,-0.05815364441350102
1772363389445215700,4.1112158203125,0.09345511328876017,-0.08907295268177985,-0.04812792496159672
1772363389455284500,4.121284423828125,0.14567103821635247,-0.11174714130461215,-0.028111703501641747
1772363389465354800,4.131354736328125,0.1808878975480795,-0.0726490566253662,-0.007330781279504299
1772363389475423500,4.141423583984375,0.15525719720721243,-0.04466331759095192,0.0008633388310670852
1772363389485493800,4.15149365234375,0.07619418188631534,-0.03890753054320812,0.009501257186383009
1772363389495562500,4.1615625,-0.021004209583997725,-0.024538228929042814,0.0017013970904052257
1772363389505632500,4.171632568359375,-0.04075169710516929,-0.016273673930764197,0.010516717839241027
1772363389515701500,4.181701416015625,-0.05889759464859962,0.0009936872124671936,-0.00580839401781559
1772363389525771500,4.191771484375,-0.11631342630684376,0.04557341817319393,0.012521627920866012
1772363389535840500,4.201840576171875,-0.13231997373402118,0.07056172895729541,0.03125248574540019
1772363389545910500,4.21191064453125,-0.061763505473732945,0.10138649080991745,0.03772270467281341
1772363389555980800,4.221980712890625,0.008673720321059227,0.09851824189722537,0.029882512566447257
1772363389566049500,4.232049560546875,0.0511865818798542,0.06861819367408752,0.0425488096550107
1772363389576119600,4.24211962890625,0.06277472834289073,0.03727145377397537,0.06838394652679562
1772363389586188500,4.2521884765625,0.06793605662882328,-0.001477086815237999,0.055326312033087015
1772363389596258600,4.262258544921875,0.009257657688856124,-0.033956045615673065,0.019389467863738536
1772363389606327600,4.27232763671875,-0.0738297908425331,-0.04518646468222141,0.031869886991381643
1772363389616397600,4.2823974609375,-0.1080067857325077,-0.041623219242691994,0.0522552340246737
1772363389626467600,4.292467529296875,-0.09749123693704605,-0.05076163446605205,0.0544445607624948
1772363389636537600,4.30253759765625,-0.06436462788283824,-0.04865443305373192,0.05139481780305505
1772363389646606300,4.3126064453125,0.005274725532531738,-0.03185527394413948,0.05272884288579225
1772363389656676600,4.322676513671875,0.07761515460014343,0.0011485855132341385,0.06593669950515031
1772363389666746400,4.332746337890625,0.1307464408069849,0.09774491943717002,0.11262816192284225
1772363389676815600,4.342815673828125,0.1052834982484579,0.15751286717951296,0.09615881928950548
1772363389686885400,4.352885498046875,-0.031082536005973813,0.07393208217322826,0.0025454466991126534
1772363389696954400,4.362954345703125,-0.12826572990715504,-0.024733459240198135,-0.03289557677730918
1772363389707024600,4.373024658203125,-0.10375614255070685,-0.06563362490534783,-0.023103081559389827
1772363389717093400,4.38309326171875,0.0023410101681947708,-0.0468511830240488,-0.04343012253418565
1772363389727163600,4.39316357421875,-0.002831424033641815,0.001959317374229431,-0.062437605343014
1772363389737232400,4.403232421875,-0.030635961282253262,0.06388005923628806,-0.05741597778871655
1772363389747302700,4.413302734375,-0.06760638628304004,0.07526946825683116,-0.06146744513660669
1772363389757371400,4.423371337890625,-0.05244213489890098,0.0302682970136404,-0.05831175758466124
1772363389767441400,4.43344140625,-0.007895137163996696,0.03717266957461834,-0.023266017036139962
1772363389777510400,4.443510498046875,0.044669162809848784,0.0057435120880603785,-0.015852672039717436
1772363389787580400,4.453580322265625,0.0661269613802433,-0.0278764334410429,-0.06854907396063208
1772363389797650700,4.463650634765625,0.05792728831171989,0.042296588459610936,-0.062039399805665016
1772363389807719400,4.473719482421875,0.05375146393179893,0.093528178524971,-0.03737169927805662
1772363389817789400,4.48378955078125,-0.005531915163993835,0.05591945562064647,-0.036583325379341836
1772363389827858400,4.4938583984375,-0.055688569474220274,-0.00639525399506092,-0.02949658198878169
1772363389837928400,4.503928466796875,-0.03200724963545799,-0.07410977682769299,-0.03705328097864985
1772363389847997400,4.51399755859375,-0.019552841731905937,-0.10794073475897312,-0.052299949949234724
1772363389858067500,4.5240673828125,-0.02239303359389305,-0.07506196298599242,-0.037730595718324184
1772363389868136400,4.534136474609375,-0.024682021313905716,-0.031200024905800816,0.001958586721867323
1772363389878206500,4.54420654296875,-0.024969021561741828,0.015183540606498718,0.022103841388970612
1772363389888275500,4.554275390625,-0.04433832342028617,0.009324293184280396,0.02931026563644409
1772363389898345500,4.564345458984375,-0.07893032885193824,0.016517419558763503,0.029581629923731086
1772363389908417500,4.57441748046875,-0.020972645401954648,0.0683750325679779,0.06784370217025279
1772363389918486300,4.584486328125,0.03623451194167137,0.09577274258136749,0.08585092189535498
1772363389928556500,4.594556640625,-0.01920855833888054,0.06475742659270763,0.05159034037515521
1772363389938625500,4.60462548828125,-0.06418284157514571,0.007349778240919112,0.04861570847854018
1772363389948695300,4.6146953125,-0.021060323685407636,-0.013231237494945525,0.06576485006958246
1772363389958764500,4.6247646484375,0.06424246280789375,-0.015405074402689933,0.06743819010928273
1772363389968834300,4.634834228515625,0.09729191497266292,-0.018837971460819242,0.056650838635116815
1772363389978903600,4.644903564453125,0.11752514018416405,-0.04109714954197406,0.06921396761015057
1772363389988973300,4.654973388671875,0.0675520257472992,-0.07977554750442505,0.015591975276917218
1772363389999043600,4.665043701171875,0.05699672946333885,-0.0271574715167284,0.025130641864240168
1772363390009112300,4.6751123046875,0.09583528642356395,0.03768471074998379,0.0764275522507727
1772363390019182300,4.685182373046875,0.05666589007377624,0.024023849666118622,0.023617168561369178
1772363390029251600,4.69525146484375,0.01394727680981159,0.026684593307971953,0.02960851793065667
1772363390039321300,4.7053212890625,-0.12741115890443325,0.04609598074257373,0.05240677132457494
1772363390049390600,4.715390625,-0.2134334918439388,0.016098901885747908,0.08015110281854868
1772363390059460400,4.72546044921875,0.024604864424467087,-0.0955851110547781,-0.10491232684850692
1772363390069529600,4.735529541015625,0.015136778855323791,-0.07185235328972339,-0.11426073156073689
1772363390079599400,4.745599365234375,-0.09938742594718933,0.004663315635919571,0.03929097690284252
1772363390089668600,4.755668701171875,-0.044833413460850714,0.055093526190519326,0.04065466647148132
1772363390099738400,4.76573828125,-0.09219313052892684,0.048531098935008045,-0.06155833829045295
1772363390109807600,4.7758076171875,-0.11520751089155673,0.07358019999563693,-0.06501680818125605
1772363390119877600,4.785877685546875,-0.005317980152368545,0.12693535808622836,0.0013303718209266662
1772363390129947400,4.795947509765625,0.1430938812047243,0.09088204793035984,0.010666939964890479
1772363390140016600,4.8060166015625,0.1511497618883848,0.013884732967615127,-0.07743702155426144
1772363390150086400,4.81608642578125,0.07455284442007541,-0.05640753139853477,-0.11836232166066765
1772363390160155600,4.82615576171875,0.049939796689152716,-0.09324117827713489,-0.08260682540759444
1772363390170225400,4.836225341796875,0.06323182446062564,-0.08387947569191455,-0.05352627687379718
1772363390180294400,4.84629443359375,0.08343231644630432,-0.0530032759130001,-0.05192439463511109
1772363390190364400,4.856364501953125,0.08339841417670249,-0.03709317459762096,-0.03777735746949911
1772363390200433400,4.866433349609375,0.08202303417026996,-0.06982406233251094,-0.04546016705706715
1772363390210503400,4.87650341796875,0.06120587159097194,-0.08387070786356926,-0.007920709996670484
1772363390220572400,4.886572509765625,0.022255086427927017,-0.046559506601095195,0.0137562842823565
1772363390230642400,4.896642333984375,0.04787058919966221,0.042459085544943806,0.04150236934199929
1772363390240712400,4.90671240234375,0.024479776740074156,0.12600421471595763,0.05024228676706552
1772363390250781400,4.916781494140625,-0.057711599734425544,0.13306933079659938,0.02430164369419217
1772363390260851500,4.9268515625,-0.09333236369192599,0.1164730007827282,0.018736849173903464
1772363390270920400,4.93692041015625,-0.05565174459517002,0.07564531583189964,-0.003748831139504909
1772363390280990500,4.946990478515625,0.038997546914219854,0.03858779706954956,-0.023315116874873636
1772363390291059500,4.9570595703125,0.10548924995362759,0.008186813586950302,-0.04828808395937085
1772363390301129200,4.967129150390625,0.13465513868331908,0.00788578481376171,-0.0747552351243794
1772363390311198500,4.977198486328125,0.09069909257888793,0.0046270752787590025,-0.11287366111651062
1772363390321268500,4.9872685546875,0.03544657643437386,-0.014402034839987754,-0.09961626626700162
1772363390331337500,4.99733740234375,0.005315057542920112,-0.031021161207556724,-0.03786109023019671
1772363390341407500,5.007407470703125,-0.02245966908931732,-0.06606266397237777,0.012934008114039898
1772363390351477500,5.0174775390625,-0.06868775177896022,-0.05251344656944275,0.04142842732295394
1772363390361546500,5.02754638671875,-0.05089490545690059,-0.004176408901810646,0.044604719271510836
1772363390371616300,5.0376162109375,0.022818565529584882,0.04700491228103638,0.041296179245412346
1772363390381685500,5.047685546875,0.00987783541381359,0.04952595519125461,0.003707330085337162
1772363390391755300,5.05775537109375,-0.044618893927335736,0.037442134165763856,-0.005921060612052679
1772363390401824500,5.067824462890625,-0.10920856273770331,0.05157762702405452,0.01845686318874359
1772363390411894500,5.07789453125,-0.14986147564351557,0.07483107683956623,0.039165304696559905
1772363390421963500,5.087963623046875,-0.17565175046026707,0.07400280932188033,0.01641498209759593
1772363390432033500,5.098033447265625,-0.14380173721313474,0.04360650201439857,0.002162146469950676
1772363390442102500,5.1081025390625,-0.06348726052641868,0.031710312515497205,-0.005957154838740825
1772363390452172500,5.118172607421875,-0.008209025418758393,0.02086976954936981,0.0009945639953017234
1772363390462242300,5.1282421875,0.010128595304489136,0.0491997919768095,0.029824791029840706
1772363390472311600,5.1383115234375,-0.008580196818709373,0.052014849397540086,0.036742023072391744
1772363390482381300,5.14838134765625,-0.03164601510763168,0.056710898259282105,0.0693991149187088
1772363390492450600,5.158450439453125,-0.03950198930501938,0.018315408891439438,0.08578793966174125
1772363390502520600,5.1685205078125,-0.009894786548614502,0.0014034370571374892,0.07177227379083632
1772363390512589600,5.178589599609375,0.06882862155437469,0.001460135680437088,0.07932648856267333
1772363390522659600,5.18865966796875,0.08421148412525653,-0.03419803767800331,0.019959961228072642
1772363390532728300,5.198728271484375,0.07956687318980693,-0.029740473747253415,-0.028245266753435132
1772363390542798600,5.208798583984375,0.02574351306557655,0.001035188266634941,-0.019919775348156688
1772363390552868400,5.218868408203125,-0.0068096800148487084,0.008867781588435172,0.0133728379227221
1772363390562937600,5.2289375,-0.03710661860108375,-0.010964461606740951,0.04072217874974012
1772363390573007400,5.23900732421875,-0.051262569725513456,-0.0013806407034397125,0.0658218409538269
1772363390583076400,5.249076416015625,-0.0005436053574085235,0.024666823744773865,0.069991820114851
1772363390593146600,5.259146728515625,0.05858662900328636,0.04764788635969162,0.08132467664256691
1772363390603215400,5.26921533203125,0.05835048215985298,0.04072364005446434,0.0758645115405321
1772363390613285600,5.27928564453125,0.011184241837263107,-0.02490180154442787,0.01795256692841649
1772363390623354000,5.28935400390625,-0.03501461475789547,-0.058498366197943685,-0.02251929032206535
1772363390633424400,5.29942431640625,-0.03815408182740211,-0.0224257668197155,-0.017514613902568817
1772363390643493000,5.3094931640625,0.020372925943136215,0.029004560688138007,-0.05287862662002444
1772363390653563100,5.319563232421875,-0.09197218125462532,0.07633505166172981,-0.07703677019029856
1772363390663633200,5.329633056640625,-0.08827098864912986,0.10848901629149914,-0.030713556563109156
1772363390673702100,5.3397021484375,-0.010861585754156113,0.10649988830089568,0.005102876096963882
1772363390683772400,5.3497724609375,0.019907646518945693,0.07789864771664143,-0.008804653224349021
1772363390693841200,5.359841064453125,0.047405309775471687,0.0719306792229414,-0.015683160691708324
1772363390703911400,5.369911376953125,0.03650982175171375,0.019154197803139685,-0.03703428401723504
1772363390713980200,5.379980224609375,-0.018676643419265747,-0.04926116677522659,-0.08088190131112932
1772363390724050200,5.39005029296875,-0.04219546617269516,-0.0364203899025917,-0.04195961159020662
1772363390734119200,5.400119140625,0.007267945176362991,-0.00014086977541446686,0.01599529538080096
1772363390744189200,5.410189208984375,0.03942424789369106,0.032573066824674604,0.02817293216958642
1772363390754258200,5.420258056640625,0.026668811216950417,0.028780688804388044,-0.010890665718168019
1772363390764328200,5.430328125,-0.014949731850624084,0.0015747019708156585,-0.04800386019051075
1772363390774398200,5.440398193359375,-0.0637134704977274,-0.02305705046057701,-0.058762862353026864
1772363390784467200,5.45046728515625,-0.09018997401297092,-0.061139236095547674,-0.08065846781879663
1772363390794537200,5.460537109375,-0.06820785930752754,-0.06822481044232845,-0.09339037748947739
1772363390804606200,5.470606201171875,-0.026319851648807523,-0.041675826212763785,-0.06665609982088208
1772363390814676200,5.48067626953125,-0.0029039047479629517,0.007692308068275451,-0.017468436673283575
1772363390824745200,5.4907451171875,0.031091303834319114,0.034650457620620724,0.012951251509785652
1772363390834815200,5.500815185546875,0.05827040266096591,0.06902268282175064,0.010582184290885924
1772363390844884200,5.51088427734375,0.06667290482521057,0.08598726162612438,-0.0028600656062364575
1772363390854954200,5.520954345703125,0.0571861145555973,0.057876434907317156,0.0016487901203334331
1772363390865024000,5.53102392578125,0.06806874309778213,0.01854571051597595,0.0025875322751700877
1772363390875093200,5.54109326171875,0.08232289389967917,-0.053318333211541176,-0.057061903654038904
1772363390885163300,5.551163330078125,0.07080079841017722,-0.07446107448339462,-0.053523500394821164
1772363390895232300,5.561232177734375,0.02935819643139839,-0.13810674044191837,-0.06509177311360835
1772363390905302300,5.57130224609375,0.0018207856863737106,-0.14209727138280867,-0.0591296498388052
1772363390915371300,5.581371337890625,0.009182838886976241,-0.0805745889276266,-0.0005348375290632248
1772363390925441300,5.591441162109375,0.0295756385743618,-0.01937222446799278,0.023525252494215963
1772363390935510300,5.60151025390625,0.012747253370285034,0.0025900164932012555,0.015049831224232911
1772363390945580300,5.611580322265625,-0.011482348001003265,-0.000018120178580284118,-0.02378872573599219
1772363390955649000,5.62164892578125,-0.03085924864411354,0.0022287819653749466,-0.04518894890025258
1772363390965719300,5.63171923828125,-0.05399462503790855,-0.009906476986408234,-0.07199526889175176
1772363390975789300,5.641789306640625,-0.03766016083061695,0.032196634727716444,-0.060118368615210055
1772363390985858300,5.6518583984375,0.049505496925115584,0.09637596917152404,-0.010000731141120194
1772363390995928300,5.66192822265625,0.10438742619156836,0.07735796496868133,-0.01631225237548351
1772363391005997000,5.6719970703125,0.08486497959792613,0.026465397599339482,-0.04978489838838577
1772363391016067300,5.6820673828125,-0.0011363105535507202,-0.005325578936934471,-0.03231251619234681
1772363391026136000,5.692135986328125,0.016774024668335913,0.004693710774183273,0.012498247045278549
1772363391036206300,5.702206298828125,0.00322246917784214,0.020484569624066352,0.025103169335424898
1772363391046275000,5.712275146484375,-0.06731821699142455,0.012833762609958648,0.030730215436965226
1772363391056345300,5.722345458984375,-0.1332072779625654,-0.014973697248101233,0.06104454354941845
1772363391066415400,5.732415283203125,-0.1362836166679859,-0.012112462598085403,0.09916589215099811
1772363391076484000,5.742484130859375,-0.06467150187492371,0.008791793742775916,0.11612681769356131
1772363391086554400,5.752554443359375,0.015841712254285812,0.04532908802330494,0.10581015247106551
1772363391096623000,5.762623046875,0.0327519305229187,0.06365794091820716,0.0617011077620089
1772363391106693400,5.772693359375,0.029180501776933668,0.09442717319130897,0.057874973602592944
1772363391116762000,5.78276220703125,-0.006892682123184204,0.07194879940152168,0.036114392693340776
1772363391126832000,5.79283203125,-0.06590542758405209,0.0032879356294870377,-0.01784238455221057
1772363391136901000,5.802901123046875,-0.0725140320688486,-0.06287701967358589,-0.03138122669160366
1772363391146971100,5.81297119140625,0.004416647398471832,-0.09775953248441219,-0.0189760647572577
1772363391157040000,5.8230400390625,0.10059504817128181,-0.07396189278960227,0.0012520458877086638
1772363391167110100,5.833110107421875,0.13476152166724203,-0.007765957826375961,0.015709610307216643
1772363391177180400,5.843180419921875,0.0990484032511711,0.025763386809825897,0.049948418387025594
1772363391187249200,5.853249267578125,0.005058452433347702,0.048397243422269816,0.07653086649477481
1772363391197319200,5.863319091796875,-0.08227262501716613,0.06050269175767898,0.0655963616348803
1772363391207388200,5.87338818359375,-0.09481295763850212,0.022135259440541268,0.06678834789842367
1772363391217458200,5.883458251953125,-0.03400046927928924,-0.025246669459342955,0.06475976468026638
1772363391227527200,5.893527099609375,0.06399696361422538,0.0162257431358099,0.08841244294643402
1772363391237597200,5.90359716796875,0.13625205248594283,0.08335808216631412,0.10258753716275096
1772363391247666200,5.913666259765625,0.1242015492081642,0.093205522441864,0.08637845290079713
1772363391257736200,5.923736083984375,0.03393967900276184,0.019763854134082794,0.035312867052108045
1772363391267805200,5.93380517578125,-0.04272387396097183,-0.047743747949600214,0.014517185652256012
1772363391277875200,5.943875244140625,-0.05202946244478225,-0.05872223808169365,0.028103520195186138
1772363391287945200,5.9539453125,-0.03048573915660381,-0.05110124168395996,0.02624941676110029
1772363391298014200,5.96401416015625,0.00869885476231575,-0.02938917609155178,-0.007577303386479615
1772363391308084200,5.974084228515625,0.026309914776682854,-0.02480067925751209,-0.046430619524419306
1772363391318153200,5.9841533203125,0.018444003707170486,-0.051881578406691546,-0.07262099957466125
1772363391328223200,5.99422314453125,-0.012159224349260329,-0.03520633793771267,-0.03689955172166228
1772363391338292200,6.004292236328125,0.009790741652250289,0.037725627282261844,-0.012444032640010119
1772363391348362200,6.0143623046875,0.06904255656599997,0.09324176279902457,-0.03159881496503949
1772363391358431000,6.024430908203125,0.1818371610969305,0.09845043735802173,-0.027221330533176658
1772363391368501200,6.034501220703125,0.1599082378834486,0.10136486349999904,-0.006633300534635782
1772363391378571300,6.0445712890625,-0.0007288987964391708,0.06631751551628112,0.01038300845697522
1772363391388640300,6.05464013671875,-0.02322831537425518,-0.017725041782855985,0.020569763689488173
1772363391398710300,6.064710205078125,0.025169512569904327,-0.11677461407780647,-0.022023177368193862
1772363391408779300,6.074779296875,-0.014529460611939429,-0.17757833460867403,0.03497442887797952
1772363391418849300,6.084849365234375,-0.05681202054619789,-0.054202130308747286,0.08667363645508885
1772363391428918000,6.09491796875,0.0982248119086027,0.03526303656101227,-0.0431280708476901
1772363391438988300,6.10498828125,0.1857896981149912,0.032041151905059816,-0.002184650562703609
1772363391449057000,6.11505712890625,-0.024926351463794707,0.01643383292853832,0.08637932968363166
1772363391459127300,6.125127197265625,-0.15920388900637625,0.0070423197269439694,0.08661562265753746
1772363391469196300,6.1351962890625,-0.1252566112190485,0.02214285822510719,0.05051277427151799
1772363391479266000,6.14526611328125,-0.04424713800549507,0.06399404100477694,0.03824424432888627
1772363391489336300,6.15533642578125,-0.024016250881552695,0.09736731829643248,0.03900149243697524
1772363391499405000,6.165405029296875,-0.05235445661544799,0.0743704735904932,0.011226473543792963
1772363391509475300,6.175475341796875,-0.044244215396046636,0.046775195178389545,-0.014701894569396972
1772363391519544000,6.1855439453125,0.012203063490986822,0.006003624328970909,-0.02928717702180147
1772363391529614300,6.1956142578125,0.08731178822815418,0.015544775134325027,-0.030372195779532193
1772363391539683000,6.20568310546875,0.1320534317523241,0.01926116530895233,-0.0362353887245059
1772363391549753000,6.215753173828125,0.14347440495491026,0.007417582780122756,-0.044884266865253444
1772363391559822300,6.225822265625,0.09535305586457252,-0.030449498799443243,-0.09461655828356742
1772363391569892000,6.23589208984375,0.04495440949201584,-0.03882511295676231,-0.1040164009220898
1772363391579962400,6.24596240234375,0.05394610972106456,-0.09558394201099872,-0.12071984457224606
1772363391590031000,6.256031005859375,0.05877835218310356,-0.11371171937584876,-0.10742255610376596
1772363391600101000,6.26610107421875,0.04387187495231628,-0.11158698230683803,-0.09069894644841552
1772363391610170000,6.276170166015625,0.04924947633743286,-0.0955716670513153,-0.07847469403892755
1772363391620240100,6.286240234375,-0.003918050226569175,-0.06508592789471149,-0.08658595817163586
1772363391630308600,6.29630859375,-0.0456879844635725,0.005564063867926597,-0.06940057622343301
1772363391640378600,6.306378662109375,-0.061899114552140234,0.05638415052294731,-0.07326616561040282
1772363391650447600,6.316447509765625,-0.07397533679306506,0.07934884652495383,-0.07680573791339992
1772363391660517600,6.326517578125,-0.07349836693108082,0.06776303814947605,-0.06674786975756287
1772363391670588000,6.336587890625,-0.009800094002485275,0.06507423745691776,-0.02664806068986654
1772363391680656600,6.34665673828125,0.09732990889549255,0.06928922480344772,-0.010552812065929174
1772363391690726700,6.3567265625,0.14989303982555865,0.0324514862716198,-0.030734014829248188
1772363391700795600,6.366795654296875,0.11293664335012435,-0.022330489751696585,-0.04035919065624475
1772363391710865700,6.37686572265625,0.054258828932046886,-0.066079030585289,-0.042522652300447224
1772363391720934700,6.3869345703125,0.029801264023780822,-0.07497662279009819,-0.04192351736351847
1772363391731004700,6.397004638671875,0.060090019303560255,-0.06799684690535068,-0.03671659637019038
1772363391741073700,6.40707373046875,0.06916998233795166,-0.0380938760727644,-0.00244037888944149
1772363391751143700,6.417143798828125,0.048339375755190844,-0.03783317930996418,0.020316227319836615
1772363391761213000,6.427212890625,0.007095511218905448,-0.02390577624440193,0.08029065741971135
1772363391771282700,6.43728271484375,-0.05028057295083999,-0.02921791117787361,0.09973711616769432
1772363391781352700,6.447352783203125,-0.09619593642950057,-0.04268880264759063,0.08666954480186104
1772363391791421700,6.457421630859375,-0.09472352578938006,-0.043380292043089866,0.08410875440314412
1772363391801491700,6.46749169921875,-0.05901859067976475,0.009155366358160971,0.09358400036543607
1772363391811560700,6.477560791015625,-0.0032949498921632766,0.07743979803323746,0.08341361174583435
1772363391821630700,6.487630615234375,-0.037978725260496136,0.09368833752274512,0.01926554922312498
1772363391831699700,6.49769970703125,-0.08018120569586754,0.07415946118831634,-0.0006191548116505146
1772363391841769700,6.507769775390625,-0.06304302389025687,0.041509821996092794,-0.015392507182061671
1772363391851838700,6.517838623046875,-0.019566285735368727,0.01383095695376396,-0.02425824294388294
1772363391861908700,6.52790869140625,0.01401098969578743,-0.022955343651771543,-0.024067834938317535
1772363391871978800,6.537978759765625,-0.004985387197136879,-0.05168225644230842,-0.03978416724726558
1772363391882047700,6.5480478515625,-0.012618074032664298,-0.027843700215220448,-0.03866758430749178
1772363391892117800,6.55811767578125,0.0199029703438282,0.0372007266253233,0.03379106431230902
1772363391902186800,6.568186767578125,0.02194821243584156,0.09252513896226883,0.06043342591375112
1772363391912256800,6.5782568359375,-0.02348141335248947,0.0733417150646448,0.04306348117887974
1772363391922325500,6.588325439453125,-0.048642742615938185,0.027056933751702306,0.034021658197790385
1772363391932395800,6.598395751953125,-0.03551145836412906,0.02118307328224182,0.024766046335548162
1772363391942464500,6.608464599609375,0.038138884258270264,0.062383098676800725,0.03578077682480216
1772363391952534800,6.61853466796875,0.07308394091129303,0.11654489697515964,0.05306421231999993
1772363391962603800,6.628603759765625,0.050444239079952234,0.14673545257747173,0.08416296880841255
1772363391972673500,6.638673583984375,-0.027796353942155835,0.09074234719872475,0.05544423932433128
1772363391982743800,6.648743896484375,-0.09335983622074126,-0.01757423513531685,0.017467559890449045
1772363391992812500,6.6588125,-0.10816928281784056,-0.0817073923498392,0.012911504021286964
1772363392002882800,6.6688828125,-0.04153787904679775,-0.10593933180868625,0.02735109439268708
1772363392012951600,6.67895166015625,0.04931260470151901,-0.06725918028056621,0.03298296279981732
1772363392023021800,6.689021728515625,0.10050444727838038,-0.03938566944897175,0.013894231448322534
1772363392033090600,6.699090576171875,0.06187573367655277,-0.03631751405000686,-0.02367752044647932
1772363392043160600,6.70916064453125,-0.005413841742277145,-0.015906009662151336,-0.028612346500158307
1772363392053229800,6.719229736328125,-0.03178513131737709,0.011865794360637665,-0.0245846984192729
1772363392063299600,6.729299560546875,-0.026907880669832226,0.03633212709724903,-0.02401376666352153
1772363392073369900,6.739369873046875,0.016411036574840544,0.10060615408718586,0.005246814612299203
1772363392083438600,6.7494384765625,0.09230886586308479,0.1330728379279375,0.04936126614883542
1772363392093508600,6.759508544921875,0.08128712111115455,0.07476736395359039,0.03603241349831223
1772363392103577600,6.76957763671875,0.0003425298273563385,0.015576339316368102,0.021370850939303635
1772363392113647600,6.779647705078125,-0.039298575687408445,-0.025054946279525755,0.03080255002081394
1772363392123716600,6.789716552734375,0.008656769186258316,-0.015945757150650025,0.04468932881504297
1772363392133786600,6.79978662109375,0.09813304197192191,0.02018880154788494,0.05815700541436672
1772363392143855900,6.80985595703125,0.09352233330607414,0.001174304476380348,0.035523148801922796
1772363392153925600,6.819925537109375,0.033868367332220074,-0.02570084296762943,0.0022869418933987615
1772363392163995000,6.829994873046875,-0.02001812115609646,-0.05273088871240616,-0.024599749857932326
1772363392174064600,6.840064697265625,-0.051045127582550046,-0.07858896806836128,-0.045338586504012346
1772363392184134700,6.850134765625,-0.07632979096472263,-0.04729951131343841,-0.034705694939196105
1772363392194203600,6.86020361328125,-0.071987377846241,-0.03158113317787647,-0.021910656904429195
1772363392204273700,6.870273681640625,-0.07439853064119815,-0.01367196699976921,-0.01796498801857233
1772363392214342700,6.8803427734375,-0.030718378868699072,0.032932547786831856,-0.00994973160624504
1772363392224412700,6.89041259765625,0.026969839990139004,0.05021744458675384,0.0021039865419268606
1772363392234482000,6.90048193359375,0.032791678011417386,0.13865209936499595,0.00997018987238407
1772363392244551700,6.9105517578125,0.01495382350385189,0.15820611014068126,-0.07943447898179293
1772363392254620700,6.92062060546875,0.07044833171069621,0.09762743053734302,-0.07310790630877018
1772363392264690700,6.930690673828125,0.046479427102208135,0.038404841718077655,-0.042052258309721945
1772363392274760700,6.9407607421875,0.00504676199555397,-0.05167348861396313,-0.011089695421606302
1772363392284829700,6.95082958984375,0.04983867440223694,-0.043215456870198246,0.02321677106693387
1772363392294899700,6.960899658203125,0.10106851090192794,-0.056418637314438816,-0.01792421761676669
1772363392304968700,6.97096875,0.16599311075508594,-0.0878425341039896,-0.022132921352982518
1772363392315038700,6.981038818359375,0.10506664062738418,-0.12914601987302302,-0.0023836802661418915
1772363392325107700,6.991107666015625,0.00256020587682724,-0.18322013988792896,0.017122838106006382
1772363392335177700,7.001177734375,-0.11462123543620109,-0.06191665020883083,0.03454802015945315
1772363392345246700,7.011246826171875,-0.024700726014375684,0.08377133914232253,-0.14286679445058106
1772363392355316700,7.021316650390625,0.10389467423856258,0.02831774746775627,-0.16190291883200406
1772363392365386800,7.03138671875,-0.11972878770828246,0.01044423712491989,-0.05250760135054588
1772363392375455700,7.041455810546875,-0.184825821518898,0.0008119009047746658,0.02268427162542939
1772363392385525800,7.05152587890625,-0.018463292929530143,0.044292146191000935,0.04793430208563804
1772363392395594500,7.061594482421875,0.11535422588586806,0.09397942942380905,0.022679303189367055
1772363392405664800,7.071664794921875,0.12809037334024906,0.1013707087188959,-0.013173808219283819
1772363392415733800,7.081733642578125,0.0374573317348957,0.08239303652644157,-0.013787702333927154
1772363392425803800,7.0918037109375,-0.024895956325531005,0.0890057326644659,0.004440174404531717
1772363392435872800,7.101872802734375,-0.030363574081659316,0.11386252602338791,0.037480566480010746
1772363392445942500,7.111942626953125,-0.012782909205555915,0.04936287358403205,0.06170549167618155
1772363392456011800,7.12201171875,-0.0015606734454631805,-0.037276129949092865,0.0718733960777521
1772363392466081500,7.13208154296875,-0.04601356315612793,-0.09542086040377616,0.0754094612494111
1772363392476151800,7.14215185546875,-0.045423196047544474,-0.14563304429352283,0.0661687546953559
1772363392486220500,7.152220458984375,0.008131284007430076,-0.11368775397837161,0.07075915122553705
1772363392496290600,7.16229052734375,0.01837444560229778,-0.022712182545661926,0.06173968620672821
1772363392506359800,7.17235986328125,-0.03401157519519329,0.05815700541436672,0.03374897873625159
1772363392516429600,7.1824296875,-0.10638298392295836,0.10065876105725764,0.0512790824688971
1772363392526498800,7.192498779296875,-0.1678168190509081,0.08299567859470844,0.049061114158481356
1772363392536568600,7.202568603515625,-0.1704699639081955,0.054578562405705446,0.05568316264674067
1772363392546637800,7.212637939453125,-0.09742109431028366,0.019331892457604406,0.03997238329574466
1772363392556707600,7.22270751953125,0.02891863597035408,0.039945056897401805,0.05663242619559169
1772363392566777600,7.232777587890625,0.07053016477525234,0.03985211791694164,0.04642302073985338
1772363392576846600,7.2428466796875,0.04679565344452858,0.02532791800200939,0.01296177290380001
1772363392586916600,7.25291650390625,0.015876783567667006,0.04405892195701599,0.006650543930381536
1772363392596985900,7.26298583984375,0.0059796589314937585,0.04658288747668266,-0.03227744487896561
1772363392607055600,7.2730556640625,0.03652794193029404,0.06401157666146755,-0.036395986113697286
1772363392617124900,7.283124755859375,0.03885492357313633,0.03397065866291523,-0.0300745280072093
1772363392627199000,7.293198974609375,0.010873276191949844,-0.010278232908248901,-0.04139204083532095
1772363392637267700,7.303267822265625,-0.01363455759882927,-0.009447042781114579,-0.030719255651533602
1772363392647338000,7.313337890625,0.008182137411832808,0.006641337710618972,-0.010810440088808536
1772363392657406700,7.32340673828125,0.03949906669557094,-0.006086041915416717,0.012587240502983332
1772363392667477000,7.33347705078125,0.010887304717302322,-0.05272971966862678,-0.006623509792983532
1772363392677546800,7.343546630859375,-0.03920212957561016,-0.0719300947010517,-0.021364421198517083
1772363392687615700,7.35361572265625,-0.06020049394071102,-0.06958265479207039,-0.0004898293435573578
1772363392697685800,7.363685791015625,-0.05424363136291504,-0.05245324081480503,0.019919921478629112
1772363392707754800,7.373754638671875,0.002131166809797287,-0.02473229019641876,0.012136574126034975
1772363392717825000,7.383824951171875,0.07584522231817245,-0.02120353154838085,-0.00984846318885684
1772363392727893800,7.393893798828125,0.07959960641562938,-0.030364158603549,-0.0372756915576756
1772363392737964000,7.403964111328125,0.05708849940001964,0.00026128128468990325,-0.016271481973677872
1772363392748032800,7.41403271484375,0.0009071779727935791,-0.0070388125956058496,-0.045653936063498254
1772363392758102800,7.424102783203125,-0.03604395780563354,0.02965980972647667,-0.04172258796393871
1772363392768172800,7.4341728515625,-0.03686111940741539,0.0718652127712965,-0.018013795596361157
1772363392778241800,7.44424169921875,0.008343465453386305,0.09354220705032348,-0.007149433363229036
1772363392788311800,7.454311767578125,0.048070495685935015,0.08018471282720566,0.013966273771226405
1772363392798380800,7.464380859375,0.13226619772017,0.07173895604312419,0.040610388938337565
1772363392808450800,7.474450927734375,0.0967652607500553,0.017971710020303726,0.029691520038992166
1772363392818519800,7.484519775390625,-0.1050876834154129,-0.0035492169141769407,0.028672552254796025
1772363392828589800,7.49458984375,-0.05138356575667858,-0.04846738604903221,-0.007220306642353534
1772363392838658800,7.504658935546875,0.0591816722869873,-0.08481237262785435,-0.02982961333543062
1772363392848728800,7.514728759765625,0.0400759898006916,-0.045213352689146995,0.020604981133341787
1772363392858798800,7.524798828125,-0.04776069908440113,0.01703530595302582,0.10661927689686417
1772363392868867800,7.534867919921875,-0.17869652498364447,0.021371873852610586,0.1219365268856287
1772363392878937600,7.5449375,-0.25236264969706534,0.010544774889945983,0.03835091957375407
1772363392889006800,7.5550068359375,-0.017403554743528366,0.037087913900613785,-0.06336933323517441
1772363392899076900,7.565076904296875,0.03027005057930946,0.06746084033250808,-0.015492022033780813
1772363392909145900,7.575145751953125,-0.07700023757219314,0.07520809345841407,0.07485255801901221
1772363392919215900,7.5852158203125,-0.03925415202379227,0.08562076640129089,0.10374547502622007
1772363392929284900,7.595284912109375,0.0992751977443695,0.12405951038897037,0.07180164601579309
1772363392939355000,7.60535498046875,0.08274141157269477,0.07115560319721698,-0.01170563536286354
1772363392949423900,7.615423828125,0.010836451312899589,-0.01386369017958641,-0.024049860890209673
1772363392959494000,7.625493896484375,-0.014515432086586951,-0.09031915335059165,-0.04659413952305913
1772363392969563600,7.635563720703125,0.06811199771761894,-0.09147884477972984,-0.04905453828722238
1772363392979633000,7.6456328125,0.131982704603672,-0.04722118538022041,-0.026380349664390085
1772363392989703000,7.655702880859375,0.12148586050868034,-0.006117606097459793,-0.02527998720705509
1772363392999772000,7.66577197265625,0.09264730403721332,-0.0006447276443243027,-0.030286417192220687
1772363393009842000,7.675842041015625,0.08103577669858932,0.012366729620099067,-0.022524551019072532
1772363393019911000,7.685910888671875,0.03068739920854568,0.011285364124178885,-0.04877221421450376
1772363393029981000,7.69598095703125,-0.01579728859066963,0.006645429363846779,-0.08687602715939283
1772363393040049700,7.706049560546875,-0.06734393595457076,-0.021200608938932417,-0.09131751673817634
1772363393050120000,7.716119873046875,-0.08246727080643176,-0.024844518399238586,-0.08328399401679634
1772363393060189700,7.726189697265625,-0.06207271755337715,0.012900982627272605,-0.04411138279661536
1772363393070259000,7.736259033203125,-0.015964461851119993,0.033707623812556264,-0.04533610228598117
1772363393080329000,7.746328857421875,0.04700666584670543,0.025036826100945472,-0.06647051412090658
1772363393090398000,7.75639794921875,0.06990297278761863,-0.012357377269864082,-0.08242723105698824
1772363393100468000,7.766468017578125,0.015171850168704986,-0.053932665717601774,-0.10324380911439657
1772363393110536700,7.77653662109375,-0.04148468755483627,-0.014785481199622154,-0.07080313649773597
1772363393120607000,7.78660693359375,-0.03787818749547005,0.039509003567695614,0.0012184358790516853
1772363393130675700,7.79667578125,-0.012619827598333359,0.09375321945250034,0.06114785779342055
1772363393140746000,7.80674609375,-0.027885201269388198,0.1324976683884859,0.097751495308429
1772363393150815700,7.816815673828125,-0.062218848025798794,0.11459259386360644,0.09629705871641635
1772363393160884700,7.826884765625,-0.08011632376611233,0.07626607807874679,0.07274944825991987
1772363393170955000,7.836955078125,-0.062357379713654515,0.016384148567914963,0.052002136046439405
1772363393181023700,7.847023681640625,-0.027695231655240057,-0.024217910933494565,-0.011636077257990837
1772363393191094000,7.857093994140625,-0.02566168000102043,-0.013562661406397818,-0.027780133459717034
1772363393201162800,7.867162841796875,-0.058279170489311215,-0.014113281026482582,-0.01871361442878842
1772363393211233000,7.87723291015625,-0.1265162558913231,-0.031447277665138246,-0.007611790177971124
1772363393221301800,7.8873017578125,-0.13468670286536216,-0.02775660645365715,-0.012314999432861804
1772363393231371800,7.897371826171875,-0.06635200230777263,-0.03898410291075706,-0.02910962849780917
1772363393241441800,7.90744189453125,-0.0075695584714412685,-0.05392155980169773,-0.056874272127449506
1772363393251510800,7.9175107421875,-0.01205985562801361,-0.043487844070792196,-0.04383198133334517
1772363393261581000,7.9275810546875,0.003267477363348007,0.021505729365348815,-0.0058553018994629375
1772363393271649800,7.93764990234375,0.018973580539226532,0.08631751649379729,0.03293225552588701
1772363393281719800,7.9477197265625,0.01516249781847,0.12018763739168643,0.04699541380032897
1772363393291788800,7.957788818359375,-0.015085340929031372,0.1213654489994049,0.014606909762322902
1772363393301858800,7.96785888671875,-0.030566987699270246,0.06851297973394394,-0.005904401738196611
1772363393311927800,7.977927734375,-0.0009077624946832656,0.0120341366648674,-0.016940905667841434
1772363393321995800,7.987995849609375,0.03526420560479164,0.0010854571491479873,-0.02117781258523464
1772363393332064800,7.998064697265625,0.05409048662781715,0.04654781616330147,-0.012180705528706311
1772363393342135000,8.008135009765626,0.05079612125754356,0.04411035988330841,-0.006188917768001556
1772363393352203800,8.018203857421875,0.0112368488073349,0.02015431475639343,0.005963876840472221
1772363393362274000,8.028274169921875,-0.020634207227826117,-0.012899813583493232,-0.002268675584346056
1772363393372343800,8.03834375,-0.02038578542470932,-0.01563186889588833,0.0018277999490499495
1772363393382412800,8.048412841796875,0.00011456629037857055,-0.01798456950187683,0.017003157249093053
1772363393392482800,8.05848291015625,0.04040156849324703,-0.023970073652267453,0.023313947831094264
1772363393402551800,8.0685517578125,0.02560673494338989,-0.06142039112448692,-0.03894011763855815
1772363393412621800,8.078621826171876,0.014288637593388557,-0.05580664289593696,-0.04256590692028403
1772363393422690800,8.08869091796875,-0.024844518399238586,-0.03406827381849289,-0.007806289836764335
1772363393432760800,8.0987607421875,-0.08184241690635681,-0.018825111979246138,-0.025412089154124257
1772363393442829800,8.108829833984375,-0.08463292440772056,0.023509470403194427,-0.03040229865685105
1772363393452899800,8.11889990234375,-0.03180383601784706,0.06614332799315452,-0.008698708631843327
1772363393462969900,8.128969970703125,0.011037526842951773,0.10044365700185298,0.03816913326606154
1772363393473038800,8.139038818359374,0.031003041028976438,0.09796177705824374,0.03821823310479522
1772363393483108900,8.14910888671875,0.05847732340991497,0.09288695801198482,0.050348962011933326
1772363393493177900,8.159177734375,0.0837514653980732,0.058607671791315076,0.031216683779656886
1772363393503247600,8.16924755859375,0.04028817124664783,0.02238251219987869,0.0029687866777181626
1772363393513316900,8.17931689453125,0.006543138033151626,-0.03038987756669521,-0.006897796689718961
1772363393523386600,8.18938671875,0.02473404376208782,-0.050586277899146076,0.012371113534271717
1772363393533456000,8.199455810546874,0.03483925819098949,-0.0511211154282093,0.03025134587883949
1772363393543526000,8.20952587890625,0.02255553067922592,-0.0361503407895565,0.0406032285451889
1772363393553596000,8.219595947265624,-0.031901451173424716,0.0006242693781852722,0.06457505576312542
1772363393563665000,8.229664794921876,0.06417465826869011,-0.004141337588429451,0.016188479865342376
1772363393573734700,8.239734619140625,-0.037782325905561444,0.03045826662778854,-0.01609028018787503
1772363393583804000,8.249803955078125,-0.24482465540766715,0.08031973738372325,0.05311301989778876
1772363393593873700,8.259873779296875,-0.17841712352037428,0.11597089647948741,0.054324441514164205
1772363393603943000,8.26994287109375,-0.05855740290880203,0.11207505808472633,0.02703238383233547
1772363393614012700,8.2800126953125,-0.051636079213023184,0.06892740575373173,0.02057487825602293
1772363393624082000,8.29008203125,-0.07925766111016273,0.013030746486783026,0.04320259738862514
1772363393634151200,8.300151123046875,-0.043619361495971676,-0.007438041046261787,0.0603252893641591
1772363393644220200,8.31022021484375,0.13090484623908996,0.03409749991297722,0.022445786694437263
1772363393654290200,8.320290283203125,0.15475918455719948,0.03651858958005905,-0.04339198248088359
1772363393664360200,8.330360107421875,0.02763502590060234,0.01683598398864269,-0.031681670942902564
1772363393674429200,8.34042919921875,-0.01710837118923664,-0.02208674412369728,-0.05123860432803631
1772363393684499200,8.350499267578124,0.03318213863372803,-0.07459317643046379,-0.07284224110990763
1772363393694568200,8.360568115234376,-0.010333762487769127,-0.11675357128977774,-0.03128200410082936
1772363393704638200,8.37063818359375,0.05470189652442932,-0.11614742209017276,-0.012265461202710866
1772363393714707200,8.380707275390625,0.18039748368263245,-0.05805003790855407,-0.03155526808425784
1772363393724777200,8.390777099609375,0.07503449045717715,0.018088029876351355,-0.02943374588564038
1772363393734846200,8.40084619140625,-0.10123977581560611,0.07370762576758862,-0.03159399265944957
1772363393744916200,8.410916259765624,-0.15273440073132513,0.09494798219501972,-0.021487170795351264
1772363393754986200,8.420986328125,-0.11335749911069869,0.07770458644926548,-0.03432955510318279
1772363393765055200,8.43105517578125,-0.14017068723440168,0.0759866766154766,-0.015137801768630742
1772363393775125200,8.441125244140625,-0.012717442753911018,0.06898761150836945,-0.02814823611974716
1772363393785194200,8.4511943359375,0.11445230861008167,0.05352233135104179,-0.027750030582398173
1772363393795264300,8.46126416015625,0.023275077125430105,0.06352759253680705,0.053105713374167675
1772363393805333200,8.471333251953125,0.04168751665055752,0.08758183734118938,0.08391878478899598
1772363393815403300,8.4814033203125,0.10827800388932228,0.08612813140153884,0.05884060376435518
1772363393825472000,8.491471923828126,0.06382979035377502,0.06850128929615021,0.03431377301216125
1772363393835542300,8.501542236328126,-0.007193126374483108,0.038026656055450435,0.03621376141458749
1772363393845612300,8.5116123046875,-0.07323357851505279,-0.030779753667116164,0.028046529310941693
1772363393855681300,8.521681396484375,-0.09605506665408611,-0.06728373019993304,0.02606996854096651
1772363393865751300,8.531751220703125,-0.12847323517799378,-0.0770978527277708,0.008862520891427993
1772363393875820000,8.541820068359375,-0.08242167809903621,-0.04843582186698913,0.026073914063721892
1772363393885890300,8.551890380859374,0.09717910224795341,0.02504208679795265,0.027774142110347746
1772363393895959000,8.561958984375,0.02134732393324375,0.051419806113839145,0.02984890255779028
1772363393906029300,8.572029296875,-0.05194412224888801,0.09966390480101107,0.02641629776060581
1772363393916098000,8.58209814453125,-0.04279284754395485,0.087472531747818,-0.008195873676240443
1772363393926168300,8.592168212890625,-0.07027940488457679,0.02298515426814556,-0.030257921750098466
1772363393936238300,8.60223828125,-0.06537059005498885,-0.0004424830704927444,-0.06644128802642225
1772363393946307000,8.61230712890625,0.0005815992802381515,-0.013567337581515312,-0.09412921315804124
1772363393956377300,8.62237744140625,0.031332711374759674,-0.022320552879571912,-0.08949337005093694
1772363393966446000,8.632446044921876,0.001844166561961174,-0.03509820138812065,-0.09826587457135319
1772363393976516400,8.642516357421876,-0.008169277930259703,-0.010682722055912017,-0.05459492901861667
1772363393986585000,8.652585205078125,0.023543957194685935,0.051613282859325406,0.0026946459114551543
1772363393996655000,8.662655029296875,0.0735994892179966,0.11459668551683425,0.022585049034655094
1772363394006724000,8.67272412109375,0.052910921454429626,0.09007949937582016,-0.011575286981463432
1772363394016794000,8.682794189453125,-0.021392332118749618,0.035299276918172834,-0.05281447534263134
1772363394026863000,8.692863037109374,-0.02699146730005741,0.02552665544450283,-0.046992637321352955
1772363394036933000,8.70293310546875,-0.002524550041556358,0.0450344889909029,-0.04195245119705796
1772363394047003400,8.71300341796875,-0.02632569686770439,0.03639408641755581,-0.034258974085003134
1772363394057072000,8.723072021484375,-0.07422492763996123,-0.01163724630177021,-0.016619564758986235
1772363394067142100,8.73314208984375,-0.0922907456845045,-0.06591302636861801,-0.0046121699705719945
1772363394077211100,8.743211181640625,-0.06846154180765152,-0.08202303417026996,0.01706204782947898
1772363394087281200,8.75328125,0.013525836527347564,-0.08888181402385234,0.030666064159572123
1772363394097350100,8.76335009765625,0.06586743366122245,-0.07018821946978569,0.00835705558732152
1772363394107420200,8.773420166015624,0.13388590787649154,-0.015763970842957494,0.010721738892048596
1772363394117489200,8.7834892578125,0.15528408521413803,-0.008330021449923515,-0.052143005821853876
1772363394127559200,8.79355908203125,0.0736076725244522,-0.019340660285949707,-0.10426906050890683
1772363394137629200,8.803629150390625,-0.0040951603591442105,0.014985387685894965,-0.07453063258826732
1772363394147698200,8.8136982421875,0.027724457749724388,0.04222118513584137,-0.0519184032857418
1772363394157768200,8.823768310546875,0.08536240772604942,0.08305763791501522,-0.030493191810697314
1772363394167837200,8.833837158203124,0.0936935982197523,0.08212941715419292,-0.038981472562253476
1772363394177907200,8.8439072265625,0.05507949766516685,0.05143032750785351,-0.02731017786040902
1772363394187976200,8.85397607421875,0.05114215821623802,0.011665887874364853,-0.003592471534013748
1772363394198046200,8.864046142578125,0.03703998310565948,-0.015679799690842627,0.011961948211491108
1772363394208115200,8.874115234375,0.032194296640157695,0.0020867431461811066,0.03088949765190482
1772363394218185200,8.884185302734375,0.01707739152908325,0.003859598037600517,0.03218435976803303
1772363394228255200,8.894255126953125,-0.0157768303245306,0.0022550854504108427,0.014336568388342857
1772363394238324200,8.90432421875,-0.04937631758749485,-0.04274783935844898,-0.011627017168700694
1772363394248394200,8.914394287109374,-0.0484328992575407,-0.07080898171663284,-0.001549713660031557
1772363394258463200,8.924463134765626,-0.06179974583089351,-0.059133741492033,0.021363252154737708
1772363394268533200,8.934533203125,-0.07741291002631187,-0.00798515353500843,0.04511690657734871
1772363394278602200,8.944602294921875,-0.08248188385367393,0.07233458384871483,0.09980214422792195
1772363394288672300,8.95467236328125,-0.15736147601008416,0.13589724769890307,0.13754574555829166
1772363394298741000,8.964740966796874,-0.01942716952562332,0.13608312565982342,0.0866287744000554
1772363394308811300,8.974811279296874,-0.06040273851454257,0.0739133774727583,0.02118482684791088
1772363394318881300,8.98488134765625,-0.1679074199438095,0.023413608813285827,0.05742109235525131
1772363394328950300,8.9949501953125,-0.0019119711011648178,0.0233276840955019,0.05928410974815487
1772363394339020300,9.005020263671875,0.16540917338728903,0.04122340627014637,0.040046909836679696
1772363394349089000,9.015089111328125,0.13245266020298002,0.049918753901124,0.03168137868195772
1772363394359159300,9.0251591796875,0.08625263456404209,0.0005032733470201492,0.002332680731266737
1772363394369228000,9.03522802734375,0.09262801481485367,-0.07663432686924934,-0.026208792489767072
1772363394379298300,9.04529833984375,0.11833178039193153,-0.12673720516562462,-0.03371989877223968
1772363394389367000,9.055366943359376,0.15605682315230368,-0.12844284003973006,-0.04017039008587599
1772363394399437300,9.065437255859376,0.1801245119601488,-0.07025953114032744,-0.0015169804342091084
1772363394409507300,9.07550732421875,0.11960019289255142,-0.019569208344817162,0.019570231258124113
1772363394419576000,9.085576171875,-0.019430092135071752,0.018411855003237724,0.002159662251919508
1772363394429646300,9.095646240234375,-0.15477496664822102,0.02732522929906845,-0.02732259895056486
1772363394439715000,9.105715087890625,-0.1815980916440487,0.022143442746996877,-0.034579145950078966
1772363394449785300,9.115785400390624,-0.1226461364597082,0.003935001361370086,-0.009530191019922495
1772363394459854000,9.12585400390625,-0.023389643415808677,0.026995558953285214,-0.000014466916769742965
1772363394469924000,9.135924072265626,-0.0015244330883026121,0.05258884989321232,0.003336450946331024
1772363394479993000,9.1459931640625,0.03262158214151859,0.07793664163947105,-0.0035002632059156894
1772363394490063000,9.15606298828125,-0.07337327924668788,0.10954290925860405,0.05146276847273111
1772363394500133400,9.16613330078125,-0.22939444656372068,0.09113105425536631,0.024717531018704175
1772363394510202000,9.1762021484375,0.14958499678969384,0.017776479709148404,-0.047735418512672184
1772363394520272100,9.186272216796874,0.324947408914566,-0.07467676306068897,-0.11746332699432968
1772363394530341000,9.196341064453126,0.014742811101675033,-0.05832943937182426,-0.057940293923765415
1772363394540411100,9.2064111328125,-0.19737959814369677,-0.010590367597341537,0.06090820381864905
1772363394550480100,9.216480224609375,-0.09108020085096359,0.0003308393895626068,0.0945901086680591
1772363394560550100,9.226550048828125,0.014167057040333747,0.017107202145457266,0.05419628508985042
1772363394570619100,9.236619140625,0.06515139434635639,0.02270283019542694,0.018732172998785972
1772363394580689200,9.246689208984375,0.051237435284256935,-0.010662848311662674,-0.023988486091792584
1772363394590759200,9.25675927734375,-0.03185585846602917,-0.030060207220911978,-0.02283069435879588
1772363394600828200,9.266828125,-0.09188099583983421,-0.022346271842718122,0.0005728314518928528
1772363394610898200,9.276898193359376,-0.09268120630681514,0.008746201035380362,0.011412936026602982
1772363394620967200,9.28696728515625,-0.07626257094740867,0.029951486149430273,0.0013379706054925918
1772363394631038000,9.297037841796875,-0.029489129334688186,0.04578793770670891,0.010865677407383919
1772363394641107000,9.30710693359375,0.0224257668197155,0.07948679369091988,0.02950900307893753
1772363394651177000,9.317177001953125,0.00391045144200325,0.0627285511136055,-0.028532851523160933
1772363394661245700,9.32724560546875,-0.03598550561666489,0.04382628224492073,-0.05577741680145264
1772363394671316000,9.33731591796875,-0.058387307038903234,0.018514146333932877,-0.03826967103108764
1772363394681386000,9.347385986328124,-0.04072013292312622,-0.009228431594371795,-0.03694105277583003
1772363394691455000,9.357455078125,0.031181904727220534,-0.024873159971833227,-0.04995031808316707
1772363394701525000,9.36752490234375,0.07304770055413246,-0.035929391515254976,-0.022008125929534435
1772363394711594000,9.377593994140625,0.054420741495490074,-0.014102759632468223,-0.01810278905406594
1772363394721664000,9.3876640625,0.020720131945610044,0.05775076270103454,0.013079407934099434
1772363394731732700,9.397732666015624,-0.012774141377210616,0.13200199382603167,0.02387128945291042
1772363394741803000,9.407802978515624,-0.07282675127983093,0.12972118941247462,0.011293547430634498
1772363394751871700,9.417871826171876,-0.09246668677330017,0.08567161980569363,0.0018004735507071018
1772363394761942000,9.42794189453125,-0.030406828701496122,0.042537411478161806,0.013824381082504987
1772363394772011800,9.43801171875,-0.01899462332725525,-0.029725276178121565,-0.014741788188368082
1772363394782080800,9.448080810546875,0.0005173018723726272,-0.07144143440127372,-0.02257043598741293
1772363394792151000,9.458151123046875,0.02208674412369728,-0.08701192849874496,-0.0246009189017117
1772363394802219800,9.4682197265625,0.06293196473121643,-0.089458737128973,-0.04228577480465173
1772363394812290000,9.4782900390625,0.07401976045668125,-0.060360652938485145,-0.04158566371127963
1772363394822358800,9.48835888671875,0.028826281511783597,-0.0123217214345932,-0.03510200078040361
1772363394832429000,9.498428955078126,-0.015454174241423606,0.04852174658477306,-0.0008642156139016151
1772363394842497800,9.508497802734375,-0.031104747837781905,0.08314297811090945,-0.005606587835401296
1772363394852567800,9.51856787109375,0.030109891581535337,0.11813596555888652,-0.01924172995612025
1772363394862637800,9.528637939453125,0.07676525977253913,0.11774608945846557,-0.023686434405297038
1772363394872706800,9.538706787109374,0.09871054959893226,0.09381225616335868,-0.014576660754531621
1772363394882777000,9.548777099609374,0.10162029956579208,0.06268412744998932,0.0003280629105865955
1772363394892845800,9.558845703125,-0.003153495594859123,0.009499065229296683,-0.024458003299683333
1772363394902915800,9.568915771484376,-0.07620762588977813,-0.036464813566207885,-0.021710019765794276
1772363394912984800,9.57898486328125,-0.07398994984030723,-0.09038637336790561,-0.01875438483059406
1772363394923054800,9.589054931640625,-0.07131050149798393,-0.04714519753456115,0.03862506034001708
1772363394933123800,9.599123779296875,0.14247311895787715,0.02225041025280952,0.05818287050798535
1772363394943193900,9.60919384765625,0.10601707322001457,0.04929974521994591,0.051089405115693806
1772363394953262800,9.619262939453124,-0.07454407659173011,0.05310673628747463,0.10746464167982339
1772363394963332900,9.629332763671876,-0.06753449009060859,0.07967500973939895,0.0737878513969481
1772363394973403000,9.63940283203125,-0.04147591972649097,0.06551613600552082,0.02397840308919549
1772363394983471900,9.649471923828125,-0.13883447019457817,-0.0025531916141510007,-0.029049568873643874
1772363394993542000,9.6595419921875,-0.19890578479766843,-0.08384206629097461,-0.06202274093180894
1772363395003611000,9.66961083984375,-0.1529635333120823,-0.1265507426828146,-0.02979410363063216
1772363395013681000,9.679680908203125,-0.0534130257576704,-0.03771159875690937,0.019188246203213927
1772363395023750000,9.68975,0.017584172007441518,0.04222293870151043,0.04733122162595391
1772363395033820000,9.69981982421875,0.025429624810814858,0.09628945993185042,0.034476416227966544
1772363395043889000,9.709888916015625,0.04527063583433628,0.12440554734766482,0.04883329675197601
1772363395053959000,9.719958984375,0.07206570377945899,0.041650107249617575,0.013836363781243562
1772363395064029000,9.73002880859375,0.03302899389863014,-0.05555939013659954,-0.028976357506960627
1772363395074098000,9.740097900390625,0.0017395371437072752,-0.12164660402834415,-0.06851984786614776
1772363395084168000,9.75016796875,0.06525719280838967,-0.09377017058730125,-0.021798428701609373
1772363395094237000,9.76023681640625,0.1175181259214878,-0.012546177840232849,0.03712415425777435
1772363395104307000,9.770306884765626,0.15791443371772765,0.07774842559099197,0.08560586109310388
1772363395114376000,9.7803759765625,0.1486193666279316,0.09090835141539573,0.08209770684167743
1772363395124446000,9.790446044921875,0.057221185868978494,0.007694061633944511,-0.021388386595994232
1772363395134514700,9.8005146484375,-0.026371289575099943,-0.047101942914724346,-0.07703019431903958
1772363395144585000,9.8105849609375,-0.06634264995753765,-0.06826806506216526,-0.09227277163639665
1772363395154655000,9.820655029296875,-0.07189736147522927,-0.04238894291818142,-0.07262158409655094
1772363395164724000,9.830723876953124,-0.09007131606936454,-0.012070961543917656,-0.03660553721114993
1772363395174794000,9.8407939453125,-0.05524374831616878,0.023262802165746686,-0.017145049937814474
1772363395184863000,9.850863037109375,0.00800736536681652,0.0360153162330389,-0.00986088427901268
1772363395194933000,9.86093310546875,0.08031915286183357,0.013994623082876205,-0.0248635153606534
1772363395205001700,9.871001708984375,0.11428747343719005,-0.022443886998295783,-0.0285157542578876
1772363395215072000,9.881072021484375,0.10759586684405803,-0.03996200803220272,-0.014245821364969014
1772363395225140700,9.891140625,0.11582944218218326,-0.004420739051699638,0.0004243628919124603
1772363395235211000,9.9012109375,0.12190671626925467,0.00048339960277080535,-0.021099925043433904
1772363395245281000,9.911281005859376,-0.1412818633466959,0.02735211730599403,0.040900311795622105
1772363395255349800,9.921349853515625,-0.015464111113548278,0.07353986798524856,0.0975504197783768
1772363395265420000,9.931419921875,1.022575453299284,0.1954272950321436,-0.1415397836305201
1772363395275488800,9.94148876953125,0.8367220422983169,0.12620762833356858,-0.1546567470960319
1772363395285559000,9.95155908203125,-0.15109014065563678,0.06461129612028599,0.037738779024779796
1772363395295627800,9.961627685546874,-0.32138650156259535,-0.21638941904008388,-0.08038871096670627
1772363395305697800,9.97169775390625,-0.5881564467966556,-0.37372634513080116,0.024733459240198135
1772363395315766800,9.981766845703126,-0.7905109107434749,-0.3291524593889713,0.22565964394956825
1772363395325836800,9.9918369140625,-0.5924614505141973,-0.07938625592589378,0.24746654821857808
1772363395335907000,10.001906982421875,-0.3995183735132217,0.19663141012489793,0.262151783914119
1772363395345975800,10.011975830078125,-0.2903448820888996,0.15062895288467407,0.17182868504077195
1772363395356046000,10.022046142578125,-0.42642625418305397,-0.05734393546581268,0.03914528482183814
1772363395366114800,10.03211474609375,-0.18409458463490008,0.03180149793028831,0.12000702012777328
1772363395376184800,10.042184814453124,0.22357436210811138,0.08979366817176342,0.06962503262907266
1772363395386253800,10.05225390625,0.39404549506008624,0.22745617197751997,0.058289838013797994
1772363395396323800,10.06232373046875,0.6545283228486776,0.08339139991402626,-0.02170417454689741
1772363395406392800,10.072392822265625,0.8643015386193991,-0.014697218394279479,-0.07175473813414573
