time,seconds_elapsed,accel_x,accel_y,accel_z,gyro_x,gyro_y,gyro_z
1772363385457678000,0.123677978515625,0.09607684009447694,0.03601590075492859,-0.06623100627660751,0.016852013766765594,-0.01644999161362648,-0.027515560388565063
1772363385467748000,0.133748046875,0.13166910860985517,0.03196399501562119,-0.12458324200212954,0.03632984310388565,0.0021063820458948612,-0.026554424315690994
1772363385477817000,0.143817138671875,0.000943564460426569,0.005105798706412315,-0.002590601015090942,0.04317009449005127,0.04166035354137421,-0.026679620146751404
1772363385487887000,0.15388720703125,-0.11319675559103488,-0.06408288833200931,-0.03793371707499027,0.028286751359701157,0.02699965424835682,-0.014011496677994728
1772363385497956000,0.1639560546875,-0.15004837651774286,-0.14025135125517843,-0.26700258494615553,0.029655393213033676,-0.016152314841747284,-0.020226530730724335
1772363385508026000,0.174026123046875,-0.051128421951830386,-0.1020025768816471,-0.32867665857076644,0.0411171056330204,-0.03629247099161148,-0.023183971643447876
1772363385518095000,0.18409521484375,0.053973728380352255,-0.02055997294783592,-0.15079846423268317,0.04163246974349022,-0.024159688502550125,-0.016356877982616425
1772363385528165000,0.1941650390625,0.020552666424214838,0.020769816306233403,0.024454057776927947,0.036784715950489044,-0.012398634105920792,-0.01908981241285801
1772363385538235100,0.204235107421875,0.027834493995457885,0.08395663258135318,0.08155132500529289,0.0347733348608017,-0.01607654057443142,-0.02173389494419098
1772363385548304100,0.21430419921875,0.037299218563735484,0.09369535178542136,0.08206687331199645,0.039387259632349014,-0.0012459284625947475,-0.028083402663469315
1772363385558374100,0.2243740234375,0.02633534147888422,0.0685275927811861,0.20966741730868815,0.021454855799674988,0.030537519603967667,-0.023445045575499535
1772363385568443100,0.234443115234375,-0.038295536124706264,-0.0005552957952022552,0.2126677681684494,0.010934035293757915,0.0363975390791893,-0.01614052802324295
1772363385578513200,0.24451318359375,-0.043752632486820216,-0.03786357444822788,0.08101648747622966,-0.011356433853507042,0.007903752848505974,-0.009879198856651783
1772363385588582100,0.25458203125,-0.017531418906897304,-0.0931885713070631,-0.12457447417378426,-0.024373166263103485,-0.020675960928201675,0.0035364748910069466
1772363385598652200,0.264652099609375,-0.006545329990237951,-0.10552665935456752,-0.17156535792946814,-0.03104715794324875,-0.02371337078511715,0.007713967002928257
1772363385608721000,0.274720947265625,0.033314678972214455,-0.05102642288208008,-0.04713935231566429,-0.039156217128038406,-0.02679464966058731,0.009407470934092999
1772363385618791200,0.284791259765625,0.038963206253200766,-0.03755962306559086,0.00618657968044281,-0.042949218302965164,-0.018606966361403465,0.00487169623374939
1772363385628859400,0.294859375,0.04904591658934951,0.010856909579038619,0.12464987749755382,-0.03592459857463837,0.008846761658787727,-0.007143154740333557
1772363385638929200,0.30492919921875,0.05836947912126779,0.0768581987529993,0.19777590398490427,-0.017860528081655502,0.0353376530110836,-0.014282217249274254
1772363385648999200,0.314999267578125,0.05312587937936186,0.11460545334517955,0.14133680840432644,-0.006866734009236097,0.03573206812143326,-0.022220566868782043
1772363385659068200,0.325068115234375,0.0209486800044775,0.10309913994669914,-0.08843231669068335,0.02268902212381363,0.024424396455287933,-0.019863706082105637
1772363385669138200,0.33513818359375,-0.0364791343525052,0.05412497341930866,-0.16082067655324936,0.038120973855257034,0.029203172773122787,-0.019850656390190125
1772363385679207400,0.34520751953125,-0.057817690457403655,-0.011481763479113578,-0.08881459400653839,0.04447559267282486,0.011778557673096657,-0.014408200047910213
1772363385689277200,0.355277099609375,-0.07462415609061718,-0.06645896981358528,-0.15683306822180748,0.041326407343149185,-0.015555860474705696,-0.007021657191216946
1772363385699346200,0.36534619140625,-0.06512830573171377,-0.09457856436073779,-0.1593418361723423,0.03960872441530228,-0.027331136167049408,-0.001421906054019928
1772363385709416200,0.375416259765625,-0.06619169717952608,-0.05851707089841365,-0.0881213510453701,0.04253580421209335,-0.019619153812527657,-0.0033867862075567245
1772363385719485200,0.385485107421875,-0.02882818120792508,0.010104629907011985,0.02835164973735809,0.04859033599495888,-0.0033085928298532963,-0.002603679895401001
1772363385729555200,0.39555517578125,-0.021972323963791132,0.04523439547717571,0.06855097365677357,0.04614927992224693,0.01287410594522953,-0.0019927509129047394
1772363385739625200,0.405625244140625,-0.037125177171081304,0.03866144682765007,0.04012099798619747,0.04857202619314194,0.008504174649715424,0.0024288524873554707
1772363385749694200,0.415694091796875,-0.0192690563544631,0.06601414865553379,-0.007360884156823158,0.04978456348180771,0.017552264034748077,0.002827793825417757
1772363385759764200,0.42576416015625,-0.03453457615599036,0.030478724893927573,0.019925766697525975,0.04242229834198952,0.03145984932780266,0.0033590784296393394
1772363385769833200,0.435833251953125,-0.04661138291880488,-0.013875380617380141,-0.01021159741282463,0.03260721638798714,0.031978901475667953,0.008908839896321297
1772363385779903200,0.4459033203125,-0.07221782560124992,-0.03145253836214542,-0.0603974778175354,0.021683093160390854,0.02151540480554104,0.01456938311457634
1772363385789972200,0.45597216796875,-0.07369608146026731,-0.025544191101193426,-0.056361938691139216,0.019759491086006165,0.02128690481185913,0.017133207991719246
1772363385800042200,0.466042236328125,-0.026674802566319704,0.02682254047393799,0.02128770270049572,0.009044432081282139,0.05418385565280914,0.019203780218958855
1772363385810111200,0.476111328125,-0.01122720419615507,0.04950257431566715,0.07976970228552818,0.009674268774688244,0.048960596323013306,0.03072141855955124
1772363385820181200,0.48618115234375,-0.09282309899553656,-0.06763736594319343,-0.07736614827513694,0.013827571645379066,0.04306427761912346,0.038645826280117035
1772363385830250200,0.496250244140625,-0.1035363623201847,-0.08816343662142753,-0.046559506601095195,0.010189693421125412,0.056753724813461304,0.038638900965452194
1772363385840320000,0.506320068359375,-0.09181114547401666,-0.14104279389381408,0.04268295742869377,-0.0014211609959602356,0.07560102641582489,0.045712221413850784
1772363385850389200,0.51638916015625,-0.08779913335368036,-0.16412264070808885,0.03126782944500446,-0.009611979126930237,0.08917675912380219,0.05892229825258255
1772363385860459300,0.526459228515625,-0.1091084633640945,-0.19343349086642264,-0.011431494596600532,-0.0007515978068113327,0.12094917893409729,0.049866337329149246
1772363385870529300,0.536529296875,0.017058102306723593,-0.04667582645714283,0.09112637808024883,0.0074448129162192345,0.13392703235149384,0.055395856499671936
1772363385880598300,0.546598388671875,0.04430325210690498,0.03825111246109009,0.05307692567110062,0.029398009181022644,0.10572446137666702,0.05473132058978081
1772363385890668000,0.55666796875,0.02275602168738842,0.09587328034639359,-0.06739595840275288,0.03907566890120506,0.08029500395059586,0.05157174542546272
1772363385900737300,0.5667373046875,0.05289776971191167,0.22437223448753355,-0.05037351193130016,0.046753183007240295,0.061777010560035706,0.045874468982219696
1772363385910807000,0.57680712890625,0.05153218044713139,0.30723464209139345,-0.035869770282506944,0.05876857042312622,0.04850461706519127,0.051703594624996185
1772363385920876300,0.586876220703125,0.02379208673685789,0.2520510995298624,-0.0022445640563964844,0.06658776849508286,0.06103886663913727,0.047011200338602066
1772363385930946000,0.596946044921875,0.021787176655232905,0.13618074081540107,0.07657879728972912,0.07073670625686646,0.07941680401563644,0.0411439873278141
1772363385941015300,0.607015380859375,0.034100860913842915,0.030581016224622726,0.14146189608871937,0.07699082046747208,0.09674476832151413,0.039199694991111755
1772363385951085000,0.6170849609375,0.05956789512559771,-0.010129179826378822,0.13725216943919658,0.0882895439863205,0.11049333959817886,0.03334153816103935
1772363385961154300,0.627154296875,0.1122200195133686,0.022671266013383862,0.1563572674036026,0.08956698328256607,0.13084618747234344,0.028939835727214813
1772363385971224300,0.637224365234375,0.08313903258815407,0.030054946523904797,0.11969488543868065,0.08866070955991745,0.14160189032554626,0.03186318650841713
1772363385981293300,0.647293212890625,0.00959463455826044,-0.021920155385136603,0.00952536871433258,0.06715176999568939,0.1435181200504303,0.024981874972581863
1772363385991363300,0.65736328125,0.007930208477377892,-0.08035831582844256,-0.15593115094602106,0.056209906935691833,0.11772941797971725,0.014574240893125534
1772363386001433000,0.66743310546875,0.07311813544183969,-0.04403904821276664,-0.2549228555738926,0.06437070667743683,0.09098657965660095,0.009222381748259068
1772363386011502300,0.67750244140625,0.09820201555490493,0.008366261807084083,-0.174260588362813,0.07145018875598907,0.14060845971107483,-0.0003266488201916218
1772363386021572000,0.687572021484375,0.09956249025315046,0.12030921794474124,0.09927753583192825,0.0722922682762146,0.19310986995697021,-0.005653273314237595
1772363386031641300,0.697641357421875,0.01862710518911481,0.13573299704790115,0.07519523397684097,0.07497167587280273,0.2230302095413208,-0.012650195509195328
1772363386041711000,0.707711181640625,-0.005101268661767244,0.10721885022521019,-0.0755991386026144,0.07137959450483322,0.19570347666740417,-0.01945437863469124
1772363386051780000,0.717780029296875,-0.01098477374240756,0.04058452384471893,-0.2951882304668426,0.05940255895256996,0.13472001254558563,-0.007620887830853462
1772363386061850400,0.727850341796875,-0.03818476922661066,-0.10878653793334961,-0.37836218823790546,0.043296586722135544,0.06766516715288162,0.0038859755732119083
1772363386071919000,0.737919189453125,-0.03330766470953822,-0.13352759595811367,-0.3701473176002502,0.034997645765542984,0.024727022275328636,0.010462651960551739
1772363386081989400,0.7479892578125,0.014520838914066553,-0.03996083898842334,-0.1636941861629486,0.03603634983301163,0.0010059187188744545,0.002589008305221796
1772363386092058000,0.75805810546875,0.0857585674367845,0.16469313407242298,-0.013515315133333206,0.03138007968664169,0.0019854293204844,-0.0018161265179514885
1772363386102128400,0.76812841796875,0.10338482502028346,0.22317980983257293,0.08205167574286461,0.0197305865585804,0.019966203719377518,-0.0030429218895733356
1772363386112198100,0.7781982421875,0.024461072039604185,0.16901099727153776,0.05257306780219078,0.009123214520514011,0.016779731959104538,-0.0031164255924522877
1772363386122267100,0.78826708984375,-0.03621522271931171,0.06675356884598732,-0.013301380121707916,0.010587974451482296,0.015323184430599213,0.007373874541372061
1772363386132337200,0.798337158203125,-0.0665144993931055,-0.023357494711875915,0.030476971328258513,0.005118905566632748,0.017202576622366905,-0.0020726239308714867
1772363386142406100,0.80840625,-0.030160306594520805,0.012529226705431938,0.08220131334662437,-0.0023873504251241684,0.01562599651515484,0.0017440016381442547
1772363386152476400,0.818476318359375,-0.06939020095989108,-0.06747603790163993,0.020785598397254943,-0.00021793972700834274,0.03349767252802849,0.010014981031417847
1772363386162545200,0.828545166015625,-0.12970730701759456,-0.06375204894244671,-0.002292494851350784,0.01701638288795948,0.050744231790304184,0.007786390837281942
1772363386172615200,0.838615234375,-0.10287190706208348,0.009541150805354118,-0.021108254480361938,0.025759804993867874,0.04079705849289894,0.018895767629146576
1772363386182684200,0.84868408203125,-0.13177841420322656,-0.03404489294290542,-0.11521452515423297,0.02404049038887024,0.010134154930710793,0.025613432750105858
1772363386192754200,0.858754150390625,-0.12094473936930299,-0.04867489131987095,-0.1968459296584129,0.036512341350317,-0.017110515385866165,0.02948673442006111
1772363386202823200,0.8688232421875,-0.05415259207859635,0.017562544697523115,-0.11803192066252231,0.056298620998859406,-0.012877902016043663,0.0326358787715435
1772363386212893200,0.87889306640625,-0.009782119954377413,0.12208324187994003,0.04476911605298519,0.06437652558088303,0.011659132316708565,0.029166579246520996
1772363386222962200,0.888962158203125,-0.004400865307450294,0.14452537531256676,0.11331775162220001,0.07074372470378876,0.03577625751495361,0.02904827892780304
1772363386233032200,0.8990322265625,-0.008823504055291413,0.1074748708128929,0.08912731321752071,0.06792876124382019,0.044221676886081696,0.02460585907101631
1772363386243102200,0.909102294921875,-0.006607143180072307,0.06861001036763191,0.024807108998298643,0.047360025346279144,0.03396708145737648,0.022794347256422043
1772363386253171200,0.919171142578125,-0.014672230083495377,0.01333820500075817,-0.05831248823702335,0.02656073495745659,0.007673424202948809,0.020103488117456436
1772363386263241200,0.9292412109375,0.0049330724880099295,-0.02042670195698738,-0.111723175907135,0.013665866106748581,-0.019197147339582443,0.020487574860453606
1772363386273310200,0.939310302734375,0.05493818949833512,-0.0034866730719804763,-0.10782324585914611,0.009421853348612785,-0.028550967574119568,0.02353076823055744
1772363386283380200,0.949380126953125,0.13684125055074692,0.022514029625058173,-0.04181786503195763,0.010458390228450298,-0.029772315174341202,0.02443642169237137
1772363386293449200,0.95944921875,0.1533808819413185,0.04410977536141872,-0.006271919876337051,0.011824325658380985,-0.023122135549783707,0.021632380783557892
1772363386303519200,0.969519287109375,0.10041399251595139,0.04395779967010021,0.015736498314142228,0.004519322887063026,-0.013414107263088226,0.01917070522904396
1772363386313588200,0.979588134765625,0.04972966106981039,0.030621932756900786,-0.006311082842946052,-0.0019375104457139969,-0.011468668468296528,0.01868574321269989
1772363386323658200,0.989658203125,0.007588993824273347,0.006383563557267189,-0.06804302413463592,-0.002720661461353302,-0.018506085500121117,0.009802036918699741
1772363386333727200,0.999727294921875,0.04986161688640713,0.04084931226074695,-0.10099544566571712,-0.0010495278984308243,-0.03268449008464813,0.007364179007709026
1772363386343797200,1.00979736328125,0.05959492926299571,0.05452537091374397,-0.15778116272687912,0.012925163842737675,-0.04425466060638428,-0.008746239356696606
1772363386353866000,1.019865966796875,0.09782382989227771,0.11650222687721251,-0.09713818571567535,0.029742762446403503,-0.031726349145174026,-0.019500084221363068
1772363386363936300,1.029936279296875,0.11691373028755188,0.14192951360046863,0.026563012754917143,0.037441153079271317,-0.010929081588983536,-0.02080506831407547
1772363386374006300,1.04000634765625,0.004341828596591949,0.04522738121449947,0.006002455285191536,0.025289680808782578,-0.0011518190149217844,-0.019691068679094315
1772363386384075300,1.0500751953125,-0.09384995782524347,-0.04433773889839649,-0.11366729571223258,0.01809278130531311,-0.02379552274942398,-0.021136753261089325
1772363386394145300,1.060145263671875,-0.09335910556837916,-0.10171265402436255,-0.18899463163614272,0.007421229034662247,-0.04161339998245239,-0.012990943156182766
1772363386404214000,1.070214111328125,-0.07471651054918765,-0.1496598155915737,-0.1428507200986147,-0.0017459243535995483,-0.03657516837120056,-0.009582738392055035
1772363386414284300,1.0802841796875,-0.06663228055387735,-0.09904080446660518,-0.021059154641628264,0.0007478604093194008,-0.0270618237555027,-0.01183896791189909
1772363386424353000,1.09035302734375,0.028329876296967267,0.04643091178536415,0.037947745600342746,0.0087508549913764,-0.021889371797442436,-0.013266416266560555
1772363386434423300,1.10042333984375,0.10072992659732699,0.15482289744317532,0.05100421105027198,0.005169968120753765,-0.02534349262714386,-0.018805257976055145
1772363386444492000,1.110491943359375,0.0702193452604115,0.1340057348638773,0.026025252616405484,0.0018505696207284927,-0.031334519386291504,-0.0193423330783844
1772363386454562300,1.120562255859375,0.017275544449687003,0.06683131025731563,-0.00030278233885765074,-0.0009228456765413284,-0.0407746247947216,-0.019963379949331284
1772363386464631300,1.13063134765625,-0.02133124958127737,0.018014380118250847,0.03251753724515438,-0.014424210414290428,-0.03880995884537697,-0.021639617159962654
1772363386474701000,1.140701171875,-0.045620764446258545,-0.00343465062379837,0.0691594609439373,-0.02122858725488186,-0.03912634402513504,-0.02258690446615219
1772363386484770300,1.150770263671875,-0.04196589520052075,-0.01781681171953678,0.07670563853979111,-0.0230069849640131,-0.028085075318813324,-0.02507343888282776
1772363386494840000,1.160840087890625,-0.02392170446589589,-0.004690203642845153,0.0878600697606802,-0.017213277518749237,-0.015534130856394768,-0.022154349833726883
1772363386504910300,1.170910400390625,-0.006748305216431617,-0.010837035834789276,0.038814007040858266,-0.0141705721616745,-0.009825527667999268,-0.014483530074357986
1772363386514979000,1.18097900390625,-0.03539163137674332,-0.041457215026021,-0.028303134420514107,-0.014788425527513027,-0.011547527275979519,-0.0110698901116848
1772363386525049000,1.191049072265625,-0.04734232754185796,-0.052289574685692786,-0.05063187060654163,-0.013619069010019302,-0.01310969889163971,-0.011784762144088745
1772363386535118000,1.2011181640625,-0.028938948106020688,-0.044020343512296674,-0.03619125732183456,-0.012941027991473675,-0.020915158092975616,-0.012635909020900726
1772363386545188000,1.21118798828125,-0.022989976573735475,-0.014718845704197884,-0.023755554118752478,-0.00827957596629858,-0.02895769104361534,-0.012459196150302887
1772363386555257300,1.22125732421875,-0.0349446182616055,0.022805706048011777,-0.028804654201865194,0.004639684222638607,-0.035424377769231796,-0.008420778438448906
1772363386565327000,1.2313271484375,-0.03143251848742366,0.07050444581210613,-0.048693596020340915,0.02025517076253891,-0.03871138393878937,-0.008085804060101509
1772363386575396400,1.241396240234375,-0.0398038948610425,0.12889993615746498,-0.014098667979240417,0.03657688573002815,-0.028599627315998077,-0.010870140045881271
1772363386585466000,1.251466064453125,-0.022221184158325195,0.18376082263588905,0.044891281127929686,0.04492810368537903,-0.022557619959115982,-0.011939636431634426
1772363386595535400,1.261535400390625,-0.04918400988578796,0.12992460303008554,0.0518704724907875,0.04182285815477371,-0.01569225639104843,-0.0016358653083443642
1772363386605605000,1.271605224609375,-0.07563450217694044,0.023778350472450256,0.04207096301019191,0.04220825433731079,-0.016745934262871742,-0.004578176885843277
1772363386615674400,1.28167431640625,-0.028912790751457213,-0.006086626437306404,0.09983516971468925,0.039466798305511475,-0.007891455665230751,-0.001310477964580059
1772363386625745000,1.291744873046875,0.018917466437816617,-0.003914543095231056,0.17238836475014685,0.027547340840101242,0.016154762357473373,0.004359276965260506
1772363386635813600,1.301813720703125,-0.015500351470708846,-0.018199089035391806,0.15972294444441795,0.016599353402853012,0.017148654907941818,0.006061037071049213
1772363386645884000,1.3118837890625,-0.04715367310196161,-0.03524491638243198,0.015349544823169707,0.00828124862164259,0.008640965446829796,0.009091786108911037
1772363386655953700,1.32195361328125,-0.046545039684325454,-0.033494273322820664,-0.04261398384571075,-0.006697435397654772,0.004035028629004955,0.0115149961784482
1772363386666022700,1.332022705078125,-0.03654357789084315,-0.03436930259168148,-0.04452595494687557,-0.008845100179314613,0.0017355028539896011,0.008267601951956749
1772363386676092700,1.3420927734375,-0.020132541316002606,0.000800210466980934,-0.028224808487296103,-0.017406364902853966,0.002910223323851824,0.006267034914344549
1772363386686161700,1.35216162109375,0.0060628071703016755,0.04472995308637619,-0.00833586666882038,-0.008990520611405373,-0.0003239531069993973,-0.004525128751993179
1772363386696231700,1.362231689453125,0.028274054456502197,0.08950725244581699,-0.03783551739752292,0.0014546634629368782,0.0029522678814828396,-0.008777397684752941
1772363386706300700,1.37230078125,0.02035831289589405,0.07959317667484284,-0.028636311897635457,0.004741355776786804,0.01334097795188427,-0.007308600470423698
1772363386716371000,1.382370849609375,-0.044458734929561615,0.009730535897612571,-0.015423194581270217,0.004154127091169357,0.018667301163077354,-0.0030480753630399704
1772363386726439700,1.392439697265625,-0.0908095672160387,-0.06007832886576652,-0.04795826748311519,-0.0008952124044299126,0.0034822672605514526,0.0017896289937198162
1772363386736509700,1.402509765625,-0.06041983577981591,-0.06716565677821636,-0.048636897397041315,-0.006354160141199827,-0.008222325704991817,-0.0031715743243694305
1772363386746578700,1.41257861328125,0.020987989101558923,0.0003308393895626068,0.028873043262958524,-0.008261353708803654,-0.011834290809929371,-0.004189073573797941
1772363386756648700,1.422648681640625,0.07057122743800281,0.08305588434934616,0.08639759599268436,-0.00513799861073494,-0.0017156100366264582,-0.00565514387562871
1772363386766717700,1.4327177734375,0.04862725278586149,0.10044657961130142,0.16319149733781813,-0.012449903413653374,0.023025095462799072,-0.003592533990740776
1772363386776787700,1.44278759765625,-0.03934270709007978,0.020615502527356146,0.19368191266953944,-0.02337179332971573,0.04312637075781822,0.006640130188316107
1772363386786857700,1.452857666015625,-0.11848068734332919,-0.1043166990429163,0.12217384277284145,-0.03761696442961693,0.03862199932336807,0.018976187333464622
1772363386796926700,1.4629267578125,-0.1629813617184758,-0.1962976481258869,0.03379705566167831,-0.04551350697875023,0.03253640979528427,0.0301516093313694
1772363386806996700,1.472996826171875,-0.15535758884176612,-0.18655308370292187,0.018950199663639068,-0.038458336144685745,0.033104099333286285,0.028242627158761024
1772363386817065700,1.483065673828125,-0.0655767801515758,-0.07029986315071582,0.036600422644615174,-0.02422347292304039,0.03488441929221153,0.03169861435890198
1772363386827135700,1.4931357421875,-0.024777736773341892,0.033359248766303064,0.020419687694311142,-0.01284446008503437,0.041390374302864075,0.03071512095630169
1772363386837204700,1.503204833984375,-0.01434928173944354,0.07098784541487693,0.010298106652498244,-0.006050735712051392,0.03945212811231613,0.03308480232954025
1772363386847274800,1.513274658203125,-0.022302871092408895,0.02043722335100174,0.0032832594543695448,0.004736980423331261,0.034420356154441833,0.03482026606798172
1772363386857343700,1.52334375,-0.02116349179893732,-0.014214987835288047,0.009202128109335898,0.013610366731882095,0.04487699270248413,0.03734228014945984
1772363386867413800,1.533413818359375,-0.027190789264440535,-0.007432780349254608,0.02627075181007385,0.02973637543618679,0.06815486401319504,0.0376143716275692
1772363386877482800,1.543482666015625,0.009367693934589624,0.039780806246399875,0.0544891305565834,0.032757461071014404,0.08961141854524612,0.0439486987888813
1772363386887552800,1.553552734375,0.01347220664396882,0.040512043130397794,-0.006399930170178413,0.030316833406686783,0.07011433690786362,0.04575438052415848
1772363386897621500,1.56362158203125,-0.016275427496433258,0.029835166293382644,-0.157494162479043,0.02380886673927307,0.03735346719622612,0.04571869224309921
1772363386907691800,1.57369189453125,-0.005730652606487274,0.021928338691592216,-0.16765139935612677,0.018747912719845772,0.01475544273853302,0.03903413936495781
1772363386917760500,1.583760498046875,0.021154431709647176,0.052746086281538006,-0.06722177087962627,0.005584441125392914,0.012233428657054901,0.03650892898440361
1772363386927830800,1.593830810546875,0.03136500620916485,0.06955868939459324,0.01038110876083374,-0.008381513878703117,0.011861979961395264,0.0317770317196846
1772363386937900800,1.60390087890625,0.0476876338481903,0.045350130811333655,0.02068330706655979,-0.009348507970571518,0.03708770498633385,0.029270995408296585
1772363386947969800,1.6139697265625,0.0405269484385848,-0.006955225965380668,0.09132102386951446,-0.017722291871905327,0.054870009422302246,0.030214518308639526
1772363386958039800,1.624039794921875,0.034859278065711256,-0.008252864560484886,0.007481880187988281,-0.011521920561790466,0.05178260803222656,0.02807440236210823
1772363386968108500,1.634108642578125,0.03662979486957192,-0.012478957822918892,-0.04728314470052719,-0.024487584829330444,0.047711119055747986,0.033917687833309174
1772363386978178800,1.6441787109375,0.02670475931316614,-0.00575695609152317,-0.11148059932291507,-0.03813522309064865,0.029822666198015213,0.03682878613471985
1772363386988247600,1.65424755859375,0.016192863779515027,-0.0019616554617881772,-0.21084932056963443,-0.04015966132283211,0.0031235315836966038,0.03383326530456543
1772363386998317800,1.66431787109375,0.05934943006932735,0.03591887012124061,-0.21152561239600182,-0.022044040262699127,-0.007964006625115871,0.027134349569678307
1772363387008386600,1.674386474609375,0.11227934848517179,0.08564064014554024,-0.07010346379578113,-0.0061360811814665794,0.007112443447113037,0.016378510743379593
1772363387018456600,1.68445654296875,0.1779068359106779,0.17673194691240787,0.06751578539013862,0.0033160103484988213,0.012901357375085354,0.002856310922652483
1772363387028525600,1.694525634765625,0.17125731489360332,0.21535890694856644,0.019620061749219892,0.0016282172873616219,0.002002333290874958,0.005279766395688057
1772363387038595600,1.704595703125,0.09653130586370826,0.13834697893857956,-0.08525076404511928,0.0008966466411948204,-0.006461458746343851,0.0005273553542792797
1772363387048664800,1.714664794921875,0.03136354490444064,0.01779109275639057,-0.12480009962320326,-0.005113883409649134,-0.020020276308059692,-0.00043692532926797867
1772363387058734600,1.724734619140625,0.006089549046754837,-0.08416472237408161,-0.09817103589475154,-0.006963449064642191,-0.022729776799678802,0.0012778844684362411
1772363387068804900,1.734804931640625,0.003457446977496147,-0.13334230251908302,-0.025071897414326666,-0.004306497983634472,-0.017279870808124542,0.0009987205266952515
1772363387078873600,1.74487353515625,0.026604659939557313,-0.06915420024693011,0.052609892681241034,0.006811933591961861,-0.003551274538040161,0.0003710133023560047
1772363387088943600,1.754943603515625,0.04946180391386151,0.030506197422742843,0.04751578441262245,0.031169017776846886,-0.004344800021499395,-0.0001043328084051609
1772363387099012600,1.7650126953125,0.05919350885525346,0.08843757738769054,0.05572597887516021,0.0271481741219759,0.006723829545080662,0.0013015498407185078
1772363387109082600,1.77508251953125,0.005921499003469943,0.061580550122261046,-0.014607786545157432,0.017706414684653282,-0.0260918028652668,-0.002841982524842024
1772363387119151600,1.785151611328125,0.013096212938427925,0.08398878128528595,-0.22878771284222602,0.02436910942196846,-0.06622990220785141,-0.00654883636161685
1772363387129221600,1.7952216796875,0.029942572190612554,0.1049175875455141,-0.13603811747431754,0.024414293467998505,-0.06092742457985878,-0.011478448286652565
1772363387139291000,1.805290771484375,-0.0028575813882052896,0.07467208688557148,0.08202361869215964,0.017432551831007004,-0.04282192140817642,-0.01800905168056488
1772363387149360600,1.815360595703125,0.0031746845133602615,0.06597790829837322,0.14716916781961917,0.022333581000566483,-0.03885536640882492,-0.023925993591547012
1772363387159430000,1.825429931640625,0.04145736115649342,0.06080898122787475,0.08686462898254393,0.021882440894842148,-0.035220153629779816,-0.025333471596240997
1772363387169499600,1.835499755859375,0.043146337156742806,0.009991817182302474,0.01664601437449455,0.013166881166398525,-0.03517970070242882,-0.023363668471574783
1772363387179568600,1.845568603515625,0.010013298361748456,-0.00959200420975685,-0.0646761780500412,0.012216930277645588,-0.03846657648682594,-0.02671632170677185
1772363387189638700,1.855638671875,0.017684855902940035,0.03782148887217045,-0.05648702637553215,0.006378215737640858,-0.04032333195209503,-0.02796454355120659
1772363387199707600,1.865707763671875,0.020002777456492184,0.05409574732482433,0.04094225124120712,0.001886795274913311,-0.028674397617578506,-0.02334609068930149
1772363387209777700,1.875777587890625,-0.05234525039568543,0.0016278934627771376,0.08132336146831512,0.0024594608694314957,-0.016924278810620308,-0.023759882897138596
1772363387219847700,1.88584765625,-0.07979585964009166,-0.006758826610445976,0.06311725817024708,0.009361308999359608,-0.013849927112460136,-0.023647762835025787
1772363387229917000,1.8959169921875,-0.03744710260182619,0.006734276691079139,0.009492635488510131,0.00977347418665886,-0.011552024632692337,-0.02445187419652939
1772363387239986700,1.905986572265625,-0.03882847395762801,-0.011932429856061934,-0.06093289986848831,0.008253341540694237,-0.014664461836218834,-0.016732167452573776
1772363387250055700,1.9160556640625,-0.059736091299355025,-0.05451075786650181,-0.10754910509288311,0.014937195926904678,-0.011218367144465446,-0.01385544240474701
1772363387260125700,1.926125732421875,-0.05987447685673832,-0.04775602290928364,-0.07498129896521567,0.01560991071164608,-0.0015782567206770182,-0.011541688814759254
1772363387270194700,1.936194580078125,-0.05639043413326144,-0.0404945074737072,-0.00014846855998039245,0.017322223633527756,0.009661851450800896,-0.009157761931419373
1772363387280264700,1.9462646484375,-0.020543167943507433,-0.0038420623809099193,0.03143441818356514,0.009811046533286572,0.0006467844359576702,-0.008318066596984863
1772363387290333700,1.956333740234375,0.015330693992227315,0.050751113072037696,0.003819850549101829,0.0003303801640868187,-0.0013610685709863901,-0.008903194218873978
1772363387300403700,1.96640380859375,0.054525955435633655,0.0743009154856205,0.014973697248101233,-0.00417275819927454,-0.006045302376151085,-0.015634600073099136
1772363387310472700,1.97647265625,0.09135653357431292,0.07382336110174656,0.06573766980171203,-0.008610468357801437,0.002872839570045471,-0.016563575714826584
1772363387320542700,1.986542724609375,0.06004705694466829,-0.0037280806124210357,0.08256488596200942,-0.010933011770248413,0.016268540173768997,-0.010390100069344044
1772363387330611700,1.99661181640625,-0.004720160389691591,-0.048479661008715626,0.0706494072407484,-0.0060963099822402,0.02643541619181633,-0.009242329746484756
1772363387340681700,2.006681640625,-0.015652619422972202,-0.06290624576807022,-0.0007224690556526184,0.0001621181145310402,0.02583247609436512,-0.008701175451278687
1772363387350750700,2.016750732421875,0.007623188354820012,-0.03383271149694919,-0.04314940589666366,0.0013352548703551292,0.018811628222465515,-0.007318389136344194
1772363387360820700,2.02682080078125,-0.0015581892274320124,-0.0021878654330968854,-0.10047463666200637,0.010330081917345524,0.012317776679992676,-0.009999392554163933
1772363387370890500,2.036890380859375,-0.01000292309820652,0.026976269730925557,-0.09593407062292099,0.015827663242816925,-0.0031997293699532747,-0.012703992426395416
1772363387380959700,2.046959716796875,-0.008883417548984288,0.03185235133469105,-0.06451660357415676,0.021429356187582016,-0.013985265046358109,-0.008710049092769623
1772363387391029500,2.057029541015625,-0.011211714366078375,0.024292145213484762,-0.01924596773982048,0.026480555534362793,-0.015272039920091629,-0.009489398449659348
1772363387401098800,2.0670986328125,0.01228533494696021,0.030044425129890442,0.043732758742570876,0.026739683002233505,-0.004426049534231424,-0.018031487241387367
1772363387411168800,2.077168701171875,0.031345424725860355,0.0010936404556035994,0.11237024163901806,0.019484080374240875,0.010119352489709854,-0.013071946799755096
1772363387421237800,2.08723779296875,-0.00018543956950306891,-0.040321488994359965,0.0828442874252796,0.011714309453964233,0.018324285745620728,-0.009083596989512444
1772363387431307800,2.097307861328125,-0.026966771250218152,-0.06124561907947063,0.0298632233440876,0.00079355388879776,0.015195544809103012,-0.008934468030929565
1772363387441376800,2.107376708984375,-0.04479775762557983,-0.09093114776909351,0.0067167410343885415,-0.013721472583711147,0.018037403002381325,-0.0035101412795484066
1772363387451446800,2.11744677734375,-0.060587009040266274,-0.09862696296870709,0.02173778455555439,-0.02797364443540573,0.00826040655374527,-0.0023306268267333508
1772363387461515800,2.127515869140625,-0.06801233673542738,-0.08023615075349808,0.027104864546656608,-0.03625074774026871,-0.0005724993534386158,0.004025539383292198
1772363387471585800,2.137585693359375,-0.06401522992327809,-0.04993219790458679,0.018136545193195342,-0.03689438849687576,0.0014949217438697815,0.004012107849121094
1772363387481654500,2.147654541015625,-0.051152095088362694,-0.012968787166476248,0.022753099077939987,-0.03477930277585983,0.00711445789784193,0.005598020274192095
1772363387491724800,2.157724853515625,-0.024312603479623794,0.010430208599567413,0.018071663263440133,-0.023704148828983307,0.004676072392612696,0.00556078739464283
1772363387501793500,2.16779345703125,-0.01614595589786768,0.02930734302699566,0.008614099088311195,-0.003983441740274429,0.00021261442452669144,0.006699555087834597
1772363387511863800,2.17786376953125,-0.011491554220765829,0.08574877669513226,0.028103227934241293,0.008424738422036171,0.011817939579486847,0.010401240549981594
1772363387521933800,2.187933837890625,-0.03626870647221803,0.09168225839734077,0.0178115510225296,0.01679398864507675,0.02157895639538765,0.014847388491034508
1772363387532002600,2.19800244140625,-0.06668854078575968,0.053824529168009755,-0.018071078741550443,0.01641240529716015,0.020022626966238022,0.02240276150405407
1772363387542072800,2.20807275390625,-0.08676131473854183,-0.004306172761321067,-0.023866028755903244,0.02039276622235775,0.006336643360555172,0.023029936477541924
1772363387552141600,2.2181416015625,-0.06631970747336745,-0.034521862804889676,0.004728782087564468,0.02473362162709236,-0.0013921468053013086,0.024201057851314545
1772363387562211800,2.2282119140625,-0.017511837423592806,-0.0005132102191448212,0.05680033010840416,0.018190767616033554,0.0009793979115784168,0.022980529814958572
1772363387572280600,2.238280517578125,0.005237023870646953,0.0358802916765213,0.09187631966471671,0.00756722129881382,0.006791421677917242,0.022321125492453575
1772363387582350800,2.248350830078125,0.02660612124428153,0.06547405042946339,0.06918284181952476,0.0009655104950070381,0.008102761581540108,0.017311986535787582
1772363387592419600,2.258419677734375,0.06349398252815008,0.0563975945264101,0.001364274090528488,-0.010895746760070324,0.002034542616456747,0.019339723512530327
1772363387602489600,2.268489501953125,0.053203766921162604,0.013098551025986671,-0.09861644157469272,-0.02101442590355873,-0.006391965784132481,0.018198292702436447
1772363387612558600,2.27855859375,0.05103314488381147,-0.009522446104884147,-0.1323404320001602,-0.029831893742084503,-0.013272929936647415,0.013094042427837849
1772363387622632400,2.288632568359375,0.07249430445507168,-0.005151391413807869,-0.07432955705821513,-0.03023775853216648,-0.011724568903446198,0.009764292277395725
1772363387632701700,2.29870166015625,0.08419847851321101,0.04346680128276348,0.017379004824161527,-0.03503258526325226,-0.00848530512303114,0.00749368779361248
1772363387642771500,2.308771484375,0.05923603282272815,0.03164016988873482,0.04125321688652038,-0.03449569270014763,-0.006206704303622246,0.0012395204976201057
1772363387652840700,2.3188408203125,0.07367328510656952,0.019721184036135674,-0.01303366909623146,-0.028735555708408356,-0.012833759188652039,-0.0013720467686653137
1772363387662910700,2.32891064453125,0.08579203131496906,0.01254910044968128,-0.08368482990264892,-0.020185209810733795,-0.024844348430633545,-0.0034945858642458916
1772363387672980500,2.33898046875,0.05680383723974228,0.01996317609846592,-0.1293862583696842,-0.0031997431069612503,-0.026116667315363884,-0.0040883710607886314
1772363387683049700,2.3490498046875,0.021391747596859932,0.022826748836040495,-0.08626023334860801,0.0055833617225289345,-0.01970537379384041,-0.009222147054970264
1772363387693119500,2.359119384765625,0.0033243221171200274,0.0038759646505117412,-0.008719897550344467,0.007098427042365074,-0.024698957800865173,-0.013016387820243835
1772363387703188700,2.369188720703125,0.0002950374238193035,-0.015784429109096526,0.0012228197932243347,0.010491827502846718,-0.02348482236266136,-0.015171684324741364
1772363387713258500,2.379258544921875,0.01254106327369809,-0.010019289711117743,0.028381460353732107,0.012346900068223476,-0.02133164182305336,-0.014129121787846088
1772363387723327700,2.38932763671875,0.01966857706606388,0.005929974570870399,0.050745852375030515,0.01684204861521721,-0.017982183024287224,-0.014664682559669018
1772363387733397500,2.3993974609375,-0.008827157317101954,0.009074117815494536,0.024697218883037567,0.02116330713033676,-0.011117041110992432,-0.011430734768509865
1772363387743466500,2.409466552734375,-0.0016281857237219809,0.03668517831861973,0.005219195953011513,0.0250115767121315,-0.01089786272495985,-0.006615472957491875
1772363387753536800,2.419536865234375,-0.015413403839617966,0.00478314262330532,-0.003072247052192688,0.019560281187295914,-0.01697966456413269,-0.00611745472997427
1772363387763605500,2.42960546875,0.017790362104028463,0.00516483541727066,-0.045509705287218094,0.020409032702445984,-0.03294584900140762,-0.005202393047511578
1772363387773675800,2.43967578125,0.03306815686523914,-0.0011982698738574982,-0.07694704608023166,0.019732855260372162,-0.028018467128276825,-0.007151826284825802
1772363387783744500,2.44974462890625,0.018473668193072078,0.10189327128827572,0.018223054432868955,0.01568218693137169,-0.01974748820066452,-0.014163130894303322
1772363387793814800,2.459814697265625,0.05325520484745502,0.151115859618783,0.05993629004657268,0.013107065111398697,-0.023210737854242325,-0.017597220838069916
1772363387803884500,2.469884521484375,0.08398556641489267,0.16855799280703065,0.024324293917417524,0.013385631144046783,-0.02848539501428604,-0.018238510936498642
1772363387813953500,2.47995361328125,0.032847499851882456,0.10595219129025936,-0.006165536892414092,0.010543271899223328,-0.017063383013010025,-0.01329044159501791
1772363387824023600,2.4900234375,-0.04882014500945806,-0.01568506038784981,-0.02409399229288101,0.0029436759650707245,-0.004647193010896444,-0.01093993615359068
1772363387834092500,2.500092529296875,-0.08694441622048615,-0.10577508115768432,-0.024681436792016027,-0.017780238762497902,-0.002052317839115858,-0.0039648148231208324
1772363387844162800,2.510162841796875,-0.10178279665112495,-0.2064981396228075,-0.038786534512042996,-0.03992815315723419,-0.009315557777881622,0.002822251059114933
1772363387854231600,2.5202314453125,-0.09553484217226504,-0.24200199920237062,-0.04041735058426857,-0.047081317752599716,-0.015001954510807991,0.00020842300727963448
1772363387864301600,2.530301513671875,-0.008470891225337982,-0.15915712725520134,-0.01488017374575138,-0.039916083216667175,-0.015574267134070396,0.00028245896100997925
1772363387874370600,2.54037060546875,0.07609057538136839,-0.010167758271098136,0.0216588741004467,-0.024025436490774155,0.00022709649056196213,-0.0004433831200003624
1772363387884440600,2.550440673828125,0.0670363313101232,0.07859364424347877,0.026942367461323738,-0.0075825476087629795,0.012658465653657913,0.0013989917933940887
1772363387894509600,2.560509521484375,0.019058920735120773,0.09956102894842624,0.008881225591897964,0.00045819953083992004,0.01083696261048317,0.005266083404421806
1772363387904579600,2.57057958984375,-0.0296877206467092,0.09657762922346591,0.006502221500873566,0.004783705808222294,0.008298704400658607,0.0031400821171700954
1772363387914648600,2.580648681640625,-0.03194470579326152,0.07450023745000361,0.03297054170966148,0.008697479963302612,0.0072838845662772655,0.00408599991351366
1772363387924718600,2.590718505859375,-0.04733604393154382,0.04205634996294975,0.07264788758158683,0.010965695604681969,0.012225380167365074,0.0035286005586385727
1772363387934788400,2.600788330078125,-0.049054099895805114,0.05462824676632881,0.07084405303001404,0.025032106786966324,0.014794276095926762,0.002423172350972891
1772363387944857600,2.610857666015625,-0.01648249437585473,0.07406710672974585,0.06485095009505748,0.02873816341161728,0.027723122388124466,0.0010902602225542068
1772363387954927600,2.620927734375,-0.011933014377951622,0.03283785524070263,0.03863572786450386,0.027680953964591026,0.022487664595246315,0.003843926591798663
1772363387964996600,2.63099658203125,-0.0269569805085659,-0.0004196867167949676,-0.015392214921116828,0.023211373016238213,0.015810586512088776,0.007681807968765497
1772363387975066600,2.641066650390625,-0.03617620588317513,-0.02850947064757347,-0.021767010650038717,0.014604189433157444,0.015794267877936363,0.010439302772283554
1772363387985135600,2.651135498046875,-0.045633185536414385,-0.019421908828616143,0.03229717249274253,0.01006376463919878,0.01710028201341629,0.014531516470015049
1772363387995205600,2.66120556640625,-0.046027737811952824,-0.009629413610696792,0.030286417192220687,0.009562445804476738,0.021351944655179977,0.022447818890213966
1772363388005274600,2.671274658203125,-0.05559475371092558,-0.007712766334414482,-0.01592588340640068,0.009168032556772232,0.02280869334936142,0.020445920526981354
1772363388015344600,2.6813447265625,-0.02530658295303583,0.008949030131101607,-0.050881461453437804,0.012771961279213428,0.015227369964122772,0.017431575804948807
1772363388025413600,2.69141357421875,0.005846972462534904,0.052447980117797846,-0.10412088420987128,0.016878556460142136,0.002716371789574623,0.009211195632815361
1772363388035483600,2.701483642578125,0.043360856690257785,0.08411386896967887,-0.09265314925611019,0.015722475945949554,-0.00304084992967546,0.006296899169683456
1772363388045552400,2.711552490234375,0.034402474208921195,0.06845043589174747,-0.06936170551776885,0.017296139150857925,0.0003429623320698738,-0.0033930125646293163
1772363388055622700,2.72162255859375,0.03861030116230249,0.07596738739311695,-0.043700025516748425,0.016806572675704956,0.005961338058114052,-0.004687603563070297
1772363388065692700,2.731692626953125,0.024199936885386703,0.05016074596345425,-0.019868483552336693,0.009980623610317707,0.00839147251099348,-0.007867151871323586
1772363388075761700,2.74176171875,0.0052586511805653565,0.023702947148680684,-0.057714522343873975,0.00005633477121591568,0.0010819598101079464,-0.003714592196047306
1772363388085831700,2.751831787109375,-0.001097585978358984,-0.005010521638393402,-0.05799801546037197,-0.028025366365909576,-0.018894944339990616,-0.011083824560046196
1772363388095900400,2.761900390625,0.013900661189109086,-0.024101591077446936,-0.13450842368900776,-0.024862214922904968,-0.028355859220027924,-0.0036301929503679276
1772363388105970700,2.771970703125,0.0034762978084385394,-0.07188508651554584,0.03845218799114227,-0.02920529618859291,0.023132100701332092,0.005036798305809498
1772363388116039400,2.782039306640625,-0.08528978088125586,-0.09852993233501911,0.2521732646048069,-0.03535110130906105,0.029077250510454178,0.005058493465185165
1772363388126109700,2.792109619140625,-0.10862024145573378,-0.1450070213496685,0.0794330176770687,-0.03672609105706215,-0.0006809118203818798,0.005864632315933704
1772363388136178400,2.802178466796875,-0.029679391209781168,-0.0506114123404026,-0.07369768889546394,-0.02621007151901722,-0.007510211318731308,0.008319498039782047
1772363388146248700,2.812248779296875,-0.00015197569131851195,0.02470364862382412,-0.038057051193714136,-0.007118136156350374,0.0021884883753955364,0.008553590625524521
1772363388156317400,2.8223173828125,-0.0161744513399899,0.08963526273965836,0.007183774024248123,0.01563306525349617,0.006544339004904032,0.004590338561683893
1772363388166387500,2.832387451171875,-0.02508081137314439,0.12128595402240752,-0.011070260068774223,0.036913055926561356,-0.006096621043980122,0.0063616069965064526
1772363388176456700,2.842456787109375,-0.03113002840951085,0.10240005176663398,-0.031681670942902564,0.04158543050289154,-0.0037422655150294304,0.008998416364192963
1772363388186526500,2.8525263671875,-0.022485534182935953,0.04359890322983265,0.03563070082962513,0.04358866065740585,-0.0008889543823897839,0.014349506236612797
1772363388196596700,2.8625966796875,-0.024636866997927425,-0.006358429116010665,0.06565817482471466,0.052548475563526154,0.0007776860147714615,0.014733554795384407
1772363388206665500,2.87266552734375,-0.00908946151509881,-0.025967969471216202,0.07074585335254668,0.055151186883449554,0.012704385444521904,0.014262974262237549
1772363388216735500,2.882735595703125,0.02366977553144097,0.012502338698506355,0.09983458519279956,0.04177144542336464,0.0267568901181221,0.00913095660507679
1772363388226804500,2.892804443359375,0.046939445829391475,0.03880290112495422,0.07563947061300277,0.027433786541223526,0.027571018785238266,0.008632944896817207
1772363388236874500,2.90287451171875,0.04797390344366431,0.06098609136044979,-0.01930266636312008,0.01324839424341917,0.018236586824059486,0.0032225102186203003
1772363388246943500,2.912943603515625,0.053936172848939895,0.03933364700078964,-0.130201666405797,-0.0032461611554026604,-0.0009477604180574417,0.0007510967552661896
1772363388257013500,2.923013427734375,0.0643527913145721,0.014357026654481887,-0.17642565744221209,-0.012390866875648499,-0.0177152156829834,-0.0005015982314944267
1772363388267082800,2.933082763671875,0.09670388595163822,0.017435118925571442,-0.16933131526708603,-0.021082358434796333,-0.028597958385944366,-0.008391479961574078
1772363388277152500,2.943152587890625,0.12610972091704606,0.051418052548170085,-0.08737374754846096,-0.02602214366197586,-0.026035301387310028,-0.01486981101334095
1772363388287221800,2.9532216796875,0.13536840151920915,0.06632569882273674,-0.015211013135313986,-0.02498564124107361,-0.011147698387503624,-0.019118351861834526
1772363388297291500,2.96329150390625,0.07710501312091946,0.05500818599462509,0.02347439908981323,-0.005426224786788225,0.013311337679624557,-0.020894544199109077
1772363388307360800,2.97336083984375,0.018922727134823798,0.06407996572256087,0.024427169770002363,0.012671819888055325,0.027422629296779633,-0.023771289736032486
1772363388317430500,2.983430419921875,-0.01281082012578845,0.0968915174782276,-0.03846797008216381,0.024429965764284134,0.032285917550325394,-0.020472289994359016
1772363388327500500,2.99350048828125,-0.06305544498041271,0.058006783288717265,-0.10862345632612705,0.03198162466287613,0.01624676212668419,-0.01976841688156128
1772363388337569500,3.003569580078125,-0.07762129207998514,0.0045364743858575815,-0.1454980197370052,0.034684620797634125,0.006546766497194767,-0.014278553426265717
1772363388347639600,3.0136396484375,-0.06729279028922319,-0.024507833790779112,-0.08307926522493361,0.03873502463102341,0.007302305661141872,-0.014063635841012001
1772363388357708800,3.023708740234375,-0.03992752124071121,-0.017058102306723593,0.013586042281985282,0.0410589799284935,0.006980846635997295,-0.01623724400997162
1772363388367778600,3.033778564453125,-0.01337546827122569,0.016019406908750533,0.0196808520257473,0.04095884785056114,0.01431572437286377,-0.008851232007145882
1772363388377847600,3.04384765625,-0.04025631480365991,0.03903963249027729,-0.005007014507055282,0.0462726354598999,0.021586643531918526,-0.007700552698224783
1772363388387917600,3.05391748046875,-0.03390899160355329,0.07210311318039894,-0.03718552905619144,0.05144902318716049,0.02949116937816143,-0.011352546513080597
1772363388397986600,3.063986572265625,-0.01572802274674177,0.07129881106019019,-0.03148059541285038,0.04461933299899101,0.03473995253443718,-0.0072633340023458
1772363388408056600,3.074056640625,-0.0408320688650012,0.04326280314326286,-0.03667290335893631,0.036153942346572876,0.03367255628108978,-0.00872194766998291
1772363388418125600,3.08412548828125,-0.0213267195366323,0.014762684845924377,-0.031821371674537656,0.03157910704612732,0.024148663505911827,-0.015607737004756927
1772363388428195600,3.094195556640625,0.013819266515970229,0.036710897281765936,-0.012074468675255775,0.021454034373164177,0.016616711392998695,-0.014336876571178436
1772363388438265600,3.104265625,0.017284750669449567,0.04268763360381126,0.01464051977097988,-0.0002490188926458359,0.009886711835861206,-0.01546584814786911
1772363388448334600,3.11433447265625,-0.0021489947274327278,0.01572714596390724,0.0006564180821180344,-0.021681074053049088,0.004671710077673197,-0.009461218491196632
1772363388458404600,3.124404541015625,-0.025009645833075043,-0.04946282682716846,-0.026110592812299726,-0.030869554728269577,0.006121665704995394,-0.011106735095381737
1772363388468473600,3.1344736328125,-0.0011266659423708916,-0.059765609654784196,-0.02803366982936859,-0.035184141248464584,0.0033650281839072704,-0.007980717346072197
1772363388478543600,3.144543701171875,0.05191124289259314,-0.012277882292866707,-0.047343934977054594,-0.03582224249839783,0.002404802944511175,-0.007878487929701805
1772363388488612600,3.154612548828125,0.0632477526821196,0.009338906231522559,-0.07472644742131233,-0.03873787075281143,0.0033954991959035397,-0.004240077920258045
1772363388498682600,3.1646826171875,0.03495572417750954,0.0012029460489749908,-0.06836275760829448,-0.03766255080699921,0.0042391372844576836,-0.0031569264829158783
1772363388508751600,3.174751708984375,-0.006471387971192598,-0.003914543095231056,-0.04518295755088329,-0.028495680540800095,-0.0011428447905927896,-0.007524510845541954
1772363388518821400,3.1848212890625,0.0038413317285478114,0.009242460119724273,-0.05781389106512069,-0.013036297634243965,-0.017743658274412155,-0.012472130358219147
1772363388528890600,3.194890625,0.03707695411518216,0.011519757401943206,-0.07147007597386837,0.003279825672507286,-0.027494557201862335,-0.014250855892896652
1772363388538960600,3.204960693359375,0.03801584240049124,0.06934592342674732,-0.06228431447744369,0.027840126305818558,-0.02805006317794323,-0.016022255644202232
1772363388549029600,3.215029541015625,0.024657909785956143,0.13911036452651024,-0.018218962779641152,0.04741222783923149,-0.025211399421095848,-0.01835252158343792
1772363388559099600,3.225099609375,0.0160164842993021,0.15742635793983936,0.048424715951085086,0.05660204589366913,-0.02144557237625122,-0.021469902247190475
1772363388569169400,3.23516943359375,-0.010157675268501042,0.11998948447108268,0.08015782482028007,0.05294099450111389,-0.017137909308075905,-0.01728554256260395
1772363388579238700,3.24523876953125,-0.0417569286249578,0.019919336956739423,0.06337620136737823,0.051018126308918,-0.01840152032673359,-0.01587832160294056
1772363388589308400,3.255308349609375,-0.03966711673885584,-0.04055822035968303,0.04798047931492328,0.04687850549817085,-0.01628989912569523,-0.010748540982604027
1772363388599377700,3.265377685546875,-0.015597235973924397,-0.06032616614699363,0.05578676915168762,0.039816707372665405,-0.014677437022328377,-0.004688079468905926
1772363388609447400,3.275447509765625,0.0014731412924826144,-0.06346680226027965,0.06878010623753071,0.036982566118240356,-0.0031464819330722094,0.0008150767534971237
1772363388619516700,3.2855166015625,-0.008043313463032244,-0.04396598297655582,0.07569441567063331,0.028262969106435776,0.012706639245152473,0.0047190189361572266
1772363388629582600,3.29558251953125,-0.034893910987675185,-0.013393734580278396,0.05119242709875107,0.02720329910516739,0.019225524738430977,0.008129463531076908
1772363388639651600,3.305651611328125,-0.05847469306141138,-0.005755787047743797,0.02301262679696083,0.019642457365989685,0.024466615170240402,0.007995989173650742
1772363388649721600,3.3157216796875,-0.08110577319487929,-0.003981178590655327,-0.02948620672523975,0.02116791531443596,0.019534973427653313,0.009777643717825413
1772363388659790600,3.32579052734375,-0.0730716659516096,-0.008070493730902671,-0.09137246179580688,0.018923696130514145,0.012337070889770985,0.007212630473077297
1772363388669860600,3.335860595703125,-0.01632642703130841,0.03058861500918865,-0.12192600549161434,0.029380064457654953,0.0037736771628260612,0.0029004402458667755
1772363388679929900,3.345929931640625,0.024966975735127923,0.08698913214504718,-0.13319149587154389,0.0409967303276062,-0.001680079149082303,-0.0006407140754163265
1772363388689999600,3.35599951171875,0.0470996048271656,0.13762801701426505,-0.10617372508645057,0.05045201629400253,0.00606306130066514,-0.008227260783314705
1772363388700069600,3.366069580078125,0.03595174947753548,0.14159165994822978,-0.04658230295479297,0.04733961448073387,0.011963007040321827,-0.006811611354351044
1772363388710138600,3.376138671875,-0.010696750581264495,0.09339724562168121,-0.03677577921152115,0.04234911873936653,0.008525931276381016,-0.010099816136062145
1772363388720208600,3.386208740234375,-0.03487549854815006,0.06003215163648128,-0.009016250148415565,0.03425867483019829,0.017432784661650658,-0.008318305015563965
1772363388730277600,3.396277587890625,-0.05064473008811474,0.019963760620355604,0.02411094342768192,0.021974846720695496,0.024137824773788452,-0.011951657012104988
1772363388740347600,3.40634765625,-0.07849412939175963,-0.045671033328771586,0.033013211807608606,0.001779068261384964,0.026716699823737144,-0.00495505053550005
1772363388750416600,3.416416748046875,-0.08173764135763048,-0.11907646127939224,0.0005015197813510895,-0.01443026214838028,0.016001204028725624,0.00020802021026611328
1772363388760486700,3.426486572265625,-0.06321911110952497,-0.12240005274415015,-0.009554010286927223,-0.026181858032941818,0.009425317868590355,0.0052855536341667175
1772363388770555600,3.4365556640625,-0.021533348024636505,-0.09207856423854828,0.05224865815341472,-0.033009935170412064,0.013618998229503632,0.0039438530802726746
1772363388780625700,3.446625732421875,0.027235066797584292,-0.04763327331244945,0.10519114378988742,-0.04483693465590477,0.010721508413553238,0.004887280985713005
1772363388790694700,3.456694580078125,0.04116188534125685,-0.016516835036873817,0.04672317273020744,-0.044695254415273666,0.002532287035137415,0.009759534150362015
1772363388800764700,3.4667646484375,-0.02975771714299917,-0.018300211322307587,-0.012500000610947607,-0.03402988612651825,-0.0011970975901931524,0.0009432178921997547
1772363388810833700,3.476833740234375,-0.01007759576961398,0.04782499649226665,-0.04115034103393554,-0.02296604961156845,-0.01559867337346077,0.0012492150999605656
1772363388820903400,3.4869033203125,-0.012989391563087701,0.08187690369784832,-0.05129647199511528,-0.004898938816040754,-0.015553269535303116,-0.0018780832178890705
1772363388830973700,3.4969736328125,-0.025388123756647108,0.09544774841070175,-0.002920271360874176,0.010448059998452663,-0.016912279650568962,0.0012484677135944366
1772363388841042400,3.50704248046875,-0.0419945367731154,0.028284429720044135,-0.007712181812524795,0.024801548570394516,-0.020757123827934265,0.010556992143392563
1772363388851112700,3.51711279296875,-0.08718757732659578,0.035708442240953445,-0.005301613539457321,0.0478336326777935,-0.008586209267377853,0.013840137049555779
1772363388861181700,3.527181640625,-0.06483838287442922,0.05840659626126289,0.06926584392786025,0.05224711075425148,0.019724667072296143,0.008153856731951237
1772363388871251500,3.53725146484375,0.011537146928161383,0.10068506454229355,0.1349514912813902,0.04819884151220322,0.023100223392248154,0.006796443369239569
1772363388881320700,3.54732080078125,0.036805735958367586,0.06802490395605564,0.0617827946960926,0.03243441879749298,0.018461985513567924,0.005423908121883869
1772363388891390500,3.557390380859375,0.014354980827867984,0.008083353212475776,0.0028957214415073393,0.018669869750738144,0.0040830462239682674,0.0024635381996631622
1772363388901459700,3.567459716796875,-0.012785831815004348,-0.0204126734316349,0.005610241097211838,0.006301994435489178,0.0007035704329609871,0.00017396081238985062
1772363388911529500,3.577529541015625,0.003331920901685953,-0.013966566032171248,0.05767945103049278,-0.003182055428624153,0.004345975816249847,-0.0020950529724359512
1772363388921598700,3.5875986328125,0.03502382097765803,0.008470891225337982,0.05880640923380851,-0.011787333525717258,0.005333003122359514,0.002057089004665613
1772363388931668500,3.59766845703125,0.06101736328154802,0.00438449869453907,0.01894318540096283,-0.019981347024440765,0.006693878676742315,0.0011404291726648808
1772363388941738500,3.607738525390625,0.041293256635963914,-0.013280921855568884,-0.011545476365089416,-0.026155926287174225,0.007210129406303167,-0.0005391761660575867
1772363388951807700,3.617807861328125,0.04129837120249867,-0.030179449686408042,-0.016443185278773306,-0.033856190741062164,0.0016909944824874401,-0.003374643623828888
1772363388961877500,3.62787744140625,0.025978344734758137,-0.030958617365360257,-0.018086276310682294,-0.03358452767133713,-0.0013765001203864813,-0.005922648124396801
1772363388971946800,3.63794677734375,0.016561843222379684,-0.01966682350039482,-0.030606735187768935,-0.03261540085077286,-0.002684112172573805,-0.0065511539578437805
1772363388982016500,3.6480166015625,0.005680822115391493,-0.004658639460802078,-0.05539689305126667,-0.025739289820194244,-0.00981150008738041,-0.009149197489023209
1772363388992085800,3.658085693359375,-0.005790858361124992,0.005524900901317596,-0.04025602254271507,-0.013844814151525497,-0.00501381466165185,-0.008692998439073563
1772363389002155500,3.668155517578125,-0.00044438276663422583,0.020848726761341092,-0.0298369198590517,0.00042148586362600327,-0.0017604513559490442,-0.006993829272687435
1772363389012224800,3.678224853515625,0.012534487402439117,0.04504442586302757,-0.01341886902153492,0.014767667278647423,-0.00915471836924553,-0.009301991201937199
1772363389022294500,3.68829443359375,0.01598185137733817,0.05950374384820461,-0.03200023537278175,0.02092858776450157,-0.017046067863702774,-0.005881642457097769
1772363389032363800,3.69836376953125,0.01700783342421055,0.057498833766579625,-0.018455694144964216,0.02982274815440178,-0.022995036095380783,-0.010926734656095505
1772363389042433800,3.708433837890625,0.03342325391322374,0.09632336220145225,0.03669102353751659,0.036615949124097824,-0.016636960208415985,-0.010168727487325668
1772363389052502500,3.71850244140625,0.005048223300278186,0.06925181540250777,0.060927054649591444,0.040656231343746185,-0.004480428993701935,-0.006107407156378031
1772363389062572800,3.72857275390625,-0.022999036663025618,0.03312134835720062,0.01402443369925022,0.04044244438409805,-0.007762724533677101,-0.0028890189714729786
1772363389072642600,3.738642578125,-0.02979483428299427,0.0026391163319349287,-0.08415770811140537,0.04174260050058365,-0.016551155596971512,-0.0019273520447313786
1772363389082711800,3.7487119140625,-0.002167407166957855,-0.005112228447198867,-0.12701076140999792,0.023074595257639885,-0.015494262799620628,-0.005056947935372591
1772363389092781600,3.758781494140625,0.010939911687374114,-0.052553194057941434,-0.10874269879162311,0.007487645372748375,-0.018071403726935387,-0.0036547943018376827
1772363389102850600,3.7688505859375,-0.02368906475380063,-0.08738368442058563,-0.07140051786899566,-0.008071491494774818,-0.0172629002481699,-0.007570995483547449
1772363389112920600,3.778920654296875,-0.017016893513500688,-0.02753390361368656,0.0033171617239713667,-0.01171895768493414,-0.0182352215051651,-0.012844054028391838
1772363389122989600,3.788989501953125,0.03734130413979292,0.07459726808369159,0.06568155570030212,-0.0176806952804327,-0.0099915387108922,-0.018083620816469193
1772363389133059800,3.799059814453125,0.08849924444705247,0.1442477274149656,0.05891103865206241,-0.01810253970324993,-0.0064860195852816105,-0.01938457414507866
1772363389143128600,3.809128662109375,0.07427037421688437,0.1185638355821371,0.001505143865942955,-0.019549202173948288,-0.0021991992834955454,-0.019188610836863518
1772363389153198600,3.819198486328125,0.019056582647562027,0.03408171782195568,-0.06328735404014588,-0.0177446436136961,-0.005136399529874325,-0.013446835801005363
1772363389163267600,3.829267578125,-0.011730769804120062,-0.04425649035573005,-0.07714052282571793,-0.017626620829105377,-0.0069445716217160225,-0.007850884459912777
1772363389173337600,3.839337646484375,-0.015705226393043992,-0.09318681774139403,-0.05138590384423732,-0.02900151163339615,-0.004970370326191187,-0.0035149920731782913
1772363389183407600,3.84940771484375,-0.02329495086967945,-0.12562836714088915,-0.011306406912207603,-0.03323628380894661,-0.0052943057380616665,-0.005996554158627987
1772363389193476600,3.8594765625,-0.022723580722510812,-0.10437398218810558,0.03060907327532768,-0.02771235629916191,0.0006088572554290295,-0.00911724753677845
1772363389203546600,3.869546630859375,-0.015947656846791506,-0.05138005862534046,0.042756022664904594,-0.020967861637473106,0.009687976911664009,-0.0075433701276779175
1772363389213615600,3.87961572265625,-0.038970951168239114,-0.011641337954998016,0.04503799612224102,-0.008592951111495495,0.01360122486948967,-0.005639210343360901
1772363389223685600,3.889685546875,-0.05346607111915946,0.02420855858325958,0.024496727874875068,0.0030796779319643974,0.014830649830400944,-0.005520469043403864
1772363389233754600,3.899754638671875,-0.028180092562735078,0.06646832216382026,0.04646189144551754,0.008871253579854965,0.012797060422599316,-0.005485048983246088
1772363389243824600,3.90982470703125,0.00805704972743988,0.08997077830433844,0.07808744828701018,0.016644742339849472,0.013445494696497917,-0.0038952133618295193
1772363389253893600,3.9198935546875,0.01279401512145996,0.07735328879356383,0.09253741392195224,0.01976463571190834,0.01574966125190258,0.002428196370601654
1772363389263963600,3.929963623046875,-0.005874298860877752,0.03551028932034969,0.11211480557322502,0.02031756564974785,0.024472206830978394,0.008611711673438549
1772363389274032600,3.94003271484375,-0.013470160817354917,-0.019352935245633123,0.1359270583152771,0.016199521720409393,0.032720282673835754,0.012235742062330246
1772363389284102700,3.9501025390625,-0.015680091951787472,-0.05369534983038902,0.09326865080595016,0.0028648264706134796,0.03137452155351639,0.017775757238268852
1772363389294171600,3.960171630859375,-0.023996669398248193,-0.08272153782844544,0.005911854392290115,-0.004611998796463013,0.027999233454465866,0.015014058910310268
1772363389304241700,3.97024169921875,-0.015847995864599944,-0.08302315112352371,-0.0310351897329092,-0.007494947873055935,0.024329034611582756,0.008698608726263046
1772363389314311700,3.980311767578125,0.008508154495805501,-0.027582418930530546,-0.0025105215162038804,-0.010731487534940243,0.02867850847542286,0.0027810651808977127
1772363389324380700,3.990380615234375,0.015291677156090736,-0.014381576573848724,0.019087562307715415,-0.014611526392400265,0.0374591238796711,0.000038247089833021164
1772363389334450700,4.00045068359375,0.016570318789780138,-0.02103051306903362,0.0017816227197647093,-0.014080225490033627,0.029196400195360184,-0.0003878585994243622
1772363389344519700,4.010519775390625,-0.00496244471296668,-0.019145429974794386,-0.09144961868524551,-0.011364561505615711,0.016178295016288757,0.002198683563619852
1772363389354589700,4.020589599609375,-0.012449439467489718,0.0003314239114522934,-0.1491729088574648,-0.0077826096676290035,0.0013897614553570747,0.003520676866173744
1772363389364658700,4.03065869140625,-0.03974602719396352,-0.006235679519176483,-0.1512543913066387,0.0003426242619752884,-0.008832190185785294,0.008272295817732811
1772363389374728700,4.040728759765625,-0.05414090164080262,0.003561491873860359,-0.13763853840827941,0.006899327039718628,-0.01862436719238758,0.00973730068653822
1772363389384797700,4.050797607421875,-0.02100727832391858,0.04855272624492645,-0.08171382209062576,0.010753700509667397,-0.021848056465387344,0.004039891995489597
1772363389394867700,4.06086767578125,0.04176730388849974,0.09097849404215812,0.025537176838517188,0.016400933265686035,-0.011230832897126675,0.002214294858276844
1772363389404936400,4.0709365234375,0.045939621137082574,0.11473112555146217,0.1158323647916317,0.022686365991830826,0.00367186963558197,-0.0026817540638148785
1772363389415006700,4.0810068359375,-0.0023496318660676477,0.09461597376167774,0.15241934343278407,0.02042907103896141,0.006265788339078426,-0.0015080985613167286
1772363389425075500,4.091075439453125,-0.05672448839321732,0.011597498813271523,0.1021808560580015,0.015070523135364056,0.0065139951184391975,0.004323424771428108
1772363389435145700,4.101145751953125,-0.05815364441350102,-0.05553133308589458,0.07207330256402492,0.004494843073189259,-0.003039296716451645,0.014295099303126335
1772363389445215700,4.1112158203125,-0.04812792496159672,-0.08907295268177985,0.09345511328876017,-0.009532908909022808,-0.0000685257837176323,0.019378475844860077
1772363389455284500,4.121284423828125,-0.028111703501641747,-0.11174714130461215,0.14567103821635247,-0.020693153142929077,0.015716295689344406,0.023773225024342537
1772363389465354800,4.131354736328125,-0.007330781279504299,-0.0726490566253662,0.1808878975480795,-0.028340764343738556,0.029694601893424988,0.02727445214986801
1772363389475423500,4.141423583984375,0.0008633388310670852,-0.04466331759095192,0.15525719720721243,-0.02955889329314232,0.04043086990714073,0.02149512805044651
1772363389485493800,4.15149365234375,0.009501257186383009,-0.03890753054320812,0.07619418188631534,-0.029057133942842484,0.02930385060608387,0.016087153926491737
1772363389495562500,4.1615625,0.0017013970904052257,-0.024538228929042814,-0.021004209583997725,-0.017336029559373856,0.030964063480496407,0.011091063730418682
1772363389505632500,4.171632568359375,0.010516717839241027,-0.016273673930764197,-0.04075169710516929,-0.012097878381609917,0.026124101132154465,0.009380407631397247
1772363389515701500,4.181701416015625,-0.00580839401781559,0.0009936872124671936,-0.05889759464859962,-0.005618673283606768,0.0116841746494174,0.009409436024725437
1772363389525771500,4.191771484375,0.012521627920866012,0.04557341817319393,-0.11631342630684376,0.004084469750523567,-0.009483146481215954,0.00899924524128437
1772363389535840500,4.201840576171875,0.03125248574540019,0.07056172895729541,-0.13231997373402118,0.02142218127846718,-0.012687727808952332,0.011842967942357063
1772363389545910500,4.21191064453125,0.03772270467281341,0.10138649080991745,-0.061763505473732945,0.031226351857185364,-0.004555454012006521,0.0136228296905756
1772363389555980800,4.221980712890625,0.029882512566447257,0.09851824189722537,0.008673720321059227,0.03529326617717743,0.0026651746593415737,0.008601173758506775
1772363389566049500,4.232049560546875,0.0425488096550107,0.06861819367408752,0.0511865818798542,0.03863893821835518,0.00858762115240097,0.0010487930849194527
1772363389576119600,4.24211962890625,0.06838394652679562,0.03727145377397537,0.06277472834289073,0.0312875472009182,0.014554699882864952,-0.002978172618895769
1772363389586188500,4.2521884765625,0.055326312033087015,-0.001477086815237999,0.06793605662882328,0.013829839415848255,0.017147982493042946,-0.0024808868765830994
1772363389596258600,4.262258544921875,0.019389467863738536,-0.033956045615673065,0.009257657688856124,0.004780151881277561,0.010167837142944336,-0.008372331969439983
1772363389606327600,4.27232763671875,0.031869886991381643,-0.04518646468222141,-0.0738297908425331,-0.009503504261374474,-0.0020905882120132446,-0.005920547526329756
1772363389616397600,4.2823974609375,0.0522552340246737,-0.041623219242691994,-0.1080067857325077,-0.028831128031015396,-0.011496873572468758,-0.0027641686610877514
1772363389626467600,4.292467529296875,0.0544445607624948,-0.05076163446605205,-0.09749123693704605,-0.04718494042754173,-0.019586145877838135,0.0036410940811038017
1772363389636537600,4.30253759765625,0.05139481780305505,-0.04865443305373192,-0.06436462788283824,-0.0585893951356411,-0.029799632728099823,0.003957477863878012
1772363389646606300,4.3126064453125,0.05272884288579225,-0.03185527394413948,0.005274725532531738,-0.05709565430879593,-0.03163490816950798,0.0033919448032975197
1772363389656676600,4.322676513671875,0.06593669950515031,0.0011485855132341385,0.07761515460014343,-0.040939055383205414,-0.021664299070835114,-0.0027913828380405903
1772363389666746400,4.332746337890625,0.11262816192284225,0.09774491943717002,0.1307464408069849,-0.016734018921852112,-0.008453392423689365,-0.012710721231997013
1772363389676815600,4.342815673828125,0.09615881928950548,0.15751286717951296,0.1052834982484579,-0.0020096683874726295,0.004236304201185703,-0.011831612326204777
1772363389686885400,4.352885498046875,0.0025454466991126534,0.07393208217322826,-0.031082536005973813,0.009357606992125511,0.004291083663702011,-0.010750729590654373
1772363389696954400,4.362954345703125,-0.03289557677730918,-0.024733459240198135,-0.12826572990715504,0.022622281685471535,-0.004655006807297468,-0.009862564504146576
1772363389707024600,4.373024658203125,-0.023103081559389827,-0.06563362490534783,-0.10375614255070685,0.024908974766731262,-0.009902313351631165,-0.009172899648547173
1772363389717093400,4.38309326171875,-0.04343012253418565,-0.0468511830240488,0.0023410101681947708,0.027276791632175446,-0.013140451163053513,-0.008544925600290298
1772363389727163600,4.39316357421875,-0.062437605343014,0.001959317374229431,-0.002831424033641815,0.027103131636977196,-0.01723100058734417,-0.01496405154466629
1772363389737232400,4.403232421875,-0.05741597778871655,0.06388005923628806,-0.030635961282253262,0.028244031593203545,-0.03142378479242325,-0.019910605624318123
1772363389747302700,4.413302734375,-0.06146744513660669,0.07526946825683116,-0.06760638628304004,0.033197976648807526,-0.03204674646258354,-0.01876647025346756
1772363389757371400,4.423371337890625,-0.05831175758466124,0.0302682970136404,-0.05244213489890098,0.037642523646354675,-0.03151411563158035,-0.021570513024926186
1772363389767441400,4.43344140625,-0.023266017036139962,0.03717266957461834,-0.007895137163996696,0.03241579979658127,-0.029464170336723328,-0.01957610622048378
1772363389777510400,4.443510498046875,-0.015852672039717436,0.0057435120880603785,0.044669162809848784,0.020659808069467545,-0.02778477966785431,-0.019254928454756737
1772363389787580400,4.453580322265625,-0.06854907396063208,-0.0278764334410429,0.0661269613802433,0.01888309046626091,-0.030030744150280952,-0.0186605267226696
1772363389797650700,4.463650634765625,-0.062039399805665016,0.042296588459610936,0.05792728831171989,0.013478470034897327,-0.028302352875471115,-0.022641152143478394
1772363389807719400,4.473719482421875,-0.03737169927805662,0.093528178524971,0.05375146393179893,-0.0003681415691971779,-0.030903156846761703,-0.020800456404685974
1772363389817789400,4.48378955078125,-0.036583325379341836,0.05591945562064647,-0.005531915163993835,-0.004473138600587845,-0.0409131795167923,-0.0186062753200531
1772363389827858400,4.4938583984375,-0.02949658198878169,-0.00639525399506092,-0.055688569474220274,-0.008152398280799389,-0.0370459221303463,-0.010438799858093262
1772363389837928400,4.503928466796875,-0.03705328097864985,-0.07410977682769299,-0.03200724963545799,-0.013416136614978313,-0.027702488005161285,-0.003455194178968668
1772363389847997400,4.51399755859375,-0.052299949949234724,-0.10794073475897312,-0.019552841731905937,-0.01994755119085312,-0.019076023250818253,0.0011408179998397827
1772363389858067500,4.5240673828125,-0.037730595718324184,-0.07506196298599242,-0.02239303359389305,-0.024858154356479645,-0.022526947781443596,0.00232858769595623
1772363389868136400,4.534136474609375,0.001958586721867323,-0.031200024905800816,-0.024682021313905716,-0.029355349019169807,-0.029482606798410416,-0.0009012287482619286
1772363389878206500,4.54420654296875,0.022103841388970612,0.015183540606498718,-0.024969021561741828,-0.033613480627536774,-0.03143363818526268,-0.004134839400649071
1772363389888275500,4.554275390625,0.02931026563644409,0.009324293184280396,-0.04433832342028617,-0.0259520523250103,-0.03596524894237518,0.000016480684280395508
1772363389898345500,4.564345458984375,0.029581629923731086,0.016517419558763503,-0.07893032885193824,-0.006476355250924826,-0.03457321226596832,-0.004683465696871281
1772363389908417500,4.57441748046875,0.06784370217025279,0.0683750325679779,-0.020972645401954648,0.008752628229558468,-0.035294268280267715,-0.006329514551907778
1772363389918486300,4.584486328125,0.08585092189535498,0.09577274258136749,0.03623451194167137,0.014295998029410839,-0.0288158617913723,-0.004515102598816156
1772363389928556500,4.594556640625,0.05159034037515521,0.06475742659270763,-0.01920855833888054,0.015549644827842712,-0.044064827263355255,-0.007272935938090086
1772363389938625500,4.60462548828125,0.04861570847854018,0.007349778240919112,-0.06418284157514571,0.01462739147245884,-0.05424369126558304,-0.004594328347593546
1772363389948695300,4.6146953125,0.06576485006958246,-0.013231237494945525,-0.021060323685407636,0.013016867451369762,-0.04950813576579094,-0.0034421863965690136
1772363389958764500,4.6247646484375,0.06743819010928273,-0.015405074402689933,0.06424246280789375,0.012909808196127415,-0.040224090218544006,-0.008809788152575493
1772363389968834300,4.634834228515625,0.056650838635116815,-0.018837971460819242,0.09729191497266292,0.012352624908089638,-0.028745338320732117,-0.010780411772429943
1772363389978903600,4.644903564453125,0.06921396761015057,-0.04109714954197406,0.11752514018416405,0.006518702954053879,-0.018492434173822403,-0.002134992741048336
1772363389988973300,4.654973388671875,0.015591975276917218,-0.07977554750442505,0.0675520257472992,0.008319804444909096,-0.020285384729504585,-0.005131013225764036
1772363389999043600,4.665043701171875,0.025130641864240168,-0.0271574715167284,0.05699672946333885,0.013193389400839806,-0.008242569863796234,-0.012514093890786171
1772363390009112300,4.6751123046875,0.0764275522507727,0.03768471074998379,0.09583528642356395,0.013093418441712856,0.009211868047714233,-0.01299523375928402
1772363390019182300,4.685182373046875,0.023617168561369178,0.024023849666118622,0.05666589007377624,0.015052705071866512,0.029386112466454506,-0.016921266913414
1772363390029251600,4.69525146484375,0.02960851793065667,0.026684593307971953,0.01394727680981159,0.0050149234011769295,0.0290619358420372,-0.025667410343885422
1772363390039321300,4.7053212890625,0.05240677132457494,0.04609598074257373,-0.12741115890443325,0.018471609801054,-0.02576376125216484,-0.032306935638189316
1772363390049390600,4.715390625,0.08015110281854868,0.016098901885747908,-0.2134334918439388,0.017379852011799812,-0.005039411596953869,-0.013382961042225361
1772363390059460400,4.72546044921875,-0.10491232684850692,-0.0955851110547781,0.024604864424467087,0.00857810489833355,0.029095124453306198,-0.015454634092748165
1772363390069529600,4.735529541015625,-0.11426073156073689,-0.07185235328972339,0.015136778855323791,0.011525608599185944,0.0034520933404564857,-0.02379252202808857
1772363390079599400,4.745599365234375,0.03929097690284252,0.004663315635919571,-0.09938742594718933,0.003513488918542862,-0.00038632098585367203,-0.02307986095547676
1772363390089668600,4.755668701171875,0.04065466647148132,0.055093526190519326,-0.044833413460850714,-0.0029790662229061127,0.013385970145463943,-0.01642400398850441
1772363390099738400,4.76573828125,-0.06155833829045295,0.048531098935008045,-0.09219313052892684,0.00362503994256258,0.009182170033454895,-0.012664685025811195
1772363390109807600,4.7758076171875,-0.06501680818125605,0.07358019999563693,-0.11520751089155673,0.019167348742485046,0.0028121857903897762,-0.015731975436210632
1772363390119877600,4.785877685546875,0.0013303718209266662,0.12693535808622836,-0.005317980152368545,0.023921355605125427,0.018201794475317,-0.013814500533044338
1772363390129947400,4.795947509765625,0.010666939964890479,0.09088204793035984,0.1430938812047243,0.014418956823647022,0.039688535034656525,-0.004838439170271158
1772363390140016600,4.8060166015625,-0.07743702155426144,0.013884732967615127,0.1511497618883848,0.0027894647791981697,0.04982293024659157,0.003216290846467018
1772363390150086400,4.81608642578125,-0.11836232166066765,-0.05640753139853477,0.07455284442007541,-0.006286788731813431,0.050653085112571716,0.00985897146165371
1772363390160155600,4.82615576171875,-0.08260682540759444,-0.09324117827713489,0.049939796689152716,-0.017860885709524155,0.05350133776664734,0.01569369062781334
1772363390170225400,4.836225341796875,-0.05352627687379718,-0.08387947569191455,0.06323182446062564,-0.029190711677074432,0.05457109212875366,0.02333012968301773
1772363390180294400,4.84629443359375,-0.05192439463511109,-0.0530032759130001,0.08343231644630432,-0.035950079560279846,0.05912722647190094,0.024579418823122978
1772363390190364400,4.856364501953125,-0.03777735746949911,-0.03709317459762096,0.08339841417670249,-0.04640716314315796,0.05411567538976669,0.027088448405265808
1772363390200433400,4.866433349609375,-0.04546016705706715,-0.06982406233251094,0.08202303417026996,-0.062390122562646866,0.047688666731119156,0.027980074286460876
1772363390210503400,4.87650341796875,-0.007920709996670484,-0.08387070786356926,0.06120587159097194,-0.06809882074594498,0.033733706921339035,0.026110954582691193
1772363390220572400,4.886572509765625,0.0137562842823565,-0.046559506601095195,0.022255086427927017,-0.05609036237001419,0.031320083886384964,0.01995665580034256
1772363390230642400,4.896642333984375,0.04150236934199929,0.042459085544943806,0.04787058919966221,-0.03532203286886215,0.04014548286795616,0.01482558436691761
1772363390240712400,4.90671240234375,0.05024228676706552,0.12600421471595763,0.024479776740074156,-0.013693703338503838,0.03844079375267029,0.005954328924417496
1772363390250781400,4.916781494140625,0.02430164369419217,0.13306933079659938,-0.057711599734425544,0.011722401715815067,0.021965544670820236,-0.002594366669654846
1772363390260851500,4.9268515625,0.018736849173903464,0.1164730007827282,-0.09333236369192599,0.03214884549379349,0.006318142171949148,-0.0020183250308036804
1772363390270920400,4.93692041015625,-0.003748831139504909,0.07564531583189964,-0.05565174459517002,0.04517101123929024,0.0009278231300413609,-0.0029979287646710873
1772363390280990500,4.946990478515625,-0.023315116874873636,0.03858779706954956,0.038997546914219854,0.05291122570633888,0.0026945644058287144,-0.002568893600255251
1772363390291059500,4.9570595703125,-0.04828808395937085,0.008186813586950302,0.10548924995362759,0.05268363654613495,0.003500936087220907,-0.003771066665649414
1772363390301129200,4.967129150390625,-0.0747552351243794,0.00788578481376171,0.13465513868331908,0.046630002558231354,0.010836614295840263,-0.002592352218925953
1772363390311198500,4.977198486328125,-0.11287366111651062,0.0046270752787590025,0.09069909257888793,0.0337035171687603,0.006773290224373341,-0.0015864246524870396
1772363390321268500,4.9872685546875,-0.09961626626700162,-0.014402034839987754,0.03544657643437386,0.016327455639839172,0.004385233856737614,-0.0014487388543784618
1772363390331337500,4.99733740234375,-0.03786109023019671,-0.031021161207556724,0.005315057542920112,0.0068269576877355576,0.0003132252022624016,0.0029160063713788986
1772363390341407500,5.007407470703125,0.012934008114039898,-0.06606266397237777,-0.02245966908931732,-0.004167636856436729,-0.0034048138186335564,0.008553119376301765
1772363390351477500,5.0174775390625,0.04142842732295394,-0.05251344656944275,-0.06868775177896022,-0.012823134660720825,-0.008486169390380383,0.017284641042351723
1772363390361546500,5.02754638671875,0.044604719271510836,-0.004176408901810646,-0.05089490545690059,-0.019011255353689194,-0.0007432950660586357,0.01659674569964409
1772363390371616300,5.0376162109375,0.041296179245412346,0.04700491228103638,0.022818565529584882,-0.02863575890660286,0.011296936310827732,0.01948929950594902
1772363390381685500,5.047685546875,0.003707330085337162,0.04952595519125461,0.00987783541381359,-0.036248136311769485,0.015731632709503174,0.01346629485487938
1772363390391755300,5.05775537109375,-0.005921060612052679,0.037442134165763856,-0.044618893927335736,-0.034510739147663116,0.009913310408592224,0.009310848079621792
1772363390401824500,5.067824462890625,0.01845686318874359,0.05157762702405452,-0.10920856273770331,-0.02441975474357605,-0.0018538665026426315,0.008704179897904396
1772363390411894500,5.07789453125,0.039165304696559905,0.07483107683956623,-0.14986147564351557,-0.012217453680932522,-0.00850445032119751,0.006756395101547241
1772363390421963500,5.087963623046875,0.01641498209759593,0.07400280932188033,-0.17565175046026707,-0.003466040827333927,-0.013342082500457764,0.007213127333670855
1772363390432033500,5.098033447265625,0.002162146469950676,0.04360650201439857,-0.14380173721313474,0.0015404969453811646,-0.018859921023249626,0.006651025265455246
1772363390442102500,5.1081025390625,-0.005957154838740825,0.031710312515497205,-0.06348726052641868,0.00476105697453022,-0.025449113920331,0.002930323127657175
1772363390452172500,5.118172607421875,0.0009945639953017234,0.02086976954936981,-0.008209025418758393,0.008520698174834251,-0.024248294532299042,-0.0006040716543793678
1772363390462242300,5.1282421875,0.029824791029840706,0.0491997919768095,0.010128595304489136,0.008172357454895973,-0.027148742228746414,-0.003541272133588791
1772363390472311600,5.1383115234375,0.036742023072391744,0.052014849397540086,-0.008580196818709373,0.014420399442315102,-0.026546336710453033,-0.008087287656962872
1772363390482381300,5.14838134765625,0.0693991149187088,0.056710898259282105,-0.03164601510763168,0.01915230229496956,-0.023978516459465027,-0.0056097498163580894
1772363390492450600,5.158450439453125,0.08578793966174125,0.018315408891439438,-0.03950198930501938,0.017613478004932404,-0.031870175153017044,-0.0064848847687244415
1772363390502520600,5.1685205078125,0.07177227379083632,0.0014034370571374892,-0.009894786548614502,0.01884705200791359,-0.03492854908108711,-0.013189125806093216
1772363390512589600,5.178589599609375,0.07932648856267333,0.001460135680437088,0.06882862155437469,0.010659735649824142,-0.030564291402697563,-0.0149625763297081
1772363390522659600,5.18865966796875,0.019959961228072642,-0.03419803767800331,0.08421148412525653,0.007971808314323425,-0.013071318157017231,-0.01622225157916546
1772363390532728300,5.198728271484375,-0.028245266753435132,-0.029740473747253415,0.07956687318980693,0.013434907421469688,-0.012507337145507336,-0.02354642003774643
1772363390542798600,5.208798583984375,-0.019919775348156688,0.001035188266634941,0.02574351306557655,0.0155518539249897,-0.009959490969777107,-0.02884610928595066
1772363390552868400,5.218868408203125,0.0133728379227221,0.008867781588435172,-0.0068096800148487084,0.014979194849729538,-0.010515121743083,-0.025222374126315117
1772363390562937600,5.2289375,0.04072217874974012,-0.010964461606740951,-0.03710661860108375,0.012612711638212204,-0.01168424915522337,-0.02210993878543377
1772363390573007400,5.23900732421875,0.0658218409538269,-0.0013806407034397125,-0.051262569725513456,0.009215692058205605,-0.015246151015162468,-0.019951770082116127
1772363390583076400,5.249076416015625,0.069991820114851,0.024666823744773865,-0.0005436053574085235,0.0030882908031344414,-0.012018665671348572,-0.02165246568620205
1772363390593146600,5.259146728515625,0.08132467664256691,0.04764788635969162,0.05858662900328636,-0.0034460341557860374,-0.005945437587797642,-0.028874656185507774
1772363390603215400,5.26921533203125,0.0758645115405321,0.04072364005446434,0.05835048215985298,-0.012862705625593662,-0.0036742938682436943,-0.024962740018963814
1772363390613285600,5.27928564453125,0.01795256692841649,-0.02490180154442787,0.011184241837263107,-0.010468905791640282,-0.005623959936201572,-0.021722981706261635
1772363390623354000,5.28935400390625,-0.02251929032206535,-0.058498366197943685,-0.03501461475789547,-0.0004335828125476837,-0.006851144600659609,-0.018339168280363083
1772363390633424400,5.29942431640625,-0.017514613902568817,-0.0224257668197155,-0.03815408182740211,0.006624006666243076,0.010260194540023804,-0.014076931402087212
1772363390643493000,5.3094931640625,-0.05287862662002444,0.029004560688138007,0.020372925943136215,0.012331959791481495,0.009318767115473747,-0.015964580699801445
1772363390653563100,5.319563232421875,-0.07703677019029856,0.07633505166172981,-0.09197218125462532,0.021687231957912445,-0.010829057544469833,-0.019917666912078857
1772363390663633200,5.329633056640625,-0.030713556563109156,0.10848901629149914,-0.08827098864912986,0.032159045338630676,-0.013084756210446358,-0.02312091737985611
1772363390673702100,5.3397021484375,0.005102876096963882,0.10649988830089568,-0.010861585754156113,0.03628230094909668,-0.008686598390340805,-0.018852513283491135
1772363390683772400,5.3497724609375,-0.008804653224349021,0.07789864771664143,0.019907646518945693,0.041114337742328644,-0.002015646081417799,-0.014681203290820122
1772363390693841200,5.359841064453125,-0.015683160691708324,0.0719306792229414,0.047405309775471687,0.03713119402527809,0.008157240226864815,-0.012769332155585289
1772363390703911400,5.369911376953125,-0.03703428401723504,0.019154197803139685,0.03650982175171375,0.02768256515264511,0.008215297013521194,-0.0023071053437888622
1772363390713980200,5.379980224609375,-0.08088190131112932,-0.04926116677522659,-0.018676643419265747,0.016922365874052048,0.00573336984962225,0.00043403496965765953
1772363390724050200,5.39005029296875,-0.04195961159020662,-0.0364203899025917,-0.04219546617269516,0.013829637318849564,0.0038025779649615288,-0.00395565340295434
1772363390734119200,5.400119140625,0.01599529538080096,-0.00014086977541446686,0.007267945176362991,0.009389946237206459,0.011049354448914528,-0.007542440667748451
1772363390744189200,5.410189208984375,0.02817293216958642,0.032573066824674604,0.03942424789369106,0.0037435125559568405,0.01925268955528736,-0.006618057377636433
1772363390754258200,5.420258056640625,-0.010890665718168019,0.028780688804388044,0.026668811216950417,0.0015637343749403954,0.01951787620782852,-0.010043041780591011
1772363390764328200,5.430328125,-0.04800386019051075,0.0015747019708156585,-0.014949731850624084,0.0014710566028952599,0.009769108146429062,-0.0076523227617144585
1772363390774398200,5.440398193359375,-0.058762862353026864,-0.02305705046057701,-0.0637134704977274,0.002779019996523857,-0.002505416749045253,-0.002858833409845829
1772363390784467200,5.45046728515625,-0.08065846781879663,-0.061139236095547674,-0.09018997401297092,0.009210553020238876,-0.015106430277228355,-0.00026784464716911316
1772363390794537200,5.460537109375,-0.09339037748947739,-0.06822481044232845,-0.06820785930752754,0.021369941532611847,-0.01185171864926815,0.004879519809037447
1772363390804606200,5.470606201171875,-0.06665609982088208,-0.041675826212763785,-0.026319851648807523,0.034231942147016525,-0.005647351965308189,0.003506926354020834
1772363390814676200,5.48067626953125,-0.017468436673283575,0.007692308068275451,-0.0029039047479629517,0.042038802057504654,-0.006491260137408972,0.002425640821456909
1772363390824745200,5.4907451171875,0.012951251509785652,0.034650457620620724,0.031091303834319114,0.04118232801556587,-0.0020906527061015368,0.00107595045119524
1772363390834815200,5.500815185546875,0.010582184290885924,0.06902268282175064,0.05827040266096591,0.04770762845873833,0.0008197431452572346,-0.0015407283790409565
1772363390844884200,5.51088427734375,-0.0028600656062364575,0.08598726162612438,0.06667290482521057,0.05081953480839729,0.0024860831908881664,-0.00688675744459033
1772363390854954200,5.520954345703125,0.0016487901203334331,0.057876434907317156,0.0571861145555973,0.04912067949771881,0.006523341406136751,-0.005608317442238331
1772363390865024000,5.53102392578125,0.0025875322751700877,0.01854571051597595,0.06806874309778213,0.040656886994838715,0.022820821031928062,0.0013606427237391472
1772363390875093200,5.54109326171875,-0.057061903654038904,-0.053318333211541176,0.08232289389967917,0.02756478637456894,0.02877218648791313,0.004152966663241386
1772363390885163300,5.551163330078125,-0.053523500394821164,-0.07446107448339462,0.07080079841017722,0.0056070247665047646,0.02875620871782303,0.014334231615066528
1772363390895232300,5.561232177734375,-0.06509177311360835,-0.13810674044191837,0.02935819643139839,-0.016805153340101242,0.020191121846437454,0.01733611896634102
1772363390905302300,5.57130224609375,-0.0591296498388052,-0.14209727138280867,0.0018207856863737106,-0.03007648140192032,0.017075225710868835,0.01818912848830223
1772363390915371300,5.581371337890625,-0.0005348375290632248,-0.0805745889276266,0.009182838886976241,-0.032453082501888275,0.013306742534041405,0.020488804206252098
1772363390925441300,5.591441162109375,0.023525252494215963,-0.01937222446799278,0.0295756385743618,-0.029456228017807007,0.023342065513134003,0.015167275443673134
1772363390935510300,5.60151025390625,0.015049831224232911,0.0025900164932012555,0.012747253370285034,-0.02432265877723694,0.025607775896787643,0.019775796681642532
1772363390945580300,5.611580322265625,-0.02378872573599219,-0.000018120178580284118,-0.011482348001003265,-0.01571585424244404,0.016658488661050797,0.02047833800315857
1772363390955649000,5.62164892578125,-0.04518894890025258,0.0022287819653749466,-0.03085924864411354,-0.009173479862511158,0.004579991567879915,0.023058028891682625
1772363390965719300,5.63171923828125,-0.07199526889175176,-0.009906476986408234,-0.05399462503790855,0.006949297152459621,-0.0010571214370429516,0.02723626419901848
1772363390975789300,5.641789306640625,-0.060118368615210055,0.032196634727716444,-0.03766016083061695,0.028529580682516098,0.010253317654132843,0.02136874757707119
1772363390985858300,5.6518583984375,-0.010000731141120194,0.09637596917152404,0.049505496925115584,0.04298548772931099,0.03666228801012039,0.023463323712348938
1772363390995928300,5.66192822265625,-0.01631225237548351,0.07735796496868133,0.10438742619156836,0.048076171427965164,0.05990167707204819,0.024576108902692795
1772363391005997000,5.6719970703125,-0.04978489838838577,0.026465397599339482,0.08486497959792613,0.044292617589235306,0.058558642864227295,0.02172200009226799
1772363391016067300,5.6820673828125,-0.03231251619234681,-0.005325578936934471,-0.0011363105535507202,0.038247786462306976,0.042254284024238586,0.018985673785209656
1772363391026136000,5.692135986328125,0.012498247045278549,0.004693710774183273,0.016774024668335913,0.024592161178588867,0.03000267967581749,0.018057560548186302
1772363391036206300,5.702206298828125,0.025103169335424898,0.020484569624066352,0.00322246917784214,0.008833897300064564,0.027486585080623627,0.018167290836572647
1772363391046275000,5.712275146484375,0.030730215436965226,0.012833762609958648,-0.06731821699142455,-0.0037487391382455826,0.018886972218751907,0.01565007120370865
1772363391056345300,5.722345458984375,0.06104454354941845,-0.014973697248101233,-0.1332072779625654,-0.015651054680347443,0.0020515667274594307,0.017172623425722122
1772363391066415400,5.732415283203125,0.09916589215099811,-0.012112462598085403,-0.1362836166679859,-0.026147371158003807,-0.008239420130848885,0.017725761979818344
1772363391076484000,5.742484130859375,0.11612681769356131,0.008791793742775916,-0.06467150187492371,-0.034056857228279114,-0.006173952482640743,0.015413510613143444
1772363391086554400,5.752554443359375,0.10581015247106551,0.04532908802330494,0.015841712254285812,-0.028990991413593292,0.0009137848392128944,0.011855261400341988
1772363391096623000,5.762623046875,0.0617011077620089,0.06365794091820716,0.0327519305229187,-0.016263296827673912,0.009535783901810646,0.0025652917101979256
1772363391106693400,5.772693359375,0.057874973602592944,0.09442717319130897,0.029180501776933668,-0.008882611989974976,0.015723373740911484,-0.002949848771095276
1772363391116762000,5.78276220703125,0.036114392693340776,0.07194879940152168,-0.006892682123184204,-0.0011374196037650108,0.011600971221923828,0.0034616822376847267
1772363391126832000,5.79283203125,-0.01784238455221057,0.0032879356294870377,-0.06590542758405209,0.009011354297399521,0.001251394860446453,0.005024691578000784
1772363391136901000,5.802901123046875,-0.03138122669160366,-0.06287701967358589,-0.0725140320688486,0.013714810833334923,-0.006187766790390015,0.007940969429910183
1772363391146971100,5.81297119140625,-0.0189760647572577,-0.09775953248441219,0.004416647398471832,0.01544293574988842,0.0034110648557543755,0.01156712882220745
1772363391157040000,5.8230400390625,0.0012520458877086638,-0.07396189278960227,0.10059504817128181,0.018861763179302216,0.0151441665366292,0.011365843005478382
1772363391167110100,5.833110107421875,0.015709610307216643,-0.007765957826375961,0.13476152166724203,0.022945720702409744,0.02570200338959694,0.008572453632950783
1772363391177180400,5.843180419921875,0.049948418387025594,0.025763386809825897,0.0990484032511711,0.025142543017864227,0.032991938292980194,0.007611478213220835
1772363391187249200,5.853249267578125,0.07653086649477481,0.048397243422269816,0.005058452433347702,0.023488987237215042,0.022098010405898094,0.008762496523559093
1772363391197319200,5.863319091796875,0.0655963616348803,0.06050269175767898,-0.08227262501716613,0.01583099737763405,0.00808132253587246,0.003911555744707584
1772363391207388200,5.87338818359375,0.06678834789842367,0.022135259440541268,-0.09481295763850212,0.010644224472343922,-0.006999359931796789,0.0025253798812627792
1772363391217458200,5.883458251953125,0.06475976468026638,-0.025246669459342955,-0.03400046927928924,0.012548722326755524,-0.012929482385516167,-0.004407101310789585
1772363391227527200,5.893527099609375,0.08841244294643402,0.0162257431358099,0.06399696361422538,0.006878586485981941,-0.003341836389154196,-0.01837005466222763
1772363391237597200,5.90359716796875,0.10258753716275096,0.08335808216631412,0.13625205248594283,0.00043063797056674957,0.0033235535956919193,-0.0279461108148098
1772363391247666200,5.913666259765625,0.08637845290079713,0.093205522441864,0.1242015492081642,-0.013413804583251476,0.010489322245121002,-0.02693730592727661
1772363391257736200,5.923736083984375,0.035312867052108045,0.019763854134082794,0.03393967900276184,-0.02126767486333847,0.010099593549966812,-0.026303287595510483
1772363391267805200,5.93380517578125,0.014517185652256012,-0.047743747949600214,-0.04272387396097183,-0.016481973230838776,-0.004048449452966452,-0.027406636625528336
1772363391277875200,5.943875244140625,0.028103520195186138,-0.05872223808169365,-0.05202946244478225,-0.02043016254901886,-0.007695118896663189,-0.024296747520565987
1772363391287945200,5.9539453125,0.02624941676110029,-0.05110124168395996,-0.03048573915660381,-0.016128625720739365,-0.009347343817353249,-0.021868210285902023
1772363391298014200,5.96401416015625,-0.007577303386479615,-0.02938917609155178,0.00869885476231575,-0.01367293018847704,-0.017359353601932526,-0.024722889065742493
1772363391308084200,5.974084228515625,-0.046430619524419306,-0.02480067925751209,0.026309914776682854,-0.009141029790043831,-0.01563309319317341,-0.024752449244260788
1772363391318153200,5.9841533203125,-0.07262099957466125,-0.051881578406691546,0.018444003707170486,-0.000524359755218029,-0.02136150561273098,-0.02519180253148079
1772363391328223200,5.99422314453125,-0.03689955172166228,-0.03520633793771267,-0.012159224349260329,0.00286797434091568,-0.023747965693473816,-0.021740609779953957
1772363391338292200,6.004292236328125,-0.012444032640010119,0.037725627282261844,0.009790741652250289,0.022913046181201935,-0.02449556067585945,-0.015758689492940903
1772363391348362200,6.0143623046875,-0.03159881496503949,0.09324176279902457,0.06904255656599997,0.03912237286567688,-0.00815307255834341,-0.015403957106173038
1772363391358431000,6.024430908203125,-0.027221330533176658,0.09845043735802173,0.1818371610969305,0.04063098132610321,0.016147268936038017,-0.010138880461454391
1772363391368501200,6.034501220703125,-0.006633300534635782,0.10136486349999904,0.1599082378834486,0.043487221002578735,0.005400082562118769,-0.003585639875382185
1772363391378571300,6.0445712890625,0.01038300845697522,0.06631751551628112,-0.0007288987964391708,0.04388343542814255,-0.012045376002788544,-0.0033714445307850838
1772363391388640300,6.05464013671875,0.020569763689488173,-0.017725041782855985,-0.02322831537425518,0.03422361612319946,0.0004027709364891052,0.006634318269789219
1772363391398710300,6.064710205078125,-0.022023177368193862,-0.11677461407780647,0.025169512569904327,0.008963307365775108,0.011676527559757233,0.00619920389726758
1772363391408779300,6.074779296875,0.03497442887797952,-0.17757833460867403,-0.014529460611939429,0.00488334521651268,-0.02023053914308548,0.012270678766071796
1772363391418849300,6.084849365234375,0.08667363645508885,-0.054202130308747286,-0.05681202054619789,0.003011598251760006,-0.011352453380823135,0.017655562609434128
1772363391428918000,6.09491796875,-0.0431280708476901,0.03526303656101227,0.0982248119086027,-0.005185345187783241,0.049311958253383636,-0.00006378069519996643
1772363391438988300,6.10498828125,-0.002184650562703609,0.032041151905059816,0.1857896981149912,-0.018964357674121857,0.045063432306051254,-0.008933236822485924
1772363391449057000,6.11505712890625,0.08637932968363166,0.01643383292853832,-0.024926351463794707,-0.02506859041750431,0.011453807353973389,-0.010859768837690353
1772363391459127300,6.125127197265625,0.08661562265753746,0.0070423197269439694,-0.15920388900637625,-0.024173036217689514,-0.005853590555489063,-0.014325830154120922
1772363391469196300,6.1351962890625,0.05051277427151799,0.02214285822510719,-0.1252566112190485,-0.01410415768623352,-0.01566547527909279,-0.017635874450206757
1772363391479266000,6.14526611328125,0.03824424432888627,0.06399404100477694,-0.04424713800549507,-0.00001654587686061859,-0.022082073614001274,-0.024479426443576813
1772363391489336300,6.15533642578125,0.03900149243697524,0.09736731829643248,-0.024016250881552695,0.01342256460338831,-0.025765491649508476,-0.024668775498867035
1772363391499405000,6.165405029296875,0.011226473543792963,0.0743704735904932,-0.05235445661544799,0.03178292512893677,-0.030101200565695763,-0.027032997459173203
1772363391509475300,6.175475341796875,-0.014701894569396972,0.046775195178389545,-0.044244215396046636,0.043986596167087555,-0.0264127217233181,-0.02569502592086792
1772363391519544000,6.1855439453125,-0.02928717702180147,0.006003624328970909,0.012203063490986822,0.05242645740509033,-0.01964529976248741,-0.02606542408466339
1772363391529614300,6.1956142578125,-0.030372195779532193,0.015544775134325027,0.08731178822815418,0.05205121636390686,-0.008956171572208405,-0.028996765613555908
1772363391539683000,6.20568310546875,-0.0362353887245059,0.01926116530895233,0.1320534317523241,0.05185550078749657,0.0021087131462991238,-0.026961931958794594
1772363391549753000,6.215753173828125,-0.044884266865253444,0.007417582780122756,0.14347440495491026,0.0428399033844471,0.013630080036818981,-0.020954372361302376
1772363391559822300,6.225822265625,-0.09461655828356742,-0.030449498799443243,0.09535305586457252,0.03162620961666107,0.012728694826364517,-0.016257327049970627
1772363391569892000,6.23589208984375,-0.1040164009220898,-0.03882511295676231,0.04495440949201584,0.01566828414797783,0.01322351023554802,-0.0028512408025562763
1772363391579962400,6.24596240234375,-0.12071984457224606,-0.09558394201099872,0.05394610972106456,-0.0031178556382656097,0.015172991901636124,0.002202864270657301
1772363391590031000,6.256031005859375,-0.10742255610376596,-0.11371171937584876,0.05877835218310356,-0.02681572735309601,0.015011338517069817,0.0076642087660729885
1772363391600101000,6.26610107421875,-0.09069894644841552,-0.11158698230683803,0.04387187495231628,-0.048762738704681396,0.018579205498099327,0.011119263246655464
1772363391610170000,6.276170166015625,-0.07847469403892755,-0.0955716670513153,0.04924947633743286,-0.06178799271583557,0.02371511049568653,0.015625067055225372
1772363391620240100,6.286240234375,-0.08658595817163586,-0.06508592789471149,-0.003918050226569175,-0.05831150338053703,0.021110273897647858,0.014615461230278015
1772363391630308600,6.29630859375,-0.06940057622343301,0.005564063867926597,-0.0456879844635725,-0.05107010155916214,0.017774131149053574,0.01807330921292305
1772363391640378600,6.306378662109375,-0.07326616561040282,0.05638415052294731,-0.061899114552140234,-0.03950692340731621,0.014333860948681831,0.017199259251356125
1772363391650447600,6.316447509765625,-0.07680573791339992,0.07934884652495383,-0.07397533679306506,-0.029555492103099823,-0.003221164457499981,0.02150479331612587
1772363391660517600,6.326517578125,-0.06674786975756287,0.06776303814947605,-0.07349836693108082,-0.01657313108444214,-0.014352314174175262,0.018379999324679375
1772363391670588000,6.336587890625,-0.02664806068986654,0.06507423745691776,-0.009800094002485275,0.0037060407921671867,-0.009750105440616608,0.01612350158393383
1772363391680656600,6.34665673828125,-0.010552812065929174,0.06928922480344772,0.09732990889549255,0.008968797512352467,0.01201722677797079,0.020294344052672386
1772363391690726700,6.3567265625,-0.030734014829248188,0.0324514862716198,0.14989303982555865,0.013816549442708492,0.02575460821390152,0.02333567477762699
1772363391700795600,6.366795654296875,-0.04035919065624475,-0.022330489751696585,0.11293664335012435,0.011285325512290001,0.01885417103767395,0.02631302922964096
1772363391710865700,6.37686572265625,-0.042522652300447224,-0.066079030585289,0.054258828932046886,0.004992276430130005,0.006266471929848194,0.02848510444164276
1772363391720934700,6.3869345703125,-0.04192351736351847,-0.07497662279009819,0.029801264023780822,-0.011904727667570114,0.0008943905122578144,0.02846345119178295
1772363391731004700,6.397004638671875,-0.03671659637019038,-0.06799684690535068,0.060090019303560255,-0.025255419313907623,0.0032161343842744827,0.026154756546020508
1772363391741073700,6.40707373046875,-0.00244037888944149,-0.0380938760727644,0.06916998233795166,-0.03642280772328377,0.008668377064168453,0.023670107126235962
1772363391751143700,6.417143798828125,0.020316227319836615,-0.03783317930996418,0.048339375755190844,-0.04764057323336601,0.013954485766589642,0.021826934069395065
1772363391761213000,6.427212890625,0.08029065741971135,-0.02390577624440193,0.007095511218905448,-0.055350590497255325,0.008582809939980507,0.022737642750144005
1772363391771282700,6.43728271484375,0.09973711616769432,-0.02921791117787361,-0.05028057295083999,-0.0658266693353653,-0.009403379634022713,0.020917637273669243
1772363391781352700,6.447352783203125,0.08666954480186104,-0.04268880264759063,-0.09619593642950057,-0.061096012592315674,-0.025431787595152855,0.02210863307118416
1772363391791421700,6.457421630859375,0.08410875440314412,-0.043380292043089866,-0.09472352578938006,-0.04813254624605179,-0.031009778380393982,0.018049975857138634
1772363391801491700,6.46749169921875,0.09358400036543607,0.009155366358160971,-0.05901859067976475,-0.03142280876636505,-0.02390073612332344,0.012663199566304684
1772363391811560700,6.477560791015625,0.08341361174583435,0.07743979803323746,-0.0032949498921632766,-0.020353645086288452,-0.020426642149686813,0.011259714141488075
1772363391821630700,6.487630615234375,0.01926554922312498,0.09368833752274512,-0.037978725260496136,-0.008058713749051094,-0.02162211947143078,0.009128853678703308
1772363391831699700,6.49769970703125,-0.0006191548116505146,0.07415946118831634,-0.08018120569586754,0.003602735698223114,-0.01994113251566887,0.004411329515278339
1772363391841769700,6.507769775390625,-0.015392507182061671,0.041509821996092794,-0.06304302389025687,0.010732374154031277,-0.013610923662781715,0.002600214909762144
1772363391851838700,6.517838623046875,-0.02425824294388294,0.01383095695376396,-0.019566285735368727,0.010909740813076496,-0.006551416125148535,0.002837502397596836
1772363391861908700,6.52790869140625,-0.024067834938317535,-0.022955343651771543,0.01401098969578743,0.0022687697783112526,-0.016425713896751404,0.0071320864371955395
1772363391871978800,6.537978759765625,-0.03978416724726558,-0.05168225644230842,-0.004985387197136879,0.001448516733944416,-0.025635723024606705,0.007993352599442005
1772363391882047700,6.5480478515625,-0.03866758430749178,-0.027843700215220448,-0.012618074032664298,0.008773799985647202,-0.022708000615239143,0.006645224988460541
1772363391892117800,6.55811767578125,0.03379106431230902,0.0372007266253233,0.0199029703438282,0.019516460597515106,-0.012505697086453438,0.00813979096710682
1772363391902186800,6.568186767578125,0.06043342591375112,0.09252513896226883,0.02194821243584156,0.021630369126796722,0.0024904864840209484,0.012011553160846233
1772363391912256800,6.5782568359375,0.04306348117887974,0.0733417150646448,-0.02348141335248947,0.014727720990777016,0.00019777100533246994,0.010227235034108162
1772363391922325500,6.588325439453125,0.034021658197790385,0.027056933751702306,-0.048642742615938185,0.00648081861436367,-0.006723441183567047,0.008039922453463078
1772363391932395800,6.598395751953125,0.024766046335548162,0.02118307328224182,-0.03551145836412906,-0.002635447308421135,-0.007226778659969568,0.002106399741023779
1772363391942464500,6.608464599609375,0.03578077682480216,0.062383098676800725,0.038138884258270264,-0.020064782351255417,-0.006333600729703903,-0.004563558846712112
1772363391952534800,6.61853466796875,0.05306421231999993,0.11654489697515964,0.07308394091129303,-0.030461497604846954,-0.007732825353741646,-0.014857475645840168
1772363391962603800,6.628603759765625,0.08416296880841255,0.14673545257747173,0.050444239079952234,-0.0450841560959816,-0.01164194941520691,-0.020339807495474815
1772363391972673500,6.638673583984375,0.05544423932433128,0.09074234719872475,-0.027796353942155835,-0.053541556000709534,-0.019518248736858368,-0.019081996753811836
1772363391982743800,6.648743896484375,0.017467559890449045,-0.01757423513531685,-0.09335983622074126,-0.06087762489914894,-0.024115338921546936,-0.017691705375909805
1772363391992812500,6.6588125,0.012911504021286964,-0.0817073923498392,-0.10816928281784056,-0.06247898191213608,-0.032228659838438034,-0.014829874038696289
1772363392002882800,6.6688828125,0.02735109439268708,-0.10593933180868625,-0.04153787904679775,-0.064801886677742,-0.034446682780981064,-0.01641535386443138
1772363392012951600,6.67895166015625,0.03298296279981732,-0.06725918028056621,0.04931260470151901,-0.06529483199119568,-0.02575119398534298,-0.017885684967041016
1772363392023021800,6.689021728515625,0.013894231448322534,-0.03938566944897175,0.10050444727838038,-0.05826862156391144,-0.011244313791394234,-0.016349874436855316
1772363392033090600,6.699090576171875,-0.02367752044647932,-0.03631751405000686,0.06187573367655277,-0.03690021485090256,-0.013122906908392906,-0.014938665553927422
1772363392043160600,6.70916064453125,-0.028612346500158307,-0.015906009662151336,-0.005413841742277145,-0.021778061985969543,-0.012844011187553406,-0.011058700270950794
1772363392053229800,6.719229736328125,-0.0245846984192729,0.011865794360637665,-0.03178513131737709,-0.006989262532442808,-0.01834370568394661,-0.009940971620380878
1772363392063299600,6.729299560546875,-0.02401376666352153,0.03633212709724903,-0.026907880669832226,0.011207228526473045,-0.019705520942807198,-0.009379145689308643
1772363392073369900,6.739369873046875,0.005246814612299203,0.10060615408718586,0.016411036574840544,0.02496218867599964,-0.017698297277092934,-0.016680199652910233
1772363392083438600,6.7494384765625,0.04936126614883542,0.1330728379279375,0.09230886586308479,0.020449191331863403,-0.012455487623810768,-0.014026930555701256
1772363392093508600,6.759508544921875,0.03603241349831223,0.07476736395359039,0.08128712111115455,0.01543365977704525,-0.01980208419263363,-0.01441521942615509
1772363392103577600,6.76957763671875,0.021370850939303635,0.015576339316368102,0.0003425298273563385,0.012715619057416916,-0.03984763100743294,-0.013267502188682556
1772363392113647600,6.779647705078125,0.03080255002081394,-0.025054946279525755,-0.039298575687408445,0.011848758906126022,-0.03956666961312294,-0.010548414662480354
1772363392123716600,6.789716552734375,0.04468932881504297,-0.015945757150650025,0.008656769186258316,0.010249953716993332,-0.030808676034212112,-0.012052776291966438
1772363392133786600,6.79978662109375,0.05815700541436672,0.02018880154788494,0.09813304197192191,0.0007155714556574821,-0.017219629138708115,-0.015957236289978027
1772363392143855900,6.80985595703125,0.035523148801922796,0.001174304476380348,0.09352233330607414,-0.012643475085496902,-0.009192360565066338,-0.014285707846283913
1772363392153925600,6.819925537109375,0.0022869418933987615,-0.02570084296762943,0.033868367332220074,-0.01924918033182621,-0.005540633574128151,-0.01270565576851368
1772363392163995000,6.829994873046875,-0.024599749857932326,-0.05273088871240616,-0.02001812115609646,-0.02406831458210945,-0.007745075970888138,-0.011161806993186474
1772363392174064600,6.840064697265625,-0.045338586504012346,-0.07858896806836128,-0.051045127582550046,-0.02320704609155655,-0.014671159908175468,-0.009774300269782543
1772363392184134700,6.850134765625,-0.034705694939196105,-0.04729951131343841,-0.07632979096472263,-0.01332059409469366,-0.0285749901086092,-0.008868559263646603
1772363392194203600,6.86020361328125,-0.021910656904429195,-0.03158113317787647,-0.071987377846241,-0.004314316436648369,-0.03196146711707115,-0.007223258726298809
1772363392204273700,6.870273681640625,-0.01796498801857233,-0.01367196699976921,-0.07439853064119815,0.0004750145599246025,-0.0358012430369854,-0.003852897323668003
1772363392214342700,6.8803427734375,-0.00994973160624504,0.032932547786831856,-0.030718378868699072,0.012881351634860039,-0.025717182084918022,-0.004926950670778751
1772363392224412700,6.89041259765625,0.0021039865419268606,0.05021744458675384,0.026969839990139004,0.025584720075130463,-0.027293898165225983,-0.005358814727514982
1772363392234482000,6.90048193359375,0.00997018987238407,0.13865209936499595,0.032791678011417386,0.03857056051492691,-0.022878378629684448,-0.004366521257907152
1772363392244551700,6.9105517578125,-0.07943447898179293,0.15820611014068126,0.01495382350385189,0.04309103637933731,-0.0021647519897669554,-0.011241593398153782
1772363392254620700,6.92062060546875,-0.07310790630877018,0.09762743053734302,0.07044833171069621,0.043416205793619156,0.009328385815024376,-0.0069323331117630005
1772363392264690700,6.930690673828125,-0.042052258309721945,0.038404841718077655,0.046479427102208135,0.03384324908256531,0.001083994284272194,-0.005040076561272144
1772363392274760700,6.9407607421875,-0.011089695421606302,-0.05167348861396313,0.00504676199555397,0.01346021331846714,-0.006328914314508438,0.0004332517273724079
1772363392284829700,6.95082958984375,0.02321677106693387,-0.043215456870198246,0.04983867440223694,-0.01065735425800085,-0.0030628785025328398,0.008764260448515415
1772363392294899700,6.960899658203125,-0.01792421761676669,-0.056418637314438816,0.10106851090192794,-0.0310856644064188,0.012165077030658722,0.007958387956023216
1772363392304968700,6.97096875,-0.022132921352982518,-0.0878425341039896,0.16599311075508594,-0.05155196785926819,0.019503025338053703,0.01491386629641056
1772363392315038700,6.981038818359375,-0.0023836802661418915,-0.12914601987302302,0.10506664062738418,-0.07149638235569,0.012057892978191376,0.011441903188824654
1772363392325107700,6.991107666015625,0.017122838106006382,-0.18322013988792896,0.00256020587682724,-0.07007379829883575,-0.020235849544405937,0.01782357133924961
1772363392335177700,7.001177734375,0.03454802015945315,-0.06191665020883083,-0.11462123543620109,-0.04769099876284599,-0.01513642817735672,0.029569976031780243
1772363392345246700,7.011246826171875,-0.14286679445058106,0.08377133914232253,-0.024700726014375684,-0.03740658611059189,0.059881605207920074,0.02056536078453064
1772363392355316700,7.021316650390625,-0.16190291883200406,0.02831774746775627,0.10389467423856258,-0.019881654530763626,0.05370893329381943,0.01623239740729332
1772363392365386800,7.03138671875,-0.05250760135054588,0.01044423712491989,-0.11972878770828246,-0.003464767709374428,0.0011448217555880547,0.016524415463209152
1772363392375455700,7.041455810546875,0.02268427162542939,0.0008119009047746658,-0.184825821518898,0.003629094921052456,-0.009513681754469872,0.018218452110886574
1772363392385525800,7.05152587890625,0.04793430208563804,0.044292146191000935,-0.018463292929530143,0.01600630395114422,0.002110719680786133,0.01929423213005066
1772363392395594500,7.061594482421875,0.022679303189367055,0.09397942942380905,0.11535422588586806,0.025175567716360092,0.01737143285572529,0.01893417350947857
1772363392405664800,7.071664794921875,-0.013173808219283819,0.1013707087188959,0.12809037334024906,0.031146273016929626,0.014920870773494244,0.015905987471342087
1772363392415733800,7.081733642578125,-0.013787702333927154,0.08239303652644157,0.0374573317348957,0.023024164140224457,0.004149981774389744,0.013330977410078049
1772363392425803800,7.0918037109375,0.004440174404531717,0.0890057326644659,-0.024895956325531005,0.013686846941709518,-0.003162682056427002,0.011761806905269623
1772363392435872800,7.101872802734375,0.037480566480010746,0.11386252602338791,-0.030363574081659316,0.011789079755544662,-0.003725408110767603,0.011611870490014553
1772363392445942500,7.111942626953125,0.06170549167618155,0.04936287358403205,-0.012782909205555915,0.0036567719653248787,-0.0006064083427190781,0.01510004885494709
1772363392456011800,7.12201171875,0.0718733960777521,-0.037276129949092865,-0.0015606734454631805,-0.012784784659743309,-0.010155439376831055,0.014575140550732613
1772363392466081500,7.13208154296875,0.0754094612494111,-0.09542086040377616,-0.04601356315612793,-0.029779359698295593,-0.018888354301452637,0.025164680555462837
1772363392476151800,7.14215185546875,0.0661687546953559,-0.14563304429352283,-0.045423196047544474,-0.04938288778066635,-0.019069980829954147,0.024430979043245316
1772363392486220500,7.152220458984375,0.07075915122553705,-0.11368775397837161,0.008131284007430076,-0.05027761682868004,-0.009585367515683174,0.015183556824922562
1772363392496290600,7.16229052734375,0.06173968620672821,-0.022712182545661926,0.01837444560229778,-0.048977725207805634,0.004040428902953863,0.008103808388113976
1772363392506359800,7.17235986328125,0.03374897873625159,0.05815700541436672,-0.03401157519519329,-0.04172931984066963,0.0028871078975498676,0.0005732178688049316
1772363392516429600,7.1824296875,0.0512790824688971,0.10065876105725764,-0.10638298392295836,-0.029069984331727028,-0.004851505160331726,-0.0037813172675669193
1772363392526498800,7.192498779296875,0.049061114158481356,0.08299567859470844,-0.1678168190509081,-0.018569497391581535,-0.01918291486799717,-0.004693816415965557
1772363392536568600,7.202568603515625,0.05568316264674067,0.054578562405705446,-0.1704699639081955,-0.006463831756263971,-0.03259352967143059,-0.0038724979385733604
1772363392546637800,7.212637939453125,0.03997238329574466,0.019331892457604406,-0.09742109431028366,0.003506091423332691,-0.03424258902668953,-0.010251857340335846
1772363392556707600,7.22270751953125,0.05663242619559169,0.039945056897401805,0.02891863597035408,0.008122148923575878,-0.031457990407943726,-0.012768277898430824
1772363392566777600,7.232777587890625,0.04642302073985338,0.03985211791694164,0.07053016477525234,0.00980667769908905,-0.024124348536133766,-0.013257469981908798
1772363392576846600,7.2428466796875,0.01296177290380001,0.02532791800200939,0.04679565344452858,0.01630399003624916,-0.022504080086946487,-0.01056448183953762
1772363392586916600,7.25291650390625,0.006650543930381536,0.04405892195701599,0.015876783567667006,0.023697422817349434,-0.01254905853420496,-0.006180068477988243
1772363392596985900,7.26298583984375,-0.03227744487896561,0.04658288747668266,0.0059796589314937585,0.03223791718482971,-0.001269505824893713,-0.006588064134120941
1772363392607055600,7.2730556640625,-0.036395986113697286,0.06401157666146755,0.03652794193029404,0.03134949132800102,0.000030274037271738052,-0.0033653373830020428
1772363392617124900,7.283124755859375,-0.0300745280072093,0.03397065866291523,0.03885492357313633,0.028641056269407272,-0.005641992669552565,-0.0007964526303112507
1772363392627199000,7.293198974609375,-0.04139204083532095,-0.010278232908248901,0.010873276191949844,0.024271883070468903,-0.011455893516540527,-0.00016947276890277863
1772363392637267700,7.303267822265625,-0.030719255651533602,-0.009447042781114579,-0.01363455759882927,0.020743727684020996,-0.017773445695638657,-0.0025663175620138645
1772363392647338000,7.313337890625,-0.010810440088808536,0.006641337710618972,0.008182137411832808,0.004662787541747093,-0.01828308030962944,-0.00716438889503479
1772363392657406700,7.32340673828125,0.012587240502983332,-0.006086041915416717,0.03949906669557094,-0.010626154951751232,-0.017704907804727554,-0.004872205667197704
1772363392667477000,7.33347705078125,-0.006623509792983532,-0.05272971966862678,0.010887304717302322,-0.019169773906469345,-0.009112171828746796,-0.0043417466804385185
1772363392677546800,7.343546630859375,-0.021364421198517083,-0.0719300947010517,-0.03920212957561016,-0.02581143006682396,-0.012898920103907585,0.000040218234062194824
1772363392687615700,7.35361572265625,-0.0004898293435573578,-0.06958265479207039,-0.06020049394071102,-0.0368892140686512,-0.012142347171902657,-0.0029461197555065155
1772363392697685800,7.363685791015625,0.019919921478629112,-0.05245324081480503,-0.05424363136291504,-0.03561302646994591,-0.015815379098057747,-0.00019214535132050514
1772363392707754800,7.373754638671875,0.012136574126034975,-0.02473229019641876,0.002131166809797287,-0.04301350191235542,-0.005412523169070482,-0.002997051924467087
1772363392717825000,7.383824951171875,-0.00984846318885684,-0.02120353154838085,0.07584522231817245,-0.04417863488197327,-0.0011578572448343039,-0.002099566161632538
1772363392727893800,7.393893798828125,-0.0372756915576756,-0.030364158603549,0.07959960641562938,-0.03288673609495163,0.0033144205808639526,0.0005070054903626442
1772363392737964000,7.403964111328125,-0.016271481973677872,0.00026128128468990325,0.05708849940001964,-0.01814747042953968,0.005599145777523518,0.003236479591578245
1772363392748032800,7.41403271484375,-0.045653936063498254,-0.0070388125956058496,0.0009071779727935791,-0.00399207416921854,0.004206391517072916,0.010907541960477829
1772363392758102800,7.424102783203125,-0.04172258796393871,0.02965980972647667,-0.03604395780563354,0.012478779070079327,-0.0013162053655833006,0.012538195587694645
1772363392768172800,7.4341728515625,-0.018013795596361157,0.0718652127712965,-0.03686111940741539,0.02211376652121544,-0.001928357407450676,0.011632000096142292
1772363392778241800,7.44424169921875,-0.007149433363229036,0.09354220705032348,0.008343465453386305,0.029474478214979172,-0.002167509403079748,0.008814642205834389
1772363392788311800,7.454311767578125,0.013966273771226405,0.08018471282720566,0.048070495685935015,0.03284211829304695,0.011874211952090263,0.006681177765130997
