time,seconds_elapsed,accel_x,accel_y,accel_z,gyro_x,gyro_y,gyro_z
1772568156793585200,0.117585205078125,0.03933686187118292,-0.030391192740947006,-0.167305946919322,-0.006506148725748062,-0.029371876269578934,0.050712112337350845
1772568156803656200,0.12765625,0.024444413165748118,-0.05315671290904283,-0.1244371115297079,0.0038543464615941048,-0.06296632438898087,0.05333133414387703
1772568156813727200,0.137727294921875,0.06395064025446773,-0.0314219970934093,-0.19722703793048857,0.01278821099549532,-0.08075235038995743,0.07051686197519302
1772568156823799000,0.147799072265625,0.08089695274978875,-0.09821633634120225,-0.11338730972707271,0.014287305064499378,-0.09422954171895981,0.07895614951848984
1772568156833869800,0.157869873046875,0.0032065409563481807,-0.058112800946459174,-0.13141981002390385,0.006946874782443047,-0.0832633227109909,0.0938272625207901
1772568156843942000,0.16794189453125,0.0001676116518676281,-0.13424801918715237,-0.012834347131848334,-0.006624062079936266,-0.0638536736369133,0.10144177079200745
1772568156854013000,0.178012939453125,-0.04636763729080558,-0.039738720670342446,-0.03887012114226818,-0.02127140946686268,-0.050315700471401215,0.0859638974070549
1772568156864084000,0.188083984375,-0.060788815222680564,-0.057988736175373194,-0.0716512777596712,-0.01706148497760296,-0.03980020806193352,0.06551055610179901
1772568156874156000,0.198156005859375,-0.10246128043457865,0.0034022827241569757,-0.10890110422372817,-0.0028973110020160675,-0.03366803750395775,0.057928744703531265
1772568156884227000,0.20822705078125,-0.14853183447495102,0.03527363102026283,-0.11740706676244735,0.009162813425064087,-0.030465051531791687,0.05976898968219757
1772568156894299100,0.218299072265625,-0.10054609446302055,0.0820205499522388,-0.08814882357418537,0.010238259099423885,-0.025842327624559402,0.0529867447912693
1772568156904370200,0.2283701171875,-0.09217574100270867,0.19638364590890706,-0.05915361523628235,0.006489592604339123,-0.020305082201957703,0.03810100629925728
1772568156914441200,0.238441162109375,-0.04982143100649118,0.24842012261636554,0.04101180934607982,-0.00020646024495363235,-0.03791098669171333,0.023117097094655037
1772568156924513000,0.248512939453125,0.02589227388650179,0.24867884661778805,0.013219547057151794,-0.0008261771872639656,-0.048825155943632126,0.018108755350112915
1772568156934584000,0.258583984375,0.04670417576879263,0.17215419066809118,0.01561959393620491,0.01686566323041916,-0.0452953577041626,0.019678926095366478
1772568156944656100,0.26865625,0.03787190388515591,0.08895546378195285,0.12008417701721191,0.012834437191486359,-0.02142784185707569,0.029413046315312386
1772568156954727000,0.278726806640625,0.045816140887886284,-0.03689304891563952,0.19333704475462435,-0.0002906089648604393,0.0040250131860375404,0.03630387783050537
1772568156964798000,0.2887978515625,0.12366115872114897,-0.11462094317525624,0.12972820367515087,-0.023127481341362,0.017092611640691757,0.029688851907849312
1772568156974870000,0.2988701171875,0.21978972900286314,-0.10999328337460755,0.052176761960983274,-0.03205011039972305,0.028008276596665382,0.024494502693414688
1772568156984941000,0.308941162109375,0.2649481366343796,-0.11162694899104535,-0.06067571023702621,-0.023140504956245422,0.01620115153491497,0.01108788326382637
1772568156995012000,0.31901220703125,0.25429551745578644,-0.057385436519980425,-0.1542383755534887,-0.00420808233320713,0.015920400619506836,0.004481114912778139
1772568157005084200,0.329084228515625,0.15432269283607603,-0.01065364209190011,-0.13385726630389688,0.0136313671246171,0.02534346468746662,0.0032411469146609306
1772568157015155200,0.3391552734375,0.033088030609488485,-0.037888635824248194,-0.08135434112846851,0.0071941884234547615,0.05045195296406746,-0.003315967507660389
1772568157025227000,0.34922705078125,-0.10061214543655514,-0.045161403306201095,-0.04004033396542072,-0.004620392806828022,0.06861444562673569,-0.011917178519070148
1772568157035298000,0.359298095703125,-0.1792421761676669,-0.04978329095318913,-0.09361585680842399,-0.008279292844235897,0.06289232522249222,-0.028910811990499496
1772568157045369000,0.369369140625,-0.19048370115011928,-0.07165829202234744,-0.2553682612538338,-0.00381556898355484,0.06800905615091324,-0.030998729169368744
1772568157055441200,0.379441162109375,-0.20477116969972847,-0.045041430188342925,-0.005821838021278381,-0.01638941653072834,0.05371400713920593,-0.03697619587182999
1772568157065512000,0.389511962890625,-0.18917247242107987,0.04060015980526804,0.02044365309178829,-0.027356848120689392,0.022519070655107498,-0.032931916415691376
1772568157075584000,0.399583984375,-0.08470525899156928,0.015796996329724786,-0.046475919970870014,-0.026404663920402527,0.006535169202834368,-0.02851847931742668
1772568157085655000,0.409655029296875,-0.020282178919762372,0.07414316764064133,0.005171849679946899,-0.025436339899897575,-0.007181708700954914,-0.02682923525571823
1772568157095726000,0.41972607421875,0.005751257003098726,0.00009060089290142059,-0.036790976780653,-0.03594120591878891,-0.02757609449326992,-0.028470152989029884
1772568157105798000,0.4297978515625,0.013821896864473819,-0.06824446499086916,-0.17843173656761646,-0.026467807590961456,-0.0596352256834507,-0.030705878511071205
1772568157115869000,0.439868896484375,0.018230653217434882,-0.11725859820246695,-0.3239648276180029,0.0032724346965551376,-0.0784219279885292,-0.02886473760008812
1772568157125941000,0.44994091796875,0.00793108526021242,-0.11015395382903516,-0.34159108520150183,0.029243849217891693,-0.07299014180898666,-0.02194691076874733
1772568157136012000,0.460011962890625,-0.032734979388117785,-0.11157719156518578,-0.1926595838844776,0.03157465532422066,-0.0495288111269474,-0.01575053296983242
1772568157146083000,0.4700830078125,-0.0195391054674983,-0.12693411597721277,-0.05339782818853855,0.019003205001354218,-0.02617528662085533,-0.005136237945407629
1772568157156155100,0.480155029296875,0.009610855040699242,-0.16549181016944348,0.008625789526104927,0.004992811940610409,-0.0036381306126713753,0.004179885610938072
1772568157166226200,0.49022607421875,0.019264380179345605,-0.15567703005447983,0.003592471534013748,-0.005695785395801067,0.007015046197921038,0.012238876894116402
1772568157176298200,0.50029833984375,-0.01635828347429633,-0.1114430437915027,-0.006029927814006805,-0.010387172922492027,-0.0051903752610087395,0.019410116598010063
1772568157186369000,0.510369140625,-0.015562749182432889,-0.08985657734014094,-0.10397767634689807,-0.0025897035375237465,-0.02483811229467392,0.02018323354423046
1772568157196440000,0.520440185546875,-0.02144128582701087,-0.024215280584990978,-0.13354103996157646,0.005152547731995583,-0.040712591260671616,0.019770804792642593
1772568157206511900,0.530511962890625,-0.039954847639054054,0.025205679861828683,-0.1100023434638977,0.009802427142858505,-0.06747522950172424,0.02155539020895958
1772568157216583000,0.5405830078125,-0.000831628518551588,0.04621156994625926,-0.21572774026095867,0.023159027099609375,-0.09842216968536377,0.018109675496816635
1772568157226655000,0.550655029296875,0.0018061726391315459,0.1132056695498526,-0.26201310609579087,0.03890842944383621,-0.1173764169216156,0.01718183048069477
1772568157236726000,0.56072607421875,-0.0469875227548182,0.12929828782528638,-0.23200784393250942,0.05121530964970589,-0.12925392389297485,0.016680965200066566
1772568157246797000,0.570797119140625,-0.0342560514755547,0.08883388322889804,-0.19843875180780887,0.05790010467171669,-0.12427221983671188,0.01357651874423027
1772568157256869000,0.580869140625,-0.004753478137403727,0.06504910301566123,-0.09514438154995442,0.06300190091133118,-0.10852239280939102,0.00992064643651247
1772568157266940200,0.590940185546875,0.006130903970450162,0.057035527103766796,0.019186346507072446,0.058113932609558105,-0.10910029709339142,0.008346185088157654
1772568157277011000,0.601010986328125,0.0828461871214211,0.014883023289963602,-0.03378127357065677,0.06325559318065643,-0.12792471051216125,0.003069082275032997
1772568157287083300,0.611083251953125,0.1789335486099124,0.035564576790854334,-0.15207447551786898,0.08728742599487305,-0.13404971361160278,0.0009547984227538109
1772568157297154000,0.621154052734375,0.20652838863059877,0.0673252312541008,-0.17093407428860663,0.10482585430145264,-0.13022932410240173,-0.000667911022901535
1772568157307225900,0.631225830078125,0.17927768587246537,0.047844651040807366,-0.09151917679011821,0.11336128413677216,-0.10817862302064896,0.003585423342883587
1772568157317297000,0.641296875,0.13397066355049608,-0.017009294728934764,0.05634849468767643,0.1073586642742157,-0.07270006835460663,0.0063277557492256165
1772568157327368000,0.651367919921875,0.09737389416769146,-0.07202420272529125,0.2306231115758419,0.08060827851295471,-0.03400752693414688,0.010757124982774258
1772568157337440000,0.66143994140625,0.08477540161833166,-0.15144779498688876,0.3454915997713804,0.039248429238796234,-0.004501173738390207,0.007217971608042717
1772568157347511000,0.671510986328125,0.12392521648481487,-0.18941468367911873,0.3337351110041141,0.006121902726590633,0.01716736890375614,0.0022778077982366085
1772568157357583000,0.6815830078125,0.1320804658897221,-0.18520780657380817,0.2250415120512247,-0.0015920838341116905,0.02432011440396309,0.004817859269678593
1772568157367654100,0.691654052734375,0.1294064243748784,-0.1684960334867239,0.0927308906674385,0.0015792082995176315,0.019007373601198196,0.007576894015073776
1772568157377725200,0.70172509765625,0.12564882540702818,-0.146779218653962,-0.005541852036118507,0.004775281064212322,0.024695303291082382,0.0068723661825060844
1772568157387797000,0.711796875,0.11386749445945024,-0.110258217921108,0.024945640686154364,0.0013094432651996613,0.03760577738285065,0.010015428066253662
1772568157397865000,0.721864990234375,0.053658817212283605,-0.089172467533499,0.09806056125760078,-0.004697862081229687,0.06591309607028961,0.015190072357654572
1772568157407937000,0.73193701171875,0.014806962379068136,-0.09442885369174182,0.14886895747482776,-0.012366168200969696,0.08169259130954742,0.017191704362630844
1772568157418008000,0.742008056640625,0.043106735798716544,-0.08154591817781329,0.0706359632372856,-0.018305011093616486,0.06631917506456375,0.018363233655691147
1772568157428079000,0.7520791015625,0.06714198364168406,-0.06077332539260387,-0.16608897234499453,-0.007917352020740509,0.05246993899345398,0.012744230218231678
1772568157438151200,0.762151123046875,0.03211524005457759,-0.02875891536399722,-0.31305531106889245,0.015242270193994045,0.04783187806606293,0.014370743185281754
1772568157448222200,0.77222216796875,-0.08405453999787568,-0.0248345084618777,-0.2936445081561804,0.024897564202547073,0.0477336086332798,0.01531110517680645
1772568157458294300,0.782294189453125,-0.16121698239445686,-0.06438822795413435,-0.23056933556199072,0.02024109661579132,0.06049836799502373,0.009951398707926273
1772568157468365300,0.792365234375,-0.23858371519148347,-0.07501505510434509,-0.10961246736347674,0.006360968574881554,0.07011903822422028,-0.000647716224193573
1772568157478436400,0.802436279296875,-0.2617987326927483,-0.10252952336519956,-0.04713993683755398,-0.0066644418984651566,0.0641438290476799,-0.009239953011274338
1772568157488508200,0.812508056640625,-0.21020225483775137,-0.09884170169793069,-0.1284364102989435,0.0008499333634972572,0.04387344792485237,-0.018491242080926895
1772568157498579200,0.8225791015625,-0.15426146416813133,-0.04061733013577759,-0.17891922782361505,0.019322924315929413,0.025024760514497757,-0.02231142483651638
1772568157508650000,0.83264990234375,-0.15994038658738136,0.034408684753999115,-0.13275427349805832,0.026727579534053802,0.004220945294946432,-0.02284778654575348
1772568157518722000,0.84272216796875,-0.14024609055817128,0.036145445418730375,-0.1474818870306015,0.03050251677632332,0.0004792911931872368,-0.025408197194337845
1772568157528793000,0.85279296875,-0.10766937047168612,0.06338226578198373,-0.08074994549453259,0.02618420124053955,-0.01216992549598217,-0.030560079962015152
1772568157538865200,0.862865234375,-0.09059460929110645,0.06233239140287041,-0.0707978758007288,0.020956039428710938,-0.027143089100718498,-0.029801663011312485
1772568157548936200,0.872936279296875,-0.034294337659329176,-0.04564641034416854,-0.08317921846807003,0.025399256497621536,-0.015225974842905998,-0.03025093674659729
1772568157559007200,0.88300732421875,-0.021273235783725974,-0.05599982738047838,0.01655541348159313,0.020038366317749023,0.013457664288580418,-0.02646176889538765
1772568157569079000,0.8930791015625,-0.007858020024001598,-0.06813589004985987,0.14773498500883578,0.002358970232307911,0.039998460561037064,-0.01647571288049221
1772568157579150000,0.903150146484375,0.039906332322210074,-0.09170753896906972,0.18193360720872878,-0.00950619950890541,0.0612000972032547,-0.010665759444236755
1772568157589222100,0.91322216796875,0.06536445257514714,-0.07961436559334396,0.15129764592647552,-0.02105899155139923,0.07955114543437958,-0.004280831199139357
1772568157599293200,0.923293212890625,0.07846008099168539,-0.09971695016250014,0.13756547317206858,-0.02495802566409111,0.0880342349410057,-0.007278967648744583
1772568157609364200,0.9333642578125,0.09641995444372296,-0.0877864930678159,0.06237257728278636,-0.03224709630012512,0.0974825993180275,-0.006820371374487877
1772568157619436300,0.943436279296875,0.042860067561268804,-0.07330605922937393,-0.005949263793230056,-0.03171546012163162,0.10185334086418152,-0.005511523224413395
1772568157629507000,0.953507080078125,-0.007600392001122236,-0.04585018928796053,-0.12746668848395346,-0.022267894819378853,0.09350113570690155,-0.012718834914267063
1772568157639579100,0.9635791015625,-0.05043488672971725,-0.0031523996163159607,-0.24873627589344977,-0.01888173446059227,0.08442262560129166,-0.018943998962640762
1772568157649650200,0.973650146484375,-0.06857347774952649,0.0618961919426918,-0.3173836956620216,-0.01815122924745083,0.05820966139435768,-0.02319653518497944
1772568157659721200,0.98372119140625,-0.10100918193012476,0.17480587422065436,-0.31854046448171136,-0.021461106836795807,0.03299499675631523,-0.016319893300533295
1772568157669793000,0.99379296875,-0.054677492735534905,0.17845606729127467,-0.2546960610806942,-0.024294177070260048,-0.006241088733077049,-0.01508978009223938
1772568157679864000,1.003864013671875,-0.03701689449101686,0.26185382388085127,-0.23029344123005865,-0.026013029739260674,-0.04813188314437866,-0.01526651531457901
1772568157689935000,1.01393505859375,-0.0445714015237987,0.2493548461832106,-0.22088848402500152,-0.018126344308257103,-0.07107528299093246,-0.01484094187617302
1772568157700007200,1.024007080078125,-0.10178498860821128,0.1700035885054618,-0.12193126618862152,-0.0116536570712924,-0.06749255210161209,-0.018748261034488678
1772568157710078200,1.034078125,-0.2086395355656743,0.09544117253944277,0.015426701712608336,-0.007861582562327385,-0.05732274428009987,-0.03451497107744217
1772568157720150300,1.044150390625,-0.21415859124809503,0.008496829384192824,0.03952420113682747,-0.012094676494598389,-0.03789498284459114,-0.04353669658303261
1772568157730221300,1.05422119140625,-0.2097251388452947,-0.031312033912912006,0.06563771655857563,-0.027177222073078156,-0.021107211709022522,-0.048943180590867996
1772568157740292000,1.0642919921875,-0.1294583006925881,-0.05465191990286111,0.05645195506215095,-0.0356210395693779,-0.013776063919067383,-0.052717942744493484
1772568157750364200,1.0743642578125,0.00940817207545042,-0.03582110883519053,-0.05261807598769665,-0.03742906078696251,-0.017227787524461746,-0.050609517842531204
1772568157760435200,1.084435302734375,0.06753770496100187,-0.026257380871847272,-0.08647767549157143,-0.03591707721352577,-0.02247818559408188,-0.03431970253586769
1772568157770507000,1.094507080078125,0.1058303184762597,-0.053143488101288675,-0.13398644564151763,-0.03030206635594368,-0.030474593862891197,-0.013575277291238308
1772568157780578000,1.104578125,0.16035042869299648,-0.11260865350477396,-0.13068389696478844,-0.02175549790263176,-0.04314432293176651,0.0011814082972705364
1772568157790649000,1.114649169921875,0.16729498713389038,-0.1294036478959024,-0.09339490753412247,-0.023343008011579514,-0.05618955194950104,0.009617237374186516
1772568157800721200,1.12472119140625,0.13480872180983425,-0.13589973191693425,-0.0679746350735426,-0.023920152336359024,-0.06271840631961823,0.01463540829718113
1772568157810792200,1.134792236328125,0.06228241478130221,-0.13827888213843106,-0.06530979977846145,-0.018641235306859016,-0.07347890734672546,0.0157249066978693
1772568157820863200,1.14486328125,0.00037906244546175,-0.1514047595627606,-0.15537936228215693,-0.007800837513059378,-0.08439946919679642,0.011933630332350731
1772568157830935300,1.154935302734375,-0.011415858636051416,-0.15972900885902344,-0.22867197750806806,0.007128310389816761,-0.07877567410469055,0.011379160918295383
1772568157841006000,1.165006103515625,-0.03246259218752384,-0.1404624367225915,-0.16506488999426364,0.00993302557617426,-0.05797667056322098,0.014504719525575638
1772568157851078100,1.175078125,-0.02508271106928587,-0.14399806350283323,0.036571196550130844,-0.01663653366267681,-0.034200768917798996,0.014739077538251877
1772568157861149200,1.185149169921875,0.007082651737332343,-0.18291896498426793,0.21041969698071478,-0.03154919296503067,-0.004696839023381472,0.0279343631118536
1772568157871220200,1.19522021484375,0.061286974003165955,-0.298444748044759,0.2197866602629423,-0.037000153213739395,0.016360510140657425,0.04154285043478012
1772568157881292000,1.2052919921875,0.04345715667158365,-0.21945034098066388,0.24783377409577367,-0.03698302060365677,0.023656152188777924,0.042166344821453094
1772568157891363000,1.215363037109375,0.10311097651496529,-0.2648489871088415,0.10443184985518456,-0.04216153919696808,0.04837508127093315,0.048433296382427216
1772568157901435100,1.22543505859375,0.04014598629698157,-0.34216128630489107,0.2876116577327251,-0.08425848931074142,0.0773644745349884,0.04403223097324371
1772568157911506200,1.235506103515625,-0.050501522225141524,-0.18434695196077228,0.3491694115012884,-0.11489202827215195,0.009076493792235851,0.02613605558872223
1772568157921577200,1.2455771484375,0.2865637561149895,-0.27428017473369837,-0.4885299513965845,-0.04585128277540207,-0.00022040866315364838,0.030863646417856216
1772568157931649300,1.255649169921875,0.2155491688236594,-0.08351305353231728,-0.33422260226011274,0.023137103766202927,-0.023621605709195137,0.048185642808675766
1772568157941720300,1.26572021484375,0.09641630118191241,-0.08040909616760909,-0.309706585162878,0.030005306005477905,-0.01637984998524189,0.06842216104269028
1772568157951792000,1.275792236328125,0.03002674334272742,-0.2124376126743853,-0.091140991127491,0.0007025441154837608,0.023309770971536636,0.06766209751367569
1772568157961863200,1.28586328125,-0.04395969936624169,-0.20173801254890858,0.16982698982954025,-0.029827626422047615,0.0460871085524559,0.07041502743959427
1772568157971934200,1.295934326171875,-0.031125059973448513,-0.30235965646617113,0.10095803626477717,-0.031744036823511124,0.03925769776105881,0.06968425959348679
1772568157982006000,1.306006103515625,0.027160394126176834,-0.2873996954824775,-0.11217851845920085,-0.004653855226933956,0.024201350286602974,0.06337827444076538
1772568157992077000,1.3160771484375,0.09661649992913007,-0.21268464623801409,-0.21669921564161776,0.01587165892124176,0.02478964254260063,0.06379186362028122
1772568158002148000,1.326148193359375,0.09786270059794187,-0.14791099916286765,-0.1745166089504957,0.013422626070678234,0.03222513571381569,0.06939569115638733
1772568158012220200,1.33622021484375,0.07078048627451061,-0.10574512441083789,-0.13049509639441967,0.0016772868111729622,0.025266828015446663,0.07514491677284241
1772568158022291200,1.346291259765625,0.06887962108924985,-0.07937595372758806,-0.14270108249485491,-0.011138810776174068,0.010878694243729115,0.07526615262031555
1772568158032363300,1.35636328125,0.03311477248594165,-0.05985803717859089,-0.15372224272489546,-0.019263848662376404,-0.01589725911617279,0.07440967857837677
1772568158042434300,1.366434326171875,0.01770852903947234,-0.07105433477982878,-0.17822247773110866,-0.015875590965151787,-0.04088587313890457,0.06989997625350952
1772568158052505300,1.37650537109375,-0.029650165115296837,-0.03212503079622984,-0.20426468148231505,0.0009020576253533363,-0.061003394424915314,0.0633121132850647
1772568158062577200,1.3865771484375,-0.06197232591882348,-0.009492781618982553,-0.2285702706992626,0.025988880544900894,-0.053705453872680664,0.055827755481004715
1772568158072648000,1.39664794921875,-0.1404502348281443,0.0466837175026536,-0.06688800888061523,0.032555434852838516,-0.05014693737030029,0.04877597093582153
1772568158082720000,1.406719970703125,-0.20020736891552804,0.054090778888761994,-0.02528700146973133,0.021679075434803963,-0.04903022572398186,0.03268260881304741
1772568158092791000,1.416791015625,-0.16394114666134119,0.07141907643899321,-0.02549392221868038,0.01389838382601738,-0.05921415612101555,0.018806207925081253
1772568158102862000,1.426862060546875,-0.07039104856550693,0.09357121394909917,-0.08681026844680309,0.009154153056442738,-0.07427962124347687,0.012331361882388592
1772568158112934100,1.43693408203125,0.020990034928172824,0.1068300701033324,-0.11368190875947475,0.009870543144643307,-0.0923110842704773,0.011045321822166443
1772568158123005200,1.447005126953125,0.08625511878207326,0.08330357550010084,-0.11711246773004531,0.009019973687827587,-0.09116718918085098,0.017738016322255135
1772568158133077200,1.4570771484375,0.10583894017413258,0.040012130784243344,-0.06620353374779224,0.003586593084037304,-0.09314166009426117,0.02403932251036167
1772568158143148300,1.467148193359375,0.1553115577429533,0.007020619351789355,-0.06262275265157223,0.00431407243013382,-0.08142600953578949,0.029722578823566437
1772568158153219300,1.47721923828125,0.15241934343278407,-0.007018208198994398,-0.05535714556276798,0.017886340618133545,-0.06272955238819122,0.03497646003961563
1772568158163291100,1.487291015625,0.12532120088785886,0.002448708326369524,-0.004611293187737464,0.025566667318344116,-0.0475265197455883,0.039701588451862335
1772568158173362200,1.497362060546875,0.11281126340478657,-0.02921703439503908,-0.006550736817717551,0.04028942063450813,-0.022856594994664192,0.04040652886033058
1772568158183433000,1.507432861328125,0.13461758315190672,-0.005006576115638017,0.0585673397809267,0.04218935966491699,0.007561081554740667,0.05097024515271187
1772568158193505000,1.517505126953125,0.13962737413793802,0.020028788680583238,0.09470774369835853,0.032282665371894836,0.024005834013223648,0.07071065902709961
1772568158203576000,1.527576171875,0.05363090629205108,-0.05330138207674026,0.0973538742929697,0.012389474548399448,0.056621480733156204,0.11310797184705734
1772568158213648100,1.537648193359375,-0.14412161681726574,-0.11823548041060566,0.14030746535658836,-0.017670955508947372,0.05576607212424278,0.10470649600028992
1772568158223719200,1.54771923828125,-0.19160335282981394,-0.10185834610536694,0.11025134978890419,-0.04541191831231117,0.045341912657022476,0.08886650204658508
1772568158233790200,1.557790283203125,-0.14820406382530926,-0.11112557534016668,-0.019676175850629807,-0.06327880173921585,0.022846724838018417,0.08548588305711746
1772568158243862300,1.5678623046875,-0.11574044872447847,-0.044451939862594006,-0.21140110923349856,-0.049735166132450104,-0.02024475485086441,0.08924908936023712
1772568158253933300,1.577933349609375,-0.060611558959633105,0.07100976498574019,-0.30486791296005245,-0.029389411211013794,-0.06142628192901611,0.08666422963142395
1772568158264005000,1.588005126953125,-0.004179039250314235,0.08548435360528528,-0.26439678636193276,-0.003504892811179161,-0.10008814930915833,0.07110188156366348
1772568158274076200,1.598076171875,-0.03464738888069987,0.05900083582736551,-0.21742752991616723,0.020164750516414642,-0.12883271276950836,0.06705041229724884
1772568158284147200,1.608147216796875,-0.12063742698580025,0.023007804491370916,-0.17203998970389364,0.033599887043237686,-0.12790602445602417,0.06157684326171875
1772568158294219300,1.61821923828125,-0.1644508497491479,-0.04850662208087742,-0.0005699088424444198,0.02357175201177597,-0.10346700251102448,0.057985834777355194
1772568158304290000,1.6282900390625,-0.14457856680452824,-0.11513963328711688,0.12316694546341896,0.004652402363717556,-0.07737953215837479,0.04928434640169144
1772568158314361000,1.638361083984375,-0.0677343965768814,-0.1884558485843241,0.12799977244734764,-0.002144782803952694,-0.058167751878499985,0.044101569801568985
1772568158324433200,1.64843310546875,0.02089884951338172,-0.18225224470384419,0.0814852740317583,-0.007226012647151947,-0.05279326066374779,0.047165848314762115
1772568158334504200,1.658504150390625,0.13539587404802442,-0.17435213910378514,0.004025602254271507,-0.01187695749104023,-0.041521962732076645,0.051383763551712036
1772568158344576000,1.668575927734375,0.1914611678801477,-0.14750928649418055,-0.05636895295381546,-0.018088044598698616,-0.03967320919036865,0.05866733938455582
1772568158354647000,1.67864697265625,0.22652122921496629,-0.1364705175422132,-0.14217676635980606,-0.016709858551621437,-0.03974245488643646,0.06525760143995285
1772568158364718000,1.688718017578125,0.2498293318271637,-0.12428338227272033,-0.13830664692819117,-0.008429101668298244,-0.046594731509685516,0.06346672028303146
1772568158374790100,1.6987900390625,0.18335004987791179,-0.07687566134445369,-0.13020458901524543,0.008315256796777248,-0.05738692358136177,0.05818726867437363
1772568158384861200,1.708861083984375,0.07662409773617983,-0.04393229990266263,-0.12018529930412769,0.019183438271284103,-0.052213020622730255,0.053302545100450516
1772568158394933200,1.718933349609375,-0.03941562619581818,-0.03361994552910328,-0.009187515062093735,0.017561040818691254,-0.03010532259941101,0.04175481200218201
1772568158405002800,1.729002685546875,-0.12946122330203652,-0.014971139964833855,0.12643150021731853,-0.0037405313923954964,-0.004987403750419617,0.032358504831790924
1772568158415073800,1.73907373046875,-0.18309388315975664,-0.004557882500067353,0.18068448393046854,-0.02654225006699562,0.0036833160556852818,0.015982460230588913
1772568158425145900,1.749145751953125,-0.1249332244835794,-0.024708543994650244,0.10771803191900253,-0.03851686418056488,0.00910941045731306,0.0008285646326839924
1772568158435216600,1.759216552734375,-0.07999576612636447,0.003196969410404563,0.05039923089444637,-0.036272354423999786,-0.003677224274724722,-0.005763557739555836
1772568158445289000,1.7692890625,-0.05510726245492696,0.022796572893485426,-0.03960252707004547,-0.02261590212583542,-0.019444044679403305,-0.013424139469861984
1772568158455359700,1.77935986328125,-0.016476795287430287,0.03830233119167387,-0.130113988122344,-0.006204970180988312,-0.015887392684817314,-0.02621450461447239
1772568158465430800,1.7894306640625,-0.01629413219690323,0.05220613418594002,-0.1023299091398716,0.0050385380163788795,-0.0024684350937604904,-0.031353648751974106
1772568158475502800,1.7995029296875,-0.014811638554185628,0.011477087303996086,-0.06449965243935585,0.009447134099900723,0.021392954513430595,-0.032435692846775055
1772568158485574000,1.809573974609375,0.0055211015090346335,0.015783698456734416,0.014245382973551749,0.007921990007162094,0.048024632036685944,-0.03146468102931976
1772568158495645000,1.81964501953125,0.009471008178591728,0.025745778087899088,0.10691840597391128,-0.004629753530025482,0.061689309775829315,-0.030921660363674164
1772568158505716700,1.829716796875,0.009280746303498745,-0.008105199718102812,0.14380290625691414,-0.019471708685159683,0.07311147451400757,-0.02647559344768524
1772568158515787800,1.839787841796875,-0.0044854748509824275,-0.03521305993944406,0.13916530958414078,-0.021831003949046135,0.07729236781597137,-0.024077948182821274
1772568158525859800,1.84985986328125,0.044022097077965734,-0.07015300202593207,0.07913140438199043,-0.032234083861112595,0.06893180310726166,-0.01966920681297779
1772568158535931000,1.859930908203125,0.08756430168449879,-0.08048391496948898,-0.07088204695284366,-0.03377578780055046,0.05832044035196304,-0.01634771190583706
1772568158546001700,1.870001708984375,0.12680968587994576,-0.07826762715950608,-0.18727029206156728,-0.03997422009706497,0.04261334240436554,-0.007574024144560099
1772568158556073700,1.88007373046875,0.12458923335149884,-0.03467752829063683,-0.29801848545670506,-0.03180284425616264,0.04421789571642876,0.014023413881659508
1772568158566144800,1.890144775390625,0.10236717241033912,-0.05774345617741346,-0.24481062688231467,-0.022781778126955032,0.0432165265083313,0.027123840525746346
1772568158576216600,1.900216552734375,0.042037499132007355,-0.044198586156032976,-0.1047825629889965,-0.024711504578590393,0.03986120969057083,0.02270592376589775
1772568158586287600,1.91028759765625,-0.000035217443853616714,-0.0333878538062796,-0.009003975188732147,-0.018751947209239006,0.02872864529490471,0.02698385715484619
1772568158596358700,1.920358642578125,-0.09619900516942143,-0.07587784594614058,0.06840425866246223,-0.02111763320863247,0.02915235236287117,0.03017485700547695
1772568158606430700,1.9304306640625,-0.19171163550987838,-0.08440854106731713,0.19452011705935,-0.032996874302625656,0.027648214250802994,0.02505655586719513
1772568158616501800,1.940501708984375,-0.1580719623669982,-0.0999799850128591,0.13620353716909886,-0.04035358875989914,0.026982691138982773,0.016350416466593742
1772568158626573800,1.95057373046875,-0.13089622454121708,-0.10575882414262741,0.06287292802035808,-0.03933340311050415,0.027131063863635063,0.009272363036870956
1772568158636644900,1.960644775390625,-0.12755845842063426,-0.09646109017170965,-0.010603227078914642,-0.02297866716980934,0.03246990591287613,0.0021745054982602596
1772568158646716000,1.9707158203125,-0.17511808197498321,-0.10093239036686717,-0.007767711392045021,-0.011816340498626232,0.05020969361066818,-0.001910400576889515
1772568158656788000,1.9807880859375,-0.19054960599318146,-0.12451996750757098,0.04129822507202625,-0.013976963236927986,0.06556867063045502,-0.006024718284606934
1772568158666858800,1.990858642578125,-0.13461977510899303,-0.14303941107112914,-0.006317512583732605,-0.026742152869701385,0.05661749467253685,-0.011541793122887611
1772568158676930600,2.0009306640625,0.006922054348140955,-0.1539533845996484,-0.17124153280258178,-0.025851592421531677,0.03633352741599083,-0.007310563698410988
1772568158687001600,2.011001708984375,0.16406959534659982,-0.18739877727944404,-0.28387188668251034,-0.014648091048002243,0.0032377061434090137,0.007512783631682396
1772568158697072600,2.02107275390625,0.25631357927992937,-0.19372703045289963,-0.35156828933656215,-0.0007690275087952614,-0.02718464843928814,0.02546142414212227
1772568158707144700,2.031144775390625,0.3211702284634113,-0.22029190637134013,-0.3947738093346357,0.014048091135919094,-0.03889838233590126,0.046564891934394836
1772568158717215700,2.0412158203125,0.26893369913920756,-0.20524642252866176,-0.26770342669188973,0.014033445157110691,-0.039360709488391876,0.06587520986795425
1772568158727286800,2.051286865234375,0.19102482228949666,-0.2163228931425139,-0.16971768423616884,0.006808778271079063,-0.03429149091243744,0.07711919397115707
1772568158737358800,2.06135888671875,0.11418474371507763,-0.23140534799471496,-0.08077624897956848,0.003591146320104599,-0.018905343487858772,0.07075557112693787
1772568158747430000,2.071429931640625,0.03766571378856897,-0.234112086202763,-0.03096504710614681,0.004714852198958397,-0.013224750757217407,0.06838780641555786
1772568158757502000,2.081501953125,-0.002979308071732521,-0.22822704675216227,-0.054909986317157745,0.010109085589647293,-0.012909965589642525,0.06128595024347305
1772568158767573000,2.091572998046875,-0.05594137519150972,-0.1793116977399215,-0.06053133333027363,0.0094103729352355,-0.022459935396909714,0.05351542681455612
1772568158777643800,2.101643798828125,-0.12011062663272022,-0.1351952734420076,-0.04180032937526702,0.012111085467040539,-0.04368240013718605,0.04626923426985741
1772568158787715600,2.111715576171875,-0.18144304721280932,-0.027454481701925396,-0.03523614855408668,0.013323340564966202,-0.05942242965102196,0.0429324172437191
1772568158797786600,2.12178662109375,-0.22571634257286785,0.04127615937069058,0.041032267612218856,0.006838010624051094,-0.047009702771902084,0.04703794792294502
1772568158807858700,2.131858642578125,-0.24272256856188176,0.09213215758930891,0.16065058068335056,-0.009383363649249077,-0.02408282645046711,0.04973436892032623
1772568158817929700,2.1419296875,-0.22620982517823576,0.11658329275678843,0.1992249337494373,-0.021767329424619675,-0.00678532849997282,0.048189736902713776
1772568158828000800,2.152000732421875,-0.1915941466100514,0.11541600254308432,0.16458558204472065,-0.01937464438378811,0.00027750059962272644,0.04293164238333702
1772568158838072800,2.16207275390625,-0.12165697929188608,0.07745119621008634,0.008333528581261634,-0.008556084707379341,0.0027265436947345734,0.032774075865745544
1772568158848144000,2.172143798828125,-0.05328706129044294,0.004603329076990485,-0.1256874038517475,0.0013553109019994736,0.0005391109734773636,0.025025032460689545
1772568158858216000,2.1822158203125,0.014206220006942749,-0.04561272727027535,-0.20499767193198204,0.01655024290084839,0.02289741300046444,0.016188129782676697
1772568158868287000,2.192286865234375,0.06820800543799996,-0.06170092509891838,-0.1277086805462837,0.01267982553690672,0.04267100244760513,0.014376094564795494
1772568158878357800,2.202357666015625,0.09310498467683792,-0.0513762592330575,-0.012372574838995933,-0.000006142072379589081,0.05178806930780411,0.01759905181825161
1772568158888429800,2.212429931640625,0.1080560317017138,-0.053366154408641155,-0.012711597535014153,-0.0118755754083395,0.04867936298251152,0.014259054325520992
1772568158898500600,2.22250048828125,0.0883873085051775,-0.02511949941571802,-0.03731120126247406,-0.021128196269273758,0.040396664291620255,0.016944319009780884
1772568158908572700,2.23257275390625,0.04842778469100594,-0.032614056422188877,-0.07799860095977783,-0.024996668100357056,0.022077692672610283,0.01217208243906498
1772568158918643700,2.242643798828125,0.02131912075206637,0.006558810526318848,-0.17782909449934958,-0.01593659445643425,-0.00751854944974184,0.006199145223945379
1772568158928714800,2.25271484375,0.01830488749742508,0.057510962595790624,-0.26841303626596924,-0.00013359729200601578,-0.033826038241386414,0.0033340174704790115
1772568158938786800,2.262786865234375,-0.011430910074710846,0.11416823097169398,-0.24638591337502,0.014255463145673275,-0.047557033598423004,0.002630143892019987
1772568158948857900,2.27285791015625,-0.0934181422792375,0.1049405665623024,-0.13522037135064602,0.016490388661623,-0.050507813692092896,0.0014325203374028206
1772568158958929000,2.282928955078125,-0.16354747116863727,0.049211665077693756,0.004431844967603683,0.00946683157235384,-0.033173296600580215,-0.013630053028464317
1772568158969000700,2.293000732421875,-0.18268398718461393,-0.0036795287629589435,0.10846621993780135,-0.0043191853910684586,-0.010241225361824036,-0.018672963604331017
1772568158979071700,2.30307177734375,-0.1809744067877531,-0.06011723610404879,0.1574725351691246,-0.014921496622264385,0.011089896783232689,-0.03147211670875549
1772568158989143800,2.313143798828125,-0.1466265853755176,-0.06590750994328409,0.11440788494646549,-0.016367465257644653,0.02745579183101654,-0.0364413745701313
1772568158999214800,2.32321484375,-0.0990288217678666,-0.025588797427900135,0.052097851505875585,-0.020055677741765976,0.032304611057043076,-0.03541339561343193
1772568159009285600,2.33328564453125,-0.05149272521957755,-0.019382307470589874,0.01561433323919773,-0.023359425365924835,0.01985553652048111,-0.03512156009674072
1772568159019357700,2.343357666015625,-0.0037714813627302644,0.002362162554077804,-0.043159927290678024,-0.021842489019036293,-0.0016484232619404793,-0.03275028243660927
1772568159029428700,2.3534287109375,0.042526159431785344,-0.025907690651342272,-0.1320885030657053,-0.01702651008963585,-0.019045164808630943,-0.027037713676691055
1772568159039500800,2.363500732421875,0.08978855360522865,-0.05078037569914013,-0.17375380788445471,-0.005285963416099548,-0.02179061807692051,-0.01984318345785141
1772568159049571800,2.37357177734375,0.11505261259078979,-0.10576810342762619,-0.17524726131260393,0.002350384369492531,-0.009207447990775108,-0.012445188127458096
1772568159059643000,2.383642822265625,0.10109013821184634,-0.1543003348737955,-0.06804945387542248,0.005959765985608101,0.020174408331513405,-0.0022615259513258934
1772568159069714700,2.393714599609375,0.09184826261401176,-0.1796302256371826,0.02689092953503132,-0.0027432283386588097,0.04885845258831978,0.008318123407661915
1772568159079785700,2.40378564453125,0.04567088719829917,-0.18664258861728011,0.048102059867978095,-0.019426068291068077,0.06291434913873672,0.013887591660022736
1772568159089857800,2.41385791015625,0.061236412859708066,-0.1917056806931272,-0.05593757579922676,-0.02785002440214157,0.042556967586278915,0.016799312084913254
1772568159099928800,2.4239287109375,0.11426569999679922,-0.17953757891766725,-0.2677022576481104,-0.01617499068379402,0.021208804100751877,0.016273070126771927
1772568159109999900,2.433999755859375,0.1453567115701735,-0.15079470137301831,-0.35221360150277614,0.00029966142028570175,-0.0029767313972115517,0.025672337040305138
1772568159120072000,2.444072021484375,0.12392419357150793,-0.05876410446204245,-0.30166590204834937,0.0049010710790753365,-0.030782530084252357,0.02941194921731949
1772568159130142700,2.454142822265625,0.07407046773061156,-0.007646898023970425,-0.23340309768319129,0.001522507518529892,-0.044199664145708084,0.03177505359053612
1772568159140214800,2.46421484375,0.03946180342510342,0.015679324766807258,-0.18532851034402847,0.005863991566002369,-0.06101140007376671,0.03238758072257042
1772568159150285800,2.474285888671875,-0.028399580532312393,0.04562500222995877,-0.1402010823726654,0.007595318369567394,-0.06477928906679153,0.030828304588794708
1772568159160356900,2.48435693359375,-0.10581716673374175,0.04506426307465881,-0.08479542149305343,0.004512975923717022,-0.06547490507364273,0.01849227584898472
1772568159170428700,2.4944287109375,-0.15971505339890718,0.05852762882504612,-0.040941666719317434,-0.0023206956684589386,-0.05806173384189606,0.0038440916687250137
1772568159180499700,2.504499755859375,-0.17031769595593213,0.06254932208918035,-0.003509469425678253,-0.010762649588286877,-0.05413809418678284,-0.012866444885730743
1772568159190571800,2.51457177734375,-0.13838570351377127,0.05272380138449371,-0.00206043966114521,-0.015916619449853897,-0.054081257432699203,-0.023737449198961258
1772568159200642800,2.524642822265625,-0.10985402103438972,0.07177479454148561,0.03963058412075043,-0.016245519742369652,-0.05545464903116226,-0.03242601081728935
1772568159210713900,2.5347138671875,-0.06502674505338073,0.04501399419214576,0.03289046221077442,-0.014446187764406204,-0.06179582700133324,-0.04027935117483139
1772568159220786000,2.544785888671875,-0.015329232687503098,0.045670850665681065,0.031498715591430665,-0.015578830614686012,-0.055177606642246246,-0.04540487378835678
1772568159230857000,2.55485693359375,0.02833732895106077,0.02377886192910373,0.03199731276333332,-0.012859261594712734,-0.053507283329963684,-0.04596016928553581
1772568159240927700,2.564927734375,0.09725962013825773,-0.009280198314227163,0.005885550907254219,-0.010231520980596542,-0.04037683457136154,-0.04235025495290756
1772568159250999800,2.574999755859375,0.16165829642117022,-0.03634633828569203,0.017440964144468305,-0.016121959313750267,-0.025329185649752617,-0.03411232680082321
1772568159261070800,2.58507080078125,0.2458430386699736,-0.06416260250471532,0.018680735072493553,-0.02142377942800522,-0.012247204780578613,-0.025244800373911858
1772568159271142700,2.595142578125,0.3093864132978022,-0.09651508538126945,-0.02177694752216339,-0.019202305004000664,-0.0023839501664042473,-0.013160774484276772
1772568159281213700,2.605213623046875,0.2974751723602414,-0.12294482714533805,-0.003369184172153473,-0.013089017942547798,0.01291298121213913,-0.003155278507620096
1772568159291284700,2.61528466796875,0.24007497666254637,-0.14497721073329448,0.005696750336885452,-0.013236365281045437,0.03594616428017616,-0.00047764088958501816
1772568159301356800,2.625356689453125,0.155393244677037,-0.13760638970434666,0.0366384165674448,-0.01744442619383335,0.057800065726041794,-0.0007988177239894867
1772568159311427800,2.635427734375,0.07000044181272387,-0.1436191106552258,-0.01998188079893589,-0.013298392295837402,0.06537079811096191,-0.009419325739145279
1772568159321500000,2.6455,0.020924276215583085,-0.13275471188947557,-0.11049158828556536,-0.005130477249622345,0.07193655520677567,-0.01785062626004219
1772568159331571000,2.655571044921875,-0.04179652998298406,-0.08282905332352966,-0.09437281265556811,-0.003757258877158165,0.07118598371744156,-0.02175850234925747
1772568159341641700,2.665641845703125,-0.08698752470985055,-0.07011409478764981,-0.08193126423358917,-0.011405590921640396,0.06319516897201538,-0.02584911696612835
1772568159351713800,2.6757138671875,-0.10462868760153651,-0.056577225409634405,-0.06997662254571914,-0.015894224867224693,0.049110010266304016,-0.025044117122888565
1772568159361784600,2.68578466796875,-0.12219795430079101,-0.013184475743770598,-0.04516308380663395,-0.02212495729327202,0.02908383496105671,-0.023404940962791443
1772568159371856600,2.695856689453125,-0.1162745556011796,0.009518537114746869,-0.08030512433648108,-0.023107659071683884,0.007576094474643469,-0.02362251654267311
1772568159381927700,2.705927734375,-0.08761793156787753,0.041315687663480635,-0.14191431603133678,-0.020725462585687637,-0.010891595855355263,-0.0257200226187706
1772568159391998700,2.715998779296875,-0.04322743956893682,0.0453605791401118,-0.16212766749858856,-0.019191747531294823,-0.0310226958245039,-0.026182346045970917
1772568159402071800,2.72607177734375,-0.018473960454016922,0.024125410344451665,-0.14746084424257278,-0.01724337786436081,-0.04195789992809296,-0.026308313012123108
1772568159412142800,2.736142822265625,-0.017381635172665118,-0.027902663860842582,-0.17204525040090082,-0.012463876977562904,-0.061954207718372345,-0.02519368566572666
1772568159422214700,2.746214599609375,-0.04568389281034469,-0.05821827061492949,-0.17978315117657184,-0.0016029737889766693,-0.0744476318359375,-0.02758334018290043
1772568159432285700,2.75628564453125,-0.01016454340070486,-0.09686006289403885,-0.21690788995623586,0.010006929747760296,-0.06304549425840378,-0.024936234578490257
1772568159442356700,2.766356689453125,-0.019597119265049694,-0.09348802917767315,-0.1263151803612709,0.007582121528685093,-0.04610752686858177,-0.027007905766367912
1772568159452428800,2.7764287109375,-0.006469926666468381,-0.09893931685350835,-0.08949030131101608,-0.0018326090648770332,-0.027542719617486,-0.02475256472826004
1772568159462499800,2.786499755859375,0.007829378451406955,-0.1371132358925417,-0.038702363359928126,-0.004885656759142876,-0.01712709665298462,-0.02204332873225212
1772568159472572000,2.796572021484375,0.032936201048642394,-0.13260050770845264,-0.014803601378202438,-0.010339690372347832,-0.02368324063718319,-0.014837417751550674
1772568159482643000,2.806642822265625,0.08589505329802632,-0.09715937463417648,-0.052019525572657585,-0.01514536514878273,-0.04052373766899109,-0.005689992103725672
1772568159492714000,2.8167138671875,0.11854615379497409,-0.08569401430059224,-0.04589899686574936,-0.012618611566722393,-0.06088543310761452,-0.004403989762067795
1772568159502786000,2.8267861328125,0.11428674278482794,-0.055204000827670095,-0.07357201668918133,-0.005050706677138805,-0.06082471087574959,-0.00003427499905228615
1772568159512856800,2.83685693359375,0.09955679116472602,-0.02219637851063162,-0.037981063348054886,-0.00353243388235569,-0.048109233379364014,0.0211517084389925
1772568159522928600,2.8469287109375,0.0073173372760415075,0.015661642979644237,0.030033903735876083,0.0003437977284193039,-0.016655171290040016,0.01537744328379631
1772568159532999700,2.856999755859375,-0.051623950383812185,0.00147317782510072,0.11064882467389106,0.0005682213231921196,-0.0013315179385244846,0.006140893325209618
1772568159543070700,2.86707080078125,-0.08852291758358478,-0.029595804579555986,0.04207037848830223,-0.006582632660865784,0.023181546479463577,0.011439519003033638
1772568159553142800,2.877142822265625,-0.13004384549558162,-0.051812422160618,0.04340834909379482,-0.01361971814185381,0.030065882951021194,0.00759846530854702
1772568159563213800,2.8872138671875,-0.07303805594295262,-0.03472374205254018,0.01119067157804966,-0.018684251233935356,0.028071440756320953,0.0018359175883233547
1772568159573286000,2.897285888671875,-0.0184292445294559,-0.04680822066515684,-0.03509761686623096,-0.015302998945116997,0.017750702798366547,0.0005536605603992939
1772568159583357000,2.90735693359375,0.04038286379277706,-0.027477497251331806,-0.060550622552633285,-0.010235803201794624,0.0061180139891803265,-0.00008017197251319885
1772568159593428000,2.917427978515625,0.07421060685366392,-0.027891996336355803,-0.08826163629889487,-0.011895805597305298,0.002849238459020853,0.006487686652690172
1772568159603499800,2.927499755859375,0.09816928232908248,-0.0425643725503236,-0.10033668949604034,-0.003587542101740837,0.0022284556180238724,0.011311469599604607
1772568159613570800,2.93757080078125,0.09614435237273573,-0.08030095961801707,-0.11820610818564892,0.004373645409941673,0.008828768506646156,0.013287642039358616
1772568159623641900,2.947641845703125,0.08358706861659884,-0.08100808497406542,-0.16302607764303684,0.00778195820748806,0.00011623790487647057,0.013008542358875275
1772568159633713700,2.957713623046875,0.1065371515713632,-0.05135514337979257,-0.20663491774499415,0.014755179174244404,-0.017092525959014893,0.01320907287299633
1772568159643784700,2.96778466796875,0.11030468741133809,-0.006718640730530023,-0.22022388263642786,0.020045816898345947,-0.03092045709490776,0.01338457502424717
1772568159653856800,2.977856689453125,0.08825696012377739,0.0014151640275493263,-0.14284195227026938,0.021155454218387604,-0.04264621436595917,0.016362471505999565
1772568159663927800,2.987927734375,0.050516865924745795,-0.021835107450187206,-0.005178863942623138,0.015404093079268932,-0.03904988244175911,0.016124917194247246
1772568159674000000,2.997999755859375,-0.011191402230411767,-0.04462850200589746,0.09933540349900721,0.006863432936370373,-0.02478373423218727,0.015533478930592537
1772568159684071000,3.00807080078125,-0.036243279770016665,-0.08919394871294498,0.12539748099446296,0.002437260001897812,-0.0018094428814947605,0.012109719216823578
1772568159694142000,3.018141845703125,-0.01696793980523944,-0.07485770911816507,0.08410977731645107,-0.0004371367394924164,0.013885250315070152,0.007208152208477259
1772568159704213800,3.0282138671875,0.018450725708901883,-0.035290253361500795,0.025431962898373604,0.01166400033980608,0.030405104160308838,0.011043637059628963
1772568159714284800,3.038284912109375,0.05210559642091393,-0.006019150691665708,-0.03860299463868141,0.021847005933523178,0.040911201387643814,0.015800120308995247
1772568159724355800,3.04835595703125,0.021087796214222906,0.04722198909781873,0.005758125135302544,0.023447301238775253,0.052714861929416656,0.020720576867461205
1772568159734428000,3.058427978515625,-0.034276948133110996,0.0656301543066278,0.05956278055906295,0.006467469967901707,0.05552981048822403,0.0235565435141325
1772568159744498700,3.068498779296875,-0.06143719612881541,0.029724618590995667,0.027562545186281203,-0.0027958033606410027,0.04973769932985306,0.015272781252861023
1772568159754570800,3.07857080078125,-0.08858838403522967,-0.002922572915814817,-0.02301262679696083,-0.003006397746503353,0.038930926471948624,0.007604904472827911
1772568159764641800,3.088641845703125,-0.10154460398107766,-0.029113318292237816,-0.11262392413914203,-0.003042084164917469,0.02336927503347397,-0.0005105459131300449
1772568159774712800,3.098712890625,-0.09511457093358039,-0.02281582558322698,-0.19217384619414804,0.004069969058036804,0.014645900577306747,-0.010532631538808346
1772568159784785000,3.108784912109375,-0.06987184699699282,0.007516403512097895,-0.18925883553028106,0.0024955086410045624,0.011080726981163025,-0.011073785834014416
1772568159794856000,3.11885595703125,-0.03110620914250612,0.04320731009636074,-0.1529097572982311,0.0008162669837474823,0.004246230702847242,-0.006967390887439251
1772568159804927700,3.128927734375,0.024729805978387594,0.010464841521531343,-0.12518003885149956,0.0014146789908409119,0.00332850543782115,-0.0015438627451658249
1772568159814998800,3.138998779296875,0.060225920642912385,-0.01492452434413135,-0.10896773971915244,0.00011084415018558502,-0.0004980769008398056,0.006191838998347521
1772568159825069800,3.14906982421875,0.04511164588034153,-0.0302230696324259,-0.11014847393631934,-0.004563003778457642,-0.013684187084436417,0.006464546546339989
1772568159835142000,3.159141845703125,0.041242695492506025,-0.07178907879516482,-0.198619369071722,-0.015525204129517078,-0.02894321084022522,0.00591349508613348
1772568159845213000,3.169212890625,0.02966886981576681,-0.05698942293971777,-0.2594704358756542,-0.012775756418704987,-0.052926577627658844,0.001978408545255661
1772568159855285000,3.179284912109375,0.01843552813977003,-0.03487648492883891,-0.3270247997105121,-0.0027253245934844017,-0.07409919798374176,-0.0019126413390040398
1772568159865355800,3.189355712890625,-0.03197100927829742,-0.012158201435953378,-0.31042496256530283,0.01455486286431551,-0.09100068360567093,-0.007821130566298962
1772568159875426800,3.1994267578125,-0.12588818712085484,0.006212992763333022,-0.2678220846354961,0.018635619431734085,-0.103177510201931,-0.017553910613059998
1772568159885499000,3.209498779296875,-0.21930486809536814,-0.012584208295680582,-0.31219431032538414,0.014850202016532421,-0.12111363559961319,-0.030842818319797516
1772568159895570000,3.21956982421875,-0.26184914770573375,-0.09020772886537015,-0.44103520977199073,0.03167274221777916,-0.1386856734752655,-0.048738930374383926
1772568159905641700,3.229641845703125,-0.2423468671172857,-0.06996792778261006,-0.3919371246039867,0.04712706431746483,-0.13599002361297607,-0.05353395268321037
1772568159915712800,3.239712646484375,-0.2044911837145686,-0.04828227527309209,-0.24132453833222386,0.04366156458854675,-0.15567535161972046,-0.05262777581810951
1772568159925783800,3.24978369140625,-0.17969518063217402,0.018778386760689318,-0.12790332633554935,0.032783083617687225,-0.17492520809173584,-0.050352368503808975
1772568159935855900,3.25985595703125,-0.1322134446196258,0.059299489980377255,-0.016261398971080778,0.02751818671822548,-0.183450385928154,-0.04953509941697121
1772568159945927000,3.269927001953125,-0.09325184580162167,0.09241185131352395,0.09404664944112301,0.03190627694129944,-0.1830999106168747,-0.04757634177803993
1772568159955999000,3.2799990234375,-0.07494198986813426,0.08298702036421746,0.1929693804860115,0.03715170547366142,-0.16534006595611572,-0.04099497199058533
1772568159966070000,3.290070068359375,-0.06485197300836444,0.04458429753798991,0.2831459104955196,0.03601879999041557,-0.12920497357845306,-0.03495465964078903
1772568159976140800,3.300140869140625,-0.08438684069216251,-0.03507124031595885,0.34405250687897204,0.03889922797679901,-0.07365133613348007,-0.034570641815662384
1772568159986212600,3.310212646484375,-0.054162821211665865,-0.11751016181074082,0.43058863455951213,0.025141868740320206,-0.005518883466720581,-0.03820479288697243
1772568159996283600,3.32028369140625,-0.008068740165233611,-0.10341931181177497,0.5083201090157031,0.00023157894611358643,0.044044170528650284,-0.040469080209732056
1772568160006355700,3.330355712890625,0.031305238845944404,-0.1021085214741528,0.44198622688651085,-0.018725333735346794,0.08312365412712097,-0.04055669903755188
1772568160016426800,3.3404267578125,0.08882116987779735,-0.1038981813699007,0.25722528729736804,-0.02930344082415104,0.09098829329013824,-0.04636358842253685
1772568160026498800,3.350498779296875,0.15240648395121098,-0.048618375359661875,0.03742810564041137,-0.025313759222626686,0.08251091837882996,-0.04754896089434624
1772568160036569900,3.36056982421875,0.14263050147667528,0.010539441127702593,-0.09486790269613266,-0.014084191992878914,0.05854284390807152,-0.04686252027750015
1772568160046641000,3.370640869140625,0.12160364166945219,0.06840623142383992,-0.2087503024637699,-0.007080611307173967,0.018946168944239616,-0.049883875995874405
1772568160056713000,3.380712890625,0.0880322114571929,0.08522964819185436,-0.27353870871663094,-0.0008601201698184013,-0.01733335107564926,-0.055460989475250244
1772568160066784000,3.390783935546875,0.040093963848799465,0.058445101640746,-0.27461890516877174,0.005963431671261787,-0.0394144169986248,-0.06677942723035812
1772568160076855800,3.400855712890625,-0.04686170441806316,0.043254071847535665,-0.2542214293062687,0.017360787838697433,-0.05016366019845009,-0.07866638898849487
1772568160086926800,3.4109267578125,-0.09392609180137515,-0.00787376558240503,-0.2897872482061386,0.02029958739876747,-0.04582004249095917,-0.09386930614709854
1772568160096997600,3.42099755859375,-0.05905453877598047,-0.0059949295658618205,-0.2572451610416174,0.013927712105214596,-0.041285693645477295,-0.09789388626813889
1772568160107069700,3.431069580078125,-0.006792144358158111,0.0491748036660254,-0.2331710424929857,0.003157355822622776,-0.056933362036943436,-0.0963311493396759
1772568160117140700,3.441140625,0.07346081139966845,0.03482018816433847,-0.2400602174848318,0.004938889294862747,-0.0977679044008255,-0.08794291317462921
1772568160127212800,3.451212890625,0.13264920568838715,0.017762085857614875,-0.26857436430752274,0.013484973460435867,-0.13194264471530914,-0.07479435950517654
1772568160137283800,3.461283935546875,0.11989435353353618,-0.004907207394391298,-0.22764088089466095,0.0316605381667614,-0.15104353427886963,-0.07185034453868866
1772568160147355000,3.47135498046875,0.022404139509797093,-0.004375365540012717,-0.06593874533176422,0.03905986621975899,-0.1537836492061615,-0.06725932657718658
1772568160157427000,3.481427001953125,0.06112783791869878,-0.11373170271795242,0.020039163944125173,0.03983850032091141,-0.1280023604631424,-0.058945901691913605
1772568160167498000,3.491498046875,0.0061652446314692496,-0.14911646596249192,0.1668570341080427,0.035313256084918976,-0.09627105295658112,-0.04566338658332825
1772568160177569800,3.50156982421875,-0.13660247335880993,-0.20629947524555026,0.32653906202018257,0.016607902944087982,-0.06450828909873962,-0.04023057222366333
1772568160187640800,3.511640869140625,-0.06469532114192843,-0.2904070971375331,0.2611976980596781,-0.002743157558143139,-0.03929055482149124,-0.05273943766951561
1772568160197711600,3.521711669921875,0.028141514118015763,-0.25235665834769605,0.16038520774543286,-0.009638819843530655,-0.03229906037449837,-0.06424881517887115
1772568160207784000,3.531783935546875,0.11347323444485664,-0.19842852267473934,-0.04092179297506809,-0.001888222061097622,-0.025623582303524017,-0.05578608810901642
1772568160217854700,3.541854736328125,0.04192512479871511,-0.12426621194221078,-0.05419219343662262,-0.007503401022404432,-0.017814267426729202,-0.06229320541024208
1772568160227926800,3.5519267578125,0.047452363787591455,-0.06866320185959339,-0.0489554618269205,-0.009620880708098412,-0.02533077262341976,-0.03154647722840309
1772568160237997800,3.561997802734375,0.006282295139878988,-0.17011121359840034,-0.12598083384037018,-0.009347669780254364,-0.031187010928988457,-0.019995950162410736
1772568160248068900,3.57206884765625,0.05293152585104108,-0.044270811142027376,-0.09149287330508231,-0.017063645645976067,-0.02459808439016342,-0.011037610471248627
1772568160258141000,3.582140869140625,0.05321443444564938,-0.08726802215166389,-0.07171440612375736,-0.015035496093332767,-0.02218310721218586,-0.009751510806381702
1772568160268212000,3.5922119140625,0.012831132261455058,-0.07545932827312499,-0.055743514531850814,-0.012232519686222076,-0.0186456311494112,-0.00913472194224596
1772568160278283800,3.60228369140625,-0.018701339469105006,-0.10067304531093686,-0.028205519264936446,-0.015288040041923523,-0.004292535595595837,-0.011060085147619247
1772568160288354800,3.612354736328125,-0.0791359344266355,-0.101953330912441,0.05454349109232425,-0.01652907207608223,-0.005133029073476791,-0.020243462175130844
1772568160298425900,3.62242578125,-0.0435891124881804,-0.13353508514482526,-0.02109773308634758,-0.012552507221698761,-0.010529286228120327,-0.03928826004266739
1772568160308498000,3.632497802734375,-0.013939970286190508,-0.06446414273455739,-0.11202420468032359,0.00372872781008482,-0.013456366956233978,-0.050352632999420166
1772568160318568700,3.642568603515625,-0.03103343616724014,0.021901925608702,-0.1256792205452919,0.01082130242139101,0.0036794720217585564,-0.051586881279945374
1772568160328641000,3.65264111328125,-0.07573445542007684,0.049122452424280344,0.030048516783118245,-0.0019956929609179497,0.03935198113322258,-0.04535987973213196
1772568160338711800,3.6627119140625,-0.12669263537153602,0.046488669854588806,0.1912573158711195,-0.0318896546959877,0.07302328944206238,-0.04586946219205856
1772568160348783600,3.67278369140625,-0.07663695721775293,-0.03841781079750508,0.29488252551853655,-0.05252488702535629,0.08369085192680359,-0.048116639256477356
1772568160358854700,3.682854736328125,0.019735650952905415,-0.07398151080552488,0.2119564050287008,-0.06248103082180023,0.06701208651065826,-0.048386089503765106
1772568160368925700,3.69292578125,0.12156433257237076,-0.12828626123853026,0.039004561176896095,-0.0657748281955719,0.05117160081863403,-0.04948011413216591
1772568160378997800,3.702997802734375,0.25556042282506825,-0.13643120844513176,-0.10074293220937251,-0.04485665634274483,0.0250582005828619,-0.04470956325531006
1772568160389068800,3.71306884765625,0.27447116726115345,-0.10455006940737366,-0.2494751115620136,-0.011854230426251888,0.00015098648145794868,-0.0205317884683609
1772568160399140900,3.723140869140625,0.29139556018561125,-0.14745602193698287,-0.3014437837302685,0.013292739167809486,-0.010954166762530804,-0.0003206208348274231
1772568160409212000,3.7332119140625,0.2429698213212192,-0.15743589295316487,-0.20588672972619532,0.020018285140395164,0.004461008124053478,0.013321422040462494
1772568160419283000,3.743282958984375,0.14336509936153888,-0.20519743228778242,-0.03639233285188675,0.011256743222475052,0.03199990838766098,0.015234114602208138
1772568160429355000,3.75335498046875,0.05742123848572373,-0.20464516869988292,0.07564239322245121,0.003263799473643303,0.06449020653963089,0.014683639630675316
1772568160439426000,3.763426025390625,-0.04168751665055752,-0.1977105471311137,0.09644435823261738,-0.0030103102326393127,0.08704553544521332,0.013264309614896774
1772568160449497900,3.773497802734375,-0.1088973048314452,-0.17796528809964657,0.04525426922142505,-0.012931650504469872,0.10088438540697098,0.010196348652243614
1772568160459569000,3.78356884765625,-0.18158508603200316,-0.14910652909036726,0.029772622451186177,-0.028775477781891823,0.10218136757612228,0.0036646113730967045
1772568160469640000,3.793639892578125,-0.20694690630361437,-0.10762849047202616,0.012814473387598991,-0.04339649900794029,0.07936234027147293,-0.0021847551688551903
1772568160479712000,3.8037119140625,-0.13893617700338362,-0.04645699607469141,-0.11026187118291854,-0.04274909943342209,0.03929736092686653,-0.0010267025791108608
1772568160489783000,3.813782958984375,-0.04563830010294914,-0.005829363740608095,-0.2312286762535572,-0.028936350718140602,-0.0035915160551667213,0.008023517206311226
1772568160499855000,3.823855224609375,0.024923428854346275,0.004375109811685979,-0.30219664792418477,-0.015026399865746498,-0.0389680452644825,0.014137058518826962
1772568160509926000,3.83392578125,0.060402300123125315,-0.023249212031811475,-0.3121902186721563,0.0055374642834067345,-0.056170202791690826,0.014170082286000252
1772568160519997000,3.843996826171875,0.0811740161255002,-0.05570278066266328,-0.30216683730781074,0.017015907913446426,-0.057954736053943634,0.015148522332310677
1772568160530069000,3.854069091796875,0.03029489275962114,-0.04589413802754134,-0.15849018777906893,0.020424488931894302,-0.05536321550607681,0.01562416274100542
1772568160540140000,3.86414013671875,-0.008137129226326941,-0.05962769902143627,-0.09188391844928263,0.01837076060473919,-0.04256676509976387,0.013676095753908157
1772568160550211800,3.8742119140625,-0.05471753248497843,-0.0655295434763655,0.0037859482795000073,0.003481293097138405,-0.029960157349705696,0.010277902707457542
1772568160560283000,3.884282958984375,-0.05932736436799168,-0.09122702544312923,0.0667372022330761,-0.006249129772186279,-0.02066279575228691,0.006945093162357807
1772568160570354000,3.89435400390625,-0.046271629570424556,-0.10535853624604642,0.060447746700048446,-0.003975588828325272,-0.010435458272695541,0.0022568642161786556
1772568160580426000,3.904426025390625,-0.044591421398520466,-0.0942309930320829,0.07599252183437347,-0.004369658417999744,0.006591524463146925,0.0022239950485527515
1772568160590497000,3.9144970703125,-0.013279752811789511,-0.09799834620896726,0.05415419951379299,-0.013623077422380447,0.011500796303153038,-0.0005451594479382038
1772568160600569000,3.924569091796875,0.03335676454827189,-0.04545892494805157,-0.0505459458887577,-0.019803693518042564,0.011086205020546913,0.0007670056074857712
1772568160610640100,3.93464013671875,0.0954191068381071,-0.03967486165389418,-0.17677753961980341,-0.011147887445986271,-0.0018746017012745142,0.004122855141758919
1772568160620711000,3.9447109375,0.10938304252177476,-0.02487926091905683,-0.23601883313953875,0.007879669778048992,-0.008356290869414806,0.01081103179603815
1772568160630782700,3.95478271484375,0.0941108007185161,-0.03681475951503962,-0.21287351987361908,0.020154710859060287,-0.002131684450432658,0.0185397919267416
1772568160640853800,3.964853759765625,0.02641965876147151,-0.04816277707926929,-0.04867313775420189,0.008179882541298866,0.019588002935051918,0.028972089290618896
1772568160650925800,3.97492578125,-0.028217940355092286,-0.08305182922873645,0.11567746649086474,-0.008600162342190742,0.03939606249332428,0.03249651566147804
1772568160660996900,3.984996826171875,-0.05545256876125931,-0.0768190723190084,0.1707259844958782,-0.029196232557296753,0.0420239195227623,0.035304442048072815
1772568160671068000,3.99506787109375,-0.0766191293001175,-0.06874350055418908,0.08893792812526226,-0.03912077099084854,0.025773577392101288,0.03252356871962547
1772568160681139000,4.005138916015625,-0.08452814885899423,-0.05221238126363605,-0.071263739746809,-0.03363232687115669,0.0019381064921617508,0.024744827300310135
1772568160691210000,4.0152099609375,-0.05503580465391278,-0.05124554552547633,-0.1670265454560518,-0.031532421708106995,-0.018565038219094276,0.018548715859651566
1772568160701282000,4.025281982421875,-0.044965223146975035,-0.024628062636964022,-0.19194412909150121,-0.021696504205465317,-0.03336389362812042,0.013895802199840546
1772568160711353000,4.03535302734375,-0.05958177752047777,-0.026853374003618955,-0.19676935729086398,-0.02026505582034588,-0.051006004214286804,0.01265743188560009
1772568160721425200,4.045425048828125,-0.03954422101154923,-0.07492050868868827,-0.18737609052360057,-0.011610018089413643,-0.04659068584442139,0.011888734996318817
1772568160731496000,4.055495849609375,-0.04161576658859849,-0.08206197794117033,-0.08668634980618953,-0.008089586161077023,-0.040386319160461426,0.012845076620578766
1772568160741567000,4.06556689453125,-0.02059709008783102,-0.10472827551849186,0.005079495221376419,-0.002529946155846119,-0.02604285068809986,0.023239798843860626
1772568160751638800,4.075638671875,-0.004313187023997306,-0.12882263313755393,0.13097557338774204,-0.00003323238343000412,-0.010830342769622803,0.027204446494579315
1772568160761709800,4.085709716796875,0.015145692814141512,-0.13586787547394633,0.1814443623870611,-0.006302023306488991,-0.0020721065811812878,0.03608463704586029
1772568160771782000,4.095781982421875,0.05373173631802201,-0.17082736251112074,0.1369979024171829,-0.01989106833934784,-0.008249841630458832,0.04320007190108299
1772568160781853000,4.10585302734375,0.12284896555542946,-0.19782496729101984,0.0010766893208026885,-0.028885217383503914,-0.01852678880095482,0.05359473079442978
1772568160791924000,4.115924072265625,0.20478870535641908,-0.2087968450192362,-0.14895663575828075,-0.01707143522799015,-0.030784253031015396,0.06393445283174515
1772568160801996000,4.12599609375,0.24508038373440502,-0.1901630543610081,-0.22517536756396292,0.0016953758895397186,-0.046275798231363297,0.07383238524198532
1772568160812067000,4.136067138671875,0.2332837090872228,-0.2229211588963866,-0.29177170002162456,0.024605751037597656,-0.05555824562907219,0.08156859874725342
1772568160822139100,4.14613916015625,0.2014060771808028,-0.20531853791680185,-0.2592874805241823,0.029610533267259598,-0.05204353481531143,0.08663468062877655
1772568160832210200,4.156210205078125,0.11565496239811181,-0.18133502026107162,-0.1520522636860609,0.026045892387628555,-0.03393696993589401,0.08507193624973297
1772568160842281000,4.166281005859375,0.02634878548234701,-0.170443806553632,-0.0384989497423172,0.022196464240550995,-0.014540227130055428,0.08186996728181839
1772568160852352800,4.176352783203125,-0.05133724239692092,-0.12049915102627128,0.03952887731194496,0.01379818469285965,0.0009548421949148178,0.07535693794488907
1772568160862423800,4.186423828125,-0.031481033804267644,-0.11415263154376297,0.01674362953007221,0.00850563682615757,0.010732041671872139,0.06544090062379837
1772568160872495900,4.196495849609375,0.00936725554317236,-0.04882704967427998,0.01668868447244167,0.008696852251887321,0.013674302026629448,0.06170501932501793
1772568160882567000,4.20656689453125,0.02777092723995447,0.0021529402501881123,0.03711947808265686,0.014320019632577896,0.001620924100279808,0.0633753091096878
1772568160892638000,4.216637939453125,0.029453473499417303,0.00007357669286429881,0.029517186385393142,0.016527513042092323,-0.0054713403806090355,0.06335320323705673
1772568160902710000,4.2267099609375,0.04180412876754999,-0.008274638000875712,0.05462649320065975,0.009863315150141716,-0.019496750086545944,0.05475524067878723
1772568160912781000,4.236781005859375,0.08196911202594638,-0.02772244845572859,0.01166471883058548,0.005639275535941124,-0.030586419627070427,0.042692188173532486
1772568160922853000,4.24685302734375,0.12360182974934578,-0.019631825252249834,-0.08409341070353984,0.017845753580331802,-0.030806157737970352,0.03476029634475708
1772568160932924200,4.256924072265625,0.14217822766453028,-0.03833513748273253,-0.1654232019126415,0.0376996211707592,-0.015451967716217041,0.029820401221513748
1772568160942995000,4.266994873046875,0.1555539881967008,-0.04735854802429676,-0.13512567880451679,0.046490177512168884,0.03252695873379707,0.030479274690151215
1772568160953067000,4.27706689453125,0.13173632862716914,-0.04956405871193856,-0.05226619381010532,0.039990734308958054,0.08171767741441727,0.03314589709043503
1772568160963137800,4.2871376953125,0.13770955781787633,-0.05725015623513609,0.009647533789277076,0.02390855923295021,0.1188022643327713,0.0411590039730072
1772568160973209900,4.2972099609375,0.1558982715897262,-0.08109298677854239,0.013685411003232001,0.013876698911190033,0.13544224202632904,0.049896303564310074
1772568160983281000,4.307281005859375,0.16049217525124548,-0.10121727172285318,-0.0468774865090847,0.014508790336549282,0.13456639647483826,0.056622039526700974
1772568160993353000,4.31735302734375,0.14646730316057802,-0.08999299013614653,-0.05000409409701824,0.022124629467725754,0.13788071274757385,0.059944067150354385
1772568161003424000,4.327424072265625,0.07473375394493341,-0.06358856547642498,-0.058494859066605565,0.02288539707660675,0.1293291598558426,0.06277336180210114
1772568161013495000,4.3374951171875,-0.02719911870136857,-0.06041658437680453,-0.06835165169239044,0.01446501538157463,0.12197377532720566,0.0570579469203949
1772568161023566800,4.34756689453125,-0.15400500518903135,-0.029972894263640044,-0.06592588585019112,0.004372556693851948,0.09305267035961151,0.052301742136478424
1772568161033638000,4.357637939453125,-0.24409371078461406,0.01751066837981343,-0.10555237831771373,0.004276948980987072,0.055287450551986694,0.04933284968137741
1772568161043710000,4.3677099609375,-0.29303675152137876,0.07714589312057941,-0.16581015540361405,0.015057714655995369,0.027860252186655998,0.046657316386699677
1772568161053781000,4.377781005859375,-0.3217094499066472,0.13150745177473872,-0.10703238774240016,0.019800003618001938,0.00975128822028637,0.044352348893880844
1772568161063851800,4.387851806640625,-0.30143282394483684,0.1563505819344893,-0.08281213872134685,0.022047199308872223,0.001294802874326706,0.038965195417404175
1772568161073924000,4.397924072265625,-0.2763691098369658,0.16581066686026752,-0.030568741264939307,0.023560408502817154,-0.0026101903058588505,0.03786185011267662
1772568161083995000,4.407994873046875,-0.2835560987316072,0.15008582245130092,0.05216448700129986,0.02203287184238434,-0.012511925771832466,0.036775823682546616
1772568161094067000,4.41806689453125,-0.31753903235420583,0.0789436267249286,0.05564531485438347,0.016314798966050148,-0.0029426557011902332,0.03721311315894127
1772568161104138000,4.428137939453125,-0.3234780670143664,0.021472996139526367,0.11987842531204224,0.002729143016040325,0.009986178949475288,0.026733675971627235
1772568161114209000,4.438208984375,-0.2885086065724492,0.008980448182672261,0.09813654910326003,-0.008174104616045952,0.009843965992331505,0.021380722522735596
1772568161124280800,4.44828076171875,-0.19717633065655826,-0.02532433780543506,-0.023350480449199674,-0.009576333686709404,-0.002820873400196433,0.0210881307721138
1772568161134352000,4.458351806640625,-0.10501914822384714,-0.047341706487350164,-0.16416355724036694,0.00018148776143789291,-0.0293896347284317,0.020511820912361145
1772568161144424000,4.468423828125,0.008321107491105794,-0.07366882812716066,-0.31553485292494293,0.009452003054320812,-0.04722534120082855,0.024430427700281143
1772568161154495000,4.478494873046875,0.056729749090224504,-0.049318997909687454,-0.3533399751842022,0.018455617129802704,-0.05339455604553223,0.036047935485839844
1772568161164566000,4.48856591796875,0.07017097607403994,-0.04785429565198719,-0.2931564323782921,0.022129207849502563,-0.06041235476732254,0.04438537359237671
1772568161174638000,4.49863818359375,0.07319251585230231,-0.055712388741225,-0.1814011077672243,0.01830996759235859,-0.0760674774646759,0.04437285661697388
1772568161184708900,4.508708984375,0.09812310509979724,-0.06616594168376178,-0.13867781832814216,0.01988619565963745,-0.0904121920466423,0.04485936835408211
1772568161194781200,4.51878125,0.034614071132987735,-0.07589034010153263,-0.08649462662637233,0.02354271337389946,-0.09815400093793869,0.03848855197429657
1772568161204852000,4.52885205078125,0.013205372401326894,-0.0991456530805677,-0.03396481344401836,0.02710600197315216,-0.09417273849248886,0.027682630345225334
1772568161214923000,4.538923095703125,0.003847615338861942,-0.09713997581396251,0.05202770887911319,0.017672285437583923,-0.07478545606136322,0.025815220549702644
1772568161224994800,4.548994873046875,-0.052503217436373234,-0.08698869375362991,0.16477613618075845,0.00125203188508749,-0.05052890628576279,0.024015463888645172
1772568161235065900,4.55906591796875,-0.08415200902298092,-0.04964706082027405,0.22243512894511222,-0.010734323412179947,-0.03223725035786629,0.021526740863919258
1772568161245138000,4.569137939453125,-0.0856140443995595,-0.005822605206258595,0.19342063138484955,-0.01814502663910389,-0.018900126218795776,0.016748394817113876
1772568161255211800,4.579211669921875,-0.016627748065441844,0.012867847542650997,0.055986675637960434,-0.017658201977610588,-0.011298932135105133,0.01107692625373602
1772568161265282800,4.58928271484375,0.02583484461084008,0.05407174539472907,-0.020314473754167554,-0.009689832106232643,-0.00714361434802413,0.0040785083547234535
1772568161275355000,4.59935498046875,0.04193535393178463,0.07264587828759103,-0.07266016254127025,-0.0018726550042629242,-0.0017507132142782211,0.0027165678329765797
1772568161285426000,4.609426025390625,0.009811199918389319,0.061207223297841847,-0.05831950249969959,0.007453154772520065,0.0023417528718709946,0.003146102651953697
1772568161295497000,4.6194970703125,-0.047168140018731354,0.03782298670951277,0.0074491469621658325,0.009656121954321861,0.011495037004351616,-0.005209565162658691
1772568161305569000,4.629569091796875,-0.07867723087370396,-0.011785386068187654,0.03611468495428562,0.007475258782505989,0.01637949049472809,-0.016944510862231255
1772568161315640000,4.63964013671875,-0.07856573332324623,-0.071797115971148,0.018147651109099387,0.008697649464011192,0.026392975822091103,-0.031868334859609604
1772568161325712000,4.6497119140625,-0.02951251021027565,-0.08984667700063437,0.036440263646841047,0.0023742159828543663,0.03294312208890915,-0.04374457895755768
1772568161335783000,4.659782958984375,-0.0007470189750194549,-0.08944649870190768,-0.03960311159193516,-0.008097600191831589,0.03288639709353447,-0.04924587160348892
1772568161345854000,4.66985400390625,0.03637757367417216,-0.07835344227943569,-0.1037760162949562,-0.010456070303916931,0.01897905208170414,-0.054672721773386
1772568161355926000,4.679926025390625,0.05965484275668859,-0.06115947516597807,-0.19513737217485905,-0.0016726991161704063,-0.005178481340408325,-0.05470680817961693
1772568161365996800,4.689996826171875,0.08759294325709342,-0.05548581344373524,-0.2874064905494451,0.01210867241024971,-0.023908112198114395,-0.05833108723163605
1772568161376068900,4.70006884765625,0.11068564955294131,-0.05964837648328394,-0.28690789337754247,0.022654522210359573,-0.02754252776503563,-0.06114631146192551
1772568161386140000,4.710139892578125,0.12816110048890114,-0.04767524929065257,-0.20503391228914258,0.027189165353775024,-0.022304179146885872,-0.05243174359202385
1772568161396211000,4.7202109375,0.10856310444101691,-0.024178382640704512,-0.08782675201296807,0.0231827050447464,-0.016315262764692307,-0.04476876184344292
1772568161406282000,4.730281982421875,0.08421952130123972,-0.04503145678360015,-0.02240706211924553,0.023807071149349213,-0.00790439173579216,-0.03792105242609978
1772568161416353000,4.74035302734375,0.05612359989061951,-0.08998173808977007,0.028522330129146574,0.01667885296046734,-0.002725608181208372,-0.03763236477971077
1772568161426425000,4.750425048828125,0.024443536382913588,-0.1076516886845231,0.052525721529126164,0.0176440067589283,0.004098639823496342,-0.040438659489154816
1772568161436496100,4.76049609375,-0.013548194489628075,-0.14586400350518525,0.06218260766863823,0.015459416434168816,0.01004467997699976,-0.04832454398274422
1772568161446567200,4.770567138671875,-0.02252192067056894,-0.14198014780916274,0.01855272477865219,0.01493804156780243,0.013682253658771515,-0.057750098407268524
1772568161456639000,4.780638916015625,0.004461071062088012,-0.12545070901904254,-0.07761515460014343,0.015537519007921219,0.01028645783662796,-0.062089718878269196
1772568161466709800,4.790709716796875,0.0641658904403448,-0.12213899065516888,-0.1989081228852272,0.027109727263450623,0.0037074857391417027,-0.06257881969213486
1772568161476781800,4.80078173828125,0.1474900703370571,-0.09364705566428601,-0.22607553127408025,0.04874764755368233,-0.002093944465741515,-0.05238504335284233
1772568161486852900,4.810852783203125,0.2076782893180847,-0.07264178663436323,-0.1547235287219286,0.058057576417922974,0.0034343088045716286,-0.031652841717004776
1772568161496925000,4.820925048828125,0.19942893188893793,-0.09208725900165736,0.015979659420251844,0.051333360373973846,0.024748384952545166,-0.014049610123038292
1772568161506996000,4.830995849609375,0.15717720548436045,-0.10956526722088455,0.13101122922301292,0.031469833105802536,0.05130573362112045,0.0016359691508114338
1772568161517067000,4.84106689453125,0.10167612140625715,-0.1636683941345662,0.16063713667988777,0.01464717648923397,0.05920892581343651,0.009277909994125366
1772568161527139000,4.85113916015625,0.06077230247929692,-0.19637838521189988,0.059708326509594914,0.01951366476714611,0.0683613270521164,0.012162957340478897
1772568161537210000,4.861210205078125,0.05971314881518483,-0.23551044522598386,-0.03812368668913841,0.02721366472542286,0.07296273857355118,0.009195131249725819
1772568161547282000,4.871281982421875,0.04279606241434812,-0.1990052996493876,-0.028715222352743146,0.027892939746379852,0.07089967280626297,0.00710663478821516
1772568161557353000,4.88135302734375,-0.0009077624946832656,-0.17178901061750948,-0.07383388249576091,0.018884532153606415,0.07652053982019424,0.004726567771285772
1772568161567424000,4.891424072265625,-0.06103855220004916,-0.13322656718492507,-0.12375263639688491,0.011444360949099064,0.07959636300802231,0.006707909516990185
1772568161577496000,4.90149609375,-0.14986805151477456,-0.05641790666207671,-0.17027531811892985,0.007662671618163586,0.06957115978002548,0.0065190913155674934
1772568161587566800,4.91156689453125,-0.2046113029628992,0.006196443487331271,-0.253898188701272,0.00044596288353204727,0.04460076987743378,0.0005651721730828285
1772568161597639000,4.921638916015625,-0.2348682017996907,0.06673983258157969,-0.31025720478296276,-0.0019442234188318253,-0.0000609750859439373,-0.00035867840051651
1772568161607710000,4.9317099609375,-0.19548092491552232,0.11717479237653314,-0.36410277673900127,0.0015529664233326912,-0.04477797448635101,-0.001240636222064495
1772568161617781000,4.941781005859375,-0.11310878504663704,0.16953626325465737,-0.33355098660886284,0.008647628128528595,-0.08992388099431992,-0.006190121173858643
1772568161627852800,4.951852783203125,-0.04620514020547271,0.19256328390315175,-0.3084767511069774,0.020979780703783035,-0.12877601385116577,-0.006890054792165756
1772568161637923800,4.961923828125,-0.03202244720458984,0.19008520335182547,-0.26583529473245143,0.036268990486860275,-0.145549938082695,-0.008919648826122284
1772568161647996000,4.971995849609375,-0.09945099270269274,0.14735599562861024,-0.1638163512378931,0.03744199499487877,-0.13782115280628204,-0.015210775658488274
1772568161658067000,4.98206689453125,-0.15921075713858007,0.09250665345750748,-0.06908698022961617,0.02295306697487831,-0.13133981823921204,-0.0355413481593132
1772568161668138000,4.992137939453125,-0.16079583437293768,0.05324607169292867,-0.09518003738522529,0.007956660352647305,-0.10277706384658813,-0.05864381045103073
1772568161678210000,5.0022099609375,-0.20971929362639782,0.04502046046555042,-0.07131050149798393,0.010901584289968014,-0.07348468899726868,-0.07970568537712097
1772568161688281000,5.012281005859375,-0.09929302566200494,0.0466324257068336,0.038213118538260454,0.018314708024263382,-0.07294157892465591,-0.08593030273914337
1772568161698353200,5.022353271484375,0.1689754875667393,0.04780154255144298,0.09545476267337799,0.008511346764862537,-0.07338126748800278,-0.07674133032560349
1772568161708424000,5.032423828125,0.3339483153633773,0.03414484618604183,0.16576280913054942,-0.016737280413508415,-0.05291748046875,-0.0634620189666748
1772568161718495000,5.042494873046875,0.3125558371141553,0.06655461220778525,0.22212708590924737,-0.0307292640209198,-0.03595927357673645,-0.05869762971997261
1772568161728566800,5.05256689453125,0.2063334505803883,0.12645246994011103,0.09279811068475245,-0.02394447848200798,-0.024836719036102295,-0.0628141537308693
1772568161738637800,5.062637939453125,0.042276276323944324,0.1321202133782208,0.019327800804376603,-0.0093197301030159,-0.009719550609588623,-0.06767335534095764
1772568161748710000,5.0727099609375,-0.048370355415344235,0.1534489056762308,0.1073883615732193,-0.009239977225661278,0.009561393409967422,-0.07566556334495544
1772568161758781000,5.082781005859375,-0.06333849970549345,0.09036365007944405,0.19139935469031333,-0.02851886674761772,0.04131559655070305,-0.08091225475072861
1772568161768852000,5.09285205078125,-0.10557838954180479,0.03732186878696084,0.24250234993994235,-0.052654244005680084,0.060480132699012756,-0.08737600594758987
1772568161778924000,5.102924072265625,-0.10541779215261339,-0.029811127830669283,0.1229296295762062,-0.06504832953214645,0.07443642616271973,-0.09925583750009537
1772568161788995000,5.1129951171875,-0.14794146736636757,-0.04795300678610801,0.040488077732920645,-0.07768379896879196,0.06989481300115585,-0.10222770273685455
1772568161799067100,5.123067138671875,-0.12167144620865583,-0.10074366286173463,-0.07576748090684414,-0.08039037138223648,0.04995918646454811,-0.10743791610002518
1772568161809138200,5.13313818359375,-0.005549012429267168,-0.12517448589354752,-0.18956746308803557,-0.06653079390525818,0.05082113668322563,-0.1097591444849968
1772568161819209000,5.143208984375,0.07679755460694432,-0.09766096748076379,-0.17543547736108303,-0.06647247076034546,0.03277715668082237,-0.10449913889169693
1772568161829280800,5.15328076171875,0.11978387889638542,-0.10606748823300004,-0.32424422908127304,-0.04090718924999237,0.027427449822425842,-0.09531603008508682
1772568161839351800,5.163351806640625,0.14763634693995117,-0.1134898933187127,-0.39659517954289913,0.0016578463837504387,0.010191205888986588,-0.08102764189243317
1772568161849422800,5.1734228515625,0.11388181524574756,-0.11301511541381477,-0.31301147192716594,0.01247170940041542,-0.0003807190805673599,-0.07371453195810318
1772568161859495000,5.183494873046875,0.08865253531262278,-0.13289046709835528,-0.2121656638652086,0.00940028578042984,-0.007460200227797031,-0.06527071446180344
1772568161869566000,5.19356591796875,0.0779180830694735,-0.1468628783494234,-0.11647943052351474,0.004649982787668705,-0.020067669451236725,-0.05703184753656387
1772568161879638000,5.203637939453125,0.057718906258046626,-0.17694317851029334,-0.0350175373673439,0.004701114259660244,-0.02859005145728588,-0.047473497688770294
1772568161889709000,5.213708984375,0.029300621025264262,-0.20521774442344903,-0.009808861830830573,0.004946849308907986,-0.03016260825097561,-0.038994695991277695
1772568161899780000,5.223780029296875,-0.01838584377914667,-0.22720351239070294,0.06272562850415707,0.0011427905410528183,-0.01326431892812252,-0.03308993577957153
1772568161909852000,5.233851806640625,-0.03191080352365971,-0.21717837746068833,0.11852350357174872,-0.0037753377109766006,0.010411967523396015,-0.024954412132501602
1772568161919923000,5.2439228515625,-0.011485562871396541,-0.20133527696691453,0.09040507806837558,-0.0028909025713801384,0.015802204608917236,-0.013882587663829327
1772568161929995000,5.2539951171875,-0.00899184635952115,-0.133548857941851,-0.012137597039341926,0.000868489034473896,0.023352229967713356,-0.0019027180969715118
1772568161940065800,5.264065673828125,-0.011414981853216885,-0.12560031009018421,-0.08350538168251515,0.006749548017978668,0.020931681618094444,0.006897697690874338
1772568161950136800,5.27413671875,0.019225363343209026,-0.10795469021908938,-0.14867255811989308,0.009475363418459892,0.016008742153644562,0.011146684177219868
1772568161960209000,5.284208984375,-0.001441138719022274,-0.042731180484592915,-0.1326204179853201,0.012901253998279572,0.007346809841692448,0.01534142903983593
1772568161970280000,5.294280029296875,-0.0443634578615427,-0.017726722283288837,-0.14609014041125773,0.005986040458083153,-0.0010991008020937443,0.01494005136191845
1772568161980352000,5.30435205078125,-0.07140797052308917,-0.0024934973161667585,-0.13589315604567526,0.00040698423981666565,-0.019161991775035858,0.009779377840459347
1772568161990423000,5.314423095703125,-0.09325739875957369,-0.020108575918525457,-0.12773264594376085,-0.0015303418040275574,-0.035866376012563705,0.005063914693892002
1772568162000494000,5.324494140625,-0.07925313106551767,-0.0445416639726609,-0.09279811068475245,0.0023922286927700043,-0.043749067932367325,-0.002359912730753422
1772568162010566000,5.33456591796875,-0.03934124578535556,-0.030806568608805537,-0.09223580062687396,-0.00013513397425413132,-0.05166633054614067,-0.00564852450042963
1772568162020637000,5.344636962890625,-0.016572072355449198,0.022116627805307505,-0.10031155505478381,-0.0033141495659947395,-0.05965021997690201,-0.0021350160241127014
1772568162030709000,5.354708984375,-0.025413696589320897,0.05342288956455886,-0.017231705307960508,-0.015519369393587112,-0.053402915596961975,-0.0013144700787961483
1772568162040779800,5.36477978515625,-0.010202391193062066,0.06374985698536038,0.023151743006706235,-0.027858592569828033,-0.039921991527080536,-0.000848683062940836
1772568162050850800,5.374850830078125,-0.0043066111527383325,0.03268953281119465,0.050960956430435175,-0.040087562054395676,-0.02542955055832863,-0.0017885188572108746
1772568162060923000,5.3849228515625,0.04686433476656675,-0.010364449886977671,0.07494330504238605,-0.0439227819442749,-0.009588269516825676,-0.0030159703455865383
1772568162070994000,5.394993896484375,0.07409867091178894,-0.050831850158050654,0.05947860940694809,-0.045804429799318314,0.005110755562782288,-0.0002073301002383232
1772568162081066000,5.40506591796875,0.08802943497821689,-0.08092369462624192,0.031083705049753187,-0.04455407336354256,0.02491481974720955,-0.00259432103484869
1772568162091137000,5.415136962890625,0.11771905532106756,-0.07025156702958046,0.061871057501435275,-0.04402585327625275,0.03685704618692398,-0.0035755042918026447
1772568162101208000,5.4252080078125,0.13232523443102837,-0.04947780520059168,-0.022336919492483138,-0.04416593536734581,0.023600095883011818,-0.011034484952688217
1772568162111279900,5.43527978515625,0.14122706441953778,-0.10354319391977042,-0.17797931662499902,-0.037073761224746704,0.028656674548983574,-0.016420237720012665
1772568162121351000,5.445350830078125,0.08762173096016049,-0.08748363766372204,-0.1300409228861332,-0.024973154067993164,0.03830903396010399,-0.0174223855137825
1772568162131423000,5.455423095703125,0.0211653914950788,-0.055140543670021,-0.09787059164345265,-0.023305438458919525,0.04087607190012932,-0.018010376021265984
1772568162141494000,5.465493896484375,-0.004938917706906795,-0.0374573317348957,-0.15807283914983272,-0.025095615535974503,0.021890928968787193,-0.02165544405579567
1772568162151564800,5.475564697265625,-0.05289280127584934,0.09690748223233968,-0.17453122199773788,-0.005023391451686621,-0.019343707710504532,-0.017489083111286163
1772568162161636900,5.485636962890625,-0.04163213320150971,0.12895444282367824,-0.2403086392879486,0.01783478632569313,-0.06393647193908691,-0.012930285185575485
1772568162171708000,5.4957080078125,-0.00810775700137019,0.14098470703102647,-0.23403028967082498,0.027961160987615585,-0.0861140638589859,-0.007282671052962542
1772568162181780000,5.505780029296875,-0.025745412761718035,0.10335348003394901,-0.12471768203675747,0.02353046089410782,-0.0817672535777092,-0.007143120747059584
1772568162191851000,5.51585107421875,-0.027081629801541565,0.03996346933692693,-0.049741059246659274,0.015389952808618546,-0.06883776932954788,-0.01705741696059704
1772568162201922000,5.525922119140625,-0.06383519718125462,0.0014567746795713901,-0.010542436802387237,0.01150626502931118,-0.062428075820207596,-0.022560572251677513
1772568162211993900,5.535993896484375,-0.08890008033290504,-0.041706805872917176,-0.019420155262947082,0.009281826205551624,-0.05797833949327469,-0.03209304064512253
1772568162222065000,5.54606494140625,-0.08857245581373571,-0.08053001913353801,-0.06808101805746555,0.010056805796921253,-0.047485485672950745,-0.03973338007926941
1772568162232137000,5.556136962890625,-0.08747560048773884,-0.10167480623200535,-0.07175707622170448,0.0019993381574749947,-0.03591800481081009,-0.04701197147369385
1772568162242208000,5.5662080078125,-0.03177256409674883,-0.10185856530107557,-0.08476151922345161,-0.005974432919174433,-0.02893945761024952,-0.05073933303356171
1772568162252279000,5.576279052734375,0.00690919486656785,-0.09137019677348435,-0.11106325069367885,0.0004848642274737358,-0.025812625885009766,-0.05538052320480347
1772568162262351000,5.58635107421875,0.055225628137588495,-0.08287431723736226,-0.15419395188987253,0.008650649338960648,-0.029344510287046432,-0.055323000997304916
1772568162272422000,5.596421875,0.07984218299984931,-0.031508214072138066,-0.15028993018865586,0.016758767887949944,-0.038369666785001755,-0.055552758276462555
1772568162282494000,5.606493896484375,0.09464008528962731,0.006601955548301339,-0.12409867335557936,0.011644700542092323,-0.04629656672477722,-0.05448749661445618
1772568162292565000,5.61656494140625,0.0609659253552556,0.0657516252618283,-0.07284487145841122,0.006490516476333141,-0.05206058919429779,-0.05833372846245766
1772568162302636000,5.626635986328125,0.022577888641506432,0.08650821676030755,-0.04916413614153862,0.005378381349146366,-0.048726845532655716,-0.061492498964071274
1772568162312707800,5.636707763671875,-0.023169424793869256,0.09213175573050975,-0.01604044969677925,0.0024889446794986725,-0.04781267046928406,-0.062295399606227875
1772568162322779000,5.64677880859375,-0.04261676032468676,0.07272307170964777,-0.03455225794315338,0.0018508508801460266,-0.04263388738036156,-0.07195654511451721
1772568162332851000,5.656850830078125,-0.045345746897161004,0.058665393327921624,-0.05936345859467983,-0.0012836605310440063,-0.04247850924730301,-0.07595513015985489
1772568162342922000,5.666921875,-0.056306993633508676,0.04351195559874177,-0.047449148917198175,0.00029026810079813004,-0.027892645448446274,-0.07803718745708466
1772568162352993000,5.676992919921875,-0.0798616183526814,0.03520670326389372,0.10459902311563492,-0.011689816601574421,-0.0013865451328456402,-0.08165048807859421
1772568162363065000,5.687065185546875,-0.08982304039672016,0.03934153804630041,0.22571020509302614,-0.037691324949264526,0.03285398334264755,-0.0940144807100296
1772568162373136100,5.69713623046875,-0.04715235792770982,0.0290794525552541,0.24756957020163534,-0.05649453401565552,0.043756064027547836,-0.1068945825099945
1772568162383208000,5.7072080078125,0.019152590367943048,0.05859605441875755,0.06441197415590286,-0.05259166657924652,0.044540099799633026,-0.12307941168546677
1772568162393278700,5.71727880859375,0.06651859104633331,0.07783106237314641,-0.093048870575428,-0.03795662522315979,0.046155668795108795,-0.12967543303966522
1772568162403355600,5.727355712890625,0.06136281571835279,0.12342764222621917,-0.09144026633501053,-0.03426894545555115,0.05255124717950821,-0.1301225870847702
1772568162413427700,5.737427734375,0.05274360206350684,0.06895918913148343,-0.08685469211041927,-0.04360354319214821,0.05601394921541214,-0.1272728443145752
1772568162423498800,5.747498779296875,0.07096504906117916,-0.008604527542367577,-0.07610825716853141,-0.049250245094299316,0.0478241965174675,-0.13328786194324493
1772568162433570600,5.757570556640625,0.08824073964133858,-0.022537848892062902,-0.130641811388731,-0.05377749353647232,0.016787739470601082,-0.13986195623874664
1772568162443641600,5.7676416015625,0.096834818854928,-0.0588636923789978,-0.22141163111627102,-0.04313204064965248,-0.012972818687558174,-0.13974077999591827
1772568162453712600,5.777712646484375,0.11573138863518834,-0.07699556139707565,-0.23436229810416698,-0.03218282759189606,-0.027973413467407227,-0.140755757689476
1772568162463784700,5.78778466796875,0.12042904493212699,-0.062309229722991584,-0.13835750033259392,-0.029795832931995392,-0.03480016067624092,-0.13157157599925995
1772568162473855700,5.797855712890625,0.10053791115656495,-0.04104169302769005,-0.08242401618659496,-0.03218044713139534,-0.03702757880091667,-0.12428930401802063
1772568162483927800,5.807927734375,0.01729205719307065,-0.03351823872029781,-0.028859599259495734,-0.04361606016755104,-0.026380792260169983,-0.11736109107732773
1772568162493998800,5.817998779296875,-0.039139877994358536,-0.06901471871100366,0.026995558953285214,-0.04834014177322388,-0.025189969688653946,-0.11318786442279816
1772568162504069600,5.828069580078125,-0.07474222951233386,-0.10680632390156387,-0.02549216865301132,-0.04639070853590965,-0.012966591864824295,-0.10581863671541214
1772568162514141400,5.838141357421875,-0.10212181934714316,-0.1587201971426606,0.018528174859285353,-0.03504977002739906,-0.004544316790997982,-0.10713256895542145
1772568162524212500,5.84821240234375,-0.09995105117931961,-0.2076871302116662,-0.020040332987904547,-0.029055792838335037,0.020809508860111237,-0.10680393874645233
1772568162534284500,5.858284423828125,-0.13633183972388505,-0.22999745395816862,0.037138182783126826,-0.03314262256026268,0.04540903866291046,-0.10699164867401123
1772568162544355600,5.86835546875,-0.12146715580821037,-0.2089285085748881,0.04735504089295864,-0.044070105999708176,0.054281894117593765,-0.10733892023563385
1772568162554426600,5.878426513671875,-0.05503507400155067,-0.16954159701690077,-0.021986206358671188,-0.051452867686748505,0.04201628267765045,-0.10436096042394638
1772568162564498700,5.888498779296875,0.016761457447707653,-0.13327778591550885,-0.15708791976571082,-0.042949128895998,0.013509808108210564,-0.09467850625514984
1772568162574569700,5.89856982421875,0.07255904025435447,-0.10140132305286824,-0.22707447918355464,-0.026078270748257637,-0.01303919404745102,-0.08290281146764755
1772568162584641800,5.908641845703125,0.10163871200531721,-0.12215952198654413,-0.20525310799777507,-0.010609566234052181,-0.026175236329436302,-0.07059688121080399
1772568162594712800,5.918712890625,0.14137187971770762,-0.17984796004109083,-0.1606178474575281,0.0011436641216278076,-0.02906356006860733,-0.05296919867396355
1772568162604783900,5.928783935546875,0.1544420814320445,-0.23830789392478763,-0.12720073102414609,0.009391740895807743,-0.031741369515657425,-0.03752126544713974
1772568162614855700,5.938855712890625,0.17141908132657407,-0.28301709648407997,-0.1716372541218996,0.015713650733232498,-0.028343848884105682,-0.02710958942770958
1772568162624926500,5.948926513671875,0.15144596835598348,-0.29118308647871016,-0.1655979739576578,0.010836604051291943,-0.022710463032126427,-0.015481162816286087
1772568162634998500,5.95899853515625,0.09784078102707862,-0.258858660652861,-0.09227437907159328,-0.005846840795129538,-0.01451859250664711,-0.00656266650184989
1772568162645069600,5.969069580078125,0.06335764279738068,-0.2287153782583773,-0.03175122904777527,-0.030389467254281044,-0.01533378567546606,-0.012530012056231499
1772568162655140600,5.979140625,0.08778174382746219,-0.20766864470690488,-0.04044014693796635,-0.03732816502451897,-0.007360459305346012,-0.013191316276788712
1772568162665212700,5.989212646484375,0.03832403156682849,-0.14963157587777823,0.03340367242991924,-0.027551699429750443,-0.006872568279504776,-0.000002811197191476822
1772568162675283700,5.99928369140625,-0.0404040527112782,-0.11736702701300382,0.0736690473228693,-0.0200797189027071,-0.005095986649394035,0.0035780419129878283
1772568162685355800,6.009355712890625,-0.0946238648071885,-0.08105506592094898,0.07225216626226902,-0.023598020896315575,0.0026213214732706547,0.006473963148891926
1772568162695426800,6.0194267578125,-0.155341952881217,-0.032551914438791574,0.08565116153955459,-0.03278982639312744,0.0020181923173367977,0.011716720648109913
1772568162705497900,6.029497802734375,-0.2254493621997535,-0.0011117606341838836,0.11991115853786467,-0.04968119040131569,-0.013093648478388786,0.008714007213711739
1772568162715569700,6.039569580078125,-0.19551891883835196,-0.005828231229446828,0.043460371541976926,-0.05798713490366936,-0.04328896105289459,0.002305991016328335
1772568162725640700,6.049640625,-0.10974354639723896,0.03807371006757021,-0.09856558817028999,-0.04632169008255005,-0.052697643637657166,0.002524370327591896
1772568162735712800,6.059712646484375,-0.10740092879384755,0.062290013565868135,-0.14423311436772346,-0.033954739570617676,-0.06009397655725479,0.007070011924952269
1772568162745783600,6.069783447265625,-0.06850172768756747,0.05409870646689087,-0.15570903262794017,-0.024507176131010056,-0.05149649456143379,0.008669240400195122
1772568162755854600,6.0798544921875,-0.061628188656270504,0.05474233813267201,-0.09662263740897178,-0.018258938565850258,-0.04039720073342323,0.01286088302731514
1772568162765926700,6.0899267578125,-0.10987535608336328,0.03045541708357632,0.023752046987414357,-0.02712300419807434,-0.028187938034534454,0.01622765138745308
1772568162775997700,6.099997802734375,-0.147863287563622,-0.02952715979013592,0.039682022047042846,-0.03450480476021767,-0.019814275205135345,0.01468513160943985
1772568162786069500,6.110069580078125,-0.14850216998904942,-0.047659211471304294,0.04603519046604633,-0.04746135324239731,-0.02448173053562641,0.014162620529532433
1772568162796140500,6.120140625,-0.13626476583704353,-0.0344504415364936,-0.018021394380927085,-0.044190771877765656,-0.041818439960479736,0.0095681082457304
1772568162806211600,6.130211669921875,-0.0938549262613058,-0.05188146880883723,-0.16152093377709387,-0.030092261731624603,-0.044769223779439926,0.012480542063713074
1772568162816283600,6.14028369140625,-0.07608458403199911,-0.04025324606373906,-0.15399989062249658,-0.021997209638357162,-0.042946044355630875,0.013179033063352108
1772568162826354700,6.150354736328125,-0.06952376421168446,-0.024263211379945276,-0.16832652213871477,-0.014837302267551422,-0.04936692491173744,0.01725340262055397
1772568162836426800,6.1604267578125,-0.04767535888850689,-0.03406991778630763,-0.14044248991310596,-0.029666783288121223,-0.05256948247551918,0.022931799292564392
1772568162846497800,6.170497802734375,-0.0069752458401024335,-0.0023917905073612927,-0.06354688175916672,-0.03733988106250763,-0.05701083317399025,0.03129598870873451
1772568162856569900,6.18056982421875,-0.02294701421484351,-0.004287066202051938,-0.018767244312167166,-0.0347621850669384,-0.06100323051214218,0.03925711289048195
1772568162866640600,6.190640625,-0.052502632914483545,-0.02832077967505902,-0.022974048352241514,-0.02295958623290062,-0.08453758805990219,0.040868859738111496
1772568162876711700,6.200711669921875,-0.035997049923986196,-0.03259863965734839,-0.11673545111119746,-0.011795485392212868,-0.09862854331731796,0.03868623077869415
1772568162886783500,6.210783447265625,-0.051562429454922676,-0.02772339830379933,-0.11978081015646456,-0.006201781798154116,-0.08914822340011597,0.03654291853308678
1772568162896854500,6.2208544921875,-0.09149258104413747,-0.037021972524933514,-0.038970074385404584,-0.015007900074124336,-0.08879389613866806,0.0381041057407856
1772568162906926600,6.230926513671875,-0.015681260995566843,-0.04450546014811843,-0.11781272495388984,-0.01600312441587448,-0.09364590793848038,0.0329974964261055
1772568162916997600,6.24099755859375,0.038654724825918675,-0.040872364342771465,-0.16993103472590446,-0.0047169895842671394,-0.10715438425540924,0.03881555423140526
1772568162927068700,6.251068603515625,0.08539455642998219,-0.06888572203647345,-0.14800971029698848,0.006600645370781422,-0.12843330204486847,0.038017138838768005
1772568162937140700,6.261140625,0.16378654062151907,-0.09358608272466808,-0.1828553982287645,0.020417245104908943,-0.13306690752506256,0.03444497287273407
1772568162947211800,6.271211669921875,0.1781654868468642,-0.11807886507678776,-0.10610124437212944,0.03266112506389618,-0.12978829443454742,0.02915140986442566
1772568162957283800,6.281283935546875,0.17457959118410943,-0.1280374741092324,-0.08015022603571414,0.03896353021264076,-0.1087409257888794,0.0305580273270607
1772568162967355000,6.29135498046875,0.10942673553302884,-0.11228921229206025,0.015589198797941206,0.04063599556684494,-0.07156240195035934,0.032453399151563644
1772568162977426700,6.3014267578125,0.07417465875744819,-0.1589469551032409,0.11239303799271583,0.039005979895591736,-0.021716756746172905,0.03254834935069084
1772568162987497500,6.31149755859375,0.04019128674343228,-0.13737974134162068,0.29414252080619335,0.0323302298784256,0.02068023383617401,0.04648733511567116
1772568162997568500,6.321568603515625,0.00491626748368144,-0.15346373791918158,0.4322176970660686,0.007357597351074219,0.058676477521657944,0.055205244570970535
1772568163007640600,6.331640625,-0.0073832421191036696,-0.16851466512195765,0.4781424128949642,-0.019552847370505333,0.08169657737016678,0.05871662497520447
1772568163017711600,6.341711669921875,0.003480973983556032,-0.18398842084668576,0.37956338072121143,-0.03755111247301102,0.07864979654550552,0.05183682590723038
1772568163027783700,6.35178369140625,0.06829685276523233,-0.150143032531254,0.09592822540402411,-0.03919614851474762,0.05721534416079521,0.044790901243686676
1772568163037854700,6.361854736328125,0.11508446903377771,-0.1579904946286231,-0.15551263327300546,-0.0292118601500988,0.03897027298808098,0.040745511651039124
1772568163047925800,6.37192578125,0.10361702634096145,-0.11059559664931147,-0.21195172885358332,-0.019257765263319016,0.02406242862343788,0.04305819794535637
1772568163057997800,6.381997802734375,0.05832943937182426,-0.13251407153401523,-0.23688567910194397,-0.014035631902515888,0.012746891006827354,0.03995953127741814
1772568163068068900,6.39206884765625,0.02872968926951289,-0.14732706179507077,-0.24503332972228525,-0.0022543398663401604,0.01668384112417698,0.033090438693761826
1772568163078140700,6.402140625,-0.006803542535007,-0.13760894698761403,-0.18333412165641783,0.005724859423935413,0.017096078023314476,0.027399741113185883
1772568163088211700,6.412211669921875,0.02547521751821041,-0.11996314445342868,-0.17066694778501987,0.013805423863232136,0.011364422738552094,0.022981291636824608
1772568163098283800,6.42228369140625,0.028968028070032594,-0.09783157480731607,-0.12124562201201915,0.01763737201690674,0.010138701647520065,0.018107229843735695
1772568163108354600,6.4323544921875,0.04093991315364837,-0.07555533599350601,-0.08509995739758014,0.016972381621599197,0.00650774734094739,0.018706973642110825
1772568163118425600,6.442425537109375,0.04327449358105659,-0.03196768481004983,-0.0611029957383871,0.0054960474371910095,-0.013326872140169144,0.021325044333934784
1772568163128497700,6.45249755859375,0.07332374101653695,-0.03388977544642985,-0.14279577504098415,0.005354367196559906,-0.029779614880681038,0.023755177855491638
1772568163138568700,6.462568603515625,0.062087330600619314,-0.053775392796657974,-0.1113356378942728,0.007898777723312378,-0.054135534912347794,0.019458744674921036
1772568163148640500,6.472640625,0.08609861304610968,-0.016849354926869273,-0.13468611834347247,0.013658663257956505,-0.06448245048522949,0.02435683086514473
1772568163158711600,6.482711669921875,0.07326295074000955,-0.016200937488116324,-0.12229893045723438,0.02207377552986145,-0.06639141589403152,0.03302020952105522
1772568163168783600,6.49278369140625,0.01736424564644694,-0.05817888845261186,-0.030378771650791166,0.024102572351694107,-0.04108472168445587,0.032077450305223465
1772568163178854700,6.502854736328125,-0.0064468380518257614,-0.10250899203382433,0.11592004307508467,0.007596481591463089,-0.00008989684283733368,0.035830482840538025
1772568163188925700,6.51292578125,0.008456716569513082,-0.14226667313296348,0.22806349022090433,-0.006918012164533138,0.04148603975772858,0.03428638353943825
1772568163198997800,6.522997802734375,0.04679404600933194,-0.13356602827236055,0.2445733109951019,-0.0076128761284053326,0.0678241103887558,0.033106572926044464
1772568163209068800,6.53306884765625,0.07458543151542545,-0.11475205874163656,0.14661153393685816,-0.006079960614442825,0.08102646470069885,0.02304834872484207
1772568163219140900,6.543140869140625,0.056007718425989145,-0.07429455881007015,0.010196984365582466,-0.006738842930644751,0.08321500569581985,0.014997893944382668
1772568163229211600,6.553211669921875,0.05628288210555911,-0.047659321069158614,-0.08615092775523663,0.0011659516021609306,0.08053133636713028,0.007291771471500397
1772568163239283500,6.563283447265625,0.020135902316868303,0.020489647657983005,-0.10501403365731239,0.003878026269376278,0.07281721383333206,0.0001066727563738823
1772568163249354500,6.5733544921875,-0.07272182960063218,0.05335011658929288,-0.08318097203373909,0.0004646526649594307,0.0681271180510521,0.0006089447997510433
1772568163259425500,6.583425537109375,-0.173024032305181,0.011747026819176972,-0.046021746462583536,-0.01307130791246891,0.06213155761361122,-0.008465619757771492
1772568163269497600,6.59349755859375,-0.21158874076008796,0.01247523149587214,-0.04619885659515857,-0.0243239626288414,0.05349572375416756,-0.017224224284291267
1772568163279568600,6.603568603515625,-0.1837659372024238,0.049825157333537935,-0.12815700883567333,-0.02103569358587265,0.04097308963537216,-0.02187616005539894
1772568163289640700,6.613640625,-0.10563625720888375,0.08814728920422493,-0.27609365389645096,-0.0057925572618842125,0.02380342409014702,-0.021368294954299927
1772568163299711700,6.623711669921875,-0.061211570679396386,0.12897530294861645,-0.2664168940126896,0.009317995049059391,0.025151314213871956,-0.016819322481751442
1772568163309782800,6.63378271484375,-0.06235226514711976,0.11645078895092009,-0.07603694549798964,0.011250385083258152,0.02938254363834858,-0.014077598229050636
1772568163319854800,6.643854736328125,-0.05481090985685587,0.08020239461436868,0.032761282873153684,0.005915743298828602,0.03864052891731262,-0.010043082758784294
1772568163329925600,6.653925537109375,-0.0454557831428945,0.02614266845099628,0.1209124445348978,-0.003623700700700283,0.037030115723609924,-0.010956814512610435
1772568163339997700,6.663997802734375,-0.010971621999889611,-0.02584010530784726,0.13656126456558704,-0.019705574959516525,0.03144490346312523,-0.0005251485854387283
1772568163350068500,6.674068359375,0.04398790254741907,-0.06518471209406852,0.10577741924524306,-0.033298347145318985,0.022921457886695862,0.007498955354094505
1772568163360140500,6.684140625,0.09565408463776111,-0.07678286849446594,-0.002841360905766487,-0.03219253569841385,0.01102522388100624,0.01687847077846527
1772568163370211600,6.694211669921875,0.13416691677495837,-0.07585815486498176,-0.15591478433310985,-0.01969325542449951,-0.011111768893897533,0.025162765756249428
1772568163380283600,6.70428369140625,0.13279621294364333,-0.08237944639250636,-0.25331191324591634,0.001970665529370308,-0.028788119554519653,0.033608872443437576
1772568163390354700,6.714354736328125,0.13386179634854198,-0.08182535617370158,-0.27734628430604935,0.012525306083261967,-0.024222394451498985,0.04221354424953461
1772568163400421000,6.724421142578125,0.07334829093590378,-0.044027357774972915,-0.1487362710058689,0.006975595839321613,-0.01734922267496586,0.04843210428953171
1772568163410493200,6.7344931640625,0.03440831942781806,-0.08364292698968201,-0.026042788273096085,-0.004163341596722603,-0.00643851887434721,0.043731626123189926
1772568163420564200,6.744564208984375,0.03190788091421127,-0.10063201918080449,0.07617723075151443,-0.017135459929704666,-0.00008201412856578827,0.038226790726184845
1772568163430636300,6.75463623046875,0.004581482571363449,-0.12114424399677663,0.10213526335060596,-0.025059428066015244,-0.017584841698408127,0.029549676924943924
1772568163440707300,6.764707275390625,0.020807225707173346,-0.10962916276995092,-0.015263035583496093,-0.020977146923542023,-0.02586658112704754,0.019599569961428642
1772568163450779100,6.774779052734375,-0.023672405879944562,-0.11947236526180058,-0.01980067901313305,-0.01373441331088543,-0.0384092703461647,0.00797433964908123
1772568163460850200,6.78485009765625,-0.008944500086456537,-0.10735420357529073,-0.07847732438743114,-0.002559083513915539,-0.04027363657951355,-0.0015345863066613674
1772568163470921000,6.7949208984375,-0.013246727325022219,-0.08159567560367285,-0.09032850570082664,0.0005392385646700859,-0.0265495665371418,-0.009058548137545586
1772568163480993300,6.8049931640625,-0.032022301074117424,-0.09311404476612806,0.03664835343956947,-0.003816436044871807,-0.0039482261054217815,-0.02209073305130005
1772568163491064000,6.81506396484375,-0.030780630449950695,-0.050425095988065,0.15341536873281,-0.009776590391993523,0.017726443707942963,-0.03281049057841301
1772568163501136100,6.82513623046875,0.020428309392184017,-0.06360916987303644,0.13766601093709468,-0.01742948591709137,0.03586093336343765,-0.03607949614524841
1772568163511207200,6.835207275390625,0.013225830667465924,-0.06325326910745352,0.150744688218832,-0.018841760233044624,0.05072163790464401,-0.04200050234794617
1772568163521279000,6.845279052734375,0.04531710532456636,-0.06612867841329426,0.1157312425047159,-0.01097649522125721,0.05953185260295868,-0.05012312904000282
1772568163531350000,6.85535009765625,0.03611103169247508,-0.11327095333840698,0.05484101273417472,-0.004215793684124947,0.07710525393486023,-0.04974203184247017
1772568163541422000,6.865422119140625,-0.0010460019215941428,-0.16624215361271052,0.09162789786159992,-0.008858165703713894,0.10161719471216202,-0.05719689279794693
1772568163551493000,6.8754931640625,-0.003240735486894846,-0.18860797040611504,0.09426292254030703,-0.018147271126508713,0.13213568925857544,-0.06754780560731888
1772568163561564200,6.885564208984375,0.027589140932261943,-0.21217333571501076,0.040115152767300606,-0.022667132318019867,0.1445876508951187,-0.07675693929195404
1772568163571636200,6.89563623046875,0.05862666875272989,-0.16470807591322809,-0.07729132947325706,-0.01883883774280548,0.13282020390033722,-0.07659022510051727
1772568163581707300,6.905707275390625,0.14041925516799092,-0.1567737392500043,-0.19393384160399435,-0.0005071079358458519,0.10759200900793076,-0.07061906158924103
1772568163591779300,6.915779296875,0.2057536048658192,-0.1628679279392585,-0.2234779159963131,0.01656748354434967,0.08770405501127243,-0.05901700630784035
1772568163601850400,6.925850341796875,0.1763676436446607,-0.1410240161281079,-0.164762107655406,0.024222970008850098,0.07545986771583557,-0.03915645182132721
1772568163611922200,6.935922119140625,0.12409560461565851,-0.17496099171712995,-0.12407646152377128,0.02345038577914238,0.08010069280862808,-0.024769257754087448
1772568163621993000,6.945992919921875,0.07411284556761384,-0.22751221301369368,-0.09889058234095573,0.026442155241966248,0.08179081231355667,-0.01848386600613594
1772568163632065000,6.95606494140625,0.018662322632968426,-0.2126598040577024,-0.11449205609858035,0.03482844680547714,0.07837903499603271,-0.015060106292366982
1772568163642136000,6.966135986328125,-0.018623305796831847,-0.25052564352825285,-0.15513912378549574,0.046313490718603134,0.07047341018915176,-0.012681041844189167
1772568163652207000,6.97620703125,-0.037528789535909886,-0.21073376789856701,-0.12983400213718413,0.050526876002550125,0.06202719733119011,-0.011291404254734516
1772568163662279200,6.986279052734375,-0.06569952974840998,-0.18679792530946432,-0.06318038653433322,0.05084497481584549,0.048955924808979034,-0.007622643373906612
1772568163672350200,6.99635009765625,-0.020939327654242515,-0.16347988582514225,-0.04648936397433281,0.049847088754177094,0.035060614347457886,0.0002491283230483532
1772568163682422300,7.00642236328125,0.00022080314382910728,-0.11448474957495927,0.009199790021777152,0.045532844960689545,0.003837844356894493,0.011251237243413925
1772568163692493300,7.016493408203125,0.018841916983574628,-0.07891410836949944,-0.0856815566778183,0.057151421904563904,-0.03676391392946243,0.017515791580080986
1772568163702565000,7.026565185546875,0.028099574672430752,-0.05829487951509654,-0.18359306485354898,0.08093701303005219,-0.06646081060171127,0.029139840975403786
1772568163712636200,7.03663623046875,-0.012719780841469764,-0.05431476037036627,-0.15043898327052593,0.09881774336099625,-0.06783181428909302,0.04101460799574852
1772568163722708200,7.046708251953125,-0.07896627694815397,-0.08962105155121534,-0.043864860689640045,0.10265105217695236,-0.03915280103683472,0.05058630555868149
1772568163732779300,7.056779296875,-0.11503668436929583,-0.14055435278974474,0.07696867339015007,0.09041782468557358,0.002101694233715534,0.05600211024284363
1772568163742850000,7.06685009765625,-0.1201766776062548,-0.17866379175782202,0.1561433323919773,0.06872937828302383,0.0390809066593647,0.061699796468019485
1772568163752922000,7.076922119140625,-0.09342997884750366,-0.23193331739157436,0.1374029760867357,0.05812547355890274,0.06949101388454437,0.06321512907743454
1772568163762993200,7.0869931640625,-0.021375234853476286,-0.24900226988587526,0.034902386555075646,0.05524156242609024,0.08239441365003586,0.05625072866678238
1772568163773065200,7.097065185546875,0.07659574842453003,-0.19262016518954186,-0.044098669445514674,0.06882475316524506,0.08610312640666962,0.05823531746864319
1772568163783136300,7.10713623046875,0.12057575992643832,-0.0885202872350812,-0.12001286534667015,0.08198514580726624,0.0866047665476799,0.07571767270565033
1772568163793208000,7.1172080078125,0.049765755296498536,-0.0709308910632506,-0.08679331731200218,0.0834868997335434,0.08486545830965042,0.08762440085411072
1772568163803279000,7.127279052734375,-0.03590805646628141,-0.06779504072293639,-0.07313070266246795,0.07198887318372726,0.08701279014348984,0.08957266807556152
1772568163813351200,7.13735107421875,-0.11159238913431763,-0.06685052641443907,-0.06012918227016925,0.06155247986316681,0.07050864398479462,0.08516168594360352
1772568163823422200,7.147422119140625,-0.16513664005622267,-0.04215250381380319,-0.07184709259271621,0.05665738135576248,0.03969607502222061,0.07718883454799652
1772568163833494300,7.157494384765625,-0.21063421651422976,0.017763839423283932,-0.15943594419658183,0.05293481796979904,-0.0005331011489033699,0.07186862826347351
1772568163843565300,7.1675654296875,-0.20633155088424682,0.0654174248714,-0.26099369992017746,0.05215902999043465,-0.028947405517101288,0.06391356140375137
1772568163853636400,7.17763623046875,-0.14424173606559634,0.11190255106203258,-0.2764414444208145,0.05284719541668892,-0.040905267000198364,0.05978859215974808
1772568163863708200,7.187708251953125,-0.03686740301772952,0.14619177415482698,-0.26986849577128885,0.0559709370136261,-0.05200253427028656,0.05518481507897377
1772568163873779000,7.197779052734375,0.039895957058668136,0.19136969020441175,-0.2543698978662491,0.059207215905189514,-0.06928298622369766,0.05484659597277641
1772568163883851000,7.20785107421875,0.009010843320935965,0.2641610048446804,-0.2141582989871502,0.06462740898132324,-0.08933882415294647,0.059136707335710526
1772568163893922000,7.217922119140625,-0.04261412997618318,0.26055684287287295,-0.18549626812636852,0.06354349851608276,-0.0658089891076088,0.06598023325204849
1772568163903994000,7.227994140625,-0.1648870492093265,0.22929624688625333,0.06806757405400275,0.058276090770959854,-0.04091798514127731,0.05788286030292511
1772568163914065200,7.238065185546875,-0.23110753409191964,0.21880364057496188,0.22645430145859716,0.04391712322831154,-0.01633487641811371,0.04205116629600525
1772568163924137200,7.24813720703125,-0.27815993877649303,0.2117091522693634,0.2914525510698557,0.032532185316085815,0.007291221525520086,0.029789499938488007
1772568163934208300,7.258208251953125,-0.28319851746559144,0.1661130838729441,0.26879589810371396,0.018046988174319267,0.029275350272655487,0.014617472887039185
1772568163944280000,7.268280029296875,-0.2684993993751705,0.15730594643056392,0.17160335185229778,0.009881624951958656,0.03885234147310257,-0.0016575176268815994
1772568163954351000,7.27835107421875,-0.2183778163783252,0.1811108926489949,0.06637187605202198,0.008530603721737862,0.04324842244386673,-0.014777847565710545
1772568163964423200,7.288423095703125,-0.1661507855348289,0.22076719573289155,0.034437691652774806,0.008482169359922409,0.03583429381251335,-0.02017338201403618
1772568163974494200,7.298494140625,-0.13358955527842045,0.21229484320282935,-0.007765373304486275,0.011651065200567245,0.03545505926012993,-0.017623139545321465
1772568163984566300,7.308566162109375,-0.10856135087534785,0.17301080749742687,0.02037058785557747,0.004708950407803059,0.038239043205976486,-0.01792004704475403
1772568163994637300,7.31863720703125,-0.1285503920674324,0.1559212871391326,0.08741641764640808,-0.00709577789530158,0.04297227784991264,-0.017234813421964645
1772568164004708000,7.3287080078125,-0.13231617434173823,0.08579963009953498,0.09588321721851825,-0.02181404083967209,0.05337345227599144,-0.014225473627448082
1772568164014780200,7.3387802734375,-0.1144768585294485,0.03976641239486634,0.04986439336538315,-0.03397057205438614,0.055818766355514526,-0.011358579620718956
1772568164024851200,7.348851318359375,-0.05660436914488673,0.013930910196900367,-0.08274491870403289,-0.031892240047454834,0.025970324873924255,-0.006095375400036573
1772568164034923000,7.358923095703125,0.006384440340101718,-0.00806771725192666,-0.2755623234987259,-0.022409256547689438,0.002802154514938593,0.0011414983309805393
1772568164044994000,7.368994140625,0.037602877685427666,-0.050710415735468264,-0.298104410174489,-0.006891189608722925,-0.018420010805130005,0.006520494818687439
1772568164055066000,7.379066162109375,0.07308905547782778,-0.07451273160539568,-0.2442173371642828,0.007682693190872669,-0.015023681335151196,0.010589271783828735
1772568164065137200,7.38913720703125,0.05539528561607003,-0.10101510021425783,-0.11050503228902817,0.005210858769714832,0.001260414719581604,0.013657059520483017
1772568164075209200,7.399209228515625,0.007295856096595526,-0.11265030068941413,0.026993805387616157,-0.012904762290418148,0.009509023278951645,0.016474418342113495
1772568164085280300,7.4092802734375,-0.021799451614916324,-0.16765636779218912,0.026452538117766378,-0.023250896483659744,0.009264112450182438,0.010503995232284069
1772568164095352000,7.41935205078125,0.01857771308943629,-0.21739896140880882,-0.03486380811035633,-0.023671675473451614,-0.006453864276409149,0.003943298012018204
1772568164105423000,7.429423095703125,0.08987900836765765,-0.20583952958360313,-0.12550620206594468,-0.01581093668937683,-0.013976087793707848,0.0008185715414583683
1772568164115495200,7.4394951171875,0.12051701547652482,-0.1592022085059434,-0.10043781178295612,-0.009689394384622574,-0.014006448909640312,0.004891876596957445
1772568164125566200,7.449566162109375,0.11131956354230642,-0.1522826383758336,-0.0358498965382576,-0.005268496461212635,-0.005815806332975626,0.006073331926018
1772568164135638300,7.45963818359375,0.11698840295895933,-0.17841018232293426,-0.011847089660167693,-0.006045606918632984,-0.00013661524280905724,0.010890457779169083
1772568164145709000,7.469708984375,0.13409589736536145,-0.16069997278302908,-0.005433715486526489,-0.003621441312134266,-0.0030865308362990618,0.011798767372965813
1772568164155781400,7.479781494140625,0.1544191389478743,-0.11829188677296042,-0.057122401669621466,0.006078057922422886,-0.019696135073900223,0.016372479498386383
1772568164165852200,7.48985205078125,0.15038316143006086,-0.09514138587526977,-0.0741132839590311,0.01634414866566658,-0.036800384521484375,0.019568031653761864
1772568164175924000,7.499924072265625,0.11239596060216427,-0.1102453584395349,-0.09531506194174288,0.024998091161251068,-0.027607150375843048,0.023416301235556602
