time,seconds_elapsed,accel_x,accel_y,accel_z,gyro_x,gyro_y,gyro_z
1772363461895958000,0.1139580078125,-0.07188523264601826,-0.14015081349015235,-0.085956281965971,-0.007651262450963259,0.0169764943420887,0.017419565469026566
1772363461906028000,0.124028076171875,0.02927899371534586,-0.06622340749204159,-0.04793254851996898,-0.0020179683342576027,0.03695379197597504,0.01996970921754837
1772363461916097000,0.134096923828125,0.057343497074395414,-0.021619126611948012,0.03914776903986931,-0.0015284791588783264,0.05340227112174034,0.011300320737063885
1772363461926167000,0.1441669921875,-0.003258271143585443,0.010245499682426452,-0.0946872854322195,0.009566506370902061,0.04109298810362816,0.0076221926137804985
1772363461936236000,0.154236083984375,0.006538754118978977,0.03131283763051033,-0.2597252874195576,0.02154567278921604,0.02016453631222248,0.010610259138047695
1772363461946306000,0.16430615234375,0.015191870043426751,0.027149872732162475,-0.29148469977378844,0.02167724072933197,0.012315290048718452,0.0054706609807908535
1772363461956374800,0.174374755859375,0.04654313998818397,0.04374094204902649,-0.2051344500541687,0.03021373599767685,-0.0012473908718675375,0.0014104056172072887
1772363461966445000,0.184445068359375,0.11177841322571039,0.08087327961325645,-0.1155056170552969,0.02876969426870346,-0.005207344423979521,-0.0026775747537612915
1772363461976513800,0.194513671875,0.13289265905544162,0.10168225888609886,-0.03140869922041893,0.016335396096110344,-0.014787799678742886,-0.0003334600478410721
1772363461986584000,0.204583984375,0.10691796758249401,0.08335808216631412,0.04386953686475754,0.00006177742034196854,-0.012476090341806412,0.0004458730109035969
1772363461996653000,0.214653076171875,0.07402969732880592,0.03041910366117954,0.08641571617126464,-0.016337968409061432,-0.00891304761171341,0.004303461872041225
1772363462006722800,0.224722900390625,0.04125409366935491,-0.059684361112117765,0.11768296109437942,-0.02695084922015667,0.00576308649033308,0.008395738899707794
1772363462016792000,0.2347919921875,0.0035989012748003004,-0.07119768877327441,0.15137538733780384,-0.036374177783727646,0.022318894043564796,0.004729099106043577
1772363462026861800,0.24486181640625,0.006962678619474172,-0.042221769657731056,0.1292518183350563,-0.04110535979270935,0.017506197094917297,0.0020941393449902534
1772363462036931000,0.25493115234375,0.02295928917452693,-0.02017009684741497,0.049937458601593966,-0.04670358821749687,0.014580447226762772,-0.0025815721601247787
1772363462047000800,0.265000732421875,0.04392974261939525,-0.012269698986411094,0.018559154519438743,-0.035094253718853,0.006580564193427563,-0.009736355394124985
1772363462057070000,0.275070068359375,0.06393719625100493,0.023670798444747922,0.03639233285188675,-0.020762719213962555,0.003334970213472843,-0.012002173811197281
1772363462067139800,0.285139892578125,0.0241762637488544,0.018313070803880692,0.03705401163101196,-0.01462708879262209,0.00837001483887434,-0.014966381713747978
1772363462077209000,0.295208984375,-0.06643149728477,-0.03352934463620186,-0.0034919337689876553,-0.001084914430975914,0.007753758691251278,-0.011646484956145287
1772363462087279000,0.305279052734375,-0.0690244363874197,-0.040457098072767254,-0.011298808127641677,0.0144299091771245,0.0028119045309722424,-0.0027449517510831356
1772363462097348000,0.31534814453125,-0.0499349743835628,-0.06382511417865752,-0.0037526305317878723,0.028163034468889236,-0.001026242971420288,0.0028109350241720676
1772363462107418000,0.325418212890625,-0.069964785977453,-0.034031448939442634,-0.02122398981451988,0.0483233816921711,0.0022724405862390995,0.016359049826860428
1772363462117486800,0.33548681640625,-0.07837678662240505,-0.015936404800415038,0.012739654585719108,0.03528454527258873,-0.002636830322444439,0.005354869179427624
1772363462127557000,0.34555712890625,0.0013055296406149863,0.0004611877709627151,0.009158873489499092,0.03193987160921097,-0.01460203342139721,0.006331680342555046
1772363462137625900,0.3556259765625,0.09581965046301484,0.03709960433840751,0.011847089660167693,0.031201379373669624,0.001679734792560339,0.002882353961467743
1772363462147696000,0.365696044921875,0.051423313245177266,0.10805647009313106,0.11903554474711417,0.028374936431646347,0.009235462173819542,-0.005075281020253897
1772363462157764900,0.375764892578125,0.05972761573195457,0.14831424620151518,0.0945475847005844,0.01428734976798296,-0.003979142755270004,-0.009594932198524475
1772363462167835000,0.3858349609375,0.0867576614767313,0.10115560466349124,0.000533083963394165,-0.0054632518440485,-0.014479666948318481,-0.01176832802593708
1772363462177903900,0.39590380859375,0.05819456094577908,0.06063946987986564,-0.05524783996939659,-0.021177764981985092,-0.020571116358041763,-0.0050904517993330956
1772363462187974000,0.405973876953125,0.013100596852600574,-0.03920096053183079,-0.11126841787695885,-0.0371711403131485,-0.026778871193528175,0.002273611258715391
1772363462198043000,0.41604296875,-0.008621405611932278,-0.1242015492081642,-0.12600713732540605,-0.045752909034490585,-0.02217426523566246,0.0043213157914578915
1772363462208113000,0.42611279296875,-0.021883038245141505,-0.12290040348172188,-0.05935059911310672,-0.048135604709386826,-0.00891563855111599,0.003646350931376219
1772363462218182100,0.43618212890625,-0.032868834900856014,-0.07801438305079937,0.020278233397006986,-0.04142603650689125,0.004861160181462765,-0.002412607427686453
1772363462228252000,0.446251953125,-0.004516600641608238,0.002096095496416092,0.06785831521749495,-0.03241816908121109,0.010032067075371742,-0.0008938433602452278
1772363462238321200,0.456321044921875,-0.04092909949868917,0.03495616256892681,0.04238368222117424,-0.01070062443614006,0.013178059831261635,-0.004022258333861828
1772363462248391000,0.466390869140625,-0.05580065154656767,0.057903907436132426,0.020499767193198203,0.00659802183508873,0.008460255339741707,-0.0000016195699572563171
1772363462258460200,0.476460205078125,-0.0816620919033885,0.04169453091323375,-0.009438859474658966,0.024783682078123093,0.003410103265196085,0.004975295625627041
1772363462268530000,0.486530029296875,-0.1010014370150864,0.023793548041582107,-0.013902268624305724,0.034376129508018494,0.001430463045835495,0.01669430546462536
1772363462278599000,0.496598876953125,-0.11706994376257061,-0.010226210460066795,0.036384149545431135,0.039857447147369385,0.010028212331235409,0.02253168821334839
1772363462288669000,0.5066689453125,-0.13171440905630588,-0.07079086153805256,0.09748246910870074,0.0375925675034523,0.021563740447163582,0.023416409268975258
1772363462298738000,0.516738037109375,-0.08166706033945083,-0.06816051303446292,0.11109539939761161,0.033400751650333405,0.022557366639375687,0.022844895720481873
1772363462308808200,0.52680810546875,-0.03641556759700179,-0.028607670325040815,0.0344815307945013,0.0393720306456089,0.015508832409977913,0.021504536271095276
1772363462318877000,0.536876953125,0.015071458534151315,0.021564181554317472,-0.03117255237698555,0.04274199530482292,0.022977666929364204,0.026059607043862343
1772363462328947000,0.546947021484375,0.004205050474405289,0.03937339448928833,-0.07708207063674927,0.04541391506791115,0.0254113357514143,0.02823743037879467
1772363462339016000,0.557015869140625,0.0010027473017573357,0.0331570041924715,-0.08484159872233867,0.042931314557790756,0.022386783733963966,0.024841366335749626
1772363462349086000,0.5670859375,0.05123918884992599,0.033848493587970735,-0.05828384666442871,0.03520430624485016,0.02590816281735897,0.021347124129533768
1772363462359155000,0.577155029296875,0.06504091970920563,0.010481062003970145,-0.04524433234930038,0.02390877716243267,0.031354859471321106,0.019475188106298447
1772363462369225000,0.587224853515625,0.03761602942794561,0.0253840321034193,-0.09031389265358447,0.01377377100288868,0.029246388003230095,0.021037334576249123
1772363462379294000,0.5972939453125,0.023513708186894654,0.0498053566545248,-0.12594108635187148,0.007952101528644562,0.019387099891901016,0.01736164093017578
1772363462389364000,0.607364013671875,0.033587942955642935,0.032577742999792096,-0.0991010102212429,-0.004219958558678627,0.01782516948878765,0.013134606182575226
1772363462399433000,0.617432861328125,0.048815614964812994,0.002982230681180954,-0.052176761960983274,-0.010645899921655655,0.021029751747846603,0.010382229462265968
1772363462409503000,0.6275029296875,0.054539253308624025,-0.028508886125683783,-0.04421440477967262,-0.020502157509326935,0.027497531846165657,0.015237841755151749
1772363462419572000,0.637572021484375,0.029276947888731954,-0.08437982642948627,-0.054444122371077534,-0.02565351128578186,0.03434957563877106,0.018661601468920708
1772363462429642000,0.64764208984375,0.05033785609602928,-0.11730126830041408,-0.020510873109102247,-0.03236209601163864,0.04115317016839981,0.020610971376299858
1772363462439711000,0.6577109375,0.06710004419609904,-0.1256780515015125,0.013493103301525115,-0.029189471155405045,0.04181709513068199,0.018289227038621902
1772363462449781000,0.667781005859375,0.0801633777782321,-0.07928980981409549,0.04798340192437172,-0.017520666122436523,0.04414466768503189,0.010475908406078815
1772363462459850000,0.67785009765625,0.12920125719159842,0.007636778488755226,0.08163549615740776,-0.005560942925512791,0.04696549475193024,0.010030361823737621
1772363462469920000,0.687919921875,0.08973404693901538,0.028967151287198064,0.05654664760828018,0.008344531059265137,0.04720593988895416,0.0061955926939845085
1772363462479989000,0.697989013671875,0.07139262682348489,0.05235211852788925,0.04314706780910492,0.016401126980781555,0.045846663415431976,0.0006919042207300663
1772363462490059000,0.70805908203125,0.07315306062474847,0.0635083033144474,0.026104163071513174,0.020168937742710114,0.03388648107647896,-0.0016328790225088596
1772363462500128000,0.7181279296875,0.0744191350378096,0.04865794018507003,0.000879120922088623,0.024643316864967346,0.028520477935671806,-0.0036054826341569424
1772363462510197800,0.72819775390625,0.0822919142395258,0.04806172785758972,0.011271335598826407,0.030303314328193665,0.02712893672287464,-0.00750442361459136
1772363462520267000,0.73826708984375,0.09994915148317814,0.04408931709527969,0.060360068416595455,0.03419552370905876,0.025812001898884773,-0.010454406961798668
1772363462530337000,0.7483369140625,0.10033610497415066,0.04006488388478756,0.05921148290336132,0.029421981424093246,0.02460944652557373,-0.005943379830569029
1772363462540406000,0.758406005859375,0.07388327459543943,0.00926350290775299,0.008728665378689765,0.022022657096385956,0.025072569027543068,-0.006379339378327131
1772363462550476000,0.76847607421875,0.04534077846109867,-0.04447627058625221,-0.0033469723403453827,0.01893489435315132,0.03207547962665558,-0.002376176416873932
1772363462560545000,0.778544921875,0.036850451882928605,-0.05278408020436764,0.023823358657956123,0.010879365727305412,0.03226376697421074,-0.011111345142126083
1772363462570615000,0.788614990234375,0.09101634183451533,0.005850479593873023,0.0153062902033329,0.005898749455809593,0.018674110993742943,-0.018777677789330482
1772363462580684000,0.79868408203125,0.09623451487421988,0.02295592817366123,-0.07100421202778816,-0.00046966690570116043,0.00647310446947813,-0.019624562934041023
1772363462590754000,0.808754150390625,0.045524172203987835,0.004146013763546943,-0.1181020632892847,0.0031280517578125,-0.005191479343920946,-0.020165763795375824
1772363462600823000,0.818822998046875,0.005025719207525253,0.004129647150635719,-0.1058896474480629,0.017487017437815666,-0.011175869032740593,-0.02513841539621353
1772363462610893000,0.82889306640625,0.0015314473509788513,0.03237959007918834,-0.0688023180693388,0.033726274967193604,-0.01849314384162426,-0.031147968024015427
1772363462620961800,0.8389619140625,0.026240795063227414,0.08427636605501175,-0.04667933358848095,0.04520289972424507,-0.020621275529265404,-0.02960652858018875
1772363462631032000,0.849031982421875,-0.026907880669832226,0.04983516727089882,-0.0557049360871315,0.04573776572942734,-0.024113185703754425,-0.028344321995973587
1772363462641100800,0.859100830078125,-0.09355039035677909,0.023721651849150656,-0.08069909209012985,0.04922570660710335,-0.030864300206303596,-0.031203489750623703
1772363462651171000,0.869171142578125,-0.040786476157605646,0.04538461760282516,-0.04778291091620922,0.045456334948539734,-0.041449882090091705,-0.029686298221349716
1772363462661239800,0.87923974609375,-0.01692614649012685,0.04911152917146683,0.015147884771227835,0.03278501331806183,-0.051260702311992645,-0.028973370790481567
1772363462671309800,0.889309814453125,-0.05492562227770686,0.042841362860798836,0.028723990181088444,0.026355857029557228,-0.05143224820494652,-0.029258398339152336
1772363462681379000,0.899379150390625,-0.06213569978699088,0.03183656924366951,0.0612947189182043,0.023131834343075752,-0.05172546207904816,-0.025984840467572212
1772363462691448800,0.90944873046875,-0.04994973356127739,0.05208616106808185,0.11505085902512073,0.021903611719608307,-0.04616192728281021,-0.02515755593776703
1772363462701517800,0.919517822265625,-0.027238720059394834,0.04662263496518135,0.1773053628861904,0.010117793455719948,-0.028540857136249542,-0.021658694371581078
1772363462711587800,0.929587890625,-0.0747464672960341,-0.02432838557064533,0.17497487411201,-0.005683458410203457,-0.012055637314915657,-0.00941501185297966
1772363462721656800,0.93965673828125,-0.12249328398555516,-0.09075345311462879,0.1401917300224304,-0.011378628201782703,-0.006605478003621101,-0.0008343071676790714
1772363462731726800,0.949726806640625,-0.14097089770138263,-0.11856617366969585,0.09484218373298645,-0.01336551085114479,0.0038682278245687485,0.008723649196326733
1772363462741795800,0.9597958984375,-0.15930618033707142,-0.093968323507905,0.06337678588926791,-0.0038353893905878067,0.006890915334224701,0.016884639859199524
1772363462751865900,0.969865966796875,-0.2006884304307401,-0.0690764588356018,0.004602525359392166,0.009715215303003788,0.013497013598680496,0.0178840234875679
1772363462761934800,0.979934814453125,-0.18120047062858938,-0.04261749097704887,-0.033895255339145655,0.02015853300690651,0.014991046860814095,0.020658504217863083
1772363462772004900,0.9900048828125,-0.0875428205050528,0.0010877952367067335,-0.03194061414003372,0.025063563138246536,-0.0010608509182929993,0.022120121866464615
1772363462782073900,1.000073974609375,-0.043051498480141163,-0.014937456890940665,-0.037083822247385975,0.026451602578163147,-0.0030755321495234966,0.025563055649399757
1772363462792144000,1.010143798828125,-0.0365621364608407,-0.036519174101948736,-0.03960077350437641,0.025562547147274017,-0.0037057758308947086,0.026254311203956604
1772363462802212600,1.020212646484375,-0.00598155862763524,-0.011431494596600532,0.008329436928033828,0.025302357971668243,0.005172670353204012,0.023546941578388214
1772363462812283000,1.030282958984375,0.04185293634533882,0.03278758635818958,0.07046119119226932,0.028015898540616035,0.01421827357262373,0.021121252328157425
1772363462822351600,1.0403515625,0.05370850157290697,0.059466334447264665,0.09847498727738857,0.030103815719485283,0.02429753914475441,0.024196403101086617
1772363462832422000,1.050421875,0.04919570032358169,0.04716974745392799,0.08209726845026016,0.02526254951953888,0.026424745097756386,0.01989603228867054
1772363462842491000,1.060490966796875,0.04984525027349591,0.04324994366168976,0.08313245671689509,0.02393149957060814,0.030744390562176704,0.013693530112504959
1772363462852560600,1.070560546875,0.08175020857825875,0.05650806916356087,0.11076689809560775,0.010484584607183933,0.03724358603358269,0.008310684934258461
1772363462862630000,1.0806298828125,0.0841100695773959,0.01496551394164562,0.059839843934774394,0.002419200725853443,0.03543316572904587,0.010873710736632347
1772363462872699600,1.09069970703125,0.06661547554954886,-0.043215456870198246,-0.048885319200158116,-0.01331782154738903,0.028451373800635338,0.009759425185620785
1772363462882769000,1.100768798828125,0.08325506018325686,-0.07219312955141068,-0.1270651219457388,-0.028430461883544922,0.0156391728669405,0.013358155265450478
1772363462892838700,1.110838623046875,0.08916925266310573,-0.08265840946435928,-0.15756664319336414,-0.03314436599612236,0.0072582922875881195,0.002387888263911009
1772363462902908000,1.120907958984375,0.12899097544178365,-0.030622517278790472,-0.11592471925020217,-0.03418220207095146,0.004003376699984074,-0.004288389813154936
1772363462912976600,1.1309765625,0.1454027426689863,0.021544892331957815,-0.08711363530755042,-0.025525053963065147,0.006134591065347195,-0.00812330562621355
1772363462923047000,1.141046875,0.10919000416770577,0.07647299882769584,-0.06453823088407516,-0.008922109380364418,0.0021121525205671787,-0.013528724201023579
1772363462933115600,1.15111572265625,0.07963496998995542,0.09177753546535969,-0.052585927283763885,0.003106893040239811,0.0000141938216984272,-0.01693209819495678
1772363462943186000,1.16118603515625,0.0605932926505804,0.06601999387443065,-0.024130817171931267,0.01841207966208458,-0.009415793232619762,-0.018639182671904564
1772363462953254700,1.171254638671875,0.06582549421563744,0.047933717563748354,0.025576339805126188,0.029194751754403114,-0.011648907326161861,-0.01804637350142002
1772363462963324700,1.18132470703125,0.03876256911456585,-0.005857493856549263,0.08406886078417301,0.02387055940926075,-0.0000029043294489383698,-0.01611318439245224
1772363462973394000,1.191393798828125,0.003710398825258016,-0.07095218957960606,0.10436579888164997,0.02160485088825226,0.005028997082263231,-0.017080005258321762
1772363462983463700,1.201463623046875,-0.004218932869285345,-0.08465104458630085,0.06079729079008102,0.021508175879716873,0.0036641270853579044,-0.014798738993704319
1772363462993533000,1.211532958984375,-0.02941781766414642,-0.07481646379232407,0.005285831448435783,0.022165309637784958,0.0014736275188624859,-0.006991967558860779
1772363463003602700,1.221602783203125,-0.024366087232530115,-0.034576807862520216,-0.04825228199362754,0.028580065816640854,0.00037853559479117393,-0.003986324183642864
1772363463013672000,1.231671875,0.018457447710633276,0.03930792803764343,-0.06760930889248848,0.03387857973575592,0.00019971653819084167,-0.012063599191606045
1772363463023741700,1.24174169921875,0.07584609910100698,0.09345511328876017,-0.07817980274558067,0.03490149974822998,-0.008670739829540253,-0.020542573183774948
1772363463033811000,1.25181103515625,0.13840908438935876,0.1454156021505594,-0.0630289953649044,0.027240891009569168,-0.011461447924375534,-0.023761112242937088
1772363463043880700,1.261880615234375,0.10802344460636376,0.11864742221236228,-0.05718669907748699,0.01560953352600336,-0.011833759024739265,-0.026318814605474472
1772363463053950000,1.271949951171875,0.0539173220179975,0.10078443326354027,-0.07393558930456638,0.00580722838640213,-0.02178822085261345,-0.03955662250518799
1772363463064020000,1.28202001953125,0.070199763777107,0.11930500933825969,-0.0818605370849371,-0.010340848937630653,-0.03275937959551811,-0.04425283893942833
1772363463074088700,1.292088623046875,0.07398191266432404,0.08332476441860198,-0.10786474691331385,-0.02088557928800583,-0.03997728228569031,-0.039944957941770554
1772363463084159000,1.302158935546875,0.056555999958515166,0.034795419049263,-0.08859948995113372,-0.030179213732481003,-0.04047715663909912,-0.02848723903298378
1772363463094227700,1.312227783203125,0.004949000709503889,-0.08490764969587325,-0.0258896435379982,-0.031200747936964035,-0.025287490338087082,-0.033450886607170105
1772363463104298000,1.322298095703125,0.04611176283359527,-0.03568564588725567,0.09707271926403045,-0.041370827704668045,-0.002746228827163577,-0.02753147855401039
1772363463114366700,1.33236669921875,-0.0045180619463324545,-0.03696750239133834,0.12163199098110199,-0.039814382791519165,0.0038484307006001472,-0.031083500012755394
1772363463124436700,1.342436767578125,-0.06257672155275941,-0.03209785052835941,0.05305003766417503,-0.04869362711906433,-0.004069413989782333,-0.03599703311920166
1772363463134505700,1.352505615234375,-0.03452800028473139,-0.000730067840218544,-0.013505378261208534,-0.042164888232946396,-0.021066773682832718,-0.03823541849851608
1772363463144575700,1.36257568359375,-0.05580021315515041,-0.009013327538967133,-0.02249357135891914,-0.03817867115139961,-0.0218028724193573,-0.034280091524124146
1772363463154644700,1.372644775390625,-0.1233813188664615,-0.04286240564882755,0.052768298113346095,-0.02951166033744812,-0.020216122269630432,-0.027889231219887733
1772363463164714800,1.38271484375,-0.14170155006349086,-0.06344517495036125,0.08157587492465973,-0.0234854593873024,-0.022502977401018143,-0.025377603247761726
1772363463174783700,1.39278369140625,-0.14010478239133953,-0.05345277324616909,0.1098328321158886,-0.0172592643648386,-0.01579323783516884,-0.01640705019235611
1772363463184853800,1.402853759765625,-0.1226534429833293,-0.025116905599832533,0.15778817698955536,-0.0146411107853055,-0.004180790390819311,-0.0061719901859760284
1772363463194923000,1.412923095703125,-0.1250087739378214,-0.03129705553948879,0.17352058365046977,-0.009143538773059845,0.003892676904797554,-0.0019103619270026684
1772363463204992800,1.42299267578125,-0.1203594868272543,-0.009438859474658966,0.16107377453148364,-0.0044473204761743546,0.005114801228046417,0.004631426651030779
1772363463215062000,1.43306201171875,-0.09877440861538052,0.03532031970620155,0.1800900251686573,0.0015605976805090904,0.00998719409108162,0.0082100173458457
1772363463225131800,1.4431318359375,-0.04727262330651283,0.06367138492166996,0.21325755075514316,0.0005749622359871864,0.01841689832508564,0.012133119627833366
1772363463235200800,1.45320068359375,-0.051248395069688556,0.05367664512991905,0.1705997277677059,0.0019060531631112099,0.022634457796812057,0.019515052437782288
1772363463245270800,1.463270751953125,-0.03731032447963953,0.04771101472377777,0.11496844143867492,-0.0015619155019521713,0.01682184264063835,0.023516451939940453
1772363463255339800,1.47333984375,-0.03431757240444422,0.026909634235501287,0.05421674335598945,-0.0008031418547034264,0.012050598859786987,0.029414702206850052
1772363463265409800,1.483409912109375,-0.045468350363522765,0.009425415471196174,0.005548866298794746,0.0007803738117218018,0.0055732582695782185,0.02746446803212166
1772363463275478800,1.493478759765625,-0.01581833137869835,0.016647183418273925,-0.03837035492658615,0.009279269725084305,0.000290650874376297,0.02894393727183342
1772363463285548800,1.503548828125,0.01747851967588067,0.04608487482666969,-0.0717775344878435,0.01147904247045517,-0.0037653434555977583,0.020745130255818367
1772363463295617800,1.51361767578125,0.010647796873003244,0.038111411729454994,-0.12606851212382317,0.012687304057180882,-0.01292926725000143,0.01457051932811737
1772363463305687800,1.523687744140625,0.00014028525352478027,0.0274842192530632,-0.17214169651269912,0.011016703210771084,-0.03132558614015579,0.010041813366115093
1772363463315756800,1.5337568359375,0.019338906720280647,0.045669864284992215,-0.17803543072640896,0.012590911239385605,-0.04228371009230614,0.0018039294518530369
1772363463325826800,1.543826904296875,0.05527998867332935,0.06780512372553348,-0.12390811921954155,0.008784456178545952,-0.045029427856206894,-0.006558396387845278
1772363463335895800,1.553895751953125,0.04448854554593563,0.060817164534330365,-0.029213235002756115,0.0003345794975757599,-0.03601649031043053,-0.007617011666297913
1772363463345965800,1.5639658203125,0.0173747670404613,0.04238426674306393,0.013525252005457877,-0.007953976280987263,-0.03225131332874298,-0.011037575080990791
1772363463356034800,1.574034912109375,0.02572042445093393,0.028251111972332,0.030913024657964704,-0.01084226742386818,-0.027159489691257477,-0.008423516526818275
1772363463366104800,1.584104736328125,0.02497720486819744,0.0061859951585531234,0.03361643839776516,-0.0172202717512846,-0.02000650390982628,-0.0023389928974211216
1772363463376173800,1.594173828125,0.02011398274600506,-0.0062754270076751705,0.012300094124674796,-0.02728593721985817,-0.013774935156106949,0.0018233349546790123
1772363463386243800,1.604243896484375,0.0013249649934470654,-0.027574820145964622,-0.017584756529331207,-0.03709382563829422,-0.009904030710458755,0.00942213274538517
1772363463396312800,1.614312744140625,-0.010519055926799773,-0.03707330085337162,-0.026323358780145644,-0.05168534442782402,-0.00862449686974287,0.014402022585272789
1772363463406382800,1.6243828125,-0.03308993030562997,-0.09434592464864254,-0.027148119166493415,-0.06163358315825462,-0.00889267772436142,0.021598681807518005
1772363463416451800,1.634451904296875,-0.026602614112943408,-0.10255787267684936,0.006952303355932235,-0.06703683733940125,-0.006380327045917511,0.024459294974803925
1772363463426521900,1.64452197265625,-0.026370705053210257,-0.07359715113043784,0.007720365118980407,-0.05769633501768112,0.006960246246308088,0.02280600368976593
1772363463436590800,1.6545908203125,0.004773498012125492,-0.020804303097724915,-0.018040099081397056,-0.045056868344545364,0.008839398622512817,0.025641875341534615
1772363463446659800,1.664659912109375,0.04696034248694777,-0.0037280806124210357,-0.08471241938471794,-0.02319098636507988,-0.002135488437488675,0.02272704616189003
1772363463456729900,1.674729736328125,0.0904652838230133,0.026803835773468017,-0.08388122925758361,-0.0031080441549420357,-0.0015579387545585632,0.0264295544475317
1772363463466798800,1.684798828125,0.08348843054771422,0.03630816169977188,-0.030711364606022834,0.01909872516989708,-0.0005478016100823879,0.02197568491101265
1772363463476868900,1.694868896484375,0.06978811423629522,0.059225511428713795,0.016609189495444297,0.03817925602197647,0.010455544106662273,0.019863715395331383
1772363463486937900,1.704937744140625,0.09817337398231028,0.12409867335557936,0.07072188795506953,0.04387442395091057,0.014454014599323273,0.017578991129994392
1772363463497007900,1.7150078125,0.11824717084839939,0.1318441729158163,0.08182195864021778,0.0407819040119648,0.00964103452861309,0.01821739599108696
1772363463507076900,1.725076904296875,0.0744170892111957,0.02769815426468849,0.05245850151181221,0.029255744069814682,0.010705765336751938,0.01496940478682518
1772363463517147000,1.73514697265625,0.06626037850156426,-0.005649404063820839,0.05802782607674598,0.010613196529448032,0.009005038999021053,0.011164987459778786
1772363463527215600,1.745215576171875,0.097519293987751,-0.023026070800423622,0.0745183576285839,-0.009030546993017197,0.01316649466753006,0.01058894582092762
1772363463537286000,1.755285888671875,0.10255305037125945,-0.03147182758450508,0.05154021762311458,-0.025204041972756386,0.01889355480670929,0.00952213816344738
1772363463547354600,1.765354736328125,0.07638751250132918,-0.03806289641261101,-0.007296002227067947,-0.038141146302223206,0.024826278910040855,0.005888520739972591
1772363463557425000,1.7754248046875,0.06612184681370854,-0.025377017840743064,-0.0834369926214218,-0.04356309399008751,0.015165356919169426,0.004513723775744438
1772363463567494000,1.785493896484375,0.08847206417918205,0.012435703203082083,-0.15616612874567506,-0.04836956784129143,0.005433367565274239,-0.0016299220733344555
1772363463577563600,1.795563720703125,0.0826470112875104,0.022748422902822495,-0.16683073062300682,-0.050576161593198776,-0.0037084389477968216,-0.0071321409195661545
1772363463587633000,1.8056328125,0.07266688454300164,0.06262216812968253,-0.11630991917550564,-0.0448002964258194,-0.007208365015685558,-0.007306843996047974
1772363463597702700,1.81570263671875,0.052693479311466215,0.06353285323381423,-0.043970074629783626,-0.03178323805332184,-0.0020719789899885654,-0.014732012525200844
1772363463607772000,1.82577197265625,0.02559972068071365,0.06423077237010001,0.02032031897306442,-0.01650601252913475,-0.0030155370477586985,-0.018367227166891098
1772363463617841700,1.835841552734375,0.017405308309197426,0.049768531775474543,0.05155950684547424,-0.009854564443230629,0.0021790112368762493,-0.010703973472118378
1772363463627911000,1.845910888671875,-0.05910846092030406,-0.007940145349502563,0.06193477038741112,-0.0011939648538827896,0.00785900093615055,-0.015071555972099304
1772363463637980700,1.855980712890625,-0.12247823254689573,-0.058604749181866644,0.05470657269954681,0.0072747766971588135,0.011608818545937538,-0.003774602897465229
1772363463648050000,1.8660498046875,-0.1635968632683158,-0.07120411851406097,0.08992869272828101,0.009929150342941284,0.01602141000330448,-0.0011665690690279007
1772363463658120000,1.876119873046875,-0.15498597905039788,-0.01645136858522892,0.12526654809117316,0.011167611926794052,0.00928934570401907,0.00001970399171113968
1772363463668189000,1.88618896484375,-0.08698299466520547,0.014944471153616905,0.0609983663201332,0.006527852267026901,-0.006812126375734806,0.006954841781407595
1772363463678259000,1.896259033203125,-0.03252148276790976,0.024819383957982062,-0.036005379360914226,0.015241523273289204,-0.018086783587932587,0.0036139339208602905
1772363463688327700,1.90632763671875,0.0458797076433897,0.08652443724274635,-0.04641162256300449,0.021838970482349396,-0.020239682868123055,0.007574054412543774
1772363463698398000,1.91639794921875,0.05827668627128005,0.1104208611369133,-0.008140636357665062,0.021490711718797684,-0.013811299577355385,0.007603146135807037
1772363463708470300,1.92647021484375,0.03171396577730775,0.10231938774585723,-0.022770050212740898,0.025774672627449036,-0.016022255644202232,-0.0021903621964156628
1772363463718540500,1.93654052734375,0.02823869088217616,0.08813245696127414,-0.058818099671602245,0.02625669538974762,-0.025631682947278023,-0.00337577098980546
1772363463728609300,1.946609375,0.034032617983222005,0.09804536368846893,-0.0916290669053793,0.02482231706380844,-0.02911243587732315,-0.008479451760649681
1772363463738679300,1.95667919921875,0.005456073448807001,0.12614099283814428,-0.11114683732390403,0.015982670709490776,-0.04838172346353531,-0.01808740384876728
1772363463748748300,1.966748291015625,0.03075023531168699,0.12404781995117664,-0.10971826582551002,0.0030269240960478783,-0.059488438069820404,-0.02343796007335186
1772363463758818300,1.976818359375,0.04048953903764486,0.08944529312551021,-0.0943997006624937,-0.010206570848822594,-0.06564190238714218,-0.02818869799375534
1772363463768887300,1.98688720703125,0.03281359758228063,0.033414778345823286,-0.0579530072748661,-0.027059586718678474,-0.06611035019159317,-0.027491219341754913
1772363463778957300,1.996957275390625,0.014195406351983547,-0.06191840377449989,-0.026981530427932738,-0.03350912034511566,-0.059248536825180054,-0.030301477760076523
1772363463789026300,2.0070263671875,0.01945376527160406,-0.09583470190167427,0.02283785475194454,-0.04052814841270447,-0.05062894895672798,-0.038987912237644196
1772363463799096300,2.017096435546875,0.038325639002025125,-0.108856680560112,0.07095160505771636,-0.04388301819562912,-0.036492399871349335,-0.035294704139232635
1772363463809165300,2.027165283203125,0.0019100714050233362,-0.12294190453588962,0.09205284527540207,-0.03955351561307907,-0.025338012725114822,-0.03563878312706947
1772363463819235300,2.0372353515625,-0.024698534057289362,-0.09674071083068847,0.06784662477970123,-0.025140512734651566,-0.01737663336098194,-0.02781905233860016
1772363463829304300,2.04730419921875,-0.0313544848151505,-0.06497369969189166,0.04401858994662761,-0.009140241891145706,-0.019550304859876633,-0.023220838978886604
1772363463839374300,2.057374267578125,-0.009009089755266904,-0.03197100927829742,0.044780806490778924,-0.0004333220422267914,-0.026877708733081818,-0.023395083844661713
1772363463849443000,2.067443115234375,-0.008228022380173205,-0.019482699105143546,0.08285422429740429,0.0048341453075408936,-0.020424336194992065,-0.017625611275434494
1772363463859513300,2.077513427734375,-0.03575447333976626,-0.047805707269906995,0.13010229768455028,0.007030259817838669,-0.0036274688318371773,-0.01139724813401699
1772363463869582300,2.087582275390625,-0.07328735452890396,-0.08267419155538082,0.1438046598225832,0.014100421220064163,0.009449717588722706,-0.012201789766550064
1772363463879652400,2.09765234375,-0.051503977265954015,-0.04006137675344944,0.11244155330955982,0.019952692091464996,0.008997108787298203,-0.0095608439296484
1772363463889721300,2.107721435546875,-0.04603139107376337,-0.0025590368330478666,0.028452187502384183,0.024974878877401352,-0.0005679000169038773,-0.012359026819467545
1772363463899790300,2.117790283203125,0.010263035339117049,0.03645370765030384,-0.0460714308232069,0.025541678071022034,-0.021696951240301132,-0.008544251322746277
1772363463909860400,2.1278603515625,0.05850435754731297,0.03323708369135856,-0.025272388422489165,0.024849258363246918,-0.020691342651844025,-0.009376488626003265
1772363463919929300,2.137929443359375,0.043398412221670145,0.03911503581404686,0.036627310651540755,0.025704052299261093,-0.010778458788990974,-0.008751509711146355
1772363463929999400,2.147999267578125,0.010467471870034932,0.04082183973193168,0.10232464844286442,0.02303742989897728,0.005756308790296316,-0.01004260964691639
1772363463940068400,2.158068359375,-0.021850158888846633,0.013906944799423218,0.09386427861154079,0.01897420734167099,0.012410404160618782,-0.0138353630900383
1772363463950138400,2.168138427734375,-0.017571604786813258,0.008622282394766806,0.017515782946348188,0.0172404907643795,0.006810309831053019,-0.017055658623576164
1772363463960207000,2.17820703125,0.0018174246855080128,0.023601824861764906,-0.08349953646361827,0.01679491624236107,-0.00356049626134336,-0.019861143082380295
1772363463970277400,2.18827734375,-0.027656068688631057,0.03215454915165901,-0.14817162286043167,0.028010282665491104,-0.011734535917639732,-0.023998364806175232
1772363463980346000,2.19834619140625,-0.034735797816514966,0.0409603714197874,-0.1274514909148216,0.03446435183286667,-0.01961006224155426,-0.02335241809487343
1772363463990416400,2.20841650390625,-0.046761020522564645,0.046507484152913094,-0.1205722527951002,0.03308030962944031,-0.024499891325831413,-0.021889012306928635
1772363464000485400,2.2184853515625,-0.05949132275804877,0.01791267330944538,-0.10059738625884056,0.02796131931245327,-0.026294494047760963,-0.017821546643972397
1772363464010555400,2.228555419921875,-0.05738616717234254,-0.006829553759098053,-0.05046645091176033,0.0167161226272583,-0.020660310983657837,-0.017987195402383804
1772363464020624400,2.238624267578125,-0.06909165640473365,-0.014631167420744894,-0.0038747956067323682,0.0070859212428331375,-0.013367980718612671,-0.012916315346956253
1772363464030694100,2.248694091796875,-0.08913608104586601,-0.048131285962462425,-0.024795418560504913,-0.0021584443747997284,-0.013776775449514389,-0.010161807760596275
1772363464040763400,2.258763427734375,-0.10872969317957758,-0.04618775067925453,-0.0640004707455635,-0.0031279074028134346,-0.016662944108247757,-0.011563723906874657
1772363464050833200,2.268833251953125,-0.08400514789819717,-0.004524199426174163,-0.0737730922192335,-0.006862458307296038,-0.016596097499132156,-0.012342166155576706
1772363464060902400,2.27890234375,-0.02549026895686984,0.019941548788547515,-0.011451368340849876,-0.01820245385169983,-0.006093504372984171,-0.015529666095972061
1772363464070972200,2.28897216796875,0.002877601262927055,0.028551556223630904,0.049395022287964815,-0.032975539565086365,0.0030555189587175846,-0.01570170745253563
1772363464081041400,2.29904150390625,-0.023951368951797485,0.008595978909730911,0.026457214292883873,-0.05321064591407776,-0.007488250732421875,-0.011754920706152916
1772363464091111400,2.309111328125,-0.038532413620501756,0.005724807387590408,-0.0004962590843439102,-0.05833722651004791,-0.017546210438013077,-0.01310008391737938
1772363464101180400,2.319180419921875,-0.04832023266330361,0.027907413101196286,-0.0012929624199867248,-0.05516331270337105,-0.014154753647744656,-0.006248982157558203
1772363464111250400,2.32925048828125,-0.04498422010838985,0.04898059626817703,0.03787351132035255,-0.036177102476358414,-0.001975851831957698,0.0030662226490676403
1772363464121319200,2.339319091796875,-0.0664841042548418,0.047747839602828024,0.03409983800053596,-0.01660570502281189,-0.00925892498344183,0.014155194163322449
1772363464131389400,2.349389404296875,-0.08852204080075025,0.01595803211033344,0.003573182311654091,0.005925968289375305,-0.014886184595525265,0.014685695990920067
1772363464141458200,2.359458251953125,-0.051987084607779975,0.01593114410340786,0.04827917000055313,0.02317129261791706,-0.010682512074708939,0.017163610085844994
1772363464151528400,2.369528564453125,-0.02730857042521238,0.018955460360646246,0.12784195153713226,0.029073921963572502,0.0075582773424685,0.0220707505941391
1772363464161597200,2.37959716796875,-0.035666210534423586,-0.008045943811535835,0.12182196059525012,0.033035118132829666,0.01415241602808237,0.027739591896533966
1772363464171667500,2.38966748046875,-0.022629911089688537,-0.022583587729930875,0.08023556623160838,0.03183722868561745,0.008512107655405998,0.027928410097956657
1772363464181736200,2.399736083984375,0.01588788948357105,-0.014179916521906852,0.029491467422246932,0.0279054157435894,0.005081577226519585,0.022582940757274628
1772363464191806200,2.40980615234375,0.05598053815811872,0.0002402384966611862,0.005201660296320915,0.019365988671779633,-0.00018402514979243279,0.018773822113871574
1772363464201875200,2.419875244140625,0.08990735767930745,0.022165070056915284,0.0375794968098402,0.00013072695583105087,0.00905105471611023,0.01564495638012886
1772363464211945200,2.4299453125,0.10995777366980909,-0.007904489514231682,0.04065817360281944,-0.019363079220056534,0.012379207648336887,0.011532504111528397
1772363464222014500,2.440014404296875,0.11689195684716104,-0.04503624255657196,-0.04594283600747585,-0.018208689987659454,0.005006372928619385,0.005015647038817406
1772363464232084200,2.450084228515625,0.1611301808938384,-0.03847849147617817,-0.04128945724368095,-0.026749448850750923,0.025989416986703873,0.010525461286306381
1772363464242153500,2.460153564453125,0.10626637180596589,-0.0851665928930044,0.012663082218170165,-0.0715104267001152,0.02724752202630043,0.019430942833423615
1772363464252223200,2.47022314453125,-0.022415537686645982,-0.1207639759749174,-0.22253917384147642,-0.07264599949121475,-0.01698412001132965,0.019389398396015167
1772363464262292500,2.48029248046875,-0.0070211308084428305,-0.035518472626805304,-0.26563480372428894,-0.046334221959114075,-0.029306577518582344,0.015951061621308327
1772363464272361200,2.490361328125,0.024560586891323326,0.032734979388117785,-0.050391632109880444,-0.030985625460743904,-0.012184316292405128,0.009132304228842258
1772363464282431500,2.500431396484375,0.005772738182544708,0.1052659625917673,0.10698854860067367,-0.009398451074957848,0.0006857374683022499,0.006417424883693457
1772363464292500200,2.510500244140625,-0.002743161228299141,0.13447218333184718,0.08526596161425114,0.008379747159779072,-0.00629573967307806,0.003954267129302025
1772363464302570200,2.5205703125,-0.05413870968371629,0.05092822320461273,0.036217560806870455,0.011089647188782692,-0.014564534649252892,0.010148529894649982
1772363464312639200,2.53063916015625,-0.10707008940428495,-0.05971884790360927,0.026139818906784056,0.010088032111525536,-0.0213494710624218,0.016325466334819794
1772363464322709200,2.540709228515625,-0.1292991646081209,-0.14809271240532398,0.09079495416879653,-0.00222780741751194,-0.007371669635176659,0.023090209811925888
1772363464332778200,2.5507783203125,-0.14269538340643048,-0.1834048488050699,0.21737609198987481,-0.006121614947915077,0.026989499107003212,0.028102543205022812
1772363464342848300,2.56084814453125,-0.1445047709159553,-0.15729191790521144,0.24288521177768707,-0.0002484442666172981,0.05452767387032509,0.03162790834903717
1772363464352917200,2.570917236328125,-0.10957403504922986,-0.06646013885736465,0.12152560799717903,0.009710713289678097,0.05271592736244202,0.03583889827132225
1772363464362987300,2.5809873046875,-0.009651771572977304,0.050801966476440426,-0.07126257070302963,0.017289400100708008,0.036093756556510925,0.034383464604616165
1772363464373056500,2.591056396484375,0.0504939234405756,0.11436872197985648,-0.18260288477241993,0.019431915134191513,0.015270765870809555,0.036905474960803986
1772363464383126300,2.601126220703125,0.09039309536963701,0.13105039218962192,-0.20618191328048704,0.020269691944122314,-0.005203677341341972,0.0321911945939064
1772363464393195300,2.6111953125,0.13372881761863828,0.10955693778395652,-0.1283633450627327,0.01655777543783188,-0.01769709773361683,0.028039058670401573
1772363464403265300,2.621265380859375,0.1951291888684034,0.0493915151566267,-0.06137304485142231,-0.0002918429672718048,-0.027405334636569023,0.021383564919233322
1772363464413334300,2.631334228515625,0.19869155752509832,0.0648024347782135,-0.009226678028702735,-0.01377089973539114,-0.01456863060593605,0.010253680869936943
1772363464423404300,2.641404296875,0.19331731714084743,0.1024602575212717,0.09628010758161544,-0.01850264146924019,0.0050422754138708115,0.0014318213798105717
1772363464433473300,2.651473388671875,0.1686689058355987,0.04642039039134979,0.09490648114085197,-0.02831399254500866,0.019079532474279404,-0.006274833809584379
1772363464443543300,2.661543212890625,0.14096607539579273,-0.01989654060304165,0.01149170035123825,-0.03876721113920212,0.016956014558672905,-0.006517364177852869
1772363464453612300,2.6716123046875,0.09766527832970022,-0.08660276317596435,-0.11350362958312034,-0.0413518100976944,0.004276172257959843,-0.015499407425522804
1772363464463682300,2.681682373046875,0.09622370121926069,-0.11015373463332652,-0.1155097087085247,-0.048791151493787766,-0.0113467276096344,-0.01070357859134674
1772363464473751300,2.691751220703125,0.0891711523592472,-0.1428629950582981,-0.050855742490291594,-0.05106469243764877,-0.010677475482225418,-0.01822834089398384
1772363464483821300,2.7018212890625,0.09390051896870136,-0.09244155233204364,0.06776654528081416,-0.04368644580245018,-0.013347740285098553,-0.015085460618138313
1772363464493890300,2.711890380859375,0.07191635843664407,-0.1010878001242876,0.10806932957470416,-0.029859313741326332,-0.008620629087090492,-0.017752615734934807
1772363464503960300,2.721960205078125,0.13112214225158095,-0.05740238765478134,0.1694762766957283,-0.01486301515251398,-0.006222907919436693,-0.018890172243118286
1772363464514029300,2.732029296875,0.13748203267231582,-0.005983166062831878,0.17466390846669672,-0.0009189704433083534,0.0065855649299919605,-0.0159164872020483
1772363464524099300,2.742099365234375,0.06785203160718083,0.009561609071493149,0.13158406067490577,0.008666752837598324,0.005647218320518732,-0.01302451454102993
1772363464534168300,2.752168212890625,-0.012668635176122187,0.00812894591987133,0.09389525827169418,0.015435176901519299,-0.0013315952382981777,-0.014314549043774605
1772363464544238300,2.76223828125,-0.051305385953933,-0.026335049217939374,0.060469958531856535,0.01623237505555153,-0.008518224582076073,-0.013175340369343758
1772363464554307300,2.772307373046875,-0.03777925716564059,-0.06118132167160511,0.06899287220537662,0.014595062471926212,-0.01298114936798811,-0.006834886968135834
1772363464564377300,2.78237744140625,-0.03192176330909133,-0.09188041131794453,0.07639759550392627,0.013476748019456863,-0.010585698299109936,0.004860164597630501
1772363464574446000,2.792446044921875,-0.03232683697864413,-0.09851999546289443,0.08423778761029244,0.010521171614527702,-0.002964796731248498,0.007527320645749569
1772363464584516400,2.802516357421875,0.008069470817595719,-0.05980652618706226,0.09984510658681392,0.01240610796958208,0.01255694217979908,0.011487789452075958
1772363464594585300,2.81258544921875,0.05901406063511967,-0.006668810239434242,0.09618307694792746,0.005917581729590893,0.011086344718933105,0.014393830671906471
1772363464604654300,2.822654296875,0.021388678856939077,0.016071429356932638,0.0018622867405414581,0.011005726642906666,0.006912765093147755,0.006876957602798939
1772363464614724400,2.832724365234375,0.019096768527477978,0.0906704510062933,-0.059545244902372355,0.020356085151433945,0.002225335221737623,0.001431325450539589
1772363464624793300,2.84279345703125,0.025145108781009912,0.11926935350298881,-0.07416063023209571,0.015033518895506859,0.0026273969560861588,0.0022112103179097176
1772363464634863400,2.85286328125,-0.03523044946566224,0.09409516475796699,-0.14790975705385206,0.01798270456492901,-0.015540155582129955,-0.0023704920895397663
1772363464644932400,2.862932373046875,-0.03771598267108202,0.07173369534611701,-0.18327742303311823,0.024811379611492157,-0.02684772200882435,-0.00544112641364336
1772363464655002400,2.87300244140625,-0.016048048481345174,0.05151800579130649,-0.13123977728188038,0.022396691143512726,-0.03146643936634064,-0.010634290054440498
1772363464665071400,2.8830712890625,-0.0393920991897583,-0.021083120039105414,-0.10144552752077579,0.01618674024939537,-0.025133293122053146,-0.0023073479533195496
1772363464675141400,2.893141357421875,-0.07001227838099003,-0.056795653933286665,-0.08540566234588623,0.006036369130015373,-0.028295263648033142,0.005064548924565315
1772363464685210000,2.903210205078125,-0.0713191231958568,-0.056742462441325185,-0.08408815000653266,-0.00031446199864149094,-0.03348534554243088,-0.001072403509169817
1772363464695280400,2.9132802734375,-0.038279607903212304,-0.03321078020632267,-0.051965749558806416,-0.009889325127005577,-0.03625370189547539,-0.004183774348348379
1772363464705349000,2.92334912109375,0.004685089076310396,-0.010426116946339607,-0.014698387438058852,-0.022655874490737915,-0.03701838105916977,-0.0020634569227695465
1772363464715419100,2.933419189453125,-0.00878317204490304,0.0008680150061845779,-0.0220727155983448,-0.03169730678200722,-0.04309758543968201,-0.007572205737233162
1772363464725488000,2.943488037109375,0.014262480238825082,0.045911271825432774,-0.0017833762854337692,-0.034001391381025314,-0.049489978700876236,-0.010678187012672424
1772363464735558100,2.95355810546875,0.04353066029921174,0.058849079331755635,0.043216041392087935,-0.04353604093194008,-0.04649525508284569,-0.006737240590155125
1772363464745627100,2.963627197265625,0.018178192377835512,0.011671148571372032,0.08215981229245663,-0.050820961594581604,-0.04177604615688324,-0.0040670642629265785
1772363464755697000,2.97369677734375,0.02099135010242462,-0.011945873859524727,0.12862170373797416,-0.046070415526628494,-0.030789174139499664,-0.0029322905465960503
1772363464765766100,2.98376611328125,0.030467180586606264,-0.01620996104478836,0.17243629554510115,-0.04161832854151726,-0.025310000404715538,-0.005280868150293827
1772363464775836000,2.9938359375,0.02498509591370821,-0.02970014173686504,0.13368950852155684,-0.03276677802205086,-0.022232983261346817,-0.004802830517292023
1772363464785905200,3.0039052734375,0.019086831655353305,-0.04672317273020744,0.05238076010048389,-0.0119642848148942,-0.017392802983522415,-0.004058440215885639
1772363464795975200,3.01397509765625,0.028305910899490118,-0.04549859937131404,0.019915245303511617,0.007815545424818993,-0.022798486053943634,-0.0018615983426570892
1772363464806044200,3.024044189453125,0.045154315978288645,-0.056446109843254086,-0.009831658184528351,0.02668006345629692,-0.03075597435235977,-0.00740223191678524
1772363464816114200,3.0341142578125,0.07326645787134767,-0.02276946569085121,0.025239655196666717,0.040554068982601166,-0.0300731398165226,-0.00847974605858326
1772363464826183200,3.04418310546875,0.1172001460134983,0.02446399464905262,0.11358955430090427,0.04794459789991379,-0.017513025552034378,-0.012335775420069695
1772363464836253200,3.054253173828125,0.1123617660716176,0.05083703778982162,0.13385609726011752,0.04405558109283447,-0.012843704782426357,-0.017880743369460106
1772363464846322200,3.064322265625,0.08822101202756166,0.04268003481924534,0.06612228520512581,0.04213683307170868,-0.011989511549472809,-0.023783685639500618
1772363464856392200,3.07439208984375,0.09519245847538113,0.02035480576455593,0.014968436551094054,0.03578253090381622,-0.008435256779193878,-0.022375671193003654
1772363464866461000,3.0844609375,0.07671528315097093,-0.005968553015589714,-0.007881108638644219,0.028375256806612015,-0.0075101666152477264,-0.02676144801080227
1772363464876531200,3.09453125,0.09585033786222338,0.024120880299806594,-0.01425707341134548,0.02046540379524231,-0.00810431782156229,-0.030280550941824913
1772363464886600000,3.104599853515625,0.10036664624288677,0.03893675663769245,-0.0246434428691864,0.007898514159023762,-0.015190964564681053,-0.029099024832248688
1772363464896670200,3.114670166015625,0.09822656547427176,0.0467816249191761,-0.08138765887618064,-0.0057129026390612125,-0.017413372173905373,-0.027347728610038757
1772363464906739000,3.124739013671875,0.08204729182869196,0.025668109741806982,-0.13929682700932025,-0.012576885521411896,-0.022700050845742226,-0.026752060279250145
1772363464916809000,3.13480908203125,0.05837912373244762,0.021146832925081252,-0.15418927571475505,-0.016947133466601372,-0.023431088775396347,-0.030780626460909843
1772363464926878200,3.144878173828125,0.05223842902034521,0.05434592269361019,-0.09106149615049362,-0.01745082065463066,-0.016784358769655228,-0.03775604069232941
1772363464936947200,3.154947265625,0.029686989994347095,0.0613385580599308,-0.04306289665699005,-0.02225942350924015,-0.01601443812251091,-0.04249167442321777
1772363464947017200,3.165017333984375,-0.002812280941754579,0.013088029631972312,-0.03710194242596626,-0.017664937302470207,-0.017907146364450455,-0.042436279356479645
1772363464957086200,3.175086181640625,-0.028704554828256366,0.005920622220635414,-0.016876315999031066,-0.0023962361738085747,-0.01412226352840662,-0.03831849992275238
1772363464967156200,3.18515625,-0.043309418763965365,0.003240589356422424,-0.000786181941628456,0.00661795400083065,-0.014745859429240227,-0.034328315407037735
1772363464977225000,3.195224853515625,-0.09296528394520283,-0.030898996132612228,0.008399579554796218,0.01124732568860054,-0.011062441393733025,-0.02528369054198265
1772363464987295200,3.205295166015625,-0.14348974865451455,-0.06964402959048747,0.014461071550846099,0.01933130994439125,-0.008359778672456741,-0.014559854753315449
1772363464997364000,3.215364013671875,-0.19010332353040574,-0.08190729883611202,0.07230769584178924,0.02256864681839943,0.0025189677253365517,-0.00614106934517622
1772363465007434200,3.225434326171875,-0.18807050252854823,-0.041185996869206425,0.1537304260313511,0.03054647706449032,0.008961370214819908,-0.003839042503386736
1772363465017503000,3.2355029296875,-0.14363266425654292,0.01122632741332054,0.18632804277539253,0.03707015514373779,0.01901720091700554,-0.00018598465248942375
1772363465027573000,3.245572998046875,-0.08184197851493955,0.06269406432211398,0.13475275383889673,0.047481924295425415,0.02589544653892517,0.00023055309429764748
1772363465037642000,3.25564208984375,-0.035803865439444776,0.08197568789720534,0.04700315871536732,0.052060168236494064,0.021118268370628357,0.004074026830494404
1772363465047712000,3.2657119140625,-0.02609568750411272,0.07585340562462806,-0.03392038978040218,0.04700610786676407,0.020506680011749268,0.005311166401952505
1772363465057781200,3.27578125,-0.031196225513517854,0.03150689889788628,-0.07803951749205588,0.04336503520607948,0.012228777632117271,0.006477897055447102
1772363465067851000,3.28585107421875,-0.01664879085347056,0.022633856612443923,-0.07101181081235408,0.04140235856175423,0.012081073597073555,0.0034467149525880814
1772363465077920300,3.295920166015625,-0.021473434530943632,0.04922083476483822,-0.014382745617628097,0.029721200466156006,0.015508828684687614,0.0028435089625418186
1772363465087990000,3.305989990234375,-0.06351546370759606,0.05748772785067558,-0.007981646403670311,0.014557292684912682,0.010033052414655685,0.0008953874930739403
1772363465098059300,3.316059326171875,-0.06692614893391728,0.04157528844773769,0.01023380924463272,0.007090587168931961,0.019524559378623962,0.0028988835401833057
1772363465108129000,3.32612890625,-0.057287529103457926,0.02562427060008049,0.03519055584669113,-0.003934772685170174,0.03116513416171074,0.00345306983217597
1772363465118198300,3.3361982421875,-0.05982011632099747,-0.020995441755652426,0.03369593337476253,-0.017550716176629066,0.03707628697156906,0.011530970223248005
1772363465128268000,3.34626806640625,-0.05828136244639754,-0.07467384045124054,-0.011582885766029357,-0.027238110080361366,0.03692268580198288,0.01428142748773098
1772363465138337000,3.3563369140625,-0.047292497050762175,-0.08135083399713039,-0.030056700089573857,-0.029465312138199806,0.03755971044301987,0.019361674785614014
1772363465148407300,3.3664072265625,-0.04511807562112808,-0.05621171656548977,-0.006665887629985809,-0.03467143326997757,0.03864189237356186,0.021777793765068054
1772363465158476000,3.37647607421875,-0.04606237073391676,-0.027698738786578178,-0.014307926815748214,-0.031628504395484924,0.03198585659265518,0.02332482486963272
1772363465168546300,3.38654638671875,-0.03553907702341676,-0.004892448216676712,-0.039033202749490736,-0.0172137338668108,0.02015123888850212,0.025715066120028496
1772363465178615000,3.396614990234375,-0.009439443996548651,0.06868775177896022,-0.03156009038984775,0.0038247061893343925,0.01750006154179573,0.026368873193860054
1772363465188685000,3.40668505859375,-0.0035299276918172836,0.10185177023410796,0.0180599728256464,0.020447056740522385,0.016737839207053185,0.028336001560091972
1772363465198754000,3.416754150390625,0.0041810850769281385,0.10311550655961037,0.027588264149427413,0.029550008475780487,0.014956185594201088,0.027820147573947906
1772363465208824000,3.426823974609375,-0.0008754676602780819,0.06207096398770809,0.053102644634246826,0.03381559997797012,0.018216313794255257,0.027137616649270058
1772363465218893000,3.43689306640625,-0.02065320418924093,0.004822890111804009,0.0741828420639038,0.040450334548950195,0.030721453949809074,0.020425118505954742
1772363465228963000,3.446963134765625,0.026237872453778982,0.01170914249420166,0.10338438662886619,0.03681313246488571,0.039883993566036224,0.023941081017255783
1772363465239032000,3.457031982421875,0.011830430786311626,-0.02448445291519165,0.08463935414850711,0.03073393739759922,0.045171163976192474,0.0274769589304924
1772363465249102000,3.46710205078125,-0.008197919502854346,-0.03753331958055496,0.009662731358408927,0.02495984546840191,0.04245566576719284,0.027753561735153198
1772363465259171000,3.477171142578125,0.03055062108635902,-0.006454290705919265,-0.07659633294641971,0.02177497185766697,0.028003493323922157,0.024849385023117065
1772363465269241000,3.487240966796875,0.08697247327119112,0.0492389549434185,-0.06469020657539368,0.018275395035743713,0.02479143999516964,0.018980905413627625
1772363465279310000,3.49731005859375,0.08894538077935576,0.06107552320957183,-0.0459580335766077,0.010725333355367184,0.023305395618081093,0.016892187297344208
1772363465289379000,3.507379150390625,0.09724676065668462,0.05250935491621494,-0.05017009831368923,0.012051424011588097,0.016956979408860207,0.00792040303349495
1772363465299449000,3.517448974609375,0.11820113974958657,0.06988076095581054,-0.05342763880491257,0.0108716432005167,0.009841280058026314,0.004741920158267021
1772363465309518000,3.52751806640625,0.10971358965039253,0.04807867899239063,-0.05030512287020683,0.014922669157385826,0.005734291858971119,0.00028309086337685585
1772363465319588000,3.537588134765625,0.06885960121452808,0.021279519394040106,-0.09336626596152782,0.024189669638872147,0.004176609218120575,-0.0007904297672212124
1772363465329657000,3.547656982421875,0.045470688451081515,0.014829904863238335,-0.10207914924919605,0.032814912497997284,0.000414043664932251,0.001271114218980074
1772363465339727000,3.55772705078125,0.018733634303510188,0.028926234754920004,-0.1019984852284193,0.0371292307972908,-0.0019122273661196232,-0.001983801368623972
1772363465349796000,3.567796142578125,0.026993805387616157,0.03615735505223274,-0.07859364424347877,0.03296378254890442,-0.011043141596019268,-0.004925262648612261
1772363465359866000,3.5778662109375,0.03744637194946408,0.01329202777147293,-0.024277532166242597,0.028508314862847328,-0.010944072157144547,-0.009226534515619278
1772363465369935000,3.58793505859375,0.039132863731682295,0.008660860839486122,0.022544424763321875,0.018858976662158966,-0.0009893029928207397,-0.010899697430431843
1772363465380005000,3.598005126953125,0.03323679143041372,0.012901567149162291,0.058900517258048055,0.018249910324811935,0.002776939421892166,-0.01069703046232462
1772363465390074000,3.60807421875,0.04004062622636556,0.03476619295477867,0.06931377472281455,0.014663378708064556,-0.004240019246935844,-0.01598149538040161
1772363465400144100,3.61814404296875,0.05555749044045805,0.047833179798722265,0.04785129997730255,0.014894806779921055,-0.002894590375944972,-0.014178001321852207
1772363465410213000,3.628213134765625,0.04848536009714007,0.02681143455803394,0.060711366072297095,0.00975517276674509,0.0064706820994615555,-0.010923086665570736
1772363465420283100,3.638283203125,0.018120032449811696,-0.011117606341838835,0.08276303888261317,0.002028808929026127,0.013189570978283882,-0.011300190351903439
1772363465430352100,3.64835205078125,0.012165946350991726,-0.022626842349767685,0.07864683573544025,-0.011960169300436974,0.018494421616196632,-0.006148544140160084
1772363465440422100,3.658422119140625,-0.02828516037240624,-0.08583060975968837,0.071938862529397,-0.02648824453353882,0.023995714262127876,-0.006767995655536652
1772363465450491100,3.6684912109375,-0.07248743632286786,-0.10796236206889152,0.039593174719810484,-0.030463144183158875,0.009264754131436348,-0.009723554365336895
1772363465460561200,3.67856103515625,-0.07821428953707217,-0.0717693511813879,-0.061228083422780036,-0.022239303216338158,-0.0024789865128695965,-0.014134014956653118
1772363465470630100,3.688630126953125,-0.07729381369128822,0.006461304968595504,-0.10751228021383284,-0.008187472820281982,-0.015548227354884148,-0.014762548729777336
1772363465480700000,3.698699951171875,-0.05571385004594922,0.06183364810049533,-0.06822422592043877,0.00458131916821003,-0.02584906667470932,-0.01593380607664585
1772363465490769200,3.70876904296875,-0.043226124394685025,0.057928457355499265,-0.01188859071433544,0.017193270847201347,-0.028404656797647476,-0.015450368635356426
1772363465500839000,3.7188388671875,-0.03546484274342656,0.052094344374537464,0.05838613799512386,0.02598623000085354,-0.025441357865929604,-0.013828237541019917
1772363465510908200,3.728908203125,-0.033014088590443136,0.04976560916602611,0.11398527562022208,0.03240226209163666,-0.012063827365636826,-0.005731649696826935
1772363465520978200,3.738978271484375,-0.044958647275716065,0.030813655936717987,0.11627952403724193,0.029358534142374992,0.005118886940181255,0.0010317140258848667
1772363465531047200,3.749047119140625,-0.03710881055817008,0.03012158201932907,0.10652911439538001,0.027748992666602135,0.010075130499899387,0.0034775887615978718
1772363465541117200,3.7591171875,-0.0595705254741013,0.028450433936715123,0.06083937636613845,0.017583176493644714,0.0075901346281170845,0.0032469588331878185
1772363465551186200,3.769186279296875,-0.06755655579194426,0.06596504881680011,0.03947685486376285,0.0005233781412243843,0.0029700188897550106,0.004953035619109869
1772363465561256200,3.779256103515625,-0.06199658357724547,0.03007715835571289,0.01564355933368206,-0.018986672163009644,0.0019545555114746094,0.006016436032950878
1772363465571325200,3.7893251953125,-0.036670126879960296,0.015503858602046965,0.0007902735948562622,-0.03134356439113617,-0.002905053785070777,0.004295400343835354
1772363465581395200,3.799395263671875,0.011120382820814846,-0.00300853416621685,-0.029672669208049774,-0.049001120030879974,-0.0052688755095005035,0.004769708961248398
1772363465591464000,3.8094638671875,0.0284003111846745,-0.06022036768496036,-0.06676759737133979,-0.0652683824300766,-0.008169639855623245,0.00047933775931596756
1772363465601534200,3.8195341796875,0.048070203424990174,-0.05583236185908317,-0.059766778698563575,-0.06972278654575348,-0.008051928132772446,0.001444733701646328
1772363465611603000,3.82960302734375,0.05293357167765498,-0.04370294812619686,-0.029932196927070616,-0.06485357135534286,-0.004051506519317627,-0.0013038222678005695
1772363465621673200,3.839673095703125,0.03424903721287846,-0.013567337581515312,0.017947744622826577,-0.05646008253097534,0.00321146659553051,-0.0006095361895859241
1772363465631742000,3.849741943359375,0.02101531549990177,0.019786065965890883,0.021465981876850126,-0.0427146777510643,0.0020402870140969753,-0.0011247112415730953
1772363465641812000,3.85981201171875,-0.0037348026141524313,0.02911678889095783,0.022305939832329747,-0.029339483007788658,0.004350312985479832,-0.00672081159427762
1772363465651881200,3.869881103515625,0.013891454969346522,0.03758592655062675,0.03636895197629928,-0.016057968139648438,-0.00019682152196764946,-0.006597782950848341
1772363465661951000,3.879950927734375,0.008101619521528483,0.015907178705930707,0.048967736786603926,-0.013982832431793213,0.0008812262676656246,-0.0032195630483329296
1772363465672020200,3.890020263671875,-0.0289667128957808,-0.03290799786746502,0.049964346608519554,-0.014180446974933147,0.004193247761577368,-0.0023625949397683144
1772363465682090000,3.900090087890625,-0.03785597566366195,-0.07542553560137748,0.04908814829587936,-0.011616355739533901,0.0016744299791753292,0.001873163040727377
1772363465692159200,3.9101591796875,-0.008274930261820555,-0.03687514793276787,0.038436405900120735,-0.005670270416885614,-0.0013331128284335136,-0.00205934327095747
1772363465702228000,3.92022802734375,0.018350626335293052,0.010096446600556372,0.03726210142374038,0.001596430316567421,-0.0061760712414979935,-0.001356269232928753
1772363465712294100,3.930294189453125,0.03669438453838229,0.0649807139545679,0.023879472759366034,0.018031375482678413,-0.008709096349775791,-0.005814749281853437
1772363465722363000,3.94036279296875,0.0492031529776752,0.12077099023759365,0.0020107553005218504,0.02239976078271866,0.0026620691642165184,-0.004303938243538141
1772363465732433200,3.95043310546875,0.016813041504472492,0.08335515955686569,-0.024174071791768073,0.017521250993013382,-0.00009611714631319046,-0.0013020038604736328
1772363465742502000,3.960501953125,0.017814327501505613,0.03636661388874054,-0.06337620136737823,0.019269084557890892,-0.007774809375405312,0.0010301261208951473
1772363465752572200,3.970572265625,0.00015241408273577688,-0.01577332319319248,-0.06255085645914077,0.011864063329994678,-0.0076776291243731976,-0.000655527226626873
1772363465762641000,3.980640869140625,-0.030295038890093565,-0.008819850793480872,-0.017456746235489845,0.00982514675706625,-0.0030724909156560898,-0.004518442787230015
1772363465772710100,3.990710205078125,-0.015561434008181094,0.050232057633996005,0.006636077013611793,0.005668412894010544,-0.00019685551524162292,-0.009081797674298286
1772363465782780200,4.0007802734375,-0.0033209611162543294,0.06841361101269722,0.010212181934714317,-0.00849401205778122,0.0015291390009224415,-0.011421384289860725
1772363465792849200,4.01084912109375,-0.021830577405542135,-0.006025836160778999,-0.0087619831264019,-0.022322557866573334,0.0082520367577672,-0.007478904444724321
1772363465802919200,4.020919189453125,-0.020430062957853077,-0.0706324561059475,-0.028003274691104887,-0.040216073393821716,0.01405666209757328,0.0005840822122991085
1772363465812988200,4.03098828125,-0.045171705504506825,-0.11847732634246348,-0.05406184505522251,-0.049181703478097916,0.01970280334353447,0.002702755853533745
1772363465823058200,4.04105810546875,-0.038454526078701014,-0.08738134633302688,-0.03796469673514366,-0.06029614061117172,0.01987803913652897,0.0075691500678658485
1772363465833127000,4.051126953125,-0.03935688174590468,-0.05877542957365513,-0.01462707576751709,-0.0634913519024849,0.02477203868329525,0.01068709697574377
1772363465843197200,4.061197265625,-0.040905280231684445,-0.03103577425479889,0.012222937235236167,-0.06040794774889946,0.02207292430102825,0.011755291372537613
1772363465853266000,4.071265869140625,-0.03764306356534362,-0.004285129973292351,0.050129766303300856,-0.039259545505046844,0.023404046893119812,0.016353661194443703
1772363465863336200,4.081336181640625,-0.010200345366448163,0.0444376921415329,0.09286942235529422,-0.02197429910302162,0.02671915292739868,0.02019660174846649
1772363465873405000,4.091405029296875,0.006134703362733126,0.04501052359342575,0.10437456670999526,-0.008779208175837994,0.03473276644945145,0.027564208954572678
1772363465883475000,4.101474853515625,-0.012463614123314619,0.033061727124452586,0.0699263536632061,0.005068697035312653,0.03391251713037491,0.02378438413143158
1772363465893544000,4.1115439453125,-0.011403583676367998,0.027173838129639624,0.04944412212669849,0.013155623339116573,0.031733326613903046,0.021903816610574722
1772363465903614000,4.121614013671875,0.02667714065387845,0.03412614148557186,0.05726444048881531,0.018242795020341873,0.0380261093378067,0.0146357836201787
1772363465913683200,4.13168310546875,0.05824380691498517,0.0311398191511631,0.05704816738963127,0.018734551966190338,0.03897695988416672,0.013853898271918297
1772363465923753000,4.1417529296875,0.05532733494639396,0.01649871485829353,0.0377799878180027,0.02025654911994934,0.03501417487859726,0.009084443561732769
1772363465933822200,4.151822265625,0.06391688411533832,0.018512977290153502,0.0026981530427932737,0.01746353507041931,0.028822507709264755,0.011593582108616829
1772363465943892000,4.16189208984375,0.06818067903965712,-0.005816577324271202,-0.026539047357439994,0.014484257437288761,0.022676730528473854,0.008455046452581882
1772363465953961200,4.171961181640625,0.0883117590509355,-0.019974282014369963,-0.0051531449794769285,0.006312033161520958,0.02261071652173996,0.007156571839004755
1772363465964030000,4.182030029296875,0.08188464861288666,-0.0232318225055933,0.00943476782143116,-0.0065419794991612434,0.022640012204647064,0.008509190753102303
1772363465974100200,4.192100341796875,0.0568377395093441,-0.04822948563992977,-0.016513912427425382,-0.015304136089980602,0.01738918386399746,0.004093835595995188
1772363465984169000,4.2021689453125,0.08248992102965712,-0.025225042149424552,-0.043669045856595035,-0.015431967563927174,0.00873364508152008,-0.003500967286527157
1772363465994239000,4.212239013671875,0.1217759294964373,0.01722819817662239,-0.03133680302798748,-0.016684819012880325,0.013007194735109806,-0.009921187534928322
1772363466004308000,4.222307861328125,0.10879501350075006,0.028816344639658927,-0.03933773865401745,-0.01067273411899805,0.005728774704039097,-0.011867692694067955
1772363466014378000,4.2323779296875,0.03493058973625302,0.03237783651351928,-0.08799450979530811,0.0015518274158239365,-0.0050508384592831135,-0.01787317357957363
1772363466024447000,4.242447021484375,-0.002012216605246067,0.0478489618897438,-0.11052315246760845,0.01544793602079153,-0.018328294157981873,-0.015916284173727036
1772363466034517000,4.25251708984375,-0.011213614062219858,0.039511926177144045,-0.08895078760683536,0.02380456030368805,-0.031242407858371735,-0.018084270879626274
1772363466044586200,4.262586181640625,0.030085780053585767,0.059060676255822175,-0.030585692399740218,0.03265317901968956,-0.03733918070793152,-0.017066944390535355
1772363466054656000,4.272656005859375,0.02332870700880885,0.05524024118483066,0.04134557134509086,0.030365008860826492,-0.02841302566230297,-0.010879017412662506
1772363466064725200,4.282725341796875,-0.022035160066932437,0.021958733829855918,0.09049217182993888,0.03023744374513626,-0.019057340919971466,-0.008700817823410034
1772363466074795000,4.292794921875,-0.05294511598497629,-0.0035901334464550016,0.09660627079606056,0.03285244479775429,-0.011124883778393269,-0.015333767980337143
1772363466084864300,4.3028642578125,-0.014075287103652953,-0.0019078794479370116,0.10727379528284073,0.018864456564188004,-0.00556526891887188,-0.008842580020427704
1772363466094934000,4.31293408203125,-0.05102934549152851,-0.06704232265949249,0.0736076725244522,0.005446728318929672,0.004993998445570469,-0.004437150899320841
1772363466105003000,4.3230029296875,-0.07580182156786322,-0.0756119980841875,0.03679799104332924,-0.006825118325650692,0.012396520934998989,-0.0008421498350799084
1772363466115073000,4.333072998046875,-0.04295446784645319,-0.059627077966928475,0.045537177816033364,-0.016407474875450134,0.019118260592222214,0.0015228562988340855
1772363466125142000,4.34314208984375,-0.01652706416994333,-0.06817337251603603,0.055819502377510065,-0.03673698008060455,0.018752342090010643,0.0011151265352964401
1772363466135212000,4.3532119140625,0.002494739425182342,-0.053831543430685996,0.033093291306495666,-0.03946838527917862,0.017615491524338722,0.0026650959625840187
1772363466145281000,4.363281005859375,0.0044387130998075,-0.013381459620594978,-0.009714753806591033,-0.03502383455634117,0.01922137662768364,-0.00090780109167099
1772363466155351000,4.37335107421875,-0.011299246519058942,-0.0018277999490499495,-0.06051672028303146,-0.030486349016427994,0.01813545450568199,0.0029548099264502525
1772363466165420000,4.383419921875,-0.04115428655669093,0.0011269582033157349,-0.09162731333971023,-0.02066221460700035,0.005616999231278896,0.004551375284790993
1772363466175490000,4.393489990234375,-0.039565117669105525,0.003481412374973297,-0.07855272771120071,-0.012993128038942814,-0.0035048993304371834,0.008116209879517555
1772363466185559000,4.40355908203125,-0.07171104512289166,0.009560440027713776,-0.0223994633346796,0.0004734126850962639,-0.0024670653510838747,0.010532761923968792
1772363466195629000,4.413629150390625,-0.054202130308747286,0.03755260880291462,0.017138766327500343,0.01973775401711464,0.0009404751472175121,0.010524378158152103
1772363466205698000,4.423697998046875,-0.0031616789013147353,0.08191782023012638,0.05117196883261203,0.03163595870137215,0.0021721869707107544,0.006901147309690714
1772363466215768000,4.43376806640625,0.05042597277089953,0.11713234147429466,0.10388999806344508,0.03925928473472595,0.008160763420164585,0.0019195480272173882
1772363466225837000,4.443837158203125,0.032371552903205154,0.08814823905229568,0.12266133402884005,0.03535669296979904,0.013683893717825413,-0.0011979485861957073
1772363466235907000,4.453906982421875,-0.006390139428526163,0.03283610167503357,0.06147182905077934,0.029519416391849518,0.007660479284822941,-0.0007796576246619225
1772363466245976000,4.46397607421875,0.01011135190874338,0.010655249527096749,0.06665887629985809,0.021964561194181442,0.01264538336545229,-0.0029727714136242867
1772363466256046000,4.474046142578125,0.0484450280867517,-0.001443184545636177,0.07917056734859942,0.0016359100118279457,0.012169593945145607,0.00006798096001148224
1772363466266115000,4.484114990234375,0.061636810354143375,-0.050637715825438495,-0.012146364867687224,-0.012144883163273335,0.005960433278232813,0.0007798443548381329
1772363466276185000,4.49418505859375,0.08309095566272735,-0.05177694898843765,-0.12449030302166939,-0.02339842915534973,-0.0067480443976819515,0.0006484482437372208
1772363466286254000,4.504254150390625,0.11531477065831422,-0.02649170108437538,-0.16697569205164908,-0.03011864796280861,-0.01565765030682087,-0.0046640257351100445
1772363466296324000,4.514323974609375,0.13423705940172076,0.032813889843225474,-0.12451426841914653,-0.027103491127490997,-0.008345508947968483,-0.013792835175991058
1772363466306393000,4.52439306640625,0.14041457899287343,0.09178396520614623,-0.03712415425777435,-0.023651769384741783,-0.009633413515985012,-0.027368033304810524
1772363466316463000,4.534463134765625,0.09634688920751214,0.08428571840524673,-0.02922784804999828,-0.021342908963561058,-0.013311797752976418,-0.03064119443297386
1772363466326532000,4.544531982421875,0.012235796716809272,0.02258826390504837,-0.07890519441068172,-0.013818680308759212,-0.015768563374876976,-0.027110375463962555
1772363466336601900,4.554601806640625,-0.05314239212274551,-0.034978374400734896,-0.0965519102603197,0.0022349823266267776,-0.019594773650169373,-0.0207544956356287
1772363466346671000,4.564671142578125,-0.06061798870041966,-0.03175064452588558,-0.04698971471190452,0.010456160642206669,-0.017069032415747643,-0.022424830123782158
1772363466356743200,4.5747431640625,-0.04934256144836545,-0.014185177218914031,0.022539748588204383,0.010695312172174454,-0.0072188545018434525,-0.018972041085362434
1772363466366812000,4.58481201171875,-0.08315320724397897,-0.028879473003745076,0.0463023169696331,0.008844947442412376,-0.0014315394219011068,-0.011072572320699692
1772363466376882200,4.594882080078125,-0.09772226921394467,-0.022337504014372823,0.02796177363693714,0.01526816189289093,-0.004388662986457348,-0.017261216416954994
1772363466386951000,4.604950927734375,-0.026036066271364688,0.053879474225640295,0.03506371459662914,0.025118930265307426,-0.005354591179639101,-0.02139710634946823
1772363466397021000,4.61502099609375,0.030598698011785743,0.08413315819203854,0.03795709795057774,0.027963120490312576,-0.005706342402845621,-0.014682469889521599
1772363466407090000,4.62508984375,0.010061667548120021,0.10351590405404568,-0.0005155483067035675,0.03356987610459328,-0.0027981705497950315,-0.010207027196884155
1772363466417160000,4.635159912109375,-0.009204027805477381,0.0774982502222061,-0.05108370602726936,0.03208194673061371,-0.00663822190836072,-0.0041177826933562756
1772363466427229200,4.645229248046875,-0.003487549854815006,0.03686579558253288,-0.03561141160726547,0.019354701042175293,-0.010638556443154812,0.002871683333069086
1772363466437299000,4.655298828125,-0.01753697186484933,-0.010575754550099372,-0.026574703192710873,0.01679009571671486,-0.004801666829735041,-0.0013426952064037323
1772363466447368200,4.6653681640625,-0.01990107064768672,0.008380874854326247,-0.01108604215979576,0.010997453704476357,0.005605434533208609,-0.0016146041452884674
1772363466457438000,4.67543798828125,-0.0013252572543919086,0.04894844756424427,-0.016356091517210007,0.0050513856112957,0.00403717253357172,-0.005687220022082329
1772363466467507200,4.685507080078125,0.00979702526256442,0.05624035813808441,-0.04417115015983581,0.0005711503326892853,-0.000007103662937879562,-0.009855867363512516
1772363466477577000,4.695576904296875,0.03682458678930998,0.03669394614696502,-0.05178630133867263,-0.0035315286368131638,-0.004936765413731337,-0.013995511457324028
1772363466487646200,4.705646240234375,0.06211582604274153,-0.00468903459906578,-0.050123921084403986,-0.012946069240570068,0.0004859631881117821,-0.010268418118357658
1772363466497716000,4.715716064453125,0.0327194895580411,-0.05763794997632503,-0.0616653057962656,-0.028387393802404404,-0.000393690075725317,-0.01326496060937643
1772363466507785000,4.725784912109375,0.017697276993095874,-0.06156009185612201,-0.06228782160878181,-0.035191237926483154,0.0005898154340684414,-0.015538235194981098
1772363466517855200,4.735855224609375,0.024325901352614164,-0.052557870233058926,-0.012709259447455405,-0.03533610701560974,0.0003241295926272869,-0.0197028499096632
1772363466527924000,4.745924072265625,0.0390599446259439,-0.01515256094634533,0.052501171609759326,-0.02923453599214554,0.004290641285479069,-0.0204264298081398
1772363466537994200,4.755994140625,0.040460897465050216,0.033060558080673215,0.08091419614553451,-0.014787299558520317,0.011371783912181854,-0.015466880984604359
1772363466548063000,4.76606298828125,-0.0066810851991176605,0.029628245544433593,0.08152092986702919,0.0013424018397927284,0.016139907762408257,-0.014384572394192219
1772363466558133200,4.77613330078125,-0.020144085623323916,0.02191021851301193,0.04347556911110878,0.014193064533174038,0.0147379320114851,-0.007416768930852413
1772363466568202000,4.786201904296875,-0.02814195250943303,0.0010287585258483885,0.0557528668820858,0.01893775165081024,0.01583222486078739,-0.006787996739149094
1772363466578272000,4.79627197265625,-0.01946969349309802,0.026275427985191342,0.08008008340895176,0.017075393348932266,0.016661381348967552,-0.0031371056102216244
1772363466588341000,4.806341064453125,-0.010119096823781728,0.015403320837020873,0.08729249900579451,0.01770363375544548,0.014466136693954468,-0.0065313042141497135
1772363466598411000,4.816410888671875,0.028818244335800408,0.029230186137557027,0.06572890197336673,0.02077876776456833,0.016099682077765465,-0.005409388802945614
1772363466608480000,4.82647998046875,0.07628785151913761,0.07312544196546077,0.07140577856600284,0.027591131627559662,0.021802308037877083,-0.010838508605957031
1772363466618549000,4.836549072265625,0.08284472581669687,0.07636193966865538,0.07841127341389656,0.026517657563090324,0.032019756734371185,-0.009318457916378975
1772363466628619000,4.846618896484375,0.029161650945991276,0.024047230541706082,0.008124854266643524,0.025510983541607857,0.032865311950445175,-0.011145386844873428
1772363466638688000,4.85668798828125,0.020314473754167554,-0.004799509236216545,-0.06444704546928405,0.02425444684922695,0.02496945485472679,-0.010955458506941795
1772363466648758300,4.86675830078125,0.031712066081166265,-0.023251111727952956,-0.08329086214900017,0.013077428564429283,0.018316876143217087,-0.004732183646410704
1772363466658827000,4.876826904296875,0.003715221130847931,-0.06102408528327941,-0.08457914839386939,0.00027503445744514465,0.007525306660681963,-0.0061137480661273
1772363466668897000,4.88689697265625,-0.009421908339858055,-0.07517302214503288,-0.04700491228103638,-0.002689862623810768,0.0055005052126944065,-0.010073335841298103
1772363466678966000,4.896966064453125,-0.0019411971956491468,-0.06063771631419658,0.0018400749087333678,-0.00011060014367103577,0.01114146038889885,-0.016606906428933144
1772363466689036000,4.9070361328125,0.04369330351501703,0.019633505752682686,0.04237082273960113,0.004230618476867676,0.014592384919524193,-0.018798954784870148
1772363466699105000,4.91710498046875,-0.0008579320035874843,0.04182429477274418,0.009603694647550582,0.014736871235072613,0.00593709759414196,-0.022113459184765816
1772363466709175300,4.92717529296875,-0.05021159936785698,0.07041969013810158,-0.07630173391401768,0.02516794204711914,-0.005914235021919012,-0.02038932964205742
1772363466719244300,4.937244384765625,-0.06274301803037524,0.05036474410295486,-0.12667407680153847,0.03315797448158264,-0.026894312351942062,-0.018436361104249954
1772363466729314300,4.947314208984375,-0.08272241461127997,0.049612464430928226,-0.09544365675747395,0.05131194740533829,-0.021854545921087265,-0.009123552590608597
1772363466739383300,4.95738330078125,-0.11097352658361195,0.04887479780614376,0.07233458384871483,0.059432730078697205,0.0006706230342388153,-0.011352315545082092
1772363466749453300,4.967453369140625,-0.13079948616847395,0.0702092622578144,0.17438801413476465,0.058296896517276764,-0.008829139173030853,-0.008375965058803558
1772363466759522300,4.977522216796875,-0.12243600084036588,0.04721826277077198,0.06750643303990364,0.050413697957992554,-0.012764032930135727,-0.001959769520908594
1772363466769592300,4.98759228515625,-0.13842325904518366,0.015986089161038396,0.05044307003617286,0.04745678976178169,0.00087721087038517,0.0009055258706212044
1772363466779661000,4.9976611328125,-0.1102500346146524,0.011621464210748672,0.13613281002044678,0.03045341558754444,0.019737839698791504,0.009338600561022758
1772363466789731300,5.0077314453125,-0.13965075501352547,-0.044562195304036135,0.13050970944166182,0.009678361937403679,0.025323286652565002,0.015100349672138691
1772363466799800000,5.017800048828125,-0.1648256744109094,-0.08618599906861782,0.06814297737777232,-0.0036843791604042053,0.032038766890764236,0.019454892724752426
1772363466809870300,5.027870361328125,-0.14700228682011365,-0.1102028344720602,0.05454758274555206,-0.012534329667687416,0.041539061814546585,0.03201302886009216
1772363466819939000,5.03793896484375,-0.1360230660356581,-0.1034971993535757,0.07080079841017722,-0.019182691350579262,0.05531728267669678,0.03591544181108475
1772363466830009300,5.04800927734375,-0.14343933364152908,-0.06268997266888618,0.001974514943361282,-0.015971185639500618,0.056979093700647354,0.04347029700875282
1772363466840078000,5.058078125,-0.16006737396791576,-0.05010638542771339,-0.09299392551779746,-0.008130792528390884,0.0481753945350647,0.052237872034311295
1772363466850148000,5.068148193359375,-0.1202326455771923,-0.031468320453166956,-0.1372480777859688,-0.00032240431755781174,0.0319889672100544,0.05418198183178902
1772363466860217300,5.07821728515625,-0.032872926554083824,0.014167641562223434,-0.09113748399615287,0.007532223127782345,0.022593306377530098,0.054666806012392044
1772363466870287000,5.088287109375,0.031031974862515924,0.07308101830184459,-0.0033878888726234435,0.01914253830909729,0.029389159753918648,0.047751374542713165
1772363466880356400,5.0983564453125,0.07579144630432129,0.11623451585173607,0.06209142225384712,0.021876346319913864,0.039612866938114166,0.04635457694530487
1772363466890426000,5.108426025390625,0.07378551330938934,0.09208499397933483,0.055766895407438274,0.024538975208997726,0.035273246467113495,0.04470714554190636
1772363466900495400,5.118495361328125,0.06999006654918194,0.06488602140843867,0.01935702689886093,0.029560036957263947,0.02002670429646969,0.04010467976331711
1772363466910565000,5.128565185546875,0.09306538331881165,0.03650514557659626,-0.03629764030575752,0.023730378597974777,0.015781626105308533,0.03319697082042694
1772363466920634400,5.13863427734375,0.09520210308656096,-0.008710545200109481,0.00793897630572319,0.019856706261634827,0.012459039688110352,0.03115658462047577
1772363466930704100,5.1487041015625,0.12397636215016244,0.0016974515676498412,0.04825169747173786,0.016401521861553192,0.007445638999342918,0.03243942931294441
1772363466940773400,5.1587734375,0.12115604403242468,0.011644260564446448,0.027716274443268775,0.012768181040883064,0.006805834360420704,0.018832311034202576
1772363466950843400,5.168843505859375,0.18212693782374262,0.04265782298743725,-0.01940495769381523,0.011589465662837029,0.010099099017679691,0.013032210990786552
1772363466960912100,5.178912109375,0.208256819858402,0.005085924962162971,-0.08310849131941794,0.0008362457156181335,0.010427606292068958,0.00636908458545804
1772363466970982400,5.188982421875,0.18595161067843435,-0.04158171818852424,-0.1250391690760851,-0.008730893954634666,0.0024575642310082912,0.0010044127702713013
1772363466981051100,5.199051025390625,0.1737144987873733,-0.057552025258541105,-0.13630173684656618,-0.013000520877540112,-0.0036519006825983524,-0.010748034343123436
1772363466991121400,5.209121337890625,0.1772531943075359,0.0070411506831645964,-0.08872107050418854,-0.010537097230553627,-0.009785693138837814,-0.02106725051999092
1772363467001190100,5.219190185546875,0.20027809606418012,0.07229775896966457,-0.058609425356984136,-0.001891988329589367,-0.010845065116882324,-0.027698438614606857
1772363467011260200,5.22926025390625,0.1673066775716841,0.07854454440474509,-0.055500353425741195,0.0076759494841098785,-0.01827448606491089,-0.02844172716140747
1772363467021329200,5.2393291015625,0.11103504751250147,0.02652618787586689,-0.08343933070898056,0.022730708122253418,-0.020772935822606087,-0.0317436158657074
1772363467031399200,5.249399169921875,0.06831687263995409,-0.0215717803388834,-0.07662848165035248,0.043764352798461914,-0.020391836762428284,-0.035279497504234314
1772363467041468200,5.25946826171875,0.023864129059761763,-0.03714987322092056,0.08676818287074566,0.07112941890954971,0.04412567615509033,-0.028548549860715866
1772363467051538200,5.2695380859375,-0.04502835151106119,-0.07074877596199512,0.4042190985500812,0.019575679674744606,0.058773063123226166,-0.024974055588245392
1772363467061607200,5.279607177734375,-0.08025427093207836,-0.043318917244672774,-0.04472995308637619,0.02491547167301178,-0.026535624638199806,-0.03587188199162483
1772363467071677200,5.28967724609375,0.030805764891207215,0.0881605140119791,-0.3341384311079979,0.05012175813317299,-0.05839049071073532,-0.024626683443784714
1772363467081746400,5.299746337890625,0.04226838527843356,0.08617430863082408,-0.0880816035568714,0.054238468408584595,-0.0068502225913107395,-0.019373103976249695
1772363467091816200,5.309816162109375,-0.04288564039394259,0.03060556614398956,0.12354922277927398,0.05746781826019287,0.028561031445860863,-0.019263114780187607
1772363467101885400,5.319885498046875,-0.034859570326656104,0.02505436175763607,0.09553308860659598,0.0482189804315567,0.02209952287375927,-0.02198624424636364
1772363467111955200,5.329955078125,0.00847878227084875,-0.007174421674013137,-0.01656067417860031,0.028378961607813835,0.003050996921956539,-0.029187165200710297
1772363467122024200,5.340024169921875,0.03503288106694817,-0.017553776869177817,-0.12643500734865665,0.01202029176056385,-0.013524837791919708,-0.032923322170972824
1772363467132094200,5.35009423828125,0.05212196303382516,0.04357727591991424,-0.1707610558092594,0.004348257556557655,-0.017853807657957077,-0.03595612943172455
1772363467142163200,5.3601630859375,0.025497867741435764,0.1021814405798912,-0.10696867485642432,-0.004666387103497982,-0.023635974153876305,-0.038186170160770416
1772363467152233200,5.370233154296875,0.013286182552576064,0.07544891647696494,-0.04203472265303135,-0.021811552345752716,-0.024428797885775566,-0.03930602967739105
1772363467162302200,5.38030224609375,-0.010937865860760211,0.008304887008666991,-0.007048749467730522,-0.0315118208527565,-0.022608332335948944,-0.03280434384942055
1772363467172372200,5.390372314453125,-0.03341054056212306,-0.07398118201196194,0.013732757276296614,-0.03935030475258827,-0.008876277133822441,-0.025206344202160835
1772363467182441200,5.400441162109375,-0.06774564862325787,-0.10645429559350013,0.07472060220241546,-0.0353928841650486,0.00796414352953434,-0.021420808508992195
1772363467192511200,5.41051123046875,-0.054987435467541215,-0.05502279904186725,0.11360358282625675,-0.03388793021440506,0.02095797285437584,-0.021519610658288002
1772363467202580200,5.420580322265625,-0.0822521667510271,-0.027366730353236196,0.08369768938422202,-0.022684641182422638,0.017707504332065582,-0.01953033357858658
1772363467212650200,5.430650146484375,-0.11646262551918625,0.021390578553080557,0.05227613068222999,-0.00721327168866992,0.017477139830589294,-0.009124030359089375
1772363467222719200,5.44071923828125,-0.17545476658344267,-0.001689268261194229,0.029470424634218215,0.015705958008766174,0.01822943054139614,-0.0018853009678423405
1772363467232789200,5.450789306640625,-0.15054799660295248,0.017100187882781028,0.042758945274353026,0.04191039875149727,0.015182772651314735,-0.001824315171688795
1772363467242858200,5.460858154296875,-0.09208221750035882,0.06658756462931632,0.12654431294202803,0.0533096045255661,0.023113122209906578,0.005027530714869499
1772363467252928300,5.47092822265625,-0.09808817991688847,0.08011515472233295,0.16304887399673462,0.06342216581106186,0.024770673364400864,0.007365786004811525
1772363467262997200,5.480997314453125,-0.09293941885158419,0.10278232908248901,0.1610018783390522,0.07390669733285904,0.031457122415304184,0.013516098260879517
1772363467273067300,5.4910673828125,-0.08813800991922617,0.10531097077727317,0.15132511845529079,0.075766921043396,0.033998046070337296,0.02564200386404991
1772363467283136300,5.50113623046875,-0.13881766519024968,0.0559141949236393,0.10565233156085013,0.08392974734306335,0.03515035659074783,0.03367562219500542
1772363467293206300,5.511206298828125,-0.1086953525185585,0.045569326519966126,0.07094868244826794,0.09001001715660095,0.04066549614071846,0.03718513622879982
1772363467303275300,5.521275146484375,-0.04963029234856367,0.009181085321307183,0.0932365021020174,0.0860506147146225,0.04917670413851738,0.03722582012414932
1772363467313345300,5.53134521484375,-0.019200521162897347,-0.007205985856056213,0.08500468032956122,0.07902252674102783,0.05891641974449158,0.041804321110248566
1772363467323414300,5.541414306640625,-0.008345219019055366,-0.017612813580036163,0.006826046627759933,0.07212238013744354,0.05423833429813385,0.03728640824556351
1772363467333484300,5.551484375,0.021835399711132047,-0.015418518406152725,-0.018993454283475875,0.08843424171209335,0.07911359518766403,0.034145474433898926
1772363467343553300,5.56155322265625,0.02420753566995263,-0.0792594146758318,0.12861702756285667,0.023486493155360222,0.0973912701010704,0.05168861895799637
1772363467353623000,5.571623046875,-0.11600538327097892,-0.174025610563159,-0.18888123438954352,0.014646129682660103,0.034218959510326385,0.034096840769052505
1772363467363692300,5.5816923828125,0.06526946776807308,0.016702128475904465,-0.3843371709942818,0.03298464044928551,-0.00899352878332138,0.027236199006438255
1772363467373762000,5.591761962890625,0.1619632707171142,0.1416682323157787,-0.20135726960301398,0.02835606411099434,0.006153465248644352,0.013926785439252853
1772363467383831300,5.601831298828125,0.08065919847115874,0.12447744354009628,-0.10135843375921248,0.0298619344830513,0.007453422527760267,0.014712895266711712
1772363467393901300,5.6119013671875,0.033781127440184355,0.08486147246658801,-0.16850597035884857,0.03688761964440346,-0.015400227159261703,0.017576858401298523
1772363467403970300,5.62197021484375,-0.0033757600434124466,-0.015755203014612196,-0.175415019094944,0.026566937565803528,-0.014772629365324974,0.019191782921552658
1772363467414040300,5.632040283203125,-0.0017583879746496675,-0.05248012882173061,-0.03580781096220016,0.018536172807216644,-0.0059181516990065575,0.012902194634079933
1772363467424109300,5.642109375,0.045914778956770895,-0.01487666661441326,0.042159225815534586,0.018933095037937164,-0.007243958301842213,0.014437414705753326
1772363467434179300,5.652179443359375,0.051566082716733214,0.04870879358947277,0.047266193565726276,0.021593060344457626,-0.0033157956786453724,0.0152968168258667
1772363467444248300,5.662248291015625,0.03762523564770818,0.0711111795336008,0.060871525070071215,0.022357286885380745,0.0031290268525481224,0.01327800378203392
1772363467454318300,5.672318359375,0.049435792689770455,0.08275134844481945,0.083071081918478,0.021514395251870155,0.005527470260858536,0.012070526368916035
1772363467464387000,5.682386962890625,0.0992751977443695,0.050692660883069035,0.10299977122545241,0.012232654727995396,0.014043852686882019,0.005445811897516251
1772363467474457300,5.692457275390625,0.07477101721540093,-0.008349895194172858,0.10796119302511215,0.000989587977528572,0.0203667301684618,0.00824319664388895
1772363467484526000,5.702526123046875,0.019478315190970895,-0.08302841182053089,0.08248656002879143,-0.001491679809987545,0.01825910434126854,0.006129978224635124
1772363467494596400,5.712596435546875,0.07311082891821861,-0.05691431187689304,0.059063598865270614,-0.0026980917900800705,0.013483790680766106,0.007259158417582512
1772363467504665000,5.7226650390625,0.053204351443052286,-0.02439677463173866,0.02080839475095272,0.0034054145216941833,0.015336916781961918,-0.003698923159390688
1772363467514735000,5.732735107421875,0.03304316855445504,0.025357728618383406,-0.04586392555236816,0.01920594833791256,0.0077833933755755424,-0.012484157457947731
1772363467524804000,5.74280419921875,0.023430267687141893,0.0835287625581026,-0.07666296844184398,0.03349747508764267,-0.003640981623902917,-0.011334994807839394
1772363467534874000,5.7528740234375,0.001434124456346035,0.052339843568205834,-0.04697627070844173,0.03342317044734955,-0.006843166425824165,-0.011059358716011047
1772363467544943400,5.762943359375,-0.04759074934497475,-0.026907880669832226,-0.020469956576824187,0.03856732323765755,-0.007791138719767332,-0.009805046021938324
1772363467555013000,5.77301318359375,-0.04063859211951494,-0.018272738793492317,0.013299042034149168,0.04659169167280197,-0.003230208996683359,-0.008842846378684044
1772363467565082400,5.783082275390625,0.003653115680068731,0.03907119667232036,0.052046413579583166,0.050807755440473557,0.009900659322738647,-0.007038251031190157
1772363467575152000,5.793152099609375,0.011311083087325095,0.052613399812579155,0.05449380673170089,0.04882583022117615,0.011987779289484024,-0.004352187272161245
1772363467585221400,5.803221435546875,-0.00800824214965105,0.028982933378219604,0.007525134807825088,0.0447256937623024,0.01119943056255579,0.0012518935836851597
1772363467595291100,5.813291015625,-0.019097645310312508,0.02443944472968578,-0.017441548666357994,0.03718814253807068,0.007159414701163769,-0.0021066186018288136
1772363467605360400,5.8233603515625,-0.009954407781362532,0.04326280314326286,0.0007014262676239013,0.030036326497793198,0.008871054276823997,-0.008540944196283817
1772363467615430100,5.83343017578125,0.038775866987556216,0.06387538306117058,0.013488427126407623,0.02253207191824913,0.006605769973248243,-0.007812304422259331
1772363467625499100,5.8434990234375,0.02747530529424548,0.044882513299584384,-0.022175006929039953,0.0046601975336670876,0.002365648280829191,-0.0037978296168148518
1772363467635569400,5.8535693359375,-0.006925999870896339,-0.010133856001496314,-0.09757891522049904,-0.006026002578437328,-0.005296798888593912,-0.006280694622546434
1772363467645638100,5.86363818359375,0.015033903002738951,-0.0016050971090793608,-0.10308861855268478,-0.01369915995746851,-0.008084073662757874,-0.006878297310322523
1772363467655708400,5.87370849609375,0.005914630871266127,-0.025896657800674436,-0.060141457229852674,-0.028085822239518166,-0.010603157803416252,-0.005728077609091997
1772363467665777200,5.883777099609375,-0.04521466786339879,-0.06301321327388286,-0.04024082497358322,-0.02775850147008896,-0.00829016137868166,-0.006101379636675119
1772363467675847200,5.89384716796875,-0.055731093441694975,-0.021640753921866415,-0.011660042655467986,-0.021430298686027527,-0.009398036636412144,-0.010284140706062317
1772363467685916200,5.903916259765625,-0.03440086677372455,0.03950257382690906,0.019541151294112203,-0.019811347126960754,-0.006796353496611118,-0.007371900603175163
1772363467695986200,5.913986083984375,-0.059790744096040724,0.018197335469722745,0.013883563923835754,-0.01340298168361187,-0.010785236023366451,-0.008932778611779213
1772363467706059300,5.924059326171875,-0.05527502023726701,0.027656653210520743,-0.008205518287420272,0.0006258739158511162,-0.01754140481352806,-0.011351782828569412
1772363467716129300,5.93412939453125,-0.014109920025616883,0.07588438528478145,0.03681085052490234,0.004636062309145927,-0.014268112368881702,-0.010293709114193916
1772363467726198300,5.9441982421875,-0.04115414042621851,0.05497019207179546,0.07485445771515369,-0.001269197091460228,-0.011533765122294426,-0.008435476571321487
1772363467736268300,5.954268310546875,-0.10871171913146972,-0.006745967128872871,0.06946925754547119,0.004201468080282211,-0.011567054316401482,-0.0062865703366696835
1772363467746337300,5.964337158203125,-0.0849450590968132,-0.003069324442744255,0.10214695378839969,0.008044851943850517,-0.01476458553224802,0.001972590573132038
1772363467756407300,5.9744072265625,-0.07381079388111829,-0.030316227808594703,0.11444120269417762,0.009790286421775818,-0.006627563387155533,0.004312177654355764
1772363467766476000,5.98447607421875,-0.05878901970759034,-0.008996960926055907,0.10177052169144153,0.018225740641355515,-0.0009011481888592243,0.008787444792687893
1772363467776546300,5.99454638671875,-0.04540756008699536,0.032192543074488635,0.07530921574532985,0.02252834290266037,0.011469768360257149,0.014327885583043098
1772363467786615000,6.004614990234375,-0.057992608632892365,0.017783493971824646,0.020968553748726842,0.013367686420679092,0.0033042365685105324,0.016224121674895287
1772363467796685300,6.014685302734375,-0.046603491873294114,-0.027269699719548224,-0.037892216020822524,0.007678374648094177,-0.010720502585172653,0.009214147925376892
1772363467806754000,6.024754150390625,-0.032103257355839014,-0.020246669214963913,-0.043807577544450756,0.006942956708371639,-0.00794448982924223,0.00979290809482336
1772363467816824300,6.03482421875,-0.0037219431325793265,0.040402737537026404,0.033254619348049165,-0.004948324523866177,0.003240521065890789,0.010261891409754753
1772363467826893300,6.044893310546875,-0.009984072267264128,0.052792263510823244,0.034626492223143575,-0.008545542135834694,0.004315979778766632,0.007177085615694523
1772363467836963000,6.054963134765625,0.027656799340993164,0.06994915001690387,0.010113397735357283,-0.01481542270630598,0.002554565202444792,0.00535335298627615
1772363467847032300,6.0650322265625,0.05523936440199613,0.06107552320957183,-0.029584406402707097,-0.022326070815324783,-0.0010452293790876865,0.009873801842331886
1772363467857102000,6.07510205078125,0.024184008663892746,-0.006341477981209755,-0.06901449951529502,-0.02867291495203972,-0.0018148832023143768,0.011628026142716408
1772363467867171300,6.08517138671875,-0.004388298086822033,-0.04992050746679306,-0.06307458807229996,-0.030086379498243332,0.005852402187883854,0.016959693282842636
1772363467877241000,6.095240966796875,-0.033527298809587956,-0.08101941008567809,0.012239888370037078,-0.030903438106179237,0.017442479729652405,0.016855299472808838
1772363467887310300,6.105310302734375,-0.024578122548013923,-0.07888999684154988,0.08213760046064854,-0.03316605091094971,0.025282979011535645,0.011645393446087837
1772363467897380000,6.115380126953125,0.019087416177242994,-0.03634557110071182,0.10047755927145481,-0.03232449293136597,0.024123970419168472,0.014582326635718346
1772363467907449300,6.125449462890625,0.0016430910319089889,-0.02148936275243759,0.019251812958717345,-0.02341059222817421,0.021086452528834343,0.014960907399654388
1772363467917519400,6.135519287109375,-0.005125526320189237,0.001460135680437088,-0.021716157245635984,-0.010819166898727417,0.01974714733660221,0.019084813073277473
1772363467927588400,6.14558837890625,0.02799713721126318,0.041647184640169144,0.03213233731985092,0.0017605647444725037,0.028862062841653824,0.014386805705726147
1772363467937658400,6.155658447265625,0.0534163867585361,0.05447802464067936,0.07661328408122062,0.00630871020257473,0.033082105219364166,0.01870672032237053
1772363467947727000,6.16572705078125,0.025039748710393904,0.09234802882969378,0.05734510450959205,0.014542424120008945,0.030507933348417282,0.012782856822013855
1772363467957797400,6.17579736328125,0.04148308011963963,0.11281740088462829,0.026803251251578328,0.028949860483407974,0.03062591329216957,0.008834188804030418
1772363467967866000,6.1858662109375,0.0975989350952208,0.09700783733427525,0.06908464214205741,0.02630002051591873,0.0360029861330986,0.0067106205970048904
1772363467977936400,6.195936279296875,0.107409404361248,0.05404957009553909,0.048369186371564864,0.01713688299059868,0.03485196828842163,0.007303706370294094
1772363467988005000,6.206005126953125,0.07031433006748557,-0.0013216039925813673,-0.03833937526643276,0.013377322815358639,0.02798280492424965,0.007551223039627075
1772363467998075100,6.2160751953125,0.046967210619151586,-0.03565057457387447,-0.03753098149299621,0.0041494714096188545,0.03842346370220184,0.0047940523363649845
1772363468008144100,6.22614404296875,0.04503068959861994,-0.0587982259273529,0.011293547430634498,-0.007694539148360491,0.04559067264199257,-0.0008555608801543713
1772363468018214100,6.236214111328125,0.07042685053125024,-0.029615386062860488,-0.0317278481721878,-0.018716830760240555,0.030656464397907257,-0.00373656814917922
1772363468028283100,6.246283203125,0.04736541615650058,0.006643091276288032,-0.13134908287525177,-0.0178519356995821,0.009891238063573837,-0.00933067686855793
1772363468038353200,6.256353271484375,0.019472323841601608,0.04182546381652355,-0.16095687015354632,-0.00816335529088974,-0.0057662855833768845,-0.01305617205798626
1772363468048422400,6.26642236328125,-0.01154313827753067,0.07917348995804786,-0.14092705855965615,0.004534254781901836,-0.013288702815771103,-0.01129082404077053
1772363468058492200,6.2764921875,-0.05692614844515919,0.07605448115468025,-0.08609773626327515,0.022378765046596527,-0.018541254103183746,-0.008741911500692368
1772363468068561400,6.2865615234375,-0.06954466086924076,0.0722574269592762,-0.05299801521599293,0.03164070472121239,-0.023096058517694473,-0.0020043812692165375
1772363468078631200,6.296631103515625,-0.07205912790820002,0.055474049940705296,-0.001513327172398567,0.04055457189679146,-0.018404634669423103,0.0015613250434398651
1772363468088700400,6.306700439453125,-0.08775032577589154,0.04462532366812229,0.06303659414947033,0.050279200077056885,-0.0036465872544795275,0.009703774936497211
1772363468098770200,6.316770263671875,-0.10247896222174167,0.03714928869903088,0.11657353854775428,0.047880224883556366,0.0010056886821985245,0.011897686868906021
1772363468108839200,6.326839111328125,-0.11235226759091019,0.003103226712346077,0.10946341428160666,0.03812146186828613,0.007025985512882471,0.021323127672076225
1772363468118909200,6.3369091796875,-0.13713102727755905,-0.024480361261963842,0.0578267505466938,0.027140717953443527,0.012973090633749962,0.020654406398534775
1772363468128978200,6.346978271484375,-0.11894158285334705,-0.02850771708190441,0.030828853505849838,0.008227745071053505,0.01488630473613739,0.02623213268816471
1772363468139048400,6.35704833984375,-0.10875307405516504,-0.055142041507363314,0.0013549217402935027,-0.004060346633195877,0.021401196718215942,0.026306699961423874
1772363468149117200,6.3671171875,-0.07561272873654962,-0.04761106148064136,-0.005928221005201339,-0.02688763104379177,0.02048959583044052,0.028365056961774826
1772363468159187200,6.377187255859375,-0.0469787549264729,-0.05848375315070152,0.0015057283878326415,-0.04479126259684563,0.023763420060276985,0.03357499837875366
1772363468169256200,6.387256103515625,-0.06074497608095407,-0.06865443403124809,0.011849427747726439,-0.052378445863723755,0.023146871477365494,0.03875470906496048
1772363468179326200,6.397326171875,-0.0425825657941401,-0.04617722928524017,0.025381694015860556,-0.04457777738571167,0.026481149718165398,0.040842898190021515
1772363468189395200,6.407395263671875,-0.05318506222069263,0.03174713739454746,0.04052957878708839,-0.033439915627241135,0.03670566901564598,0.04366154968738556
1772363468199465200,6.41746533203125,-0.07895619394555688,0.05470832626521587,0.024906477719545364,-0.023504193872213364,0.045338839292526245,0.0512869767844677
1772363468209534200,6.4275341796875,-0.0727374655611813,0.026557752057909965,-0.008992869272828101,-0.01609642803668976,0.038923297077417374,0.05363235995173454
1772363468219604200,6.437604248046875,-0.05900660798102617,-0.03484101175665855,-0.04001286143660545,-0.00768137164413929,0.035448670387268066,0.05458603799343109
1772363468229673200,6.447673095703125,-0.029755232924968,-0.031493454894423484,0.009181669843196868,0.004991170018911362,0.04183395206928253,0.057424262166023254
1772363468239743200,6.4577431640625,0.008185644543170929,0.021920155385136603,0.0823696556508541,0.017226265743374825,0.046711266040802,0.05729056894779205
1772363468249813200,6.467813232421875,0.053229778145253655,0.05311433507204055,0.10802899756431579,0.024897899478673935,0.04449455812573433,0.057462092489004135
1772363468259882200,6.47788232421875,0.06698036333918571,0.09233633839190006,0.07933832513093948,0.03303199261426926,0.03669655695557594,0.05013466998934746
1772363468269952300,6.4879521484375,0.0815736829675734,0.12804653419852255,0.0429039067029953,0.03135792165994644,0.03754435479640961,0.04778972268104553
1772363468280021200,6.498021240234375,0.06322466406747698,0.07955985892713069,0.022713351589441298,0.020682107657194138,0.04154069349169731,0.04251533001661301
1772363468290091300,6.50809130859375,0.06300386092364788,0.00021276596784591673,-0.02616319978237152,0.008450841531157494,0.035799477249383926,0.03450734168291092
1772363468300160300,6.51816015625,0.11747238708361983,-0.035031565892696376,-0.03730418699979782,-0.0061784349381923676,0.02991575375199318,0.026784976944327354
1772363468310230300,6.528230224609375,0.1641020363114774,-0.04250760086178779,-0.04795476035177707,-0.02574462816119194,0.01807151734828949,0.024645045399665833
1772363468320299300,6.53829931640625,0.15402721702083944,-0.05799100119769573,-0.1072311251848936,-0.03842793405056,-0.001604182180017233,0.02480270341038704
1772363468330369300,6.548369384765625,0.14600100082308054,-0.04106792344748974,-0.1297825642108917,-0.04677226021885872,-0.0012632121797651052,0.013121106661856174
1772363468340438000,6.55843798828125,0.14899945198670028,0.030800211933255193,-0.04409983848929405,-0.04582523927092552,-0.005445173941552639,0.006270390935242176
1772363468350508300,6.56850830078125,0.10427549024969339,0.02708557532429695,0.008359832066297531,-0.04860088229179382,-0.007305200211703777,-0.0004664449952542782
1772363468360577300,6.578577392578125,0.07819178544431925,0.0033405425995588303,-0.015808979028463364,-0.0445648618042469,-0.015268851071596146,-0.002288845833390951
1772363468370647300,6.588647216796875,0.04779430909305811,-0.034462241572141644,-0.04586977077126503,-0.03413043171167374,-0.022929726168513298,0.0005717845633625984
1772363468380716300,6.59871630859375,0.035533962456882,-0.03127016753256321,-0.008261047866940497,-0.012239780277013779,-0.02096457965672016,-0.0015467600896954536
1772363468390786000,6.6087861328125,0.03060088996887207,-0.02484510292112827,0.0648240620881319,0.0016446681693196297,-0.016826771199703217,0.0020220973528921604
1772363468400855300,6.618855224609375,-0.013766659545898436,-0.028114918372035023,0.10589432362318038,0.012134326621890068,-0.00784818921238184,-0.000775553286075592
1772363468410925000,6.628925048828125,-0.04029562390074134,-0.010489829832315445,0.12320435486435889,0.019499823451042175,-0.010656114667654037,-0.003853671718388796
1772363468420994300,6.638994384765625,-0.029130232894420623,0.003976502415537834,0.06825637462437152,0.021769102662801743,-0.017038647085428238,-0.0055050975643098354
1772363468431064000,6.64906396484375,-0.005098346052318811,0.027468437162041663,0.001343231302499771,0.027709659188985825,-0.027980593964457512,-0.009220033884048462
1772363468441133300,6.65913330078125,0.024688889446109533,0.05913081888258457,-0.012144611302018165,0.03518541902303696,-0.029519634321331978,-0.005327025428414345
1772363468451203300,6.669203369140625,0.030863486427813766,0.06670388448536396,-0.008237082469463348,0.034658946096897125,-0.028107011690735817,-0.004900240805000067
1772363468461272300,6.679272216796875,0.037663229570537804,0.053935588327050206,-0.02444996612370014,0.034059733152389526,-0.028645236045122147,0.00046576187014579773
1772363468471342300,6.68934228515625,0.03537716445997357,0.02404430793225765,-0.05603635999858379,0.029430851340293884,-0.02895786240696907,0.002286649774760008
1772363468481411300,6.699411376953125,0.009509586623311042,-0.01744037962257862,-0.09502221647500991,0.026239320635795593,-0.032059114426374435,0.0018280535005033016
1772363468491481300,6.7094814453125,0.0012798106774687765,-0.002236380749940872,-0.11156769308447838,0.013094496913254261,-0.036541592329740524,-0.0018119188025593758
1772363468501550000,6.719550048828125,-0.0031235388480126856,0.02257774251103401,-0.11386603315472602,0.001773398369550705,-0.03669951856136322,-0.011143635958433151
1772363468511620400,6.729620361328125,0.029467940416187045,0.0437011945605278,-0.06736731683015823,-0.00885745044797659,-0.03617510944604874,-0.013891667127609253
1772363468521689000,6.739689208984375,0.05351254060938954,0.0036988545179367062,-0.002738485053181648,-0.026211673393845558,-0.027204783633351326,-0.009573884308338165
1772363468531759400,6.74975927734375,-0.011495061352103948,-0.07604162167310714,0.002864157259464264,-0.04323624446988106,-0.01911693625152111,-0.007120498456060886
1772363468541828000,6.759828125,-0.026126374903321266,-0.10215455257296562,0.015149638336896896,-0.050742898136377335,-0.011691243387758732,-0.0032714316621422768
1772363468551898400,6.7698984375,-0.01136558975353837,-0.11028349849283695,0.08982230974435806,-0.059012919664382935,0.0028784191235899925,-0.004387970082461834
1772363468561967000,6.779967041015625,0.012726648973673581,-0.11049158828556536,0.12660451869666575,-0.057579874992370605,0.01095658540725708,-0.003227364271879196
1772363468572037000,6.790037109375,0.061393356987088914,-0.05650748464167118,0.10911094758212565,-0.0485575832426548,0.012641160748898983,-0.004419548436999321
1772363468582106000,6.800106201171875,0.06985474973171948,-0.017490648505091667,0.08196575102508068,-0.03851107507944107,0.01723537966609001,0.0000636167824268341
1772363468592176000,6.810176025390625,0.016769640754163265,-0.011671733093261718,0.04696048861742019,-0.019862370565533638,0.011257929727435112,0.0018731700256466866
1772363468602245400,6.820245361328125,-0.0021261983737349507,0.02604512636065483,0.03323825273513794,-0.001004260964691639,0.007149471435695887,0.0010531828738749027
1772363468612315100,6.830315185546875,0.012879939839243888,0.06090484281778335,0.09475567449331283,0.012382732704281807,0.011036341078579426,-0.0026829009875655174
1772363468622384400,6.84038427734375,0.0029649872854351994,0.06704349170327187,0.1456909119606018,0.029650136828422546,0.01340628694742918,-0.0044701481238007545
1772363468632454100,6.8504541015625,0.0012093757897615432,0.08075520619153977,0.1684475181698799,0.04237065836787224,0.01767432503402233,-0.010515782982110977
1772363468642523400,6.8605234375,0.02989800239652395,0.05625029501020908,0.18374387150108812,0.0456351637840271,0.02783322148025036,-0.008014541119337082
1772363468652593200,6.87059326171875,0.006592530132830143,-0.02658931623995304,0.12162146958708762,0.040069397538900375,0.032918594777584076,-0.005373860243707895
1772363468662662100,6.880662109375,0.0005311842672526836,-0.06729308255016804,0.04595861809849739,0.03980094939470291,0.024088621139526367,-0.004253468010574579
1772363468672732200,6.890732177734375,0.019312310974299907,-0.0657131198823452,0.03140519208908081,0.027841242030262947,0.02420184388756752,-0.00007010204717516899
1772363468682801200,6.90080126953125,0.006156038411706686,-0.06818155582249164,0.024723522368073462,0.019001146778464317,0.02216612547636032,-0.004190811421722174
1772363468692871400,6.910871337890625,0.005987842237949371,-0.03676525781750679,0.0020645313143730164,0.004233401268720627,0.02075335942208767,-0.0051840972155332565
1772363468702940200,6.920940185546875,0.0010613456211984156,-0.016408113965392112,-0.03721183254122734,-0.003745429217815399,0.010264232754707336,-0.009206002578139305
1772363468713007000,6.931007080078125,0.014201543831825255,0.008471475747227668,-0.0679834029018879,-0.004740268923342228,0.0029262742027640343,-0.011948348954319954
1772363468723076000,6.941076171875,0.010692366667091845,0.029226094484329224,-0.07959960641562938,-0.010504947043955326,-0.0019260055851191282,-0.009949646890163422
1772363468733146000,6.95114599609375,-0.04009104123935103,0.025861001965403554,-0.0888753842830658,-0.003741724416613579,-0.006594836711883545,-0.01287941075861454
1772363468743215000,6.961215087890625,-0.07012202236577868,0.02848550525009632,-0.10247487056851387,0.004098622128367424,-0.01439257338643074,-0.008263353258371353
1772363468753285000,6.97128515625,-0.07072787930443883,0.04603811307549476,-0.0795902540653944,0.01742434874176979,-0.020833216607570648,-0.006883844267576933
1772363468763354400,6.981354248046875,-0.08238543774187565,0.052126493078470226,-0.0743003309637308,0.029766235500574112,-0.026721999049186707,-0.006993566174060106
1772363468773424000,6.991424072265625,-0.053812692599743604,0.05033493348658084,-0.038198505491018296,0.036007724702358246,-0.025050150230526924,-0.002076132223010063
1772363468783493400,7.001493408203125,-0.06203223941251635,0.010203414106369019,-0.022746669337153434,0.0368247851729393,-0.02599077858030796,0.0012197955511510372
1772363468793563100,7.011563232421875,-0.05440817427486181,0.004658054938912391,0.02576806298494339,0.026475556194782257,-0.028382577002048492,0.003750662552192807
1772363468803632400,7.02163232421875,-0.03363251274973154,0.001939443629980087,0.06610007337331772,0.02000274509191513,-0.02602195367217064,0.004141881130635738
1772363468813702100,7.0317021484375,-0.003905044614523649,0.018985855498909947,0.06497486873567104,0.013418002985417843,-0.0244116373360157,0.005264908075332642
1772363468823771100,7.041771240234375,0.006227350082248449,-0.0005067804783582687,0.056475920459628105,-0.0022461777552962303,-0.019518611952662468,0.009124627336859703
1772363468833841200,7.051841064453125,-0.028483167162537574,-0.026046879926323888,0.053846740999817844,-0.010772311128675938,-0.011798568069934845,0.005086367018520832
1772363468843910100,7.06191015625,-0.021014000325649977,-0.052585342761874196,0.07347557057738303,-0.019321324303746223,0.0001225392334163189,0.004292745143175125
1772363468853980400,7.07198046875,0.02330006543621421,-0.06026712943613529,0.11876900276541709,-0.0381375215947628,0.010879873298108578,0.0015903064049780369
1772363468864049200,7.082049072265625,0.03235314046368003,-0.09034428779184818,0.10797639059424399,-0.05511251091957092,0.016023769974708557,0.006475875154137611
1772363468874119200,7.092119140625,-0.001120674593001604,-0.11835106961429119,0.04023030357956886,-0.06127065792679787,0.010429729707539082,0.0029728091321885586
1772363468884189200,7.102189208984375,0.007229951253533363,-0.08458265552520751,0.005910685348510742,-0.05303429812192917,0.007279477082192898,0.00438268668949604
1772363468894258200,7.112258056640625,-0.004330430419743061,-0.03267126650214195,-0.0018885902255773544,-0.036237601190805435,0.009794032201170921,0.0061087338253855705
1772363468904328200,7.122328125,-0.024223902282863852,0.02534311557114124,0.011911971589922904,-0.014926984906196594,0.01309715025126934,0.009744214825332165
1772363468914397200,7.132397216796875,-0.01280365973263979,0.035382279026508326,0.03338321416378021,0.0065555693581700325,0.005543597973883152,0.0015348843298852444
1772363468924467200,7.14246728515625,0.025716040536761284,0.05713876828253269,0.07460252878069877,0.026469089090824127,0.008218743838369846,0.0025695222429931164
1772363468934536200,7.1525361328125,0.031642069584876295,0.05341244123578071,0.11265081214606762,0.03929368406534195,0.01758752204477787,0.005578114651143551
1772363468944606200,7.162606201171875,-0.002589285840839147,0.034085224953293795,0.11059271057248114,0.0413493812084198,0.020502084866166115,0.004318439867347479
1772363468954675200,7.17267529296875,-0.002745937707275152,0.01830430297553539,0.08465396719574927,0.0416995994746685,0.021912535652518272,0.0020633479580283165
1772363468964745200,7.1827451171875,0.01630582263469696,-0.005080079743266105,0.04992810625135898,0.03639804571866989,0.01726531982421875,0.0018455013632774353
1772363468974814200,7.192814208984375,0.024294483301043508,0.007958850049972533,0.018230653217434882,0.024522237479686737,0.014318995177745819,-0.0010806708596646786
1772363468984884200,7.20288427734375,0.018244389481842517,0.012551438537240028,-0.010088847815990447,0.013743625022470951,0.01619385927915573,-0.0037795179523527622
1772363468994953200,7.212953125,0.04230199528709054,0.007839023062586783,-0.02075169612765312,-0.004198889248073101,0.015205560252070427,-0.0007211440242826939
1772363469005023200,7.223023193359375,0.07680573791339992,-0.011525018098950386,-0.07393325121700764,-0.02100556716322899,0.010303480550646782,-0.0008170171640813351
1772363469015092200,7.23309228515625,0.08643924317732453,-0.02408230185508728,-0.1417260999828577,-0.031987741589546204,-0.0024168698582798243,-0.0005367244593799114
1772363469025162200,7.243162353515625,0.11010185831561684,-0.019171148937940596,-0.1488145969390869,-0.042893655598163605,-0.010471601039171219,-0.00034470995888113976
1772363469035231200,7.253231201171875,0.11158625165447592,0.0004348842859268188,-0.09771861595213413,-0.05028736591339111,-0.005489695817232132,-0.004659188911318779
1772363469045301200,7.26330126953125,0.07855550419017672,0.01934709002673626,-0.014259996020793914,-0.05027990788221359,-0.0021580816246569157,-0.007243786007165909
1772363469055370000,7.273369873046875,0.05254062683731317,0.03156359752118587,0.02173252385854721,-0.04697161167860031,0.005534040741622448,-0.01192304864525795
1772363469065440300,7.283440185546875,0.01431830207929015,0.008163432711362838,-0.007815057665109634,-0.03503292798995972,0.004839754663407803,-0.01625867560505867
1772363469075509000,7.293509033203125,-0.01692906909957528,-0.0032797523230314253,-0.0922387232363224,-0.021404899656772614,-0.010126650333404541,-0.014513901434838772
1772363469085579300,7.303579345703125,-0.05083236161470413,-0.012442132943868636,-0.11934066517353058,-0.005417943000793457,-0.020253852009773254,-0.011081886477768421
1772363469095648300,7.313648193359375,-0.07001388581618666,0.0030465280890464783,-0.050372927409410476,0.004423419013619423,-0.028950124979019165,-0.00819961167871952
1772363469105718000,7.323718017578125,-0.06966214976906776,0.019707155510783194,0.06812544172108173,0.011014476418495178,-0.02032254822552204,-0.006743128411471844
1772363469115787300,7.333787353515625,-0.04793664017319679,0.03924655323922634,0.16246727471649647,0.019271373748779297,-0.014226756058633327,-0.008233288303017616
1772363469125857000,7.34385693359375,-0.017718173650652168,0.04546294353604317,0.18153963945508003,0.022142261266708374,-0.005317949689924717,-0.004082218278199434
1772363469135926300,7.35392626953125,-0.018107757490128277,0.015469371810555457,0.08816694375276565,0.024291057139635086,-0.008823917247354984,-0.002403801307082176
1772363469145996000,7.36399609375,-0.005651742151379585,-0.015351298388838768,0.014615969851613043,0.02834998071193695,-0.007509380578994751,0.002765393815934658
1772363469156065300,7.374065185546875,0.03626972938552499,0.007549100205302238,0.0031108254969120022,0.031088395044207573,-0.0044694505631923676,0.0009552990086376667
1772363469166135000,7.384135009765625,0.08022329127192497,0.025657588347792623,-0.008618775263428687,0.022294102236628532,-0.0071893371641635895,0.00428611459210515
1772363469176204300,7.394204345703125,0.08923428072333335,0.03954933557808399,-0.03681844930946827,0.011895183473825455,-0.008910104632377625,-0.000031962525099515915
1772363469186274300,7.4042744140625,0.0820996065378189,0.04354045104086399,-0.0724269383072853,0.0060908254235982895,-0.01099429465830326,-0.0072637759149074554
1772363469196343300,7.41434326171875,0.07623875168040395,0.04130757742226124,-0.07445230665504932,-0.0014559505507349968,-0.0155100766569376,-0.019814621657133102
1772363469206413300,7.424413330078125,0.096765845271945,0.05472703096568584,-0.060952189090847965,-0.021048560738563538,-0.016512757167220116,-0.022192025557160378
1772363469216482000,7.43448193359375,0.04662278109565377,-0.02263444113433361,-0.0754161832511425,-0.03376895189285278,-0.01777663826942444,-0.023914815858006477
1772363469226552300,7.44455224609375,0.003741378485411405,-0.07407295194864273,-0.05392155980169773,-0.04235871136188507,-0.021316777914762497,-0.02152356319129467
1772363469236621000,7.45462109375,-0.009677490536123514,-0.10526830067932605,-0.04632803593277931,-0.048062942922115326,-0.01948734000325203,-0.019484417513012886
1772363469246691300,7.46469140625,-0.0007923194214701652,-0.09361118063330649,-0.0029547581523656843,-0.04730980098247528,-0.016134154051542282,-0.018858840689063072
