time,seconds_elapsed,accel_x,accel_y,accel_z,gyro_x,gyro_y,gyro_z
1772363434874246400,0.111246337890625,0.018419161526858806,0.08524667239189147,-0.054717678615450856,0.006267061457037926,0.03016650676727295,0.022339502349495888
1772363434884316200,0.121316162109375,0.015102584324777126,0.06530395455956459,-0.016934768187999723,0.017037387937307358,0.032739099115133286,0.023923275992274284
1772363434894385400,0.131385498046875,0.01064575104638934,0.07017302190065383,0.019879589468240737,0.022920578718185425,0.024973854422569275,0.01781691238284111
1772363434904455200,0.141455078125,0.014341682954877614,0.06035539224147796,0.044295653322339056,0.027539972215890884,0.023537814617156982,0.021352510899305344
1772363434914524400,0.1515244140625,-0.03872925136685371,-0.012592355069518089,0.14317863687872887,0.029113102704286575,0.04691903665661812,0.026518777012825012
1772363434924594200,0.16159423828125,-0.07257087682262063,-0.06898176628947257,0.10867314068675041,0.0036250287666916847,0.05286983773112297,0.03364745154976845
1772363434934663200,0.1716630859375,-0.004202712386846542,-0.03820376618802547,-0.09232406343221664,-0.0027439212426543236,0.018885504454374313,0.03232333064079285
1772363434944732200,0.181732177734375,0.07431129074916243,0.006559504646062851,-0.09134323570132255,0.0003146762028336525,0.006628498435020447,0.02812117710709572
1772363434954802200,0.19180224609375,0.06752616065368056,0.0027747254103422164,0.05355331101119518,-0.0031503625214099884,0.02626398205757141,0.025086503475904465
1772363434964871200,0.20187109375,0.03609948738515377,0.0025339023917913435,0.06477788485884665,-0.004569691605865955,0.03660525009036064,0.026483118534088135
1772363434974941200,0.211941162109375,0.055112669282406566,0.014326631516218184,-0.010590952119231223,-0.005956665612757206,0.028025878593325615,0.017640890553593636
1772363434985010400,0.222010498046875,0.07406111538037657,-0.007691723546385765,-0.08383797463774681,-0.006265809293836355,0.015988454222679138,0.013934985734522343
1772363434995080200,0.232080078125,0.0734888684503734,-0.02783668595254421,-0.12979425464868544,0.0004243170842528343,0.0006158901378512383,0.014804242178797722
1772363435005149400,0.2421494140625,0.10110402060672641,0.033279753789305686,-0.08985621201395988,0.01557126734405756,-0.00409531407058239,0.0033588227815926075
1772363435015219200,0.25221923828125,0.12725333799421787,0.10927169110178947,-0.004479775762557983,0.025089669972658157,0.0037972303107380867,-0.005500448402017355
1772363435025288400,0.262288330078125,0.05347103955522179,0.10837561904489994,-0.049510173100233076,0.018834605813026428,0.0006780051626265049,-0.007850722409784794
1772363435035357200,0.272357177734375,-0.02570508075132966,0.04128127393722534,-0.16770926702320574,0.02112599089741707,-0.012985609471797943,-0.010693913325667381
1772363435045427200,0.28242724609375,0.0074320496968925,0.0086748893648386,-0.13498305546343325,0.021567245945334435,-0.01952732354402542,-0.012163357809185982
1772363435055496200,0.29249609375,0.07569076240882278,0.030572248396277427,-0.0643710576236248,0.019344041123986244,-0.03365273028612137,-0.015366874635219574
1772363435065566200,0.302566162109375,0.09112491677552462,0.07038344978094101,0.024864976665377615,0.01433898601680994,-0.03520414978265762,-0.01719876378774643
1772363435075635200,0.31263525390625,0.0638107933923602,0.058814592540264124,0.11068974120616912,0.003620828501880169,-0.0287915226072073,-0.018198514357209206
1772363435085705200,0.322705322265625,0.0037217970021069047,0.0068956047326326365,0.12502806316018103,-0.01352637354284525,-0.02369489148259163,-0.015308615751564503
1772363435095774200,0.332774169921875,-0.031712942864000795,-0.06680033059716224,0.13691373126506803,-0.031117085367441177,-0.01787535287439823,-0.008456568233668804
1772363435105844200,0.34284423828125,-0.07187734160050749,-0.14289631280601023,0.16197919893860815,-0.048112884163856506,-0.011228552088141441,0.002062272746115923
1772363435115913500,0.35291357421875,-0.09360533541440963,-0.15591186172366142,0.1819149025082588,-0.04972303286194801,0.004309395328164101,0.006768344435840845
1772363435125983200,0.362983154296875,-0.09695800684317946,-0.10616320369243622,0.11641279502809047,-0.036439791321754456,0.016333473846316338,0.012357826344668865
1772363435136052500,0.373052490234375,-0.061391457290947436,-0.005929974570870399,0.10900631816387175,-0.010552266612648964,0.03374442458152771,0.0147938197478652
1772363435146121200,0.383121337890625,-0.055854573690891265,0.02738134340047836,0.08024199597239494,0.005023272708058357,0.04373597353696823,0.015638887882232666
1772363435156191200,0.393191162109375,-0.06637889031469822,-0.0033183307677507397,-0.015049685093760489,0.02063658833503723,0.03159249573945999,0.013150162994861603
1772363435166260200,0.40326025390625,-0.04400777629166841,-0.010534838017821312,-0.07365794140696526,0.027735311537981033,0.0165550597012043,0.015528392046689987
1772363435176330200,0.413330322265625,-0.007108809091895818,0.0017027122646570204,-0.024936872857809066,0.03706223517656326,0.008357316255569458,0.0154799222946167
1772363435186399200,0.423399169921875,0.016430618058145045,0.016985621592402456,0.03750935418307781,0.03561681881546974,0.011254663579165936,0.01525604072958231
1772363435196469200,0.43346923828125,0.055957449543476104,0.06257891350984573,0.11958616436719893,0.039189983159303665,0.015282695181667805,0.0067765358835458755
1772363435206538200,0.443538330078125,0.07226750996187328,0.12337035908102989,0.1430155552715063,0.0403074249625206,0.03055109828710556,0.0003441278822720051
1772363435216608300,0.453608154296875,0.02493351185694337,0.10497487069070338,0.10814590194225311,0.05861479043960571,0.04299765080213547,-0.004492172505706549
1772363435226677200,0.46367724609375,-0.06611658611670136,-0.008921557602286339,0.30374446188807486,0.062255170196294785,0.10118001699447632,0.008307651616632938
1772363435236746200,0.473746337890625,-0.1326117962874472,-0.167324651619792,0.05332359390854835,-0.016047891229391098,0.08722664415836334,0.014705097302794456
1772363435246816300,0.483816162109375,0.010228256286680698,-0.08270634025931357,-0.5117869083434343,-0.020075064152479172,-0.033643629401922226,0.016017690300941467
1772363435256885200,0.49388525390625,0.13928995887711643,-0.0015267711758613586,-0.36496670009195803,-0.009078338742256165,-0.06502684950828552,0.023365085944533348
1772363435266955300,0.503955322265625,0.07765636339336633,-0.015004676908254622,0.0978898808658123,-0.010922253131866455,0.0007004509679973125,0.023936055600643158
1772363435277024300,0.514024169921875,0.014434329674392938,-0.0035901334464550016,0.24732524005174636,-0.02347026951611042,0.040025752037763596,0.023006878793239594
1772363435287094300,0.52409423828125,-0.030803719064593314,-0.031152094110846518,0.13079086447060106,-0.030148888006806374,0.04139271005988121,0.029921766370534897
1772363435297163300,0.534163330078125,-0.06466039595901965,-0.12020283496081828,0.10855214465558528,-0.02867988869547844,0.055808402597904205,0.03120487555861473
1772363435307233300,0.5442333984375,-0.037682664923369885,-0.1966986301422119,-0.010244330638647079,-0.02487342059612274,0.05499681830406189,0.014307156205177307
1772363435317302300,0.55430224609375,0.12959084103107452,-0.1754103429198265,-0.14967852029204368,-0.00010309368371963501,0.03013993799686432,0.03009890392422676
1772363435327371300,0.564371337890625,0.03329378231465816,0.02826806310713291,-0.1346107150197029,0.030685067176818848,0.031545378267765045,0.04207862168550491
1772363435337441300,0.574441162109375,-0.049559272938966746,0.07936696670353412,0.05131108504235744,0.041144099086523056,0.04602311924099922,0.04759376123547554
1772363435347510300,0.58451025390625,-0.00417056368291378,0.10012333900630474,0.07560030764639378,0.04903591796755791,0.04806070029735565,0.02506115473806858
1772363435357580300,0.594580322265625,0.04650105441212654,0.0862432822138071,0.131531453704834,0.09029654413461685,0.03914950042963028,0.037005964666604996
1772363435367649300,0.604649169921875,-0.013562223014980553,-0.06450725122392177,0.4454898510932922,0.13910380005836487,0.1142200455069542,0.03366803377866745
1772363435377719000,0.614718994140625,0.00270136791318655,-0.16014029307365416,0.37982816913723944,0.11768264323472977,0.13728249073028564,0.014229887165129185
1772363435387788300,0.624788330078125,0.25033202065229415,0.023140052568912505,-0.17800445106625556,0.11425645649433136,0.046204328536987305,-0.01915667951107025
1772363435397858300,0.6348583984375,0.31339959446191784,0.17224866401851177,-0.4195224661439657,0.11143749952316284,-0.037255942821502686,-0.018772650510072708
1772363435407927300,0.64492724609375,0.11919321952685713,0.17800386654436587,-0.2915846530169248,0.11981258541345596,-0.03871247172355652,-0.04760098084807396
1772363435417997300,0.654997314453125,0.13227291972190142,0.15193652835190297,-0.031283027014136315,0.12765826284885406,-0.024289054796099663,-0.07905610650777817
1772363435428066300,0.66506640625,0.18735928551927208,-0.03489420324862003,-0.0008183306455612182,0.12916065752506256,-0.02775859832763672,-0.11455696821212769
1772363435438135300,0.67513525390625,0.4033420234546065,0.07170972994863986,0.292919701012969,0.13276764750480652,0.0673317015171051,-0.20610925555229187
1772363435448205300,0.685205322265625,0.550777148734033,0.3250713275551796,0.7591232543110847,0.11603225022554398,0.26742592453956604,-0.21861232817173004
1772363435458274300,0.6952744140625,0.11425839347317814,0.34790918230712414,0.5960498303949833,0.10000162571668625,0.3986380100250244,-0.21996068954467773
1772363435468344300,0.70534423828125,-0.041156770774722094,0.26266777061223984,0.0988660324215889,0.11349025368690491,0.43494337797164917,-0.22580109536647797
1772363435478413300,0.715413330078125,-0.13349179399237035,0.08698328692615032,-0.011981529694795608,0.12273888289928436,0.45311734080314636,-0.20508170127868652
1772363435488483000,0.725483154296875,-0.2596851015396416,-0.14183423653244973,-0.1338917530953884,0.10743821412324905,0.4284672141075134,-0.17344039678573608
1772363435498552300,0.73555224609375,-0.3254578426547348,-0.39512452246844765,-0.31478958751559255,0.09658343344926834,0.35522523522377014,-0.12927080690860748
1772363435508622000,0.7456220703125,-0.2223499348796904,-0.5114373642534017,-0.4002589627474546,0.046810250729322433,0.2564859390258789,-0.09660199284553528
1772363435518691300,0.75569140625,-0.1639405621394515,-0.3956353946000337,-0.5668202287793159,0.02332356572151184,0.14713044464588165,-0.03386377543210983
1772363435528761300,0.76576123046875,-0.2692373582608998,-0.2722767259567976,-0.468392587774992,0.005514035001397133,0.07297433167695999,-0.013751214370131493
1772363435538830300,0.775830322265625,-0.0909445917725563,0.09156301593184471,-0.21841770999729632,-0.007451830897480249,0.07915126532316208,-0.02107943408191204
1772363435548899000,0.785899169921875,-0.06420826827734709,0.01871522186398506,-0.07940612967014313,-0.011614756658673286,0.07185187190771103,-0.0027384962886571884
1772363435558969300,0.79596923828125,-0.07319295424371958,0.10281447778642178,-0.13751988046467303,-0.011839793995022774,0.033441364765167236,0.0009907283820211887
1772363435569038300,0.806038330078125,-0.038314094694703815,0.1325847621500492,-0.11026888544559478,-0.0194487813860178,-0.0020445638801902533,0.006931948941200972
1772363435579108400,0.8161083984375,-0.06898688085600733,0.04571604151427745,-0.06709902128279209,-0.037963610142469406,-0.004389743320643902,0.014018886722624302
1772363435589177300,0.82617724609375,-0.09829013222977519,0.050286418169736856,0.0829623608469963,-0.004048114642500877,0.013117551803588867,0.021535910665988922
1772363435599247000,0.8362470703125,-0.043282823017984626,0.18234861775040626,0.2378244212567806,0.023230910301208496,0.04170338809490204,0.015638072043657303
1772363435609316400,0.84631640625,-0.08214797572419047,0.17177987746298312,0.1846867053091526,0.029339808970689774,0.03822071850299835,0.026094496250152588
1772363435619386000,0.85638623046875,-0.18085867145359516,0.10676116958558558,0.12068272743225097,0.034157998859882355,0.0392252616584301,0.02302546799182892
1772363435629455400,0.866455322265625,-0.18707681531608103,0.07046762093305588,0.1481435658097267,0.030966859310865402,0.05647328495979309,0.026882540434598923
1772363435639525000,0.876525146484375,-0.18557152531966567,-0.09087795627713204,0.11992284897565841,0.032431066036224365,0.06901518255472183,0.047351326793432236
1772363435649594400,0.886594482421875,-0.15474983220696448,-0.1910655926913023,0.1137099658101797,0.04157187044620514,0.0811668261885643,0.05218108743429184
1772363435659663000,0.8966630859375,-0.025912586022168397,-0.11817980470061301,0.09085574444532393,0.03989487886428833,0.07990662008523941,0.05343756452202797
1772363435669733400,0.9067333984375,0.01922404816895723,-0.003565583527088165,0.006737199300527573,0.05453743413090706,0.07082106918096542,0.056977055966854095
1772363435679801300,0.91680126953125,-0.0057188160382211205,0.032279636836051936,-0.07363982122838497,0.0648590475320816,0.07652529329061508,0.0495564267039299
1772363435689871000,0.92687109375,0.009228285463899373,0.008849076887965202,-0.11804887179732322,0.058281637728214264,0.07529953867197037,0.03648485988378525
1772363435699940000,0.936940185546875,0.059052054557949304,-0.03056114248037338,-0.1377957747966051,0.06689270585775375,0.06582614779472351,0.03979330509901047
1772363435710010000,0.947010009765625,0.1154138471186161,-0.091140991127491,-0.14604220961630343,0.06489287316799164,0.053303856402635574,0.03745395690202713
1772363435720079000,0.9570791015625,0.049572278551012275,-0.009722937113046646,-0.14249123913645745,0.06050797179341316,0.039477258920669556,0.04421252757310867
1772363435730149400,0.9671494140625,-0.029328385815024373,0.05116320100426674,-0.14957447539567947,0.04527972638607025,0.021154144778847694,0.03650393337011337
1772363435740218000,0.977218017578125,-0.10643953641578555,0.12663959001004696,-0.10328034173250197,0.031170303001999855,0.008815986104309559,0.031392794102430344
1772363435750287000,0.987287109375,-0.17318842908665535,0.10387304692864417,-0.011687515184283256,0.014395192265510559,0.007925362326204777,0.020820830017328262
1772363435760357000,0.997357177734375,-0.1395468562476337,0.11449088705480098,0.17253566426634787,0.0021521076560020447,0.029323861002922058,0.007091168314218521
1772363435770426000,1.007426025390625,-0.02386222936362028,0.07617956883907318,0.20146365258693694,-0.014987245202064514,0.028106460347771645,0.010893145576119423
1772363435780496100,1.01749609375,-0.04995382521450519,0.06897299846112728,-0.022647885137796402,-0.03001493029296398,-0.002992870518937707,0.013536066748201847
1772363435790565400,1.0275654296875,-0.09589943770095706,0.13128010929226874,-0.20781214483082294,-0.03124900348484516,-0.048030734062194824,0.010243179276585579
1772363435800635100,1.03763525390625,-0.143322867655009,0.11664601926207542,-0.23199790706038473,-0.00973572302609682,-0.05065074935555458,0.016919458284974098
1772363435810704100,1.0477041015625,-0.1654236403040588,0.06817687964737415,0.02511573655605316,0.024174202233552933,-0.010163265280425549,0.019505582749843597
1772363435820774100,1.057774169921875,-0.15093144296258687,-0.05889467203915119,0.21846388722658155,0.04423286393284798,0.030936498194932938,0.033038169145584106
1772363435830843100,1.067843017578125,-0.13563231315240262,-0.14263795413076877,0.2311538574516773,0.04904456436634064,0.04808430001139641,0.04453456401824951
1772363435840913200,1.0779130859375,-0.0776446729555726,-0.1270773969054222,0.09512509232759475,0.041546694934368134,0.031329020857810974,0.05349663645029068
1772363435850982100,1.087982177734375,-0.013918489106744527,-0.09878419935703277,-0.027663082951307295,0.035762302577495575,0.03128759190440178,0.06577856093645096
1772363435861051100,1.098051025390625,0.017719050433486698,-0.0015507365733385084,0.018536358165740965,0.02722899802029133,0.047525953501462936,0.07553105801343918
1772363435871121200,1.10812109375,0.00986702175885439,0.0349216757774353,0.03420914359390735,0.021473214030265808,0.05844627320766449,0.07654938846826553
1772363435881190100,1.118190185546875,-0.005641951409727335,-0.0037958851516246795,-0.0004126724541187286,0.001284319907426834,0.05782894790172577,0.07222840934991837
1772363435891260200,1.12826025390625,0.021146979055553673,-0.027295418682694434,-0.0678565616518259,-0.02413184568285942,0.04741488769650459,0.0631953626871109
1772363435901329200,1.1383291015625,0.07323986212536693,-0.034467502269148825,-0.08718260889053345,-0.047859277576208115,0.04819333180785179,0.05306629091501236
1772363435911399200,1.148399169921875,0.16273659317716954,0.04542085795998573,-0.09219429957270622,-0.06084633618593216,0.04012679308652878,0.04584377631545067
1772363435921468200,1.15846826171875,0.20167846438139675,-0.009061258333921431,-0.1656891593724489,-0.05811845883727074,0.032656360417604446,0.04261762276291847
1772363435931538200,1.1685380859375,0.30326164680719375,0.03856149358451366,-0.0672375529706478,-0.07022576779127121,0.0323481559753418,0.03376578912138939
1772363435941607200,1.178607177734375,0.3660588792428374,0.08853519254326819,-0.1439905377835035,-0.08603508770465851,0.00018436089158058167,0.01969045028090477
1772363435951677200,1.18867724609375,0.3668405311398208,0.08475508948266505,-0.1870475892215967,-0.07694952189922333,-0.028385601937770844,0.013458163477480412
1772363435961746200,1.19874609375,0.30166590204834937,0.11464110918045044,0.05021159936785698,-0.06990998983383179,-0.0039582885801792145,0.004484908655285835
1772363435971815200,1.208815185546875,0.19115794714987278,0.03364332640469074,0.1156008941233158,-0.05874890834093094,0.021993601694703102,-0.004311134107410908
1772363435981885200,1.21888525390625,0.16853490419238804,0.0802390733629465,0.10228782356381416,-0.037977054715156555,0.023097747936844826,-0.02054975926876068
1772363435991954200,1.2289541015625,0.20013503433167934,0.16777999417185782,0.03492869004011154,-0.012525154277682304,-0.0036117825657129288,-0.03449610620737076
1772363436002024200,1.239024169921875,0.18145868317335842,0.16003274104595183,0.0010907178461551665,0.010256057605147362,-0.01890072412788868,-0.049516599625349045
1772363436012093200,1.24909326171875,0.1352811616271734,0.11302549067735672,0.11891980941295623,0.023834500461816788,-0.010065622627735138,-0.05074043944478035
1772363436022163200,1.2591630859375,0.07284224110990763,-0.018685411247611045,0.1249602586209774,0.028552290052175522,0.0007750410586595535,-0.0512072928249836
1772363436032232000,1.26923193359375,0.04395151605978608,-0.12946399978101253,0.13627251075208185,0.02840929850935936,-0.003039105562493205,-0.051411017775535583
1772363436042302200,1.27930224609375,0.026789953378587958,-0.19090075751841068,0.1365939977914095,0.021992143243551254,-0.00015649991109967232,-0.05126507580280304
1772363436052371200,1.28937109375,0.037394934023171664,-0.15546879413127898,0.1291302377820015,0.030441388487815857,0.005129215773195028,-0.051531221717596054
1772363436062441200,1.299441162109375,0.025825346130132674,-0.05686930369138717,0.1304062490671873,0.03436395525932312,0.015716612339019775,-0.05053173750638962
1772363436072510200,1.30951025390625,0.027884178356081247,0.016231003832817077,-0.05735445685982704,0.023184385150671005,-0.004116574302315712,-0.0495254211127758
1772363436082579200,1.3195791015625,0.05947656358033418,0.012052256843447684,-0.16396189718842505,0.01410034392029047,-0.033498164266347885,-0.05197952315211296
1772363436092649200,1.329649169921875,0.0735664637312293,-0.030231472134590147,-0.07703647792935371,0.013239230029284954,-0.04225347936153412,-0.045999571681022644
1772363436102718200,1.33971826171875,-0.007300970663130283,-0.020562311035394666,0.07909574854671955,0.0070138247683644295,-0.030311865732073784,-0.04358541592955589
1772363436112788200,1.349788330078125,-0.037839316789805885,0.016249708533287048,0.1682259843736887,-0.008121766149997711,-0.01099016610532999,-0.05530161038041115
1772363436122857200,1.359857177734375,-0.006390139428526163,0.0917021321415901,0.14847206711173055,-0.019947266206145287,-0.006054529454559088,-0.052928730845451355
1772363436132927200,1.36992724609375,-0.058493982283771034,0.037951252731680866,-0.009695464584231376,-0.04473119229078293,-0.014136310666799545,-0.05202236771583557
1772363436142996000,1.379995849609375,-0.08463964640945196,-0.034168227061629294,-0.14499883804321287,-0.05135447531938553,-0.036653071641922,-0.04176946356892586
1772363436153066200,1.390066162109375,-0.12114011581093072,-0.0790150845259428,-0.13353402569890022,-0.06071128696203232,-0.0512733981013298,-0.03543775528669357
1772363436163135000,1.400135009765625,-0.11622472511008382,-0.07449497675299643,-0.035543607068061825,-0.06242423504590988,-0.04783046245574951,-0.031781233847141266
1772363436173205200,1.410205322265625,-0.1425483761511743,-0.044917000091075895,0.05975099660754203,-0.06752315908670425,-0.039764199405908585,-0.029349349439144135
1772363436183274200,1.420274169921875,-0.14733853303715586,-0.07052958025336264,0.05503039782643318,-0.07877927273511887,-0.0320383682847023,-0.027781810611486435
1772363436193343200,1.43034326171875,-0.12474062452092766,-0.0662491264551878,0.03614800270199776,-0.07457934319972992,-0.03788767755031586,-0.02139047533273697
1772363436203413200,1.440413330078125,-0.09878156900852918,-0.026076106020808218,0.020689736807346343,-0.06630809605121613,-0.048884931951761246,-0.017700668424367905
1772363436213482200,1.450482177734375,-0.08095891207009553,-0.005756371569633483,0.02821487161517143,-0.06469755619764328,-0.05773669481277466,-0.010676099918782711
1772363436223552300,1.46055224609375,-0.07847966247498989,0.002398293313384056,0.020195231288671494,-0.06827764213085175,-0.07039149850606918,-0.005999322980642319
1772363436233621200,1.470621337890625,-0.09205284527540207,0.016352584385871886,0.07124386600255966,-0.06815937161445618,-0.0726330503821373,0.002536183688789606
1772363436243691300,1.480691162109375,-0.10042495230138301,0.08590192143023014,0.18897125076055526,-0.05722416937351227,-0.05061856284737587,-0.01243557594716549
1772363436253760000,1.490760009765625,0.03624167233482003,0.06985679555833339,0.23622692293226719,-0.07538233697414398,-0.041424576193094254,-0.014130154624581337
1772363436263830300,1.500830322265625,0.06563976238518952,0.03663607847988605,0.054495560297369953,-0.07167122513055801,-0.0679406076669693,-0.021359039470553398
1772363436273899000,1.51089892578125,0.038229923542588945,0.03617138357758522,0.012886954101920128,-0.0684182196855545,-0.08411804586648941,-0.006728315260261297
1772363436283969300,1.52096923828125,-0.07439180863946676,-0.07593757677674293,0.05202712435722351,-0.05757196992635727,-0.06483223289251328,0.0005274666473269463
1772363436294038000,1.5310380859375,-0.0005209551341831684,-0.07897709060311317,0.2572919227927923,-0.06798174977302551,0.0028522354550659657,-0.022535383701324463
1772363436304107300,1.541107177734375,0.11960121580585836,-0.0433873063057661,0.3196896345168352,-0.06867736577987671,0.07153116166591644,0.004000884480774403
1772363436314177000,1.551177001953125,-0.17229294155165553,-0.09052373601198196,0.14898761541843414,-0.05482916533946991,0.12177081406116486,-0.01472049206495285
1772363436324246300,1.561246337890625,0.00399038481041789,0.06535773057341575,0.07006663891673087,-0.04545696824789047,0.15659163892269135,-0.03744444623589516
1772363436334316300,1.57131640625,0.12020999535396694,0.09493921436667442,-0.02670563609600067,-0.03980967774987221,0.16008460521697998,-0.032233454287052155
1772363436344385000,1.581385009765625,0.04283244890198111,-0.01445931798517704,-0.04798340192437172,-0.02906062640249729,0.1744624823331833,-0.0533485934138298
1772363436354455300,1.591455322265625,0.08093246245458721,-0.01769698473215103,-0.0792027160525322,-0.049677684903144836,0.15692353248596191,-0.03906309977173805
1772363436364524000,1.60152392578125,-0.01293254680931568,-0.1957704093813896,-0.2392670212805271,-0.07682275772094727,0.08755139261484146,-0.030847515910863876
1772363436374594300,1.61159423828125,-0.007366583245247602,-0.12518003885149956,-0.21129180364012717,-0.08961144834756851,0.021263815462589264,-0.022474244236946106
1772363436384663000,1.6216630859375,-0.03234744137525558,-0.151673493501544,-0.08567629598081111,-0.09413669258356094,-0.042932480573654175,0.000014819204807281494
1772363436394733300,1.6317333984375,-0.02939896683320403,-0.06629822629392147,0.04261047671437263,-0.07372620701789856,-0.07703156024217606,-0.006541542708873749
1772363436404802000,1.641802001953125,0.12306319282799959,0.05213584542870521,0.31783202395141125,-0.04921393468976021,-0.037315841764211655,-0.03501872345805168
1772363436414872000,1.6518720703125,0.21235987126305697,0.18638883305191992,0.5332827008366584,-0.04750748723745346,0.03605262562632561,-0.05948346108198166
1772363436424941000,1.661941162109375,0.10775514905899762,0.1785427957266569,0.3554547753810882,-0.04440996050834656,0.05755285918712616,-0.06450697779655457
1772363436435010300,1.67201025390625,-0.0016850304774940013,0.06564356177747249,0.05070902749598026,-0.03198981285095215,0.02765096351504326,-0.0673130676150322
1772363436445080000,1.682080078125,-0.07080576684623956,-0.0789846893876791,0.0022533318847417832,0.013076995499432087,0.002865724265575409,-0.050701603293418884
1772363436455149000,1.692149169921875,-0.16772724107131362,-0.23455635937154293,0.12796411661207674,0.04494385048747063,-0.00150585500523448,-0.077461838722229
1772363436465219300,1.70221923828125,0.034014936196058984,-0.31744799306988714,0.2209972050964832,0.061112433671951294,0.0340992771089077,-0.07413368672132492
1772363436475288000,1.7122880859375,0.042110710498690605,-0.4344219291120767,0.03815057469606399,0.07624004036188126,0.012010707519948483,-0.027130503207445145
1772363436485358300,1.7223583984375,-0.05504881026595831,-0.3287655058979988,-0.22464812881946564,0.08985225856304169,-0.05604797229170799,0.048970919102430344
1772363436495427000,1.732427001953125,-0.12687179133072496,-0.17295184385180473,-0.29112755689918995,0.12122029066085815,-0.11370422691106796,0.08975400030612946
1772363436505497300,1.742497314453125,-0.007059855383634567,0.10270809480249882,-0.0930839418888092,0.13084761798381805,-0.11598895490169525,0.07832637429237366
1772363436515566000,1.752566162109375,0.034842765322327614,0.17019874575138091,0.11845452998876571,0.12298540771007538,-0.05190108343958855,0.08871708810329437
1772363436525636000,1.762635986328125,-0.06505041818991303,-0.027190789264440535,0.26680209393799303,0.10811032354831696,0.024779047816991806,0.10144779831171036
1772363436535705000,1.772705078125,-0.0701917266011238,0.0372919120401144,0.016013561689853666,0.08643440902233124,0.018753785640001297,0.10078556835651398
1772363436545774300,1.7827744140625,-0.06651859104633331,0.04528524888157844,-0.2980231616318226,0.07317133247852325,-0.04303847625851631,0.09764943271875381
1772363436555844000,1.792843994140625,-0.06496273990646004,0.00849836375415325,-0.15810732594132423,0.07697462290525436,-0.06383586674928665,0.11550207436084747
1772363436565913000,1.8029130859375,-0.02159837608486414,-0.06599252134561538,0.04147416616082191,0.07544410973787308,-0.05388656258583069,0.12667563557624817
1772363436575983000,1.812983154296875,0.02204685050472617,0.038299043256044385,0.05490706370770931,0.04848719760775566,-0.026882434263825417,0.10903163999319077
1772363436586052000,1.823052001953125,0.09834566180929541,0.15498305644094942,-0.05399988573491573,0.022612720727920532,-0.026567380875349045,0.10371091216802597
1772363436596122400,1.833122314453125,0.0535851674541831,0.1424801332205534,-0.10506313349604605,0.020535040646791458,-0.01641230657696724,0.10841403901576996
1772363436606191000,1.843191162109375,0.14268690783903,0.1409498549133539,-0.020297522619366643,0.025073066353797913,0.01084940880537033,0.10547124594449997
1772363436616261000,1.85326123046875,0.12699483318850396,0.123021399512887,-0.02811901002526283,-0.0025235693901777267,0.026023589074611664,0.10386469215154648
1772363436626330000,1.863330078125,0.018783026403188706,0.23403555036783216,-0.19463176074028013,0.006729317829012871,0.01138206198811531,0.07605436444282532
1772363436636400000,1.873400146484375,-0.019405396085232497,0.36095220375359055,-0.06383622009456158,0.02111370861530304,0.014683375135064125,0.04636406525969505
1772363436646469000,1.88346923828125,-0.059559127297252414,0.4221984073549509,-0.020674539238214492,0.00625620037317276,0.0073317186906933784,0.0036243246868252754
1772363436656538400,1.893538330078125,-0.15644319212138652,0.3874462429255247,-0.12425766330957412,-0.0009017623960971832,-0.006205407436937094,-0.018586374819278717
1772363436666608000,1.903608154296875,0.010310381612181663,0.1321054542005062,-0.0922211875796318,0.006070660427212715,-0.014073982834815979,-0.025752674788236618
1772363436676681700,1.913681640625,0.09559899344965815,0.022836101186275482,-0.060277650830149646,0.01757875829935074,-0.018451616168022156,-0.023136699572205544
1772363436686751700,1.923751708984375,-0.0034627076745033262,-0.032897476473450656,-0.026395254972577095,0.02690727636218071,-0.017831366509199142,-0.01012103259563446
1772363436696820700,1.93382080078125,-0.09329086263775825,-0.012117138773202895,0.045649406018853186,0.043794114142656326,-0.008394721895456314,-0.0018602432683110237
1772363436706890800,1.943890869140625,-0.08681289879530668,0.04853051441311836,0.14947627571821212,0.0697290375828743,0.007444694172590971,0.006477315444499254
1772363436716959700,1.953959716796875,-0.05619476543068885,0.061489949229359624,0.141813193744421,0.07939165085554123,0.017567161470651627,0.012995418161153793
1772363436727029800,1.96402978515625,0.046069384996592994,0.11098784736990928,-0.007972294053435325,0.08472196757793427,-0.00931425392627716,-0.001569143496453762
1772363436737098800,1.9740986328125,0.22753493630215524,0.14404898997247217,-0.1691489444375038,0.07552067935466766,-0.08277498930692673,-0.012577543966472149
1772363436747168800,1.984168701171875,0.27957097461819647,0.14184183531701564,-0.2791810985177755,0.0652291551232338,-0.16336384415626526,-0.0019081225618720055
1772363436757237800,1.99423779296875,0.2720674671202898,0.24227087927162647,-0.20866554678976534,0.05635278299450874,-0.20130851864814758,-0.0015991837717592716
1772363436767306800,2.004306640625,0.30127105751186606,0.3673848671495914,0.0018926818788051604,0.03953012824058533,-0.19942140579223633,0.001962793990969658
1772363436777376800,2.014376708984375,0.32671792571842667,0.374317881283164,0.11639759745895861,0.0073452359065413475,-0.19615018367767334,0.024722179397940636
1772363436787445800,2.02444580078125,0.3466656119868159,0.36610593325495716,0.02935819643139839,-0.03491859510540962,-0.23875439167022705,0.05231226235628128
1772363436797515500,2.034515625,0.31967341403439636,0.3436725676506758,-0.09508885197043418,-0.05908037722110748,-0.28647729754447937,0.06210261210799217
1772363436807584800,2.044584716796875,0.308721958039701,0.3896241714864969,-0.04656768990755081,-0.0800865963101387,-0.28766825795173645,0.06072282791137695
1772363436817654800,2.05465478515625,0.2817600090950727,0.3255190713226795,0.02729775677025318,-0.10062174499034882,-0.26992207765579224,0.06143473833799362
1772363436827723800,2.064723876953125,0.19148878653943538,0.2155208195120096,0.06467793161571025,-0.10993614792823792,-0.2481861412525177,0.052121661603450775
1772363436837793800,2.074793701171875,0.030361966646462676,0.039431846678256985,0.06593290011286736,-0.1148279532790184,-0.21660161018371582,0.048593174666166306
1772363436847862800,2.08486279296875,-0.1692683330334723,-0.22303835553526877,0.08891630081534385,-0.09999147802591324,-0.17947128415107727,0.0478924959897995
1772363436857932800,2.094932861328125,-0.26322555062547326,-0.4000193087726831,0.12419921112060546,-0.08257318288087845,-0.130563423037529,0.0400862954556942
1772363436868001800,2.105001708984375,-0.3004410364285111,-0.44062253731787204,0.1428682557553053,-0.07667827606201172,-0.10487005114555359,0.03857574984431267
1772363436878071800,2.11507177734375,-0.3470189554691315,-0.4749520924210548,0.07174713934957981,-0.07107418030500412,-0.0926397517323494,0.026420019567012787
1772363436888140800,2.125140869140625,-0.2933152762018144,-0.4610971700698137,0.10727379528284073,-0.052083179354667664,-0.0642339363694191,0.002824678085744381
1772363436898209800,2.135209716796875,-0.27970585304424167,-0.4822679683923721,0.17378011136949062,-0.022144373506307602,-0.018623318523168564,0.0012237178161740303
1772363436908279600,2.145279541015625,-0.3550871111124754,-0.5389893880456685,0.1369154848307371,-0.015842536464333534,0.01762336865067482,-0.0018927128985524178
1772363436918348800,2.155348876953125,-0.35269451688751574,-0.48445466478168964,-0.06700023708343505,-0.02637442573904991,0.007223362103104591,0.01782703772187233
1772363436928418600,2.16541845703125,-0.15981471438109873,-0.2518137836426496,-0.1491372530221939,-0.03406723216176033,-0.010622480884194374,0.027414150536060333
1772363436938487800,2.17548779296875,0.014858546435832976,-0.055233226922154426,0.12269289821088314,-0.02040492370724678,0.011816817335784435,0.027737334370613098
1772363436948557800,2.185557861328125,0.03383665701970458,0.009757423904538154,0.2959340803980827,-0.007914433255791664,0.053855881094932556,0.029993832111358643
1772363436958626800,2.195626708984375,0.05684066211879253,0.0942646761059761,0.2676648482471704,-0.01902388036251068,0.08352605253458023,0.027184436097741127
1772363436968696800,2.20569677734375,0.06893515066877007,0.08251110994815826,0.01279752225279808,-0.02955428510904312,0.057257432490587234,0.025286933407187462
1772363436978765800,2.215765869140625,0.09677695118784904,0.12797229991853237,-0.21189619927406309,-0.029669996351003647,0.010799860581755638,0.023449603468179703
1772363436988835800,2.2258359375,0.13022563180327415,0.10130641131103038,-0.2596194889575243,-0.02444860152900219,-0.022021204233169556,0.021781666204333305
1772363436998904800,2.23590478515625,0.1536218510903418,0.13384031516909597,-0.1922328829050064,-0.017956670373678207,-0.03954102471470833,0.01924721524119377
1772363437008973800,2.245973876953125,0.11482421066239476,0.12910977951586244,-0.07237608490288257,-0.009778101928532124,-0.041151441633701324,0.0168937798589468
1772363437019043600,2.256043701171875,0.041202217351645226,0.09601064299046992,-0.015627192720770833,-0.010733342729508877,-0.034604672342538834,0.013122855685651302
1772363437029112800,2.26611279296875,0.01855287090912461,0.0779085845887661,-0.02958031474947929,-0.006949789822101593,-0.036114152520895004,-0.006747788283973932
1772363437039182600,2.2761826171875,0.042263562972843643,0.04571136533915996,-0.002384264788031578,0.0008962880820035934,-0.02840755507349968,-0.015474380925297737
1772363437049251800,2.286251953125,0.005223287606239318,-0.025810148561000824,0.04550444459021091,-0.004122438840568066,-0.011269581504166126,-0.023722723126411438
1772363437059321600,2.296321533203125,-0.027435850066691636,-0.037604631251096726,0.03588672141730785,-0.009716583415865898,-0.016978727653622627,-0.03340747207403183
1772363437069390800,2.306390869140625,0.04000950043573975,-0.05824117656648159,-0.018065818044543266,-0.029084421694278717,-0.038147661834955215,-0.04317807778716087
1772363437079460600,2.316460693359375,0.02409910685941577,-0.1512853709667921,-0.033711715465784074,-0.04980716109275818,-0.06938157975673676,-0.0321822464466095
1772363437089529900,2.32652978515625,-0.07243351417854428,-0.14600772282481192,0.08634966519773006,-0.05872635170817375,-0.05993694067001343,-0.02822105772793293
1772363437099600000,2.336599853515625,-0.10209902299344539,-0.16396131266653538,0.22227555446922778,-0.05947325751185417,-0.02974078059196472,-0.031060876324772835
1772363437109668600,2.346668701171875,-0.06723521488308906,-0.11298340510129928,0.20204758995473385,-0.0491122268140316,-0.0089739840477705,-0.03199591487646103
1772363437119737600,2.356737548828125,-0.04611015539839863,-0.035060207465291024,0.08176526001691818,-0.03274676576256752,-0.004536516964435577,-0.031129226088523865
1772363437129807600,2.3668076171875,-0.09612973932549357,-0.004127893584966659,-0.042213586351275444,-0.02298601344227791,-0.011520124971866608,-0.028195489197969437
1772363437139876900,2.376876953125,-0.11507774703204632,0.008108487653732298,-0.10340718298256396,-0.01323919277638197,-0.020043563097715378,-0.03202817589044571
1772363437149946600,2.386946533203125,-0.06623086014613509,-0.012846037569642066,-0.05904372512102127,-0.0016765464097261429,-0.018902665004134178,-0.030832679942250252
1772363437160016000,2.397015869140625,-0.0561174624107778,-0.0775116942256689,0.0024269348859786988,0.020355185493826866,-0.016696872189641,-0.020950980484485626
1772363437170085600,2.407085693359375,-0.006079612174630164,-0.041944706282019614,0.02948328411579132,0.035385534167289734,-0.031041190028190613,-0.010163845494389534
1772363437180155000,2.41715478515625,0.013976795165240764,0.02550385909080505,0.04522445860505104,0.03683183342218399,-0.04714527726173401,0.0069889831356704235
1772363437190224600,2.427224609375,0.02056450299248099,0.17135960622429847,0.08158522727489471,0.046540651470422745,-0.056055948138237,0.00508562196046114
1772363437200294000,2.4372939453125,0.040915363234281535,0.31526889546513553,0.16683306871056555,0.054231368005275726,-0.029339196160435677,-0.002192547544836998
1772363437210363600,2.44736376953125,0.0343343774087727,0.2754150239825249,0.15875030001997947,0.04926536977291107,0.002271993551403284,-0.013930696062743664
1772363437220432600,2.4574326171875,0.07023512735143303,0.10123743772804736,-0.038945524466037745,0.03678528219461441,-0.011547000147402287,-0.016638562083244324
1772363437230501600,2.467501708984375,0.16137348813042043,0.006668810239434242,-0.2920142766058445,0.02179860509932041,-0.06729042530059814,-0.02550821751356125
1772363437240571600,2.477571533203125,0.09648425185158849,-0.09334756126105785,-0.34467619173526765,0.010881011374294758,-0.08317067474126816,-0.012577926740050316
1772363437250640600,2.487640625,0.030475948414951562,-0.06907353622615336,-0.21468086155653,-0.010004563257098198,-0.06280335038900375,-0.010743808001279831
1772363437260710700,2.497710693359375,0.03515168514102697,-0.04463584506213665,-0.0852805746614933,-0.019953196868300438,-0.041415292769670486,-0.01438063569366932
1772363437270780000,2.50777978515625,0.04244768736809492,-0.1295090079665184,-0.010246668726205825,-0.0609954372048378,-0.026465637609362602,-0.02394910901784897
1772363437280849700,2.517849609375,0.12681801531687378,-0.11482055740058421,-0.06423135689198971,-0.08245457708835602,-0.03838063031435013,-0.03624539077281952
1772363437290919000,2.5279189453125,0.13466755977347492,-0.020108137527108192,-0.09554361000061035,-0.07538867741823196,-0.05987872928380966,-0.03805527463555336
1772363437300988700,2.53798876953125,0.028579905535280704,0.040597967848181725,-0.06196867265701293,-0.057893432676792145,-0.051856547594070435,-0.03342025727033615
1772363437311058000,2.548057861328125,-0.09046177669167518,0.01983984197974205,-0.023368016105890274,-0.040260378271341324,-0.028954429551959038,-0.030683323740959167
1772363437321127700,2.558127685546875,-0.18316417191699147,-0.05656593683063984,0.025308628779649733,-0.02781764790415764,-0.016354888677597046,-0.022692080587148666
1772363437331196700,2.56819677734375,-0.2286808914668858,-0.08090367475152015,0.057031216254830354,-0.01735355705022812,-0.00981283187866211,-0.01850079745054245
1772363437341266700,2.5782666015625,-0.1700805261991918,-0.04068798421919346,0.11636603327691554,-0.006384840700775385,-0.012008675374090672,-0.01700371876358986
1772363437351335700,2.588335693359375,-0.1265197630226612,-0.027118893072009084,0.15479425587058065,0.001024339348077774,-0.0008620144799351692,-0.01541993673890829
1772363437361404700,2.59840478515625,-0.10940919987633824,0.01732230620086193,0.14287760810554026,0.014753872528672218,0.00024979421868920326,-0.005995289888232946
1772363437371474700,2.608474609375,-0.07058715565949678,0.08616144914925097,0.11053016673028468,0.02149752900004387,-0.0019491775892674923,0.002173956483602524
1772363437381543700,2.618543701171875,-0.05770780034214258,0.10720189909040927,0.08944880025684833,0.030809272080659866,-0.0045593418180942535,0.0070643192157149315
1772363437391613700,2.62861376953125,-0.02690349675565958,0.11140402695536612,0.09134557378888129,0.02661532536149025,-0.003117506392300129,0.01331236120313406
1772363437401683000,2.638682861328125,0.016086042404174803,0.12400748794078827,0.09418342756330966,0.025490902364253998,0.002181731630116701,0.01000746339559555
1772363437411752700,2.648752685546875,0.017228636568039656,0.12453063503205776,0.0442021298199892,0.02339392900466919,0.01308151800185442,0.006475579459220171
1772363437421822000,2.658822021484375,0.0018465046495199202,0.12306816126406192,-0.049667409488558766,0.006136102601885796,0.004906794521957636,0.001785449218004942
1772363437431891700,2.6688916015625,-0.004795855974406004,0.08177636593282223,-0.16766250527203083,-0.008776001632213593,-0.015078099444508553,-0.00418109679594636
1772363437441960700,2.678960693359375,-0.0029815000288188455,0.043511809468269345,-0.15585808570981025,-0.02226301282644272,-0.030216120183467865,-0.003792094998061657
1772363437452030700,2.68903076171875,-0.02339987254887819,0.0002484218031167984,-0.10986907247304915,-0.03248715400695801,-0.032202836126089096,-0.006501328200101852
1772363437462099700,2.699099609375,-0.029463556502014397,-0.02561374920606613,-0.07616670935750007,-0.03536595404148102,-0.03140123933553696,-0.008501101285219193
1772363437472168700,2.709168701171875,-0.002850420995056629,-0.014725275444984436,-0.004422492617368698,-0.05061015486717224,-0.024214698001742363,-0.0127594955265522
1772363437482238700,2.71923876953125,0.04748728897050023,-0.033795302096009255,-0.01191957037448883,-0.06421156227588654,-0.02101907879114151,-0.020626382902264595
1772363437492307700,2.7293076171875,0.06648249681964516,-0.06358779829144477,-0.0010229133069515229,-0.06709416955709457,-0.027592558413743973,-0.017604492604732513
1772363437502377700,2.739377685546875,0.05477773823961615,0.004189852905273437,0.04406827430725097,-0.06227419525384903,-0.0398862324655056,-0.016338491812348366
1772363437512446700,2.74944677734375,0.004889233346283436,0.03023264117836952,0.05456628744602203,-0.05663042142987251,-0.046710580587387085,-0.013152552768588066
1772363437522516700,2.759516845703125,-0.044452597449719904,0.03741758424639702,0.0770066673129797,-0.03620099648833275,-0.03290053829550743,-0.013849847950041294
1772363437532585700,2.769585693359375,-0.058137862322479486,0.028572014489769933,0.05625730927288532,-0.011979812756180763,-0.025265522301197052,-0.00618233997374773
1772363437542655700,2.77965576171875,-0.12950944635793565,-0.0011281272470951079,-0.0063525838971138,0.0038539944216609,-0.03022542968392372,-0.006335211452096701
1772363437552724700,2.789724853515625,-0.12979235495254396,0.0024117373168468475,0.022219430592656134,0.01578575372695923,-0.03901439160108566,-0.010582420974969864
1772363437562794800,2.799794677734375,-0.06865092689990997,-0.011413374418020247,0.10315525404810905,0.021055014804005623,-0.04057937115430832,-0.011995786800980568
1772363437572863700,2.80986376953125,-0.05529167911112308,-0.0409258846282959,0.14680793329179287,0.021554360166192055,-0.03424797207117081,-0.008188530802726746
1772363437582933800,2.819933837890625,-0.02673398540765047,-0.04536649742424488,0.1377478440016508,0.015271684154868126,-0.030334074050188065,-0.005425805225968361
1772363437593002800,2.830002685546875,-0.0006873977422714233,-0.07673486463427544,0.116154436352849,0.008181283250451088,-0.032375920563936234,0.000704791396856308
1772363437603071700,2.84007177734375,0.03618935762569308,-0.1833569180101156,0.06888590469956397,0.0047317249700427055,-0.02456015720963478,0.002518249675631523
1772363437613141800,2.850141845703125,0.09703677116781473,-0.2592126617223024,0.051914311632514,0.009462564252316952,-0.025975361466407776,0.015360545367002487
1772363437623210800,2.860210693359375,0.08045549259260297,-0.014632920986413955,0.04885200145244598,0.01043995562940836,-0.0309798214584589,0.02293621003627777
1772363437633280800,2.87028076171875,0.04228343671709299,0.2127501857548952,0.04752279867529869,0.0037735318765044212,-0.02436160109937191,0.009620138444006443
1772363437643349800,2.880349853515625,0.054503743603825566,0.2933645221710205,0.0284036721855402,0.013892988674342632,-0.01503338199108839,-0.004324248060584068
1772363437653419800,2.890419677734375,0.09023542058989405,0.2583803025513887,0.01436170282959938,0.03279051557183266,-0.003964219242334366,-0.020497625693678856
1772363437663488500,2.900488525390625,0.08863836065679788,0.1558732832789421,-0.047718028986454004,0.04377065598964691,-0.002203707117587328,-0.021400462836027145
1772363437673555700,2.9105556640625,0.04696560318395495,0.03490589368641376,-0.13075228602588176,0.04901441931724548,-0.020645832642912865,-0.014577178284525871
1772363437683624400,2.92062451171875,0.06888210530728102,0.002975216418504715,-0.1467933202445507,0.053331587463617325,-0.043593745678663254,-0.013599861413240433
1772363437693694500,2.930694580078125,0.10351210466176271,0.004003390422463417,-0.07970657392144202,0.052181366831064224,-0.05229988321661949,-0.013810517266392708
1772363437703763700,2.940763671875,0.06799918499290943,-0.04846855509281158,0.008114332872629165,0.04134511947631836,-0.04032302647829056,-0.011764587834477425
1772363437713833500,2.95083349609375,-0.0023291735999286176,-0.08836451215147971,0.025640637212991712,0.030611783266067505,-0.01650637574493885,-0.006086993962526321
1772363437723902700,2.96090283203125,-0.07622340798079967,-0.11902268526554106,0.00013327099084854124,0.016060836613178253,-0.005310526117682457,-0.003933114930987358
1772363437733971700,2.9709716796875,-0.06891673822924495,-0.13028466851413248,-0.018365093252062797,0.000612904317677021,-0.007917494513094425,-0.00809510238468647
1772363437744041700,2.981041748046875,-0.05485825612992048,-0.11370821224451065,-0.011004209095239638,-0.02287881076335907,-0.006770552136003971,-0.01097127329558134
1772363437754110500,2.9911103515625,-0.06413213430121541,-0.08626783213317393,-0.011001871007680892,-0.0392892062664032,-0.010070474818348885,-0.009205331094563007
1772363437764180700,3.0011806640625,-0.07602773927822709,-0.034030864417552945,-0.007120061138272285,-0.03877447172999382,-0.0078823771327734,-0.007095495704561472
1772363437774249500,3.01124951171875,-0.07645370960533618,0.037084406769275664,-0.020523732590675352,-0.0253532063215971,-0.0020700281020253897,-0.008762635290622711
1772363437784319700,3.02131982421875,-0.05801891211792826,0.09144026633501053,-0.018875380861759185,-0.00584349175915122,0.007998747751116753,-0.005718933884054422
1772363437794388500,3.031388427734375,-0.02019406224489212,0.13566811511814594,0.0151145670235157,0.012198892422020435,0.007028824184089899,-0.0014171297661960125
1772363437804458500,3.04145849609375,-0.06070566698387265,0.10738543896377085,0.036626141607761384,0.026864366605877876,-0.0006408486515283585,0.01746247708797455
1772363437814527500,3.051527587890625,-0.10480462869033216,0.06256546950638293,0.08133212929666042,0.03609435260295868,0.006393092218786478,0.028871459886431694
1772363437824597500,3.061597412109375,-0.11997092590108513,0.045347208201885224,0.17016718156933783,0.04804325848817825,0.024122579023241997,0.036449357867240906
1772363437834666800,3.071666748046875,-0.09642053896561265,0.02539981419444084,0.20905834549963473,0.04404265806078911,0.04428936541080475,0.042036667466163635
1772363437844735700,3.08173583984375,-0.14218334223106502,-0.05618541308045387,0.15920973422527313,0.03198479861021042,0.05085346847772598,0.05343790724873543
1772363437854805800,3.0918056640625,-0.16778934652209282,-0.099397362819314,0.07745265751481056,0.02038433589041233,0.06398338824510574,0.05295907333493233
1772363437864874500,3.10187451171875,-0.10505421953722834,-0.11140168886780738,0.0800783298432827,0.006063327193260193,0.07351158559322357,0.04588790237903595
1772363437874944800,3.11194482421875,-0.041768034540861844,-0.07140110239088535,0.047906245034933084,-0.013403847813606262,0.0730481967329979,0.040257446467876434
1772363437885013500,3.122013427734375,0.012859335442632435,-0.036983284482359886,-0.051958735296130175,-0.028337951749563217,0.06605448573827744,0.03613767400383949
1772363437895083800,3.132083740234375,0.05770706968978047,-0.038758477461338044,-0.1871305913299322,-0.03688536956906319,0.05317997187376022,0.035735003650188446
1772363437905152500,3.142152587890625,0.08545899996832013,0.0017383680999279022,-0.25872283237874505,-0.04144909605383873,0.03501433879137039,0.03195226937532425
1772363437915222500,3.152222412109375,0.12826792186424135,0.009772036951780319,-0.22366262491345404,-0.04439428448677063,0.029732491821050644,0.025720469653606415
1772363437925291500,3.16229150390625,0.1449855401702225,0.034683190846443175,-0.1430629015445709,-0.04396054148674011,0.022255145013332367,0.013120991177856922
1772363437935361500,3.172361572265625,0.13512947819679974,0.04708557630181312,-0.07490121946632862,-0.0392502062022686,0.020965643227100372,0.009178980253636837
1772363437945430500,3.182430419921875,0.09918825011327863,0.07111644023060798,-0.05081541047990322,-0.024769499897956848,0.015683980658650398,0.0028721941635012627
1772363437955500500,3.19250048828125,0.030615649146586654,0.06416881304979324,-0.03872925136685371,-0.011907231993973255,0.012082057073712349,0.00472149346023798
1772363437965569500,3.202569580078125,-0.028771920976042746,0.03453472228646278,-0.0025239655196666716,0.0026583028957247734,0.006660520099103451,0.00555363018065691
1772363437975639600,3.2126396484375,-0.03372822820916772,-0.008752046254277229,0.056605099797248835,0.015675034373998642,0.008113807067275047,0.0065083736553788185
1772363437985708800,3.222708740234375,-0.018885025472939014,-0.014648118555545805,0.13684125055074692,0.024511462077498436,0.0019525373354554176,-0.0015503629110753536
1772363437995777500,3.232777587890625,0.013633096294105052,0.020506196933984755,0.19045184470713136,0.026121875271201134,0.013581495732069016,-0.001937053631991148
1772363438005847800,3.242847900390625,-0.01537467926442623,0.030579262658953665,0.175541860345006,0.02738773077726364,0.02018742263317108,-0.0031709764152765274
1772363438015916500,3.25291650390625,-0.027393033838272095,0.028132454028725624,0.0878162306189537,0.0344134159386158,0.016790825873613358,0.006269396748393774
1772363438025986600,3.262986572265625,-0.047990708447992796,0.00024900632500648496,-0.0009060089290142059,0.047849126160144806,0.016049088910222054,0.012562702409923077
1772363438036055600,3.2730556640625,-0.0036009471014142036,0.004229600393772125,-0.015289923590421675,0.05498985946178436,0.012446898967027664,0.015228260308504105
1772363438046125600,3.28312548828125,0.010764408989995717,0.015007014995813368,-0.02796118911504745,0.05011717602610588,0.00576558243483305,0.01988733373582363
1772363438056194600,3.293194580078125,-0.011140841086953878,0.02080138048827648,-0.0326689284145832,0.04615838825702667,0.005580493248999119,0.01878291927278042
1772363438066264600,3.3032646484375,-0.03240326321572065,0.03590367255210876,-0.053045946010947226,0.03945066034793854,0.005973806604743004,0.0150605458766222
1772363438076333600,3.31333349609375,-0.005297375755757093,0.05467793112695217,-0.04239654170274734,0.03169846534729004,0.004078434780240059,0.007651098538190126
1772363438086403600,3.323403564453125,0.02439662850126624,0.017955927929282186,-0.025112813946604726,0.01755138486623764,-0.0003562839701771736,0.004610162694007158
1772363438096472600,3.33347265625,-0.0015454758763313293,-0.042082653447985646,-0.027577742755413054,-0.0009815534576773643,-0.002570169745013118,0.0004915841855108738
1772363438106542600,3.34354248046875,-0.013479074776172637,-0.04683773902058601,-0.03426291960775852,-0.012719186954200268,0.0012771515175700188,0.0025303931906819344
1772363438116611800,3.35361181640625,-0.031104893968254325,-0.07564414678812026,-0.08495558049082756,-0.02618040144443512,0.009265303611755371,0.0038217599503695965
1772363438126680600,3.3636806640625,-0.03365428619012236,-0.07158347322046757,-0.09331775064468384,-0.03388381004333496,0.00494092982262373,0.005705099552869797
1772363438136750600,3.37375048828125,-0.01812032471075654,-0.03186637986004352,-0.05997779110074043,-0.03449367731809616,0.003497229889035225,0.0044733877293765545
1772363438146819600,3.383819580078125,-0.007463029357045889,0.012855974441766739,0.0019219079732894896,-0.03169052302837372,0.006428965367376804,0.0017324304208159447
1772363438156889600,3.3938896484375,-0.00034530630633234976,0.050930561292171474,0.03475274895131588,-0.016033798456192017,0.008113681338727474,-0.0024676411412656307
1772363438166958600,3.40395849609375,0.00850713158249855,0.05519640204310417,0.03651508244872093,-0.0022563226521015167,0.0069587635807693005,-0.0009542154148221016
1772363438177028600,3.414028564453125,-0.0025577216587960717,0.02643324889540672,0.04059153810739517,0.006650619208812714,-0.001671475823968649,-0.0008410308510065079
1772363438187097600,3.42409765625,-0.0015460603982210158,-0.0017336919248104093,0.06979483623802661,0.016359949484467506,-0.007406096905469894,-0.0006823800504207611
1772363438197167600,3.434167724609375,-0.018965689493715764,-0.023492519268393516,0.15785422796308993,0.017933610826730728,0.0040617408230900764,0.0076583740301430225
1772363438207236600,3.444236572265625,-0.06295768369436264,-0.03126081518232822,0.19100480241477488,0.01013350673019886,0.015135729685425758,0.007780490908771753
1772363438217306600,3.454306640625,-0.041471097420901055,-0.013265724286437033,0.11958090367019175,0.009802741929888725,0.015820961445569992,0.003378019668161869
1772363438227375600,3.464375732421875,0.0052076516456902025,0.021903788772225378,0.0785574038863182,0.008717364631593227,0.012970638461411,0.0012956401333212852
1772363438237445600,3.474445556640625,0.04282864950969815,0.02829202850461006,0.017124153280258177,0.009101125411689281,0.011126133613288403,-0.004071694798767567
1772363438247514600,3.4845146484375,0.06347483943626284,0.026043957316875456,-0.012832593566179275,0.007264228537678719,0.00959410797804594,-0.008207758888602257
1772363438257583600,3.49458349609375,0.07379179691970347,0.020457097095251082,-0.02573532975912094,0.009117789566516876,0.009008478373289108,-0.015538109466433525
1772363438267653600,3.504653564453125,0.08716697292998432,0.031069092002511022,-0.05113163682222366,0.010312188416719437,0.0033646761439740658,-0.018914610147476196
1772363438277722600,3.51472265625,0.09379968894273043,0.0329044907361269,-0.10796820728778839,0.01622946560382843,-0.006554799620062113,-0.024620965123176575
1772363438287792600,3.524792724609375,0.09148644356429576,0.015249007058143615,-0.11811667633652687,0.019342854619026184,-0.015582292340695858,-0.026795078068971634
1772363438297861600,3.534861572265625,0.06969400621205568,0.0017535656690597532,-0.14232114326655865,0.023189257830381393,-0.024281509220600128,-0.02460276335477829
1772363438307931600,3.544931640625,0.012276713249087332,-0.039158290433883663,-0.14356500584781168,0.027622796595096588,-0.02590138092637062,-0.024754932150244713
1772363438318000600,3.555000732421875,-0.01373494923338294,-0.0693815792620182,-0.07916589117348194,0.03613266348838806,-0.020159339532256126,-0.02961679734289646
1772363438328070700,3.565070556640625,-0.02957651535719633,-0.06679273181259632,-0.04601356315612793,0.03477255254983902,-0.017498604953289032,-0.029338376596570015
1772363438338139600,3.5751396484375,-0.03383534184545278,-0.026708558705449102,-0.01659340740442276,0.031967177987098694,-0.016657313331961632,-0.03161858022212982
1772363438348209700,3.585209716796875,0.004060965828597545,0.04102116169631481,0.03212707662284374,0.03200670704245567,-0.010982897132635117,-0.034422941505908966
1772363438358278400,3.5952783203125,0.02610562437623739,0.07799684739410877,0.05051029005348682,0.025629501789808273,-0.010714184492826462,-0.03332465514540672
1772363438368348700,3.6053486328125,0.027111878809332846,0.07956804223358631,0.02735211730599403,0.014961574226617813,-0.012036734260618687,-0.03258470073342323
1772363438378417400,3.61541748046875,0.05888765777647495,0.055471711853146546,0.004878419691324234,0.007065568119287491,-0.01554571557790041,-0.02955775149166584
1772363438388487700,3.62548779296875,0.06897212167829275,0.01599777959883213,0.04216857816576958,0.0015792110934853554,-0.010153844021260738,-0.028020499274134636
1772363438398556700,3.635556640625,0.0653567076601088,-0.008836801928281783,0.14035247354209424,-0.00529520632699132,0.008413448929786682,-0.022767415270209312
1772363438408625700,3.645625732421875,0.03290551364943385,-0.03025836014151573,0.1973831052750349,-0.019824184477329254,0.028543725609779358,-0.017464134842157364
1772363438418695700,3.65569580078125,-0.005600450355559587,-0.031055647999048232,0.1358919870018959,-0.025231201201677322,0.03576808422803879,-0.012716252356767654
1772363438428764700,3.6657646484375,-0.001438216109573841,-0.013000351348519325,0.07555179232954978,-0.02140093967318535,0.02934802509844303,-0.01233607903122902
1772363438438834700,3.675834716796875,-0.0370556190662086,-0.0038823943912982936,0.01805821925997734,-0.012612241320312023,0.029920605942606926,-0.0066222683526575565
1772363438448903700,3.685903564453125,-0.07519158071503043,-0.0005611410140991211,-0.010374679020047187,0.00438268855214119,0.03031536564230919,-0.014095475897192955
1772363438458973700,3.6959736328125,-0.027357378003001212,0.04121113131046295,0.006631400838494301,0.022411223500967026,0.026548326015472412,-0.02055976539850235
1772363438469042400,3.70604248046875,-0.001542699397355318,0.013987024298310278,0.020390461599826812,0.028874656185507774,0.014038704335689545,-0.019432174041867256
1772363438479112700,3.71611279296875,-0.037219723586738106,-0.04360241036117077,0.067673606300354,0.031774573028087616,0.02219170518219471,-0.007854880765080452
1772363438489181400,3.726181396484375,-0.08032792069017887,-0.09448387181460857,0.09836334359645843,0.033604368567466736,0.03514963388442993,-0.0010164044797420502
1772363438499251700,3.736251708984375,-0.07016659215986729,-0.07146832240819931,0.09620821138918399,0.03192577883601189,0.03959790617227554,0.0029868590645492077
1772363438509320400,3.746320556640625,-0.030482378155738114,-0.04062777846455574,0.06760171010792256,0.02561134099960327,0.032850269228219986,0.004045134410262108
1772363438519390500,3.756390380859375,-0.0038188276357948776,-0.007241641691327095,0.024462825605273245,0.011126141995191574,0.017513925209641457,0.00550268217921257
1772363438529459700,3.766459716796875,0.011726385889947413,-0.009308511093258857,0.029790742629766463,-0.0021775048226118088,0.011390645056962967,0.0014764154329895973
1772363438539528700,3.77652880859375,0.04210515754073858,-0.0011807342171669005,0.0939554640263319,-0.017995616421103477,0.010581577196717262,0.00398671068251133
1772363438549598700,3.7865986328125,0.012632102558016776,-0.03623918811678886,0.042352118039131165,-0.025119706988334656,0.0057700988836586475,0.008071750402450562
1772363438559667700,3.796667724609375,0.009819529355317354,-0.07193301731050014,-0.06115384914278984,-0.0318622961640358,0.0003455057740211487,0.013809796422719955
1772363438569737700,3.80673779296875,0.06627791415825486,-0.045910687303543085,-0.10104454550445079,-0.029649047181010246,-0.00641255546361208,0.011992850340902805
1772363438579806500,3.816806396484375,0.10177753595411777,0.03570727319717407,-0.04422726426124572,-0.0175151526927948,-0.002869752235710621,0.008463096804916859
1772363438589876700,3.826876708984375,0.08864698235467076,0.10720306813418864,0.010614332994818686,-0.011138427071273327,-0.004144650883972645,0.006259249523282051
1772363438599945500,3.836945556640625,0.021609774261713028,0.12883154709637165,-0.019821721801161766,-0.0024250969290733337,-0.011601235717535019,0.005779880564659834
1772363438610015700,3.847015625,-0.01823649843633175,0.11762392438352107,-0.03499707910120487,0.00964843574911356,-0.01793968677520752,-0.0020555704832077026
1772363438620084500,3.85708447265625,-0.039651042386889455,0.06284662453532218,-0.0064496145308017725,0.018393725156784058,-0.023224463686347008,0.002355423290282488
1772363438630154500,3.867154541015625,-0.1021618590965867,-0.0010322656571865082,-0.008703530937433243,0.021421417593955994,-0.02956940047442913,0.005307085812091827
1772363438640223500,3.877223388671875,-0.12284224355369805,0.002453238371014595,0.03790975167751312,0.03300457075238228,-0.0229469183832407,0.0042849644087255
1772363438650293500,3.88729345703125,-0.11006021113097667,0.029519524472951888,0.07192658756971358,0.04229617118835449,-0.02016921155154705,0.002086326014250517
1772363438660362800,3.89736279296875,-0.11576456025242805,0.03486205454468727,0.04873568159639835,0.04486026242375374,-0.022967128083109856,0.003348398022353649
1772363438670432500,3.9074326171875,-0.10070873767882585,0.05309796845912933,-0.007789923223853111,0.045005135238170624,-0.028043270111083984,0.0008602398447692394
1772363438680501200,3.917501220703125,-0.0627164222843945,0.06005377894639968,-0.01420914261639118,0.04465785622596741,-0.030799908563494682,0.0061740451492369175
1772363438690570200,3.9275703125,-0.05037015093043446,-0.003601239362359047,-0.019164719197154043,0.042512405663728714,-0.030882883816957474,0.014513431116938591
1772363438700640300,3.93764013671875,-0.07488879837617278,-0.0186176067084074,-0.048714054286479944,0.03382224589586258,-0.025175729766488075,0.029263081029057503
1772363438710709000,3.947708984375,-0.049477147613465784,-0.002763619494438171,-0.05435059886872768,0.021713927388191223,-0.01252380758523941,0.03510899096727371
1772363438720779300,3.957779296875,-0.013040098837018012,-0.009828735575079918,-0.033197336202859876,0.006701421923935413,-0.009420959278941154,0.03756123036146164
1772363438730848000,3.967847900390625,-0.00623100334405899,-0.014110942938923834,-0.04857727616429328,-0.002838440239429474,-0.0070970673114061356,0.03206067904829979
1772363438740918300,3.977918212890625,0.028827742816507816,0.041755321189761156,-0.04884615623354911,-0.008047050796449184,-0.010721895843744278,0.02314841002225876
1772363438750986000,3.987986083984375,0.030971915238350627,0.0406990901350975,-0.04805880524814129,-0.015626467764377594,-0.016916627064347267,0.010234752669930458
1772363438761055000,3.998054931640625,0.11031681624054908,0.09820143103301525,-0.03682020287513733,-0.022504881024360657,-0.025335943326354027,0.0029683182947337627
1772363438771125000,4.008125,0.1721719455204904,0.08665537014603614,-0.056931263011693954,-0.030051328241825104,-0.02767011523246765,-0.0005251262336969376
1772363438781194200,4.0181943359375,0.19711130259633064,0.05888824229836464,-0.03917290348112583,-0.04159453511238098,-0.027040541172027588,-0.006520700640976429
1772363438791264000,4.028263916015625,0.19367182966694235,0.000054945057630538935,-0.00988835680782795,-0.049548905342817307,-0.029384462162852287,-0.006408730521798134
1772363438801333200,4.038333251953125,0.19207374682053924,-0.05538461809158325,-0.018723405170440674,-0.050442129373550415,-0.02825288474559784,-0.01270684041082859
1772363438811403000,4.048403076171875,0.19683672343865036,-0.08219020743072032,0.023249358162283896,-0.04917962849140167,-0.026125840842723846,-0.016633808612823486
1772363438821472300,4.05847216796875,0.17452157738655805,-0.07445055308938026,0.048610009390115734,-0.03852831572294235,-0.026672853156924248,-0.028247056528925896
1772363438831542000,4.0685419921875,0.14501549691706894,-0.04846913961470127,0.05714169089198112,-0.021089348942041397,-0.023823849856853485,-0.03821321949362755
1772363438841611300,4.078611328125,0.1492431976146996,0.009505494970083236,0.06635960109233856,-0.0030296556651592255,-0.03147564455866814,-0.045594435185194016
1772363438851681000,4.088680908203125,0.13251140465289354,0.04519347894489765,0.044027357774972915,0.011990130878984928,-0.03548302873969078,-0.05049215257167816
1772363438861750000,4.09875,0.10899155898615717,0.05726794762015342,0.03283201002180576,0.02268218994140625,-0.0352470725774765,-0.053218964487314224
1772363438871820300,4.1088203125,0.0826956727348268,0.06064414605498313,0.043866614255309105,0.027508238330483437,-0.03201910853385925,-0.05700572580099106
1772363438881889000,4.118888916015625,0.07616144866049289,0.06697568716406822,0.09806757552027702,0.03130936622619629,-0.029466737061738968,-0.05750533938407898
1772363438891958000,4.1289580078125,0.08079042363539338,0.0654424862474203,0.1279185239046812,0.026539284735918045,-0.024944931268692017,-0.05501755326986313
1772363438902028000,4.139028076171875,0.053743572886288164,0.030175358033180236,0.1139408519566059,0.024479065090417862,-0.022367257624864578,-0.05116608738899231
1772363438912097300,4.14909716796875,0.019894202515482903,0.002059270617365837,0.10881459498405456,0.022805577144026756,-0.02101328782737255,-0.046677909791469574
1772363438922167000,4.1591669921875,-0.005925152265280485,-0.00023497779965400695,0.09826046774387359,0.017582053318619728,-0.01514048594981432,-0.04250739887356758
1772363438932236300,4.169236328125,-0.027300094857811926,-0.005412672698497772,0.08903554328083992,0.017385011538863182,-0.0068866293877363205,-0.0331241711974144
1772363438942306000,4.17930615234375,-0.0808661192201078,-0.034922260299324985,0.04861059391200542,0.019634850323200226,0.000944129191339016,-0.027883868664503098
1772363438952375300,4.189375244140625,-0.1002918274410069,-0.015865093129873276,0.028863106390833854,0.023836836218833923,0.004789959639310837,-0.02316509559750557
1772363438962445000,4.199445068359375,-0.11207374291047453,0.005572831696271896,-0.011318097350001334,0.027144484221935272,0.008488557301461697,-0.01738736778497696
1772363438972514000,4.20951416015625,-0.14229732399955392,-0.0017325228810310363,-0.05972878477573394,0.02916189655661583,0.003020766656845808,-0.01314995251595974
1772363438982584000,4.219583984375,-0.17489201813414693,-0.019047814819216725,-0.11818506539762019,0.030097197741270065,0.0012468351051211357,-0.013841042295098305
1772363438992653000,4.229653076171875,-0.13922741503491998,-0.007382511466741562,-0.08919570227861404,0.028841787949204445,-0.003199421800673008,-0.018453139811754227
1772363439002723300,4.239723388671875,-0.08564999249577522,0.014528291568160056,-0.037509938704967494,0.01249770075082779,-0.015853431075811386,-0.01106792688369751
1772363439012792000,4.2497919921875,-0.07821750440746546,0.03570551963150501,-0.029950901627540587,0.0062303487211465836,-0.026758860796689987,-0.003079792484641075
1772363439022862000,4.259862060546875,-0.1270988780848682,0.04970248080193996,-0.05794950014352798,0.00024729128926992416,-0.020889252424240112,0.0049560293555259705
1772363439032931000,4.26993115234375,-0.1505481427334249,0.052584173718094825,-0.007886369335651398,-0.0032845400273799896,-0.004526462405920029,0.008199978619813919
1772363439043001000,4.2800009765625,-0.1386624746285379,0.03148468706607818,0.08954758445620536,-0.00900154747068882,0.015062418766319752,0.014866936951875687
1772363439053070000,4.290070068359375,-0.11373802286088466,0.02415419804751873,0.13917232384681702,-0.020626042038202286,0.033785928040742874,0.02275153622031212
1772363439063139300,4.300139404296875,-0.10969839208126067,-0.00046411038041114806,0.11851239765584468,-0.027948670089244843,0.03829226270318031,0.02840569242835045
1772363439073209000,4.310208984375,-0.10149170475006103,-0.016381225958466528,0.06450023696124553,-0.0389443077147007,0.03176143020391464,0.04009944200515747
1772363439083278000,4.320278076171875,-0.08699760771244763,-0.045880292165279384,0.004943886142969131,-0.04161093011498451,0.02271547168493271,0.03899689391255379
1772363439093348000,4.33034814453125,-0.07716580339744687,-0.04281272128820419,-0.018465046495199203,-0.03511396422982216,0.021341025829315186,0.03946740925312042
1772363439103417000,4.3404169921875,-0.056597647143155336,-0.001980360162258148,0.005882628297805786,-0.02735617756843567,0.02973797172307968,0.0388341099023819
1772363439113487000,4.350487060546875,-0.07150295533016324,0.006022913551330566,0.022602292430400846,-0.02114187553524971,0.03524031490087509,0.03959530591964722
1772363439123556000,4.36055615234375,-0.05974734334573149,-0.009300912308692932,0.02347439908981323,-0.015128723345696926,0.02639489434659481,0.03836385905742645
1772363439133626000,4.370626220703125,-0.03587283902242779,-0.028328853383660316,0.006838906109333038,-0.0036557642742991447,0.019448524340987206,0.03174562752246857
1772363439143695000,4.380695068359375,0.03623012802749872,-0.017179682859778403,0.019034370815753935,0.004357687197625637,0.021795300766825676,0.03292381018400192
1772363439153765000,4.39076513671875,0.06240633342191577,0.011959902384877204,0.003544540739059448,0.012245981022715569,0.021155228838324547,0.04038415849208832
1772363439163834000,4.400834228515625,0.04249254942312836,0.021727847683429717,-0.018837386938929557,0.022130833938717842,0.018783682957291603,0.03677451238036156
1772363439173904100,4.410904052734375,0.05011427647322416,0.056848260903358455,0.014609540110826491,0.025306038558483124,0.014399333856999874,0.033708881586790085
1772363439183973000,4.42097314453125,0.0543878621391952,0.07750584900677204,0.04918868606090546,0.0196865051984787,0.01621534302830696,0.02754073590040207
1772363439194043100,4.431043212890625,0.06685308369770646,0.08747077818214893,0.11746025825440883,0.014463860541582108,0.017007621005177498,0.016535285860300064
1772363439204112100,4.441112060546875,0.11302987459152937,0.0890928264260292,0.14675240371227263,0.004063684493303299,0.01883161999285221,0.018660489469766617
1772363439214182100,4.45118212890625,0.11996551907360553,0.05864332762658596,0.09548106615841388,-0.0066411467269063,0.017654919996857643,0.021216893568634987
1772363439224251100,4.461251220703125,0.11589067085012793,0.004402034351229668,-0.0027834932386875152,-0.014713720418512821,0.016988862305879593,0.021207306534051895
1772363439234321200,4.471321044921875,0.11046470027863979,-0.061493456360697744,-0.07049509346187115,-0.02126755565404892,0.01944008469581604,0.021402793005108833
1772363439244390000,4.481389892578125,0.12145531923994421,-0.06459200689792632,-0.07290332364737986,-0.03016863949596882,0.02251657098531723,0.011303286999464035
1772363439254459100,4.491459228515625,0.1346701901219785,-0.010175357055664061,-0.045456513795256615,-0.0364687442779541,0.007807079702615738,0.0035886247642338276
1772363439264529200,4.501529052734375,0.11155293390676378,0.013093874850869177,-0.06701777274012566,-0.0361129492521286,-0.006354012992233038,-0.0057233842089772224
1772363439274598100,4.51159814453125,0.07169599368423223,0.025319150173664092,-0.1098807629108429,-0.02925420179963112,-0.016302604228258133,-0.01473587192595005
1772363439284668200,4.521668212890625,0.07087970886528491,0.051965749558806416,-0.10194763182401656,-0.016339469701051712,-0.014486327767372131,-0.01563708484172821
1772363439294737200,4.531737060546875,0.04749547227695584,0.026761750197410582,-0.06790156983733177,-0.007791562471538782,-0.012776119634509087,-0.019174443557858467
1772363439304807200,4.54180712890625,0.026459260119497775,0.0006827215671539307,-0.045405075868964195,0.005597214214503765,-0.007211443968117237,-0.014818044379353523
1772363439314876200,4.551876220703125,-0.002472673723846674,-0.020231471645832062,-0.018492519024014473,0.01106615737080574,-0.002700641518458724,-0.012092778459191322
1772363439324946200,4.5619462890625,-0.021319413013011216,-0.013693009787797927,0.005409165567159652,0.017543498426675797,-0.0024013021029531956,-0.014016112312674522
1772363439335016000,4.572015869140625,-0.04264364833161235,0.04432955559194088,-0.043460371541976926,0.021872254088521004,-0.005702333990484476,-0.014185038395226002
1772363439345085200,4.582085205078125,-0.03577186286598444,0.027332828083634374,-0.06526712968051433,0.024873102083802223,-0.008093586191534996,-0.00816123466938734
1772363439355155200,4.5921552734375,-0.014598872586339712,0.04940495916008949,-0.09339256944656371,0.02658987045288086,-0.014999289996922016,-0.00797098409384489
1772363439365224200,4.60222412109375,0.01076031733676791,0.05365326425433158,-0.08042612036764621,0.020432375371456146,-0.019040370360016823,-0.003772243857383728
1772363439375294200,4.612294189453125,0.020108868179470298,0.038863691401481625,-0.07701368157565593,0.009609430097043514,-0.020244179293513298,-0.0047876532189548016
1772363439385363200,4.62236328125,0.0024395021066069603,0.027666005560755727,-0.04370645525753498,0.0022745514288544655,-0.01918024569749832,-0.006439079996198416
1772363439395433200,4.63243310546875,-0.011531155578792094,0.038111411729454994,-0.015007014995813368,0.0001838691532611847,-0.008506695739924908,-0.0058229961432516575
1772363439405502200,4.642502197265625,-0.011454144819825887,0.07208148587048054,-0.007805120792984962,-0.0048689465038478374,-0.010849212296307087,-0.012659862637519836
1772363439415572200,4.652572265625,0.0053406303755939005,0.05512742846012115,-0.021516250759363174,-0.016435280442237854,-0.01863212138414383,-0.010483612306416035
1772363439425641000,4.662640869140625,-0.0354347398661077,-0.027506431084871292,-0.04109831858575344,-0.02544049359858036,-0.0234505757689476,-0.0035284999758005142
1772363439435711200,4.672711181640625,-0.09179740920960902,-0.0843307265907526,0.0033376199901103973,-0.03479255363345146,-0.01696777530014515,-0.0003051832318305969
1772363439445780000,4.682780029296875,-0.08669526376500725,-0.12104513100385665,0.08146598480939865,-0.03984350711107254,0.0016168281435966492,0.0062531172297894955
1772363439455850200,4.692850341796875,-0.05630567845925689,-0.10101122775673865,0.15007950230836867,-0.04597390443086624,0.0189667921513319,0.0037417635321617126
1772363439465919000,4.7029189453125,-0.05463014646247029,-0.07268705054819584,0.15343582699894903,-0.049193933606147766,0.03124369867146015,0.006535685621201992
1772363439475989000,4.712989013671875,-0.018735241738706825,-0.022063363248109816,0.12918868997097013,-0.043253444135189056,0.030666133388876915,0.00013812212273478508
1772363439486058000,4.72305810546875,-0.022662352054566143,0.007583586996793746,0.09889292042851447,-0.03703097254037857,0.03175989165902138,0.004134461749345064
1772363439496128000,4.7331279296875,-0.07427081260830164,0.004411386701464653,0.06386486166715621,-0.022852934896945953,0.03173962980508804,0.005931957624852657
1772363439506197200,4.743197265625,-0.05720744960457086,0.01843640492260456,0.04023614879846572,0.000028944574296474457,0.026036471128463745,0.009461178444325924
1772363439516266000,4.753265869140625,-0.032006080591678615,0.0185305129468441,0.06650923869609833,0.014245276339352131,0.02295643277466297,0.017343509942293167
1772363439526336300,4.763336181640625,-0.05876870757192373,0.06571019727289676,0.11694997064471244,0.032533202320337296,0.03618568554520607,0.01306141447275877
1772363439536405000,4.773405029296875,-0.0386826357461512,0.10426701468229294,0.12099193951189517,0.03973131999373436,0.03725271672010422,0.011360700242221355
1772363439546475300,4.783475341796875,-0.06140519355535507,0.06908639570772647,0.06957388696372509,0.03960029035806656,0.03697388619184494,0.011515163816511631
1772363439556544000,4.7935439453125,-0.07500599501505494,0.02806464948952198,-0.006022913551330566,0.031328871846199036,0.025595564395189285,0.009638766758143902
1772363439566614300,4.8036142578125,-0.0653060003861785,-0.025804303342103957,-0.01806289543509483,0.02316202037036419,0.017538968473672867,0.01016474049538374
1772363439576683000,4.81368310546875,-0.06033420332297682,-0.058609425356984136,0.005205167427659034,0.014586685225367546,0.020014287903904915,0.014295753091573715
1772363439586753000,4.8237529296875,-0.05116583135277033,-0.06604045214056968,0.05735328781604766,0.006803063675761223,0.01716763526201248,0.013211846351623535
1772363439596822000,4.833822021484375,-0.026682109089940786,-0.03990063323378563,0.09707856448292732,0.0035159029066562653,0.021676063537597656,0.011514007113873959
1772363439606892000,4.84389208984375,-0.012356646617501974,-0.04054945253133774,0.11968085691332817,-0.0006873635575175285,0.03637990728020668,0.009254847653210163
1772363439616961000,4.8539609375,-0.014379238486289978,-0.03599836509823799,0.08227145597338675,-0.006882726680487394,0.045391712337732315,0.02110942266881466
1772363439627031000,4.864031005859375,-0.04212473902404308,-0.022835516664385793,-0.04287468060851097,-0.007323746103793383,0.04249605908989906,0.02359175682067871
1772363439637100300,4.874100341796875,-0.026347616438567638,-0.01578501363098621,-0.12704115654826165,-0.0009255018085241318,0.032041553407907486,0.01913575455546379
1772363439647170000,4.884170166015625,0.0016435294233262537,0.012730302235484122,-0.1513029066234827,0.0066179027780890465,0.017609085887670517,0.013209154829382896
1772363439657239300,4.8942392578125,-0.002116992153972387,0.021807342660427092,-0.16263035632371903,0.01673167571425438,0.007820460945367813,0.018249012529850006
1772363439667309000,4.90430908203125,-0.016180588819831608,0.023201427367329597,-0.13990648334026337,0.028795529156923294,-0.006224518641829491,0.012810838408768177
1772363439677378000,4.9143779296875,0.00819280493631959,0.0274058933198452,-0.06086275724172592,0.031975191086530685,-0.015391475521028042,0.009237317368388176
1772363439687447800,4.92444775390625,0.03416968836635351,0.0275409178763628,0.057684127205610274,0.029078472405672073,-0.015002121217548847,0.004209535196423531
1772363439697516800,4.934516845703125,0.013575374757498503,-0.005728899040818214,0.12320552390813827,0.021279342472553253,-0.011456498876214027,0.006749969907104969
1772363439707586800,4.9445869140625,-0.038122663775831456,-0.04397299723923206,0.1310562374085188,0.015971926972270012,-0.0013876194134354591,0.00847037136554718
1772363439717655800,4.95465576171875,-0.052306379690021276,-0.05088555310666561,0.11434300301671027,0.015234068036079407,0.00922856479883194,0.008334421552717686
1772363439727724800,4.964724853515625,-0.02255363098308444,-0.028070494708418846,0.10651450134813785,0.011421220377087593,0.01782764494419098,0.008515782654285431
1772363439737794800,4.974794921875,-0.0235356277577579,-0.05870645599067211,0.06158405725359916,-0.006634386721998453,0.02690676599740982,0.01291569322347641
1772363439747863800,4.98486376953125,-0.046090281654149294,-0.06742752258479595,0.022907412856817244,-0.01580817811191082,0.026152558624744415,0.011147620156407356
1772363439757933800,4.994933837890625,-0.03232844441384077,-0.06967968542575836,0.02984802577495575,-0.02607319876551628,0.03086044266819954,0.02141036093235016
1772363439768002800,5.0050029296875,-0.03375438556373119,-0.08847206417918205,0.05280687655806541,-0.03350767865777016,0.0350051186978817,0.03008640557527542
1772363439778072800,5.01507275390625,-0.030766601924598215,-0.030938159099221228,0.04011456824541092,-0.02526696026325226,0.03573058918118477,0.027196748182177544
1772363439788142000,5.02514208984375,0.0019885434687137602,0.05419628508985042,0.032170915764570235,-0.011730910278856754,0.03682142123579979,0.03136859089136124
1772363439798211800,5.0352119140625,-0.04558554700240493,0.05918517941832542,0.022703414717316628,-0.0025130314752459526,0.04371308535337448,0.042201317846775055
1772363439808280800,5.04528076171875,-0.10367226365953683,-0.020843466064333915,-0.017719781085848808,0.003949128091335297,0.04007946699857712,0.052363939583301544
1772363439818350800,5.055350830078125,-0.09261077141910791,-0.08045359289646148,-0.005306289714574814,0.01193150319159031,0.04101662337779999,0.047304265201091766
1772363439828419800,5.065419921875,-0.057340720595419406,-0.09585340660214424,0.05989011281728744,0.020340967923402786,0.052858904004096985,0.05581732466816902
1772363439838489900,5.07548974609375,-0.03491363860145211,-0.06215221253037452,0.06283961027264595,0.020945413038134575,0.05670410022139549,0.054687246680259705
1772363439848558800,5.085558837890625,0.024265695597976446,-0.020583353823423384,0.04050327530205249,0.01464943215250969,0.05031650885939598,0.05299001559615135
1772363439858628900,5.09562890625,0.07979732094481587,0.017630933758616445,0.013495441389083861,0.013780893757939339,0.040814097970724106,0.05108232796192169
1772363439868697900,5.10569775390625,0.1080162842132151,0.07831424278020858,0.040405660146474835,0.007854029536247253,0.03952059894800186,0.04463454708456993
1772363439878767900,5.115767822265625,0.1237418227419257,0.08922142124176025,0.0806137518942356,-0.0031202230602502823,0.048620376735925674,0.041338223963975906
1772363439888836900,5.1258369140625,0.13389087631255386,0.03680149817466736,0.022646716094017028,-0.005557548254728317,0.05154186487197876,0.04422775283455849
1772363439898907000,5.135906982421875,0.17094781055301428,-0.007170914542675018,-0.06317161870598792,-0.013032262213528156,0.04352544993162155,0.044525157660245895
1772363439908975900,5.145975830078125,0.2047491039983928,-0.03935819692015648,-0.10105798950791359,-0.01772421970963478,0.03918183222413063,0.04239942133426666
1772363439919046000,5.1560458984375,0.22950360602661965,-0.05475274992883205,-0.0664928720831871,-0.034310244023799896,0.03895566985011101,0.04136243835091591
1772363439929115000,5.166114990234375,0.2134083574026823,-0.06009644904434681,-0.027640871119499207,-0.05044021084904671,0.04376134276390076,0.0319385789334774
1772363439939185000,5.176184814453125,0.2057319775559008,-0.04363105193376541,-0.00902735606431961,-0.059870071709156036,0.04212915524840355,0.029353126883506775
1772363439949254000,5.18625390625,0.19876783763170242,0.008644494226574897,-0.015530162087082862,-0.0627438947558403,0.04032672569155693,0.017319368198513985
1772363439959323000,5.196322998046875,0.1895899671807885,0.06539689354002476,-0.05338496870696544,-0.05025336891412735,0.02688087895512581,0.004055337980389595
1772363439969393000,5.206392822265625,0.21330007472261786,0.08039864783883094,-0.09442015892863273,-0.037171389907598495,0.01492115668952465,-0.0037216246128082275
1772363439979462000,5.2164619140625,0.22434110869690774,0.06180500652790069,-0.07556056015789508,-0.019592979922890663,0.007800703402608633,-0.011111813597381115
1772363439989531600,5.22653173828125,0.17262407320216297,0.012880524361133575,-0.039377486142516134,-0.013746542856097221,-0.0013528470881283283,-0.013057253323495388
1772363439999601000,5.236600830078125,0.12248247033059596,-0.03988309757709503,-0.0011824877828359604,-0.010004261508584023,-0.010450156405568123,-0.018052544444799423
1772363440009671000,5.2466708984375,0.10476444281041622,-0.05205401236414909,0.040464112335443496,-0.004533596336841583,-0.014488840475678444,-0.025574907660484314
1772363440019740000,5.256739990234375,0.1295725747220218,-0.010004092141985893,0.05110591785907745,0.0038600964471697807,-0.019827794283628464,-0.03133608028292656
1772363440029810000,5.266809814453125,0.13071312305927277,0.03010112375319004,0.031679332855343814,0.00873527955263853,-0.03184637427330017,-0.03175712376832962
1772363440039879000,5.27687890625,0.08664397196918726,0.03879004164338112,0.02045534352958202,0.01581862010061741,-0.04009796306490898,-0.03548210859298706
1772363440049949000,5.286948974609375,0.0551797431692481,0.03899813143610954,0.026826047605276106,0.017430365085601807,-0.0380859449505806,-0.030455391854047775
1772363440060018000,5.297017822265625,0.014941110152751206,-0.019527122768759727,0.039760347980260846,0.0026260800659656525,-0.03392057120800018,-0.025627760216593742
1772363440070088000,5.307087890625,0.07342603234723209,0.04088613713979721,0.018104981011152266,0.012970596551895142,-0.05040287598967552,-0.04359770566225052
1772363440080157000,5.317156982421875,0.09980930462107061,0.03458148403763771,-0.06433306370079517,0.006230100989341736,-0.07341820001602173,-0.044110774993896484
1772363440090227000,5.32722705078125,0.03690758889764547,0.07024374904930591,-0.11701485257446766,0.01864415965974331,-0.0760941430926323,-0.05126189813017845
1772363440100295700,5.337295654296875,-0.015072189186513422,0.08525310213267803,0.06445113712251185,0.022183068096637726,-0.04646272957324982,-0.0465271882712841
1772363440110366000,5.347365966796875,-0.06495894051417708,0.030540099692344665,0.13396890998482702,0.011975440196692944,-0.026175830513238907,-0.04547976702451706
1772363440120434700,5.3574345703125,-0.08755597224757075,-0.033491350713372225,0.04071604126989841,-0.0074742878787219524,-0.040355514734983444,-0.03862717002630234
1772363440130505000,5.3675048828125,-0.08376286357492208,-0.11139584364891052,-0.08162263667583465,-0.031513046473264694,-0.06439001113176346,-0.03413335233926773
1772363440140574000,5.377573974609375,-0.11223112542927265,-0.1721212382465601,-0.030002924075722692,-0.05075458437204361,-0.059494320303201675,-0.01952112838625908
1772363440150643700,5.387643798828125,-0.14892697127237914,-0.1623515393823385,0.14836451508402823,-0.06272362917661667,-0.024952322244644165,-0.01523317489773035
1772363440160713000,5.397712890625,-0.16292144822478294,-0.09717384155094623,0.2580313429832458,-0.06286559998989105,0.0039016064256429672,-0.0084025077521801
1772363440170782700,5.40778271484375,-0.22034458640664814,-0.06365794091820716,0.15951017847657203,-0.06287651509046555,0.013065011240541935,0.003876530099660158
1772363440180852000,5.41785205078125,-0.21705153621062634,-0.03172200295329094,0.01917933224439621,-0.0416579470038414,0.011597367003560066,0.011717546731233597
1772363440190921700,5.427921630859375,-0.161361213170737,0.00005085340440273285,-0.03879588686227798,-0.01445482112467289,0.008624481037259102,0.023921482264995575
1772363440200991000,5.437990966796875,-0.14141235785856843,0.024829320830106735,-0.024452304211258886,0.0037949439138174057,0.009625894948840141,0.03124324604868889
1772363440211059700,5.448059814453125,-0.11685980814322829,0.05613397515416145,0.03933598508834839,0.021728137508034706,0.015224924311041832,0.04095765948295593
1772363440221130000,5.4581298828125,-0.11571312232613563,0.06991875487864017,0.12745733613371849,0.03349835425615311,0.024387121200561523,0.044238317757844925
1772363440231198700,5.46819873046875,-0.09894523513764142,0.09033259735405444,0.17389058600664137,0.0362832173705101,0.035109274089336395,0.04450409859418869
1772363440241269000,5.47826904296875,-0.08155892378985881,0.050994274178147316,0.14329203412532807,0.03616176173090935,0.04224517568945885,0.04601350426673889
1772363440251337700,5.488337646484375,-0.053879474225640295,0.00011865794360637664,0.10414075795412063,0.029533419758081436,0.046209026128053665,0.05142398178577423
1772363440261407700,5.49840771484375,-0.057308864152431485,-0.07799450930655003,0.06483166087269783,0.02619372308254242,0.06472264975309372,0.05886422097682953
1772363440271476700,5.508476806640625,-0.04326207249090075,-0.10499006825983524,0.020805472141504286,0.01386062428355217,0.06942605972290039,0.06133297085762024
1772363440281546800,5.518546630859375,0.018833733677119015,-0.08557751178145408,0.0005354220509529113,0.011240307241678238,0.07490549236536026,0.06616353243589401
1772363440291616000,5.528615966796875,0.07345905783399939,-0.019544658425450324,0.02258651033937931,-0.0006123585626482964,0.07742723822593689,0.06279676407575607
1772363440301685800,5.538685791015625,0.09493731467053293,0.007181435936689376,-0.08230360467731952,-0.01580994948744774,0.06022011861205101,0.055985234677791595
1772363440311755000,5.548755126953125,0.09630801850184798,0.006236848562955856,-0.14451193130910395,-0.021790344268083572,0.04005013778805733,0.05451170355081558
1772363440321824800,5.55882470703125,0.07371887781396508,0.013549801924824714,-0.09336801952719688,-0.023193640634417534,0.04137139767408371,0.04834402725100517
1772363440331894000,5.56889404296875,0.05584419842734933,-0.034572131687402724,-0.05753332055807113,-0.01973153091967106,0.03340800851583481,0.039882101118564606
1772363440341963800,5.5789638671875,0.05106397841349244,-0.052178515526652335,-0.04695113626718521,-0.010403087362647057,0.026155803352594376,0.03735793009400368
1772363440352033000,5.589032958984375,0.08131912368461489,-0.023518238231539725,-0.027380758878588676,0.006447797641158104,0.02276506833732128,0.028786277398467064
1772363440362102800,5.599102783203125,0.09578794015049934,-0.023966566520929336,0.028219547790288922,0.018661249428987503,0.030953917652368546,0.017841991037130356
1772363440372171800,5.609171875,0.09185045457109808,-0.013844400957226752,0.0412087932229042,0.019341420382261276,0.032823722809553146,0.013913827948272228
1772363440382242000,5.619241943359375,0.07546367565467953,0.0023158757269382477,0.015486322945356368,0.01996813714504242,0.016051290556788445,0.010804349556565285
1772363440392310800,5.629310791015625,0.0850922124825418,0.04937924019694328,-0.023333529314398763,0.017896998673677444,-0.0017165211029350758,0.0023128604516386986
1772363440402381000,5.639381103515625,0.11382497049197554,0.10511983211934565,-0.021363106024265287,0.018859922885894775,-0.020677849650382996,-0.006780797615647316
1772363440412449800,5.64944970703125,0.15130933636426924,0.12363573201894759,0.02412321838736534,0.013262755237519741,-0.026762640103697777,-0.0208263099193573
1772363440422519800,5.659519775390625,0.10902195412442088,0.07007716031074523,0.037270869252085684,0.002560812048614025,-0.026257894933223724,-0.017097728326916695
1772363440432588800,5.6695888671875,0.028325346252322196,-0.0016553659915924071,0.07511866160929202,-0.0019684266299009323,-0.017121387645602226,-0.017329422757029533
1772363440442658800,5.679658935546875,0.008900660944730044,-0.040810149294137954,0.10568506478667258,-0.008434788323938847,-0.008061999455094337,-0.017407499253749847
1772363440452727800,5.689727783203125,-0.0016185411125421523,-0.05400339286625385,0.12674421942830086,-0.012143240310251713,-0.003167108865454793,-0.013827411457896233
1772363440462797800,5.6997978515625,0.008908990381658077,0.001387070444226265,0.06838321587443351,-0.008175304159522057,-0.00392250856384635,-0.021478570997714996
1772363440472866800,5.70986669921875,-0.027880817355215547,0.029087562796473503,-0.03351297802329063,0.0003460124135017395,-0.0005504139699041843,-0.01945137232542038
1772363440482935800,5.719935791015625,-0.06422419649884105,0.06194704534709453,-0.11684358766078948,0.010419775731861591,-0.007482483051717281,-0.022969041019678116
1772363440493005800,5.730005859375,-0.06597454729750753,0.019486790758371352,-0.16705401798486708,0.018718719482421875,-0.029734259471297264,-0.020130110904574394
1772363440503074800,5.74007470703125,-0.07319193133041262,-0.03814882113039493,-0.1156447332650423,0.01950865611433983,-0.04310714453458786,-0.012901576235890388
1772363440513145000,5.75014501953125,-0.06745382606983184,-0.09565642272531985,-0.0212099612891674,0.022135067731142044,-0.035670265555381775,-0.006800542119890451
1772363440523213800,5.7602138671875,-0.04577902374789118,-0.09772153856158255,0.05024374807178974,0.014086518436670303,-0.02284596674144268,-0.00023136800155043602
1772363440533283800,5.770283935546875,-0.04239332683235407,-0.0932499461054802,0.05562427206635475,0.009779388085007668,-0.01009395346045494,0.005467796698212624
1772363440543352800,5.780352783203125,-0.018530805207788943,-0.02824059057831764,0.052902153626084324,0.011443622410297394,-0.0028428244404494762,0.0030284509994089603
1772363440553422800,5.7904228515625,0.02214534244313836,0.05648877994120121,0.07417115162611007,0.013508636504411697,0.00211411714553833,0.0005985829047858715
1772363440563491800,5.800491943359375,0.02394830021187663,0.06799450881779194,0.08120411900281906,0.005010383203625679,0.013023629784584045,-0.003533485811203718
1772363440573561900,5.810561767578125,0.0460714308232069,0.06401216118335723,0.06981061832904815,0.00009711738675832748,0.013319507241249084,-0.010111227631568909
1772363440583630800,5.820630859375,0.07553732541278005,0.046727264383435246,0.025810148561000824,-0.008590850047767162,0.011231270618736744,-0.0096632931381464
1772363440593700900,5.830700927734375,0.06681377460062503,0.018501871374249457,-0.03575520399212837,-0.013922498561441898,0.014466480351984501,-0.006944471504539251
1772363440603769900,5.840769775390625,0.07171279868856072,0.0026624972075223923,-0.06456044271588325,-0.021837055683135986,0.014062883332371712,-0.010572928003966808
1772363440613840000,5.85083984375,0.07296148357540369,-0.009379238241910934,-0.037568975415825843,-0.028904549777507782,0.014523610472679138,-0.012291465885937214
1772363440623908900,5.860908935546875,0.0444734941072762,-0.008285013264417648,0.033738603472709655,-0.033145755529403687,0.022051237523555756,-0.008792816661298275
1772363440633979000,5.870978759765625,0.04121244648471475,0.0065676879525184625,0.07027063705623149,-0.025174647569656372,0.03339603915810585,-0.016892019659280777
1772363440644048000,5.8810478515625,0.049388446416705846,0.03410451417565345,0.06215513513982296,-0.016227319836616516,0.03796401992440224,-0.018113981932401657
1772363440654118000,5.891117919921875,0.026414690325409173,0.05601823982000351,-0.007546177595853805,0.00022276025265455246,0.035594336688518524,-0.0219220332801342
1772363440664187000,5.901186767578125,0.014238953232765196,0.04473579830527305,-0.06006722294986248,0.011037677526473999,0.028717564418911934,-0.022689227014780045
1772363440674257000,5.9112568359375,-0.028443273543566464,-0.00790624307990074,-0.04760638530552387,0.024316465482115746,0.028744196519255638,-0.021412242203950882
1772363440684326100,5.921326171875,-0.05160159242153167,-0.03550152149200439,0.04047580277323723,0.028116030618548393,0.03216877952218056,-0.018363041803240776
1772363440694396000,5.93139599609375,-0.08879705834984779,-0.07096037288606166,0.07792787381112574,0.024104779586195946,0.036237820982933044,-0.014930758625268936
1772363440704465200,5.941465087890625,-0.09258227597698569,-0.0658136576473713,0.06451075835525989,0.025479603558778763,0.03707914054393768,-0.015426767989993095
1772363440714535000,5.951534912109375,-0.06304360841214657,-0.04676584282815456,0.05926292082965374,0.026399724185466766,0.03906239569187164,-0.011471174657344818
1772363440724604200,5.961604248046875,-0.057172962813079355,-0.0028986440509557723,0.0391436773866415,0.029257167130708694,0.03888454660773277,-0.006015138700604439
1772363440734674200,5.971674072265625,-0.025591683504730463,0.07024374904930591,-0.02363572713136673,0.033119019120931625,0.03204980865120888,-0.01050256472080946
1772363440744743200,5.9817431640625,0.02778159476444125,0.11923135958015918,-0.056069677746295926,0.03882307931780815,0.021047357469797134,-0.010418502613902092
1772363440754813200,5.991813232421875,0.005509995593130588,0.08947335017621516,-0.06545709929466247,0.03498226776719093,0.010977146215736866,-0.013709105551242828
1772363440764882200,6.001882080078125,-0.008498071493208408,0.047160395103693006,-0.05461772537231445,0.03632538020610809,0.005101029295474291,-0.01858239434659481
1772363440774952200,6.0119521484375,-0.01438581435754895,0.04104045091867447,0.0026712650358676907,0.026631206274032593,0.003917786758393049,-0.018599970266222954
1772363440785021200,6.022021240234375,-0.05257072971463203,0.033654432320594785,0.021634324181079863,0.017926428467035294,0.0067124320194125175,-0.012805886566638947
1772363440795090200,6.032090087890625,-0.06666106825694441,0.02446399464905262,0.04450082050561904,0.01107730995863676,0.012344485148787498,-0.01450498215854168
1772363440805160000,6.042159912109375,-0.051170069136470556,-0.0016109423279762267,0.04338847534954548,-0.001071167178452015,0.020070530474185944,-0.010574965737760067
1772363440815229200,6.052229248046875,-0.054349868216365574,-0.053743280625343316,-0.008018471282720565,-0.016639208421111107,0.017603378742933273,-0.004048357717692852
1772363440825299000,6.062298828125,-0.07114464341178536,-0.09596446576118468,-0.04632628236711025,-0.026949966326355934,0.01548834703862667,0.0050418199971318245
1772363440835368200,6.0723681640625,-0.06459229915887117,-0.0926788682192564,-0.008521744629740714,-0.03768250346183777,0.019979767501354218,0.006429326720535755
1772363440845438000,6.08243798828125,-0.05606865483298897,-0.09495090480446815,0.05308393993377685,-0.03992675244808197,0.02407757379114628,0.009137229062616825
1772363440855507200,6.092507080078125,-0.05640957722514867,-0.08777356052100659,0.0705751729607582,-0.038513146340847015,0.028136497363448143,0.016862792894244194
1772363440865577200,6.1025771484375,-0.06184869953915476,-0.051500470134615894,0.008562661162018776,-0.03362274542450905,0.019024569541215897,0.024639902636408806
1772363440875646200,6.112646240234375,0.008023878110200167,0.05017477448880672,0.01911386579275131,-0.019026225432753563,0.010072620585560799,0.015732960775494576
1772363440885716200,6.12271630859375,0.07134732637703418,0.09741115743815898,0.05081950213313102,-0.005084899719804525,0.00897927675396204,0.012431485578417778
1772363440895785200,6.13278515625,0.04619418042004108,0.08080898220539093,0.04254617930650711,0.0023434553295373917,0.012012883089482784,0.006292632780969143
1772363440905855200,6.142855224609375,0.060745414472371334,0.10435293940007687,0.025797873601317405,0.014753474853932858,0.0049092574045062065,-0.001205946784466505
1772363440915924000,6.152924072265625,0.09622004795745015,0.12396423332095145,0.03134732442200184,0.024393584579229355,0.0040961941704154015,-0.007772769313305616
1772363440925994200,6.162994140625,0.07266060093268752,0.06683306382298469,0.03344166635274887,0.022733673453330994,0.003920449409633875,-0.01087680459022522
1772363440936063000,6.17306298828125,0.06726356419473886,0.017474866414070128,0.037411154505610465,0.022266551852226257,0.003912726882845163,-0.010659223422408104
1772363440946133200,6.18313330078125,0.05322247162163257,-0.02643207985162735,0.05824176108837127,0.018954604864120483,0.007189304102212191,-0.009136877954006195
1772363440956202000,6.193201904296875,0.050557051804661746,-0.04743219778239727,0.08137538391649722,0.013549717143177986,0.010111058130860329,-0.011894047260284424
1772363440966272000,6.20327197265625,0.04651259871944785,-0.053395490100979805,0.06571370440423488,0.0027228016406297684,0.009739786386489868,-0.008877623826265335
1772363440976341000,6.213341064453125,0.046523704635351895,-0.029662147814035415,0.04217325434088707,0.0007752319797873497,0.005852104630321264,-0.014738176017999649
1772363440986411000,6.223410888671875,0.07184416998326779,-0.004188099339604377,0.05595218884646892,0.002080134116113186,-0.0015255594626069069,-0.021802928298711777
1772363440996480300,6.233480224609375,0.05201587231084704,-0.044561026260256764,0.05521978291869163,-0.006423871498554945,-0.003624929580837488,-0.01603718101978302
1772363441006550000,6.243550048828125,0.034893910987675185,-0.0696557200282812,0.009443535649776458,-0.012398875318467617,-0.007818927988409996,-0.01342036947607994
1772363441016619300,6.253619384765625,0.025522563791275023,-0.0550514406144619,-0.011813771912455558,-0.0058115459978580475,-0.016235582530498505,-0.01582254096865654
1772363441026689000,6.26368896484375,0.023824235440790653,-0.008026654589176178,-0.011359013882279395,-0.0003603072836995125,-0.016630008816719055,-0.014341218397021294
1772363441036758300,6.27375830078125,0.0024319033220410345,0.0398451036542654,-0.05115384865403175,0.008994845673441887,-0.015020128339529037,-0.012682868167757988
1772363441046828000,6.283828125,0.02285188327729702,0.10015198057889937,-0.06646072337925434,0.027973011136054993,-0.020923353731632233,-0.023193519562482834
1772363441056897300,6.293897216796875,0.069476125677675,0.1603390305161476,-0.04445756588578224,0.043689657002687454,-0.02860923856496811,-0.026504628360271454
1772363441066967000,6.303967041015625,0.06063391692191362,0.12782850753366948,-0.021080197429656982,0.0437355637550354,-0.03223191201686859,-0.02710316702723503
1772363441077036000,6.3140361328125,0.020311551144719123,0.02086860050559044,-0.03453121515512466,0.032343894243240356,-0.03241460397839546,-0.02246953547000885
1772363441087106300,6.324106201171875,0.006212883165478706,-0.02527472651004791,-0.025810148561000824,0.023541981354355812,-0.0339091420173645,-0.020395591855049133
1772363441097175000,6.334175048828125,0.007279927875101566,-0.011289455777406691,0.019436521875858304,0.007946508005261421,-0.027834206819534302,-0.02020224556326866
1772363441107244000,6.344244140625,0.009117518565803766,0.008002689191699027,0.0353401934504509,-0.004020459949970245,-0.027117079123854637,-0.02214151620864868
1772363441117314000,6.35431396484375,0.027315000165998936,0.03246200766563415,0.016340309426188467,-0.014336214400827885,-0.02033800259232521,-0.02297721616923809
1772363441127383000,6.364383056640625,0.027126053465157746,0.05967500876188278,-0.001952303111553192,-0.020843172445893288,-0.022033486515283585,-0.027410533279180527
1772363441137453000,6.374453125,0.03231426975801587,0.02881926724910736,-0.006529109507799148,-0.028828395530581474,-0.021122684702277184,-0.025662701576948166
1772363441147522300,6.384522216796875,0.024412264461815356,-0.012194295662641524,-0.03807692493796348,-0.036902591586112976,-0.023763611912727356,-0.024892358109354973
1772363441157592000,6.394592041015625,0.026974370034784076,-0.01944061352908611,-0.033493104279041286,-0.03550603240728378,-0.021589141339063644,-0.026301169767975807
1772363441167661300,6.404661376953125,0.003214139740914106,-0.012647884649038314,-0.03607727555334568,-0.030715106055140495,-0.018609890714287758,-0.03039645031094551
1772363441177731000,6.41473095703125,-0.03532733396887779,0.022895137897133825,-0.057168578898906704,-0.018864836543798447,-0.01777099445462227,-0.03172643482685089
1772363441187800000,6.424800048828125,-0.01826703970506787,0.07037760456204414,-0.007486556363105774,-0.00469975033774972,-0.014843115583062172,-0.03028220310807228
1772363441197870000,6.4348701171875,-0.007324936060607433,0.05716740985512733,0.02377601238489151,-0.0017950404435396194,-0.022368144243955612,-0.024324975907802582
1772363441207939000,6.44493896484375,0.012148118433356284,0.016279519149661064,0.045543607556819916,-0.0020531658083200455,-0.02579057402908802,-0.023796064779162407
1772363441218009000,6.455009033203125,0.033264117828756566,0.004632920497655868,0.10878653793334961,0.0024475762620568275,-0.019795531406998634,-0.02020425908267498
1772363441228078000,6.465078125,0.051678310919553036,-0.013835048606991767,0.17271569700837133,0.0004725847393274307,-0.000970826018601656,-0.019645225256681442
1772363441238148000,6.475148193359375,0.08509484283104539,-0.026014731222391126,0.2088847424983978,-0.0015543466433882713,0.01948757842183113,-0.016366073861718178
1772363441248217000,6.485217041015625,0.0700363899089396,-0.027613398590683937,0.15231646758019923,-0.005125856027007103,0.01555207371711731,-0.015689942985773087
1772363441258287000,6.495287109375,0.04596870110109448,-0.01113923365175724,0.09145487938225269,-0.009146164171397686,0.01236640103161335,-0.02304026670753956
1772363441268356000,6.505356201171875,0.08154927917867899,0.03750643157362938,0.044482115805149075,-0.013988204300403595,0.00434662401676178,-0.028876908123493195
1772363441278426000,6.515426025390625,0.08130114963650703,0.035812487137317654,0.0036433249384164807,-0.018807459622621536,0.001944985706359148,-0.034119606018066406
1772363441288495000,6.5254951171875,0.10647943003475666,0.037703415450453755,-0.019552841731905937,-0.018571577966213226,-0.004292028024792671,-0.04322870820760727
1772363441298565000,6.535565185546875,0.1275736559897661,0.03541910390555859,-0.053232408493757245,-0.02371067926287651,-0.012547560967504978,-0.045908648520708084
1772363441308634000,6.545634033203125,0.08797112891972064,-0.0012310030996799469,-0.08100421251654624,-0.02942650392651558,-0.027937106788158417,-0.05214609578251839
1772363441318704000,6.5557041015625,0.05153451853469014,0.002836100208759308,-0.07760580224990844,-0.029926113784313202,-0.03717002272605896,-0.05377781391143799
1772363441328773000,6.565773193359375,0.02325754146873951,0.02458031450510025,-0.033712884509563446,-0.02712654322385788,-0.03680909797549248,-0.06141500174999237
1772363441338843100,6.575843017578125,-0.04044891476631164,0.030662849289178847,0.020119243443012236,-0.020422833040356636,-0.03231581300497055,-0.05773212015628815
1772363441348912000,6.585912109375,-0.06407075950279832,0.05566752668619156,0.04191957184076309,-0.006148436106741428,-0.03148484230041504,-0.06210988014936447
1772363441358982100,6.595982177734375,-0.08490779582634568,0.05095511121153831,0.008805237746238708,0.0003779064863920212,-0.03455759584903717,-0.05558566749095917
1772363441369051100,6.606051025390625,-0.14261881103888152,0.015626608198881148,-0.02886719804406166,0.009000368416309357,-0.040811557322740555,-0.04975862428545952
1772363441379121200,6.61612109375,-0.16822043141573667,-0.014993570992350578,-0.024265841728448867,0.013941863551735878,-0.04295513778924942,-0.043116699904203415
1772363441389190100,6.626190185546875,-0.17215952443033455,-0.027032968354225157,0.021096564042568204,0.016402605921030045,-0.03812367096543312,-0.036014121025800705
1772363441399260200,6.63626025390625,-0.17832637649700045,-0.03246609931886196,0.023536358410120008,0.007609913125634193,-0.036584626883268356,-0.029467009007930756
1772363441409329200,6.6463291015625,-0.17941051847189665,-0.03658054890036583,-0.03147007401883602,-0.003930876962840557,-0.03911725431680679,-0.024032490327954292
1772363441419399000,6.65639892578125,-0.15807225462794303,-0.0339022696018219,-0.07158405774235725,-0.012268435209989548,-0.042255792766809464,-0.016599873080849648
1772363441429468200,6.66646826171875,-0.1333104460760951,-0.005116320100426674,-0.06361819342970848,-0.013838901184499264,-0.039560139179229736,-0.010349433869123459
1772363441439538000,6.676537841796875,-0.10739859070628881,0.030559973436594008,-0.061219315594434734,-0.014218402095139027,-0.032038308680057526,-0.000031281728297472
1772363441449607200,6.686607177734375,-0.11235650537461042,0.024627076256275176,-0.08758300638496876,-0.022675354033708572,-0.03616805747151375,0.008948033675551414
1772363441459677200,6.69667724609375,-0.12804536515474318,0.010202245062589644,-0.10395195738375186,-0.02916600927710533,-0.039756402373313904,0.013063415884971619
1772363441469746200,6.70674609375,-0.11667334566041826,-0.0034352351456880567,-0.07062251923382282,-0.034095291048288345,-0.03555002063512802,0.013482717797160149
1772363441479816200,6.716816162109375,-0.09095145990476011,0.031685178074240684,-0.019230770170688628,-0.04332367703318596,-0.031004268676042557,0.010895989835262299
1772363441489885200,6.72688525390625,-0.08641483938843011,0.04582476258575916,-0.0024117373168468475,-0.053323425352573395,-0.03062761016190052,0.006170568522065878
1772363441499955200,6.736955078125,-0.061384443028271195,0.008897592204809188,0.013341127610206603,-0.06202104315161705,-0.025586511939764023,0.004556426778435707
1772363441510024200,6.747024169921875,-0.05954392972812056,-0.035761049211025235,0.01777764875292778,-0.06940977275371552,-0.022304227575659752,0.004278705455362797
1772363441520094200,6.75709423828125,-0.027209932356327772,-0.04587912312150001,0.020489245799183844,-0.07638831436634064,-0.015388531610369682,0.009678264148533344
1772363441530163000,6.767162841796875,-0.024500965658575295,-0.038971827951073644,0.026415713238716124,-0.08017727732658386,-0.0042253462597727776,0.012435102835297585
1772363441540232200,6.777232177734375,-0.03200067376419902,-0.033329438149929044,0.050666357398033136,-0.08346068859100342,0.002598737832158804,0.018095917999744415
1772363441550302000,6.787302001953125,-0.01906140495315194,-0.017968202888965605,0.08869768962860107,-0.08282270282506943,0.0038883285596966743,0.015484249219298363
1772363441560371200,6.79737109375,0.0025767186202108857,0.020108722048997878,0.11801964570283889,-0.07234343141317368,0.004241197369992733,0.01588319055736065
1772363441570441000,6.80744091796875,-0.008903437423706055,0.017961773148179053,0.12358020243942737,-0.058088939636945724,0.011595414951443672,0.02128618396818638
1772363441580510200,6.81751025390625,-0.05472147800773382,-0.01485094765126705,0.10873334644138813,-0.0389072559773922,0.02096894383430481,0.031057855114340782
1772363441590580200,6.827580322265625,-0.04740501751452684,0.004662146592140198,0.11213409479558467,-0.01348494179546833,0.04075033590197563,0.030374936759471893
1772363441600649200,6.837649169921875,0.021355653370171784,0.04793488660752773,0.1137801084369421,0.002517194487154484,0.04699944332242012,0.030468415468931198
1772363441610719200,6.84771923828125,0.05187763288393616,0.03536591241359711,0.07867723087370396,0.005962940864264965,0.04625076428055763,0.026116065680980682
1772363441620788200,6.857788330078125,0.058480684410780664,0.013962474378943442,0.02875263175368309,0.010221068747341633,0.04883136972784996,0.027078265324234962
1772363441630858200,6.867858154296875,0.09159969468042253,0.014193360525369644,0.02459843468368053,0.016098681837320328,0.044868092983961105,0.021135494112968445
1772363441640927000,6.877927001953125,0.13010215155407787,0.010964461606740951,0.05184709161520004,0.01213936135172844,0.038843486458063126,0.01881401613354683
1772363441650997200,6.887997314453125,0.1661615991897881,0.017381342911720273,0.05337327826917171,0.004540754482150078,0.03581670671701431,0.014381423592567444
1772363441661066000,6.89806591796875,0.2062983792670071,0.02881225298643112,0.05875263321995735,-0.0034330151975154877,0.03489045798778534,0.010725169442594051
1772363441671136300,6.90813623046875,0.21485826395004987,0.017875848430395126,0.03137596599459648,-0.01232887152582407,0.031303420662879944,0.00417898315936327
1772363441681205200,6.918205322265625,0.24822131210863588,0.013946107766032218,0.02116904475688934,-0.0198134183883667,0.03195749223232269,-0.007973819971084595
1772363441691275000,6.92827490234375,0.23816315169185398,0.006643091276288032,-0.030468203499913214,-0.02251598611474037,0.025869660079479218,-0.016127049922943115
1772363441701344300,6.93834423828125,0.21630378658324478,0.0019961422532796856,-0.06882102276980877,-0.022857405245304108,0.02492476999759674,-0.027621522545814514
1772363441711414300,6.948414306640625,0.18961510162204503,-0.015126841983199118,-0.07952069596052169,-0.02279813401401043,0.014928262680768967,-0.03576381504535675
1772363441721483300,6.958483154296875,0.18529519259631633,0.018072247785329818,-0.09450082294940948,-0.015778040513396263,0.003055357839912176,-0.04979148134589195
1772363441731553300,6.96855322265625,0.19351269358247516,0.0632335780262947,-0.11373276216387748,-0.0040559908375144005,-0.02096535637974739,-0.059171877801418304
1772363441741622300,6.978622314453125,0.1682975883051753,0.09817103589475154,-0.15177110865712165,0.005442972294986248,-0.04647817462682724,-0.06881199032068253
1772363441751692300,6.9886923828125,0.15108867935091255,0.07317863345742225,-0.11485738227963446,0.01610998809337616,-0.06420858949422836,-0.07368055731058121
1772363441761761300,6.99876123046875,0.1006321653112769,0.002616319978237152,-0.05378185907006264,0.019615238532423973,-0.07269847393035889,-0.07413782179355621
1772363441771831300,7.008831298828125,0.034790158352255816,-0.0361111778229475,0.021586393386125564,0.028401963412761688,-0.0786084234714508,-0.072544626891613
1772363441781900300,7.018900390625,-0.00007847206369042396,-0.04718728311061859,0.126973352009058,0.03183317929506302,-0.07376812398433685,-0.07888854295015335
1772363441791970300,7.02897021484375,-0.03601794658154249,-0.030110476103425023,0.18046353465616702,0.0314004048705101,-0.05780955031514168,-0.07860308140516281
1772363441802039000,7.0390390625,-0.08127338484674691,-0.028554478833079336,0.1411415780931711,0.029910633340477943,-0.05307365208864212,-0.07723022252321243
1772363441812109300,7.049109375,-0.10108458525389433,0.0003179799079895019,0.11278525218069553,0.028459779918193817,-0.05347517505288124,-0.07424840331077576
1772363441822178000,7.059177978515625,-0.12179945650249718,-0.005617839881777763,0.09976970326304435,0.025098338723182678,-0.055424608290195465,-0.07491526007652283
1772363441832248300,7.069248291015625,-0.12412161583974957,-0.007235211950540542,0.11472294224500655,0.014525112695991993,-0.056495942175388336,-0.06716416776180267
1772363441842317300,7.0793173828125,-0.13416267899125814,-0.005027472773194313,0.13064824112951753,0.0029329052194952965,-0.053108666092157364,-0.05863513424992561
1772363441852387000,7.089386962890625,-0.15694076637998222,-0.021411621341109275,0.12620704381167888,-0.012158297002315521,-0.0467502623796463,-0.047355297952890396
1772363441862456300,7.099456298828125,-0.15469167227894068,-0.01831131723821163,0.11768880631327629,-0.021912656724452972,-0.04663627967238426,-0.04056183993816376
1772363441872526000,7.109526123046875,-0.16657865555807946,0.004045475998520851,0.04633621923923492,-0.019091319292783737,-0.043809372931718826,-0.03186669200658798
1772363441882595300,7.11959521484375,-0.22486586322337387,-0.008456862699985504,-0.038624037426710126,-0.010722601786255836,-0.032546330243349075,-0.024123551324009895
1772363441892665000,7.1296650390625,-0.22628858950287103,0.0015478139638900755,-0.06818214034438133,0.003404751420021057,-0.029326317831873894,-0.017033886164426804
1772363441902734300,7.139734375,-0.199183578825742,-0.0007376666247844696,-0.06759761845469474,0.008627742528915405,-0.04019467532634735,-0.004809709265828133
1772363441912804000,7.14980419921875,-0.18353914270922542,-0.0019651625931262967,-0.03648118017911911,0.013559192419052124,-0.04520105570554733,0.005274111405014992
1772363441922873300,7.159873291015625,-0.1545879196435213,-0.010457681128382683,0.02494797877371311,0.021255463361740112,-0.027529649436473846,0.013426313176751137
1772363441932943400,7.169943359375,-0.11063947232365608,-0.005486322456598282,0.05461655632853508,0.017281999811530113,-0.010665375739336014,0.024199489504098892
1772363441943012400,7.180012451171875,-0.07899579530358314,-0.014366379004716873,0.04058920001983642,0.012773001566529274,0.001767059788107872,0.02610125206410885
1772363441953082400,7.190082275390625,-0.05668371799141168,-0.0038648587346076964,-0.0006394669473171234,0.0032510608434677124,0.0015483140014111996,0.022820476442575455
1772363441963151000,7.200151123046875,-0.05238879727646708,-0.00904606076478958,-0.07200783611238003,-0.008591749705374241,-0.011874018236994743,0.022514212876558304
1772363441973221400,7.210221435546875,-0.015117781893908977,-0.000893149447441101,-0.05805354503989219,-0.016231708228588104,-0.01975158043205738,0.0191002506762743
1772363441983290000,7.2202900390625,0.058587944177538154,0.027863573959469794,0.017203648257255552,-0.0290156789124012,-0.025727715343236923,0.017743371427059174
1772363441993360400,7.2303603515625,0.08638517490252852,0.004939794489741325,0.03974222780168056,-0.037372056394815445,-0.02326255291700363,0.021305182948708534
1772363442003429000,7.24042919921875,0.09707491122111678,-0.006450199052691459,-0.012012509354948997,-0.04828276112675667,-0.018571127206087112,0.017346926033496857
1772363442013499100,7.2504990234375,0.10581906642988323,-0.014053075271844863,-0.05623743552863598,-0.05321221798658371,-0.012642872519791126,0.019044646993279457
1772363442023568100,7.260568115234375,0.08740604238286614,-0.00920037454366684,-0.07098959898054599,-0.05577816814184189,-0.013019444420933723,0.010864481329917908
1772363442033638100,7.27063818359375,0.07564750778898596,0.027185528567433354,-0.03790858263373375,-0.048741914331912994,-0.010060125961899757,0.005854478105902672
1772363442043707100,7.28070703125,0.060992374970763916,0.04138239622414112,0.014602525848150253,-0.04101661965250969,-0.005110906902700663,-0.0023808148689568043
1772363442053777200,7.290777099609375,0.06777502084821463,0.031605683097243306,0.009864391410350799,-0.024182135239243507,-0.005718193016946316,-0.0073442403227090836
1772363442063846400,7.300846435546875,0.07761793107911943,0.013420038065314293,0.02420212884247303,-0.004524012096226215,-0.007323546335101128,-0.010938175953924656
1772363442073916200,7.310916259765625,0.05440525166541338,-0.008192074283957481,0.038109658163785934,0.010897679254412651,-0.00985199585556984,-0.007012696471065283
1772363442083985400,7.3209853515625,0.06301029066443443,0.007473112359642982,0.08873919068276882,0.023639308288693428,-0.00503939762711525,-0.007590602617710829
1772363442094055200,7.33105517578125,0.05543401019126176,0.011889759758114814,0.13395663502514363,0.028039444237947464,0.0023111915215849876,-0.010865535587072372
1772363442104124400,7.34112451171875,0.034328970581293104,0.030906010395288466,0.13744681522846222,0.03518284112215042,0.009412243962287903,-0.010286564007401466
1772363442114194200,7.351194091796875,0.014057897577434777,0.010430208599567413,0.07898118225634097,0.033276814967393875,0.009894602000713348,-0.011989124119281769
1772363442124263200,7.36126318359375,0.03356748468950391,0.008290858483314513,0.021012392890453337,0.0338406041264534,0.003940306603908539,-0.014873061329126358
1772363442134333200,7.371333251953125,0.057466977323591704,0.014939210456609725,-0.0068622869849205015,0.03762524574995041,0.0035735187120735645,-0.009235040284693241
1772363442144402200,7.381402099609375,0.058899640475213524,0.04632102167010307,-0.04082183973193168,0.039051905274391174,0.00466195261105895,-0.013970141299068928
1772363442154472400,7.391472412109375,0.07406944481730461,0.05964169101417064,-0.08941314442157745,0.0342264398932457,0.0005220817402005196,-0.012600807473063469
1772363442164541200,7.401541259765625,0.06016366906166076,0.02075169612765312,-0.11370879676640033,0.024120541289448738,-0.008058889769017696,-0.016866125166416168
1772363442174611500,7.411611572265625,0.05787453521117568,-0.000009936872124671935,-0.12045242580771445,0.01633811742067337,-0.011883564293384552,-0.018448060378432274
1772363442184680200,7.42168017578125,0.05017930453345179,-0.014271686458587646,-0.10587211179137229,0.0015043113380670547,-0.020688243210315704,-0.020137568935751915
1772363442194750200,7.431750244140625,0.03481777701154351,-0.00985036288499832,-0.07632394574582577,-0.010541924275457859,-0.030742771923542023,-0.024678343906998634
1772363442204819200,7.441819091796875,0.056643970502913,0.01961363200843334,-0.013417699977755547,-0.016134031116962433,-0.02933582291007042,-0.027504490688443184
1772363442214889200,7.45188916015625,0.020631576879322527,0.022532734325528145,0.018742109870910642,-0.021741315722465515,-0.022269923239946365,-0.024063417688012123
1772363442224958200,7.461958251953125,-0.035614480347186325,-0.012065700846910476,-0.03052022594809532,-0.023180222138762474,-0.015290310606360435,-0.023882323876023293
1772363442235028200,7.4720283203125,-0.04002294443920255,-0.03662438804209232,-0.04590542660653591,-0.027398543432354927,-0.01898437738418579,-0.02368849888443947
1772363442245097200,7.48209716796875,-0.05009484112039208,-0.05092003989815712,0.022138766571879385,-0.03161139786243439,-0.01759074628353119,-0.021487398073077202
