time,seconds_elapsed,accel_x,accel_y,accel_z,gyro_x,gyro_y,gyro_z
1772364969609874400,0.12087451171875,0.19538630543462931,-0.06379296547472477,-0.40750703417956824,0.025556568056344986,0.0447654128074646,0.0654960572719574
1772364969619944400,0.1309443359375,0.25858862980613484,0.0012257424026727675,-0.2344914774417877,0.015180358663201332,0.021259285509586334,0.06046081706881523
1772364969630014500,0.141014404296875,0.2742467473881319,0.09951368267536163,-0.04854454293847084,-0.005722437519580126,0.019431952387094498,0.041966866701841354
1772364969640085500,0.15108544921875,0.2528975237587467,0.2062719296514988,0.12084756260514258,-0.022664137184619904,0.022968629375100136,0.030158676207065582
1772364969650155500,0.161155517578125,0.2150899538140744,0.24637071580588815,0.1271077920436859,-0.02028246596455574,0.023551564663648605,0.014198455959558487
1772364969660225300,0.171225341796875,0.20604044071687383,0.25008885954618454,0.05337035565972328,-0.005430815741419792,0.03584445267915726,0.00491973664611578
1772364969670295600,0.181295654296875,0.25667348036719484,0.2303179911494255,-0.026381226447224616,0.0063545554876327515,0.041813284158706665,0.013303902931511402
1772364969680366600,0.19136669921875,0.2555479652022943,0.1158364564448595,-0.07302431967854499,0.015716364607214928,0.037657156586647034,0.007050001993775368
1772364969690436600,0.2014365234375,0.2748874747107737,0.004827566286921501,-0.06673018797039985,0.017486557364463806,0.045632850378751755,-0.0029378579929471016
1772364969700506400,0.21150634765625,0.3499478850604966,0.09014847295880317,0.015184709650278091,0.007416081614792347,0.05202550068497658,0.0073757655918598175
1772364969710576600,0.22157666015625,0.2753611749034375,0.025126842471957206,0.12083178051412105,-0.002389141358435154,0.07477445900440216,0.00418433640152216
1772364969720646400,0.231646484375,0.2129135596230626,-0.05832417867481708,0.12936404653787612,-0.005793992429971695,0.0859283059835434,0.019217614084482193
1772364969730717400,0.241717529296875,0.1804259243258275,-0.060933484390378,0.1695019956588745,0.0037258416414260864,0.09201624989509583,0.015434589236974716
1772364969740787500,0.251787353515625,0.149626643974334,-0.13840718469321728,0.044104514664411544,0.010470297187566757,0.08204697072505951,0.01991509273648262
1772364969750857500,0.261857421875,0.20975323242861776,-0.06488017618954181,-0.015790274327993393,0.02628726325929165,0.05546698346734047,0.021043255925178528
1772364969760927500,0.271927490234375,0.20688005161248146,-0.03198737589120865,-0.1439221487224102,0.040104277431964874,0.026269949972629547,0.010852934792637825
1772364969770997500,0.28199755859375,0.20078845673911272,0.11976035189032554,-0.21338789913654327,0.05853316932916641,0.024384858086705208,0.00788431242108345
1772364969781068500,0.292068603515625,0.20003391204476356,0.19808979223966597,-0.19407412685751912,0.06769417971372604,0.032857172191143036,0.005967102944850922
1772364969791138300,0.30213818359375,0.1639655139176175,0.177792854142189,-0.11254442916214466,0.07279100269079208,0.03566575422883034,0.005889992695301771
1772364969801208600,0.31220849609375,0.16537559991125017,0.13374211549162865,-0.061304655790328975,0.07473457604646683,0.0208244901150465,-0.0009881528094410896
1772364969811278600,0.322278564453125,0.21349632794708012,0.14022738585770128,-0.04810264438986778,0.06258239597082138,0.017723632976412773,0.0016237152740359306
1772364969821349400,0.332349365234375,0.2101530454011634,0.07266483871638775,-0.002743161228299141,0.05271404981613159,0.02125232107937336,0.003311626613140106
1772364969831419400,0.34241943359375,0.12898401597803458,-0.1273608900219202,-0.007209492987394333,0.03822379559278488,0.01804247312247753,0.0026351758278906345
1772364969841489700,0.35248974609375,0.14829035386927425,-0.0872194337695837,0.04783376432061195,0.02432582713663578,-0.0023813091684132814,0.0036245398223400116
1772364969851559400,0.362559326171875,0.1794642944857478,-0.08291033839881419,0.028575521621108053,0.013713490217924118,-0.010974965989589691,-0.0017841309309005737
1772364969861629400,0.37262939453125,0.2059544794664718,0.012971709775924682,0.0245475812792778,0.0016549639403820038,-0.01445571705698967,-0.0053455764427781105
1772364969871700500,0.382700439453125,0.21271087665781377,0.12996844217181205,0.00004676175117492675,-0.001419123262166977,-0.019728776067495346,0.0002840803936123848
1772364969881770500,0.3927705078125,0.1554261970985681,0.07811433629393577,-0.1078501338660717,-0.0017416318878531456,-0.029832808300852776,0.0012382911518216133
1772364969891840500,0.402840576171875,0.14063171974173747,-0.01858019730746746,-0.14371113632023333,-0.011061910539865494,-0.028059855103492737,-0.003712303936481476
1772364969901910500,0.41291064453125,0.19071973839569836,-0.052905660757422444,-0.07033844159543513,-0.020621860399842262,-0.03536437079310417,-0.003639332950115204
1772364969911981600,0.422981689453125,0.21679836516715584,0.009478022441267967,-0.04628302774727344,-0.020183313637971878,-0.041819825768470764,-0.012601196765899658
1772364969922051300,0.43305126953125,0.19489698754772541,0.08420914603769779,-0.07678104186356068,-0.01651640608906746,-0.0551723837852478,-0.009556138888001442
1772364969932121600,0.44312158203125,0.16911432978184893,0.07551146031916141,-0.06015314766764641,-0.00784575566649437,-0.05115123093128204,-0.012820440344512463
1772364969942191600,0.453191650390625,0.13680228851353748,0.050882630497217175,-0.08125555692911147,0.004752062261104584,-0.037269771099090576,-0.011505105532705784
1772364969952261400,0.463261474609375,0.11359034888534807,0.08450432959198952,0.0563584315598011,0.007526092231273651,-0.028362400829792023,-0.0051667774096131325
1772364969962332400,0.47333251953125,0.10005736109800636,0.04483750511407852,0.11387070932984351,0.007912516593933105,-0.01764610782265663,0.002993946895003319
1772364969972402700,0.483402587890625,0.09206017919848672,-0.009207388806343078,0.15928338398337363,0.007319677621126175,-0.002816853579133749,0.013398289680480957
1772364969982472400,0.493472412109375,0.1160974272022955,-0.07441314368844032,0.20579963596463202,0.006618732586503029,0.013207120820879936,0.01859598234295845
1772364969992542500,0.50354248046875,0.1501184917450417,-0.038186230531334873,0.2277940256297588,0.00702035054564476,0.02420496568083763,0.01797226071357727
1772364970002612500,0.513612548828125,0.1639186243022792,0.04204465952515602,0.22671733630895613,0.009077908471226692,0.049380093812942505,0.01911741867661476
1772364970012683300,0.523683349609375,0.1646346088182181,0.06381108565330505,0.2154723041951656,0.011486014351248741,0.06951381266117096,0.029872659593820572
1772364970022753500,0.53375341796875,0.14880876998649908,0.045237902608513826,0.18805588948130605,0.015821373090147972,0.07879173010587692,0.029892098158597946
1772364970032823600,0.543823486328125,0.16581863097101449,-0.00878770208954811,0.10487900910079478,0.015119010582566261,0.07650885730981827,0.014254496432840824
1772364970042893300,0.553893310546875,0.25242424369119104,0.08196633554697036,0.017845453292131424,0.02666887268424034,0.09477042406797409,0.01931823045015335
1772364970052964400,0.56396435546875,0.2772123191954568,0.29641280382573604,0.03073766809105873,0.03297293931245804,0.08098478615283966,0.008026954717934132
1772364970063034600,0.57403466796875,0.1423012055902276,0.1061596965610981,-0.09496025715470313,0.037642523646354675,0.07082456350326538,0.00362581480294466
1772364970073104400,0.5841044921875,0.21303660148084164,0.12240122178792953,-0.12508885343670845,0.03085562214255333,0.03387076407670975,0.008230537176132202
1772364970083174400,0.59417431640625,0.20615807574717326,0.07060673714280129,-0.15534487549066542,0.03042738512158394,0.010316168889403343,-0.0006210114806890488
1772364970093244700,0.60424462890625,0.18438651678618043,0.005084171396493912,-0.1878448770791292,0.016795817762613297,-0.0006219558417797089,0.0021444689482450485
1772364970103315700,0.614315673828125,0.21086192432288078,0.06477320868372917,-0.07479191387295722,0.002931934781372547,-0.025566186755895615,-0.00017194822430610657
1772364970113385500,0.624385498046875,0.1813801745770499,-0.07208616204559802,-0.10628244615793228,-0.011847005225718021,-0.038769785314798355,-0.0033787721768021584
1772364970123455500,0.63445556640625,0.2236907550293952,-0.036330958053469656,-0.06380524043440819,-0.027350865304470062,-0.04253442957997322,-0.009051571600139141
1772364970133525500,0.644525390625,0.23523126295842228,0.023761399337649345,0.027844284737110137,-0.04324113577604294,-0.029872223734855652,-0.011167778633534908
1772364970143596300,0.65459619140625,0.20781159684155134,0.03818213887810707,0.10181845248639583,-0.0507776141166687,-0.015310591086745262,-0.017780672758817673
1772364970153666600,0.66466650390625,0.206301466273237,0.028975919115543362,0.13240356036424636,-0.05501800402998924,-0.011109375394880772,-0.020496129989624023
1772364970163736600,0.674736572265625,0.1790808846587315,0.001665302863717079,0.0723614718556404,-0.05277721956372261,-0.019229087978601456,-0.01818637177348137
1772364970173806300,0.684806396484375,0.13143481579679064,-0.007572481080889701,-0.04914484691917896,-0.032896194607019424,-0.028602704405784607,-0.012568057514727116
1772364970183876600,0.694876708984375,0.12012851848243734,-0.011741875720024109,-0.13701251546442508,-0.013606120832264423,-0.028845317661762238,-0.011236476711928844
1772364970193947600,0.70494775390625,0.11540148082738741,-0.011077858853340148,-0.1276829615831375,0.007373021915555,-0.030074268579483032,-0.009748357348144054
1772364970204017400,0.715017333984375,0.12702229658416472,0.02922317187488079,-0.0838473269879818,0.01831967942416668,-0.032444749027490616,-0.007086263038218021
1772364970214087400,0.72508740234375,0.14845876010558567,0.06669862378835678,-0.05121463893055916,0.025293175131082535,-0.03537694737315178,-0.0022750534117221832
1772364970224157700,0.73515771484375,0.15901351753342896,0.10229483782649039,-0.02233107427358627,0.021984465420246124,-0.035484008491039276,0.00008796900510787964
1772364970234227500,0.7452275390625,0.16693406313331796,0.10879062958657741,0.05287292753159999,0.009409807622432709,-0.03275580704212189,0.00021745730191469193
1772364970244298500,0.755298583984375,0.15390797455534339,0.050474049696326254,0.11531973909437655,-0.0036367513239383698,-0.02682281658053398,-0.001515994779765606
1772364970254368500,0.765368408203125,0.1452452962181065,-0.01146948851943016,0.1438654500991106,-0.014510244131088257,-0.006010578013956547,-0.0012502213940024376
1772364970264438300,0.775438232421875,0.136620346942218,-0.030700258690118786,0.14651801043450832,-0.020264269784092903,0.013889627531170845,-0.00031225569546222687
1772364970274508500,0.785508544921875,0.14592830091305076,-0.028207857352495192,0.10773439853191374,-0.020419105887413025,0.017121097072958946,0.002034268341958523
1772364970284578600,0.79557861328125,0.231781743559055,0.0022901567637920377,-0.0002829085946083069,-0.022999443113803864,0.002536563202738762,0.011923650279641151
1772364970294649600,0.805649658203125,0.2661775870977901,-0.01414952138364315,-0.13336159174144266,-0.030138306319713593,-0.006922244559973478,0.016779333353042603
1772364970304719400,0.81571923828125,0.25105832563284786,-0.024586159723997116,-0.16585750167667865,-0.041101742535829544,-0.0135111715644598,0.013645058497786522
1772364970314789600,0.82578955078125,0.24597453782884401,-0.03087619977891445,-0.09110942694544792,-0.04880803823471069,-0.01680179312825203,0.01263720914721489
1772364970324859400,0.835859375,0.26913009849414227,-0.013590718457102774,-0.06909633257985115,-0.045519836246967316,-0.007539053447544575,0.0034889853559434414
1772364970334933800,0.845933837890625,0.2998627981491387,0.046262569481134413,-0.06514028843045234,-0.03883592039346695,-0.0042754774913191795,-0.00047150813043117523
1772364970345003500,0.85600341796875,0.3212465816352516,0.10768939034640788,-0.04690086738467216,-0.025047404691576958,0.0016103750094771385,-0.008047401905059814
1772364970355073800,0.86607373046875,0.30611816874947395,0.14949965659379957,-0.08957096533179283,-0.013781356625258923,-0.0057541136629879475,-0.011155516840517521
1772364970365143800,0.876143798828125,0.2576988230932504,0.14549275903999806,-0.13247662560045717,-0.0054312814027071,-0.011871394701302052,-0.012257532216608524
1772364970375213600,0.886213623046875,0.197871802107431,0.06987082408368588,-0.15667758539915083,-0.003736533224582672,-0.01564137451350689,-0.013365726917982101
1772364970385284600,0.89628466796875,0.1656066687207669,-0.00047872342765331263,-0.1372948395371437,0.0029029930010437965,-0.013387808576226234,-0.015326611697673798
1772364970395354600,0.906354736328125,0.20671569136362522,-0.03440028225183487,-0.08267419155538082,0.004675067029893398,-0.006694011390209198,-0.01704441010951996
1772364970405424600,0.916424560546875,0.25578330832812934,-0.0007400047123432159,-0.022892215287685393,0.0023541226983070374,-0.0047088912688195705,-0.010028845630586147
1772364970415494700,0.92649462890625,0.23952682299418374,0.06083703827857971,0.0028629882156848904,0.004793839529156685,0.0017651640810072422,-0.016919396817684174
1772364970425564700,0.936564697265625,0.19787909036474302,0.08169102573692798,-0.004338321465253829,0.007873784750699997,-0.004365698900073767,-0.010742728598415852
1772364970435635700,0.9466357421875,0.18809225770263,0.08236673304140567,-0.032653730845451354,0.0044351136311888695,-0.023331016302108765,-0.008995109237730503
1772364970445705700,0.956705810546875,0.18806056565642357,0.04401566733717918,-0.0946744259506464,-0.0006097126752138138,-0.04191162437200546,-0.009626013226807117
1772364970455775700,0.966775634765625,0.19517576795648783,0.05419160891473293,-0.08877776912748814,-0.010464830324053764,-0.038514889776706696,-0.012303394265472889
1772364970465845500,0.976845458984375,0.22337788968794048,0.10821955170035362,0.031602760487794875,-0.014499785378575325,-0.022632863372564316,-0.01727338507771492
1772364970475916500,0.98691650390625,0.22984728663144632,0.11688508871495723,0.11770868005752563,-0.023142091929912567,-0.01776597648859024,-0.018427018076181412
1772364970485986800,0.99698681640625,0.23197982341442255,0.0991314053595066,0.10568155765533446,-0.02718397229909897,-0.02323451079428196,-0.01937457174062729
1772364970496056800,1.007056884765625,0.23391090107485651,0.059932198393344877,0.012834347131848334,-0.031447429209947586,-0.027120446786284447,-0.0172792486846447
1772364970506126600,1.017126708984375,0.20981988619035108,0.006350245809555053,-0.01850479398369789,-0.03351404145359993,-0.033424682915210724,-0.020208723843097687
1772364970516196600,1.027196533203125,0.20058274156656114,-0.04182020311951637,0.0051630818516016,-0.03986773267388344,-0.029895659536123276,-0.01909993775188923
1772364970526267600,1.037267578125,0.2066564902559854,-0.06441957294046878,0.04632920497655868,-0.04172475263476372,-0.024973072111606598,-0.02000141702592373
1772364970536337700,1.047337646484375,0.24134949011038986,-0.0715425566881895,0.08778700452446937,-0.036884989589452744,-0.020617621019482613,-0.018871385604143143
1772364970546407700,1.05740771484375,0.2729162659693509,-0.025002339309453964,0.09599719898700713,-0.02596629410982132,-0.022064249962568283,-0.017368564382195473
1772364970556477700,1.067477783203125,0.24628064463594926,0.04663140279352665,0.05832359415292739,-0.01381917018443346,-0.024162977933883667,-0.022018445655703545
1772364970566547700,1.077547607421875,0.196317777598463,0.1147387243360281,0.009985387441515921,-0.0014668963849544525,-0.028181154280900955,-0.020981410518288612
1772364970576618800,1.08761865234375,0.1685000520747155,0.11138064607977867,0.005067804783582687,0.0038149431347846985,-0.022607073187828064,-0.020286906510591507
1772364970586688800,1.097688720703125,0.1796610774331726,0.08092179493010043,0.019859131202101706,0.004100967198610306,-0.017506852746009827,-0.020639773458242416
1772364970596758500,1.107758544921875,0.19136895955204963,0.03434767528176307,0.07093523844480513,0.001909010112285614,-0.007413786370307207,-0.023456068709492683
1772364970606828800,1.117828857421875,0.23014462561020627,0.05867839893996715,0.10055763877034186,-0.003565116785466671,-0.006751724518835545,-0.016851963475346565
1772364970616898800,1.12789892578125,0.23143651031795887,0.07839724488854408,0.07984685917496681,-0.00563190970569849,-0.0038110241293907166,-0.012203999795019627
1772364970626969900,1.137969970703125,0.20664025150723755,0.07357669286429881,0.04446458014845848,-0.004384218715131283,-0.0032003612723201513,-0.013166998513042927
1772364970637039600,1.14803955078125,0.23710578812602906,0.060924716562032695,0.0241162041246891,-0.004829312674701214,-0.0008110692724585533,-0.010178140364587307
1772364970647109600,1.158109619140625,0.2767675345700234,0.07520517084896564,0.018742109870910642,-0.0024630939587950706,-0.006518223322927952,-0.009071064181625843
1772364970657179600,1.1681796875,0.2938951584490016,0.06764905638098716,-0.03608721242547035,0.0016709240153431892,-0.0038335509598255157,-0.010925416834652424
1772364970667250700,1.178250732421875,0.29236601265296336,0.061350833019614213,-0.08194003206193447,0.0047287652269005775,0.0018802611157298088,-0.01030223723500967
1772364970677320700,1.18832080078125,0.29379036463396624,0.03880991538763046,-0.07468085471391678,0.009454291313886642,-0.0015689169522374868,-0.012120227329432964
1772364970687390700,1.198390625,0.2992066723279655,0.008550970724225044,-0.08666764510571956,0.004966067150235176,-0.012374160811305046,-0.015419085510075092
1772364970697460700,1.208460693359375,0.32910204437598584,0.01663432393670082,-0.11793489002883434,0.007117888890206814,-0.018653273582458496,-0.016344578936696053
1772364970707530800,1.21853076171875,0.3158924341909587,0.02566518713235855,-0.1362491298764944,0.00559163186699152,-0.025881092995405197,-0.02428346313536167
1772364970717601800,1.228601806640625,0.31676099718641487,0.05586334151923656,-0.10628186163604258,0.007541864179074764,-0.02860790304839611,-0.034045010805130005
1772364970727671600,1.238671630859375,0.3148512180423364,0.09128244542479515,-0.09022387628257274,0.004369507543742657,-0.03077438473701477,-0.04118414968252182
1772364970737741800,1.248741943359375,0.3050121254700236,0.11704524771273135,-0.05089315189123153,-0.004926078021526337,-0.031549904495477676,-0.04968581348657608
1772364970747811800,1.258811767578125,0.2711839257514104,0.0988525884181261,0.0034060090512037277,-0.019963882863521576,-0.026715204119682312,-0.05083043873310089
1772364970757881600,1.268881591796875,0.2083473111534491,0.006771686092019081,0.03447393200993538,-0.03549126535654068,-0.03165271133184433,-0.05075725540518761
1772364970767952600,1.27895263671875,0.18401125373300165,-0.05081482595801353,0.05316577299833297,-0.041058603674173355,-0.01889537274837494,-0.049132462590932846
1772364970778022700,1.289022705078125,0.1470650315917097,-0.04923369424641132,0.08707622590661049,-0.0375228226184845,0.0011295443400740623,-0.042462144047021866
1772364970788092700,1.2990927734375,0.10679751040744595,-0.050469958043098444,0.0994143139541149,-0.026610784232616425,0.017065633088350296,-0.03357171267271042
1772364970798162700,1.30916259765625,0.11826081578126177,-0.015288170024752615,0.029002807122468947,-0.0073774284683167934,0.017982354387640953,-0.025319645181298256
1772364970808232700,1.319232666015625,0.09263071822859346,0.022089082211256026,-0.040375265008211134,0.01957695558667183,0.0189935564994812,-0.016212699934840202
1772364970818303500,1.329303466796875,0.055762493226956575,0.041317514294385904,-0.10520809492468833,0.042008932679891586,0.018788689747452736,-0.01077963411808014
1772364970828373800,1.339373779296875,0.051510242609959095,0.07763444382250309,-0.1040595094114542,0.05165144056081772,0.016011545434594154,-0.001955249346792698
1772364970838443800,1.34944384765625,0.06488510809298605,0.08127426162958144,-0.06289572437405586,0.05022549629211426,0.013028023764491081,0.00614779070019722
1772364970848513500,1.359513427734375,0.09742209895728156,0.058519993507862085,0.006381809991598129,0.03489553928375244,0.015502633526921272,0.013264290057122707
1772364970858583800,1.369583740234375,0.09060458269584923,-0.014044891965389251,0.10845686758756637,0.008905148133635521,0.023453345522284508,0.016020063310861588
1772364970868654800,1.37965478515625,0.09716854432132095,-0.06571195083856582,0.17000877613723278,-0.014553839340806007,0.032884396612644196,0.01903449557721615
1772364970878724900,1.389724853515625,0.12670355862434954,-0.07415420049130916,0.16795301265120505,-0.023149114102125168,0.05464491993188858,0.016739925369620323
1772364970888794600,1.399794677734375,0.16634329416593535,-0.035948096215724944,0.12221242121756076,-0.026373669505119324,0.05940478667616844,0.02248968929052353
1772364970898864600,1.40986474609375,0.20666299306200817,0.03153320238292217,0.015153145468235015,-0.02246379479765892,0.04519109055399895,0.02215689979493618
1772364970908935700,1.419935791015625,0.24508968128571285,0.0724532417923212,-0.15413842231035232,-0.019844043999910355,0.021343018859624863,0.02383309230208397
1772364970919005700,1.430005615234375,0.2636117186651565,0.06259235751330852,-0.2255506306171417,-0.02449347823858261,-0.0045298682525753975,0.01738286390900612
1772364970929075700,1.44007568359375,0.2720756504267454,0.031600422400236125,-0.19645663807988165,-0.03675733506679535,-0.021883292123675346,0.010158240795135498
1772364970939145700,1.450145751953125,0.3070926032721996,0.04247311407029628,-0.09770575647056103,-0.04758770391345024,-0.016586363315582275,0.00398935005068779
1772364970949215700,1.4602158203125,0.3057103368672542,0.07042962701022625,0.015014029258489608,-0.04992329701781273,-0.007963581010699272,-0.00521453469991684
1772364970959286800,1.470286865234375,0.2892832259404473,0.11358663169145583,0.05330547372996807,-0.038301076740026474,-0.011383799836039543,-0.010264318436384201
1772364970969356800,1.480356689453125,0.2721808278342709,0.1341366677671671,-0.008867197066545486,-0.016055427491664886,-0.01642409898340702,-0.009323423728346825
1772364970979426600,1.490426513671875,0.21958291785176842,0.09705226099789142,-0.1421101308643818,0.0067193033173680305,-0.0249741580337286,-0.011438397690653801
1772364970989496800,1.500496826171875,0.17733055212637408,0.03156710465252399,-0.19148060323297977,0.032166872173547745,-0.03609471768140793,-0.012609388679265976
1772364970999566800,1.51056689453125,0.19317124146735296,0.025751696372032163,-0.1303372754842043,0.04733961075544357,-0.0340343602001667,-0.011787643656134605
1772364971009637600,1.5206376953125,0.1933176459344104,0.046508068674802776,-0.031027006426453587,0.05744018033146858,-0.025746602565050125,-0.01392270065844059
1772364971019707600,1.530707763671875,0.17384212548872455,0.04398293411135673,0.062355626147985455,0.05960320681333542,-0.010105354711413383,-0.01375348586589098
1772364971029777700,1.540777587890625,0.17658561551058663,0.021280103915929792,0.1267500646471977,0.05895259231328964,-0.0036130999214947224,-0.0034382641315460205
1772364971039847700,1.55084765625,0.1806020115450956,0.012994506129622458,0.12566285393238066,0.05370980501174927,-0.003431186079978943,-0.0027212323620915413
1772364971049917700,1.560917724609375,0.15651099666059015,-0.07252922963798046,0.0675648852288723,0.05087966471910477,-0.004751314874738455,-0.002248520962893963
1772364971059988700,1.57098876953125,0.1750163568998687,-0.01142681842148304,0.04045183737576007,0.0440710224211216,-0.015475303865969181,-0.0031839273869991302
1772364971070058500,1.58105859375,0.20012263150783255,0.016654197680950163,0.013539865052700042,0.029722176492214203,-0.021896183490753174,-0.0020310450345277786
1772364971080128800,1.591128662109375,0.18149333436163143,0.04864858783483505,0.026022330006957053,0.014710205607116222,-0.01743127591907978,-0.0021553635597229004
1772364971090198800,1.60119873046875,0.16733413183419032,0.048341713842749594,0.047317631492018696,-0.0012226877734065056,-0.019801754504442215,-0.0015260586515069008
1772364971100268500,1.6112685546875,0.18237609027922153,0.02482347561120987,0.038825697478652,-0.011487309820950031,-0.035572197288274765,-0.004898419603705406
1772364971110339600,1.621339599609375,0.21007968790400772,-0.01956102503836155,-0.037809798434376714,-0.017780093476176262,-0.05203079804778099,-0.008428174071013927
1772364971120409600,1.63140966796875,0.22265059832669792,0.002599368843436241,-0.0793202049523592,-0.026227816939353943,-0.0626486986875534,-0.013524822890758514
1772364971130479900,1.64147998046875,0.2164694254737347,0.04967500827312469,-0.06351531757712364,-0.026714377105236053,-0.05624698847532272,-0.020707901567220688
1772364971140549600,1.651549560546875,0.20676102834269403,0.06282032105028629,-0.005306289714574814,-0.031514015048742294,-0.05052037164568901,-0.021215125918388367
1772364971150619600,1.66161962890625,0.1866909943362698,0.0333271000623703,0.050264790859818456,-0.030752353370189667,-0.05143623426556587,-0.017003070563077927
1772364971160690700,1.671690673828125,0.16033819026593119,-0.03913023338317871,0.021350246542692183,-0.02233259379863739,-0.05289601534605026,-0.01125724520534277
1772364971170760700,1.6817607421875,0.14112551287435926,-0.1033183356553316,0.003426467317342758,-0.014481860212981701,-0.04866025596857071,-0.004477635957300663
1772364971180830700,1.691830810546875,0.15759164977045728,-0.13654723604023455,0.023059388548135756,-0.005264839623123407,-0.04105500131845474,0.007469414733350277
1772364971190900700,1.701900634765625,0.15052362934667615,-0.1462093828767538,0.07184884615838527,-0.009042534045875072,-0.024571366608142853,0.009052397683262825
1772364971200970800,1.711970703125,0.1610853005724959,-0.08810439991056919,0.1538297947525978,-0.0223153717815876,-0.05000297352671623,0.014909114688634872
1772364971211041800,1.722041748046875,0.23132157870139924,-0.1224725334584713,0.09415127885937691,-0.010956192389130592,-0.05436762794852257,0.030828159302473068
1772364971221111800,1.73211181640625,0.17591575342500582,-0.05082710091769695,0.051363107490539545,-0.006741739809513092,-0.003570227650925517,0.018784545361995697
1772364971231181600,1.742181640625,0.024293012863164765,0.04109247336685657,0.2055956378251314,-0.020137973129749298,0.018883150070905685,0.01260867528617382
1772364971241251600,1.75225146484375,0.19434823109116403,0.02162672539651394,0.2611135269075632,-0.01971772499382496,0.0008961870335042477,0.012323345057666302
1772364971251321900,1.76232177734375,0.3046284416483715,0.046209962511062616,0.08778758904635905,-0.020710285753011703,-0.013809522613883018,0.016751116141676903
1772364971261392600,1.772392578125,0.27233559827087445,0.018842647635936734,0.015807225462794304,-0.021186277270317078,-0.008496636524796486,0.01667771302163601
1772364971271462700,1.782462646484375,0.2587792204747908,0.007111877831816673,0.01218143618106842,-0.012696119025349617,-0.0018845407757908106,0.01415916159749031
1772364971281532700,1.79253271484375,0.28257483260929583,0.045184126594662664,0.007230535775423049,-0.0007224557921290398,-0.006750954315066338,0.008085714653134346
1772364971291602700,1.802602783203125,0.3005288973750546,0.07293897948265075,-0.036382395979762075,0.0075178975239396095,-0.005347468890249729,0.0029759081080555916
1772364971301672700,1.812672607421875,0.3003097199327312,0.10865443598628044,-0.035575171250104905,0.014192129485309124,-0.008777315728366375,-0.0018673669546842575
1772364971311743700,1.82274365234375,0.26702892496380953,0.1012970589607954,-0.049347676014900206,0.02016346901655197,-0.009580790996551514,-0.009436337277293205
1772364971321813800,1.832813720703125,0.24535918240947646,0.08728782283067703,-0.06833762316703795,0.006909980438649654,-0.020752960816025734,-0.01485874317586422
1772364971331883800,1.8428837890625,0.24678609167374668,0.040520810958743096,-0.016498130336403845,-0.004630561918020248,-0.054279498755931854,-0.010402210056781769
1772364971341953800,1.852953857421875,0.23477343618832527,-0.03655775254666805,-0.13587152873575686,-0.005806522909551859,-0.06726978719234467,-0.0182342492043972
1772364971352023600,1.8630234375,0.232723371790722,-0.0408037195533514,-0.10146130961179732,-0.011561080813407898,-0.055723391473293304,-0.022528065368533134
1772364971362094600,1.873094482421875,0.24841822292022406,-0.015538345393538475,0.07827391076982021,-0.0250430665910244,-0.04797252640128136,-0.02767941541969776
1772364971372164600,1.88316455078125,0.24180992896268144,0.0000637128859758377,0.14462532855570315,-0.04227984696626663,-0.057766567915678024,-0.030173731967806816
1772364971382235000,1.89323486328125,0.22918697782550007,-0.015191139391064644,0.11778174529373645,-0.059364378452301025,-0.06137430667877197,-0.025291092693805695
1772364971392304600,1.9033046875,0.19402363877929746,-0.06652034461200237,0.09957096582055092,-0.06392104923725128,-0.04938261955976486,-0.02682507410645485
1772364971402374700,1.913374755859375,0.197085784562584,-0.08980185147821902,0.11024024387300013,-0.06696104258298874,-0.03412223234772682,-0.02871757186949253
1772364971412445700,1.92344580078125,0.21862077655503526,-0.07077215683758259,0.11992167993187904,-0.05818406492471695,-0.0266435444355011,-0.029459526762366295
1772364971422515700,1.933515625,0.22177399815525858,-0.0433177482008934,0.041697453522682185,-0.037924688309431076,-0.02972453646361828,-0.02308887243270874
1772364971432585700,1.943585693359375,0.21173593067843466,-0.0008574936121702193,-0.04584989702701568,-0.00981502328068018,-0.030741332098841667,-0.02339513599872589
1772364971442655700,1.95365576171875,0.19249210009677334,0.030747604963183402,-0.08410919279456137,0.017906617373228073,-0.03799353539943695,-0.02150876633822918
1772364971452725800,1.963725830078125,0.18493366580754517,0.0881739580154419,-0.13423895909786224,0.038497913628816605,-0.04556863009929657,-0.02319161780178547
1772364971462796800,1.973796875,0.2026500128272921,0.13284955056607722,-0.15887772579193113,0.043591927736997604,-0.06033098325133324,-0.02667093463242054
1772364971472866800,1.98386669921875,0.2036965627381578,0.13278583768010138,-0.10651391682624817,0.04194715991616249,-0.0617150254547596,-0.028160175308585167
1772364971482936600,1.9939365234375,0.19835702834110705,0.06550269200205802,0.01639466996192932,0.025167101994156837,-0.05071907863020897,-0.02762359008193016
1772364971493006600,2.004006591796875,0.2208026689050719,0.016490531551837922,0.15396832644045352,0.003664739429950714,-0.044077690690755844,-0.028961297124624252
1772364971503076900,2.014076904296875,0.2365597716158256,-0.028737434184551238,0.2314203994333744,-0.01751094125211239,-0.040435172617435455,-0.0288342647254467
1772364971513147600,2.024147705078125,0.22715233019273726,-0.043344051685929294,0.19962007054686545,-0.028490355238318443,-0.02446472831070423,-0.02479211986064911
1772364971523217700,2.0342177734375,0.216643503399007,-0.051770519247651095,0.1301578272640705,-0.026254096999764442,-0.01538459025323391,-0.022096313536167145
1772364971533287700,2.04428759765625,0.21582444210108367,-0.04787000467777252,0.07177168926894664,-0.026877809315919876,-0.012310503050684929,-0.017812881618738174
1772364971543357700,2.054357666015625,0.25018669389747084,-0.06433014109134674,0.004191021949052811,-0.029409322887659073,-0.02300308458507061,-0.017567552626132965
1772364971553427700,2.064427734375,0.26157628558110446,-0.057121232625842094,-0.03172375651896,-0.035669080913066864,-0.02745509147644043,-0.01613956317305565
1772364971563498800,2.074498779296875,0.24845921251773834,0.0034171149671077725,-0.005654664760828018,-0.038126200437545776,-0.019391315057873726,-0.018059223890304565
1772364971573568800,2.08456884765625,0.23891073692245407,0.03718436001241207,0.06077975513339042,-0.03533201664686203,-0.012442861683666706,-0.019142065197229385
1772364971583638800,2.094638671875,0.23644889511987566,0.06348083078563213,0.0708019674539566,-0.026167724281549454,-0.0026952694170176983,-0.018423011526465416
1772364971593708800,2.104708740234375,0.23316828428031874,0.0639484482973814,0.036384149545431135,-0.004116750322282314,-0.0010848557576537132,-0.020219579339027405
1772364971603778600,2.114778564453125,0.22643775218259543,0.06173135676980018,-0.015344868648052215,0.014894760213792324,-0.005110014230012894,-0.018845710903406143
1772364971613849600,2.124849609375,0.20367935587503014,0.03199731276333332,-0.05308393993377685,0.02892109751701355,-0.007519109640270472,-0.019523486495018005
1772364971623919600,2.134919677734375,0.1661751162584871,0.004940963533520699,-0.02930500493943691,0.041679855436086655,0.000910688191652298,-0.01875009760260582
1772364971633990000,2.144989990234375,0.1590360946914181,0.01615852311849594,0.06345920347571372,0.046258095651865005,0.01018834300339222,-0.018173258751630783
1772364971644059600,2.1550595703125,0.15801175661236047,0.006063830083608627,0.12625497460663318,0.049738846719264984,0.016065111383795738,-0.016402415931224823
1772364971654129700,2.165129638671875,0.1684016332015395,-0.005289923101663589,0.10721300500631331,0.04922885075211525,0.020668651908636093,-0.01424712035804987
1772364971664200700,2.17520068359375,0.16251367114149032,-0.004161795854568481,0.07461597278416156,0.05200892686843872,0.024906659498810768,-0.009098378010094166
1772364971674270700,2.185270751953125,0.14609270682767964,-0.033901100558042525,0.048505964493751524,0.0511508509516716,0.025236092507839203,-0.008239508606493473
1772364971684340700,2.1953408203125,0.14809914214611053,-0.033272739526629444,0.009459317740797996,0.04832346737384796,0.011046219617128372,-0.007191396318376064
1772364971694410800,2.20541064453125,0.17668997093420474,-0.003514145600795746,-0.03326514074206352,0.0397116020321846,-0.009772510267794132,-0.007049982436001301
1772364971704480800,2.215480712890625,0.17979599239183588,0.0518400773525238,-0.03728080612421036,0.025486504659056664,-0.011527247726917267,-0.010657659731805325
1772364971714551800,2.2255517578125,0.15936896164128556,0.08311375201642512,-0.012718027275800705,0.019662437960505486,-0.00038458267226815224,-0.014732296578586102
1772364971724621800,2.235621826171875,0.1626640393976122,0.08441723583042621,0.025265958681702613,0.015177677385509014,0.004551411606371403,-0.015952400863170624
1772364971734691600,2.245691650390625,0.16694252043440938,0.040400399449467654,-0.014471008422970772,0.012246069498360157,0.011225558817386627,-0.012603742070496082
1772364971744761600,2.25576171875,0.14923516957187094,-0.005953939968347549,-0.034982466053962706,-0.013868891634047031,0.007982565090060234,-0.007518164813518524
1772364971754832000,2.265831787109375,0.1538404622770846,-0.07962415633499621,0.022412907338142395,-0.03903869539499283,-0.02525075525045395,0.0005099354311823845
1772364971764902700,2.275902587890625,0.12997073459359818,-0.14094634778201579,-0.13775778087377546,-0.04155697673559189,-0.0391879677772522,0.00204642117023468
1772364971774972700,2.28597265625,0.1305716322293505,-0.1107955396682024,-0.12995558269023894,-0.03835665434598923,-0.01730131357908249,0.0009729005396366119
1772364971785042700,2.296042724609375,0.17332926232945173,-0.05940320608317852,0.05313128620684147,-0.03555527329444885,0.005306418053805828,0.0064961835741996765
1772364971795112700,2.30611279296875,0.18540953969098625,-0.02710603359043598,0.12936813819110393,-0.03066650778055191,0.008832443505525589,0.007769174408167601
1772364971805182700,2.3161826171875,0.172716610323824,0.024803017345070837,0.07493570625782013,-0.024078648537397385,0.003945808857679367,0.015499532222747803
1772364971815253800,2.326253662109375,0.157818206801638,0.025940496942400932,0.029675591817498206,-0.014758915640413761,0.010850053280591965,0.01952250301837921
1772364971825323800,2.33632373046875,0.11607169910599477,-0.015389292311668395,-0.0010568155765533446,-0.006246833596378565,0.02173120714724064,0.026238515973091125
1772364971835393800,2.346393798828125,0.10496975612416863,-0.058195583859086034,0.03293196326494217,0.0010318523272871971,0.03665928915143013,0.02874881401658058
1772364971845463800,2.3564638671875,0.14538770949663593,-0.04296703506708145,0.11566285344362258,0.0019126497209072113,0.04613586142659187,0.02883312664926052
1772364971855533600,2.366533447265625,0.18932163510080427,0.0224082311630249,0.14463351186215875,0.0028918934985995293,0.057757895439863205,0.02612282894551754
1772364971865604600,2.3766044921875,0.20026425020191818,0.07226619478762149,0.1410714354664087,0.008117190562188625,0.07263243198394775,0.02655906043946743
1772364971875674600,2.386674560546875,0.22088187162112444,0.09702888012230396,0.11366028144955634,0.011727637611329556,0.08210849016904831,0.025849327445030212
1772364971885745000,2.396744873046875,0.24476057719551025,0.08044774767756462,0.09340309084057807,0.005980982445180416,0.074386827647686,0.02541070058941841
1772364971895814700,2.406814697265625,0.24180903391353784,0.053579614496231075,0.03745966982245445,0.005002803169190884,0.0682450458407402,0.023090820759534836
1772364971905884700,2.416884765625,0.23247951656486837,0.04335515760183334,-0.03842413094043731,0.008239252492785454,0.0679505243897438,0.024480300024151802
1772364971915955700,2.426955810546875,0.22506644556308164,0.06304594649970531,-0.05006897602677345,0.014996491372585297,0.06962645053863525,0.022840591147542
1772364971926025700,2.437025634765625,0.22605969438413157,0.0433048887193203,-0.05864800380170345,0.021793857216835022,0.06716473400592804,0.022617949172854424
1772364971936095700,2.447095703125,0.2420760873518884,0.0181079036206007,-0.07029927862882614,0.028186507523059845,0.05712275207042694,0.019696995615959167
1772364971946165800,2.457165771484375,0.2601089529749006,0.034676176583766934,-0.11321370672583579,0.0329001247882843,0.05185718834400177,0.019189344719052315
1772364971956235500,2.467235595703125,0.25443625936703756,0.060164838105440134,-0.10926935301423073,0.03114643320441246,0.044418446719646454,0.01969427987933159
1772364971966306600,2.477306640625,0.23058287089699878,0.028140637335181233,-0.08737900824546814,0.02566271647810936,0.037871863692998886,0.014836674556136131
1772364971976376800,2.487376953125,0.2216042493452318,-0.01566401759982109,-0.07664660182893276,0.022445619106292725,0.03289175033569336,0.014860909432172775
1772364971986446600,2.497446533203125,0.24484971678368747,-0.025592706418037414,-0.04979366621673107,0.012767424806952477,0.03125669062137604,0.01282257866114378
1772364971996516600,2.5075166015625,0.2567857633689418,0.0009469254612922668,0.0001999064862728119,0.0054647717624902725,0.03150569647550583,0.010372736491262913
1772364972006587000,2.5175869140625,0.26735899716839195,0.02869768669605255,0.04382394415736198,-0.010859785601496696,0.03246074169874191,0.006792065687477589
1772364972016657700,2.52765771484375,0.26739026908949015,0.08405775486826896,0.0748456898868084,-0.02184266224503517,0.01837342046201229,0.005177923943847418
1772364972026727700,2.537727783203125,0.2271944157687947,0.08214519924521446,0.05203530766367912,-0.03828945383429527,0.013241995126008987,0.004765929654240608
1772364972036797700,2.547797607421875,0.21028631639201192,0.03213701349496841,0.03877250598669052,-0.037826865911483765,0.015518199652433395,0.004606938920915127
1772364972046867700,2.55786767578125,0.20178519442519172,0.01535597456395626,0.08566519006490707,-0.029191920533776283,0.023387501016259193,0.002398862037807703
1772364972056937700,2.567937744140625,0.22263282520798966,0.020782091265916822,0.08298340363502502,-0.014809786342084408,0.03215595707297325,0.007707607466727495
1772364972067008800,2.5780087890625,0.2345463677004911,0.03162380327582359,0.0184258835285902,0.014254800044000149,0.02834981307387352,0.01112950500100851
1772364972077078800,2.588078857421875,0.20290007859822362,0.03000993833839893,-0.0716080231398344,0.04071064293384552,0.03575260192155838,0.013971630483865738
1772364972087148500,2.5981484375,0.17674215777916832,0.04508066622018814,-0.11581190652549266,0.06237412989139557,0.027543649077415466,0.015251651406288147
1772364972097218800,2.60821875,0.1786951550104655,0.0679874945551157,-0.14766133525073527,0.07297350466251373,0.008390726521611214,0.016338221728801727
1772364972107288600,2.61828857421875,0.19342415678249672,0.09710486796796321,-0.15497838026583194,0.06947091221809387,0.0032610376365482807,0.014117568731307983
1772364972117359600,2.628359619140625,0.21324892905727028,0.0884352393001318,-0.026435586982965466,0.055058952420949936,0.015781357884407043,0.01503023412078619
1772364972127429600,2.6384296875,0.24749855079203842,0.08584054663181305,0.17345687076449393,0.034569039940834045,0.024012194946408272,0.010248691774904728
1772364972137500000,2.6485,0.25051848313510416,0.05810907461941242,0.2811035910129547,0.010806984268128872,0.034269627183675766,0.005444349255412817
1772364972147569700,2.658569580078125,0.23809465303290633,0.002443301498889923,0.22334698309302328,0.010956652462482452,0.08371391147375107,0.012848304584622383
1772364972157639700,2.6686396484375,0.27286941288663075,0.15689152041077614,0.18485504761338234,0.028779057785868645,0.07999134808778763,0.029517827555537224
1772364972167710700,2.678710693359375,0.20101747972201556,0.02025543704330921,0.024310265392065048,0.03564753755927086,0.09202779084444046,0.028072308748960495
1772364972177780700,2.68878076171875,0.1952600121738389,-0.23817922604382036,-0.19165420623421667,0.033226992934942245,0.07193823903799057,0.04364008456468582
1772364972187850800,2.698850830078125,0.2954127051387913,-0.0772720402508974,-0.15471592993736266,0.04168003425002098,0.03258267045021057,0.04894468933343887
1772364972197920800,2.708920654296875,0.2679826637583785,0.005311550411581992,-0.267495921421051,0.04089759662747383,0.03491958975791931,0.03861907869577408
1772364972207990500,2.718990478515625,0.2956362847615965,0.05883797341585159,-0.17602233733832834,0.034496158361434937,0.026083262637257576,0.03838562220335007
1772364972218060800,2.729060791015625,0.33830209012608975,0.15501403610110281,-0.1220581074386835,0.025758326053619385,0.007918905466794968,0.027923129498958588
1772364972228131800,2.7391318359375,0.3354508288808167,0.10033668949604034,-0.25831308253407476,0.03427715599536896,-0.007168618496507406,0.03777293488383293
1772364972238201600,2.74920166015625,0.37058552635442465,0.034518940195441244,-0.2619055540680885,0.04446108639240265,0.008619399741292,0.031899333000183105
1772364972248271600,2.759271728515625,0.20116466964036225,0.09787409877479075,-0.14372808745503424,0.04061698913574219,0.030048782005906105,0.015348531305789948
1772364972258342000,2.769341796875,0.17132866309676317,0.09259761967658996,-0.04045125285387039,0.03437773510813713,0.01948029361665249,0.006928414572030306
1772364972268411600,2.77941162109375,0.28250677234176547,0.14448971947729586,-0.0531949990928173,0.041627928614616394,0.013765653595328331,0.013153658248484135
1772364972278482700,2.789482666015625,0.2532181157489307,0.14513210903406143,-0.06708207014799118,0.04972473904490471,0.028813045471906662,0.015098298899829388
1772364972288552700,2.799552734375,0.18380016826558856,0.10049451040625572,-0.003026654344797134,0.04949064180254936,0.0408579558134079,0.0199480801820755
1772364972298622700,2.809622802734375,0.17940843611266463,0.10238310063183308,0.050803720042109486,0.049693040549755096,0.03755936399102211,0.02626589871942997
1772364972308692700,2.819692626953125,0.18657451008344067,0.09459434645175933,0.06499883413314819,0.04683813452720642,0.029761692509055138,0.02895595133304596
1772364972318762800,2.8297626953125,0.17643309182999656,0.06472118623554707,0.07220774259865284,0.04285963997244835,0.02425267919898033,0.03178662806749344
1772364972328833800,2.839833740234375,0.13696105927182362,0.07614215943813324,0.1037450366348028,0.04119560495018959,0.02376270294189453,0.03191712498664856
1772364972338899700,2.849899658203125,0.12811601923815905,0.10054594833254814,0.14055997881293297,0.04527636617422104,0.03001687116920948,0.028993239626288414
1772364972348969700,2.8599697265625,0.12462969322605058,0.17367489742934702,0.19023966326117514,0.05339101701974869,0.057134680449962616,0.029861271381378174
1772364972359039500,2.87003955078125,0.13561311526158823,0.2116512846022844,0.22770634734630582,0.0717998519539833,0.07654619961977005,0.03435908630490303
1772364972369109500,2.880109619140625,0.1475463853678666,0.19858663584589958,0.18689385996460914,0.08761662989854813,0.08756488561630249,0.039401035755872726
1772364972379180500,2.8901806640625,0.1564866476706229,0.16737784311175347,0.10794482641220092,0.0973435640335083,0.07934636622667313,0.04704377427697182
1772364972389250600,2.90025048828125,0.14082812822982668,0.06489303567111492,0.051312838608026504,0.1060497909784317,0.075062595307827,0.0481586754322052
1772364972399320600,2.910320556640625,0.1534610710380599,0.05978080722391605,0.0029062428355216977,0.11870940029621124,0.08258922398090363,0.047766122967004776
1772364972409390600,2.920390625,0.16138494110619647,0.10341361272335052,0.08096446502804756,0.12517660856246948,0.09811710566282272,0.041950371116399765
1772364972419460600,2.930460693359375,0.16126356148254126,0.12199088742136954,0.14704115752577782,0.13612353801727295,0.10495823621749878,0.044846825301647186
1772364972429531600,2.94053173828125,0.15636965196114033,0.11834230178594589,0.09269815744161605,0.15020082890987396,0.10343769192695618,0.04909733682870865
1772364972439601700,2.9506015625,0.12562579159131274,0.09471534248292446,0.011007716226577757,0.16130700707435608,0.1000664010643959,0.05101561173796654
1772364972449671400,2.96067138671875,0.11704130218997597,0.04475684109330177,-0.04333469933569431,0.16830891370773315,0.10593561828136444,0.056158602237701416
1772364972459741700,2.97074169921875,0.13914364574160426,0.023439912298321722,-0.0445464132130146,0.16883382201194763,0.11422070860862732,0.06256803125143051
1772364972469811700,2.980811767578125,0.14939836991010233,-0.011902034717798233,-0.0210749367326498,0.1695391982793808,0.14383871853351593,0.05135926604270935
1772364972479882800,2.9908828125,0.21619828038215635,0.17397534168064593,0.0387386037170887,0.15617546439170837,0.15750420093536377,0.07217533886432648
1772364972489952500,3.000952392578125,0.1488068337577395,0.164527129855752,0.14025836551785467,0.14095760881900787,0.11151663959026337,0.08077926188707352
1772364972500022500,3.0110224609375,0.09965071652587502,-0.17008768659234047,-0.07261223174631595,0.12579384446144104,0.08243092894554138,0.08740440756082535
1772364972510092800,3.0210927734375,0.18060871528051792,-0.0464636450111866,-0.09581716624498367,0.11322230845689774,0.10178250819444656,0.08108466863632202
1772364972520162600,3.03116259765625,0.15152137167975305,0.1342360364884138,0.044619478449225425,0.09498391300439835,0.14953646063804626,0.07771657407283783
1772364972530233600,3.041233642578125,0.14086340047260745,0.2880699228942394,0.1705178947031498,0.0827266275882721,0.1561940759420395,0.0741301029920578
1772364972540303600,3.0513037109375,0.10745432121520862,0.15697744512856004,0.0977332289993763,0.08263181895017624,0.11223113536834717,0.06949299573898315
1772364972550373600,3.06137353515625,0.14118760919198392,0.031002456507086752,-0.08255085743665695,0.0800078958272934,0.08661297708749771,0.06069459766149521
1772364972560443600,3.071443603515625,0.16125784412780775,0.08484510585367679,-0.20308336274325847,0.08293896913528442,0.10346172749996185,0.058989912271499634
1772364972570513700,3.081513671875,0.13093558843722566,0.10859189214408398,-0.13220014674663544,0.09485785663127899,0.11876193434000015,0.054639801383018494
1772364972580583700,3.091583740234375,0.12099720020890235,0.09644494275450706,-0.07591361137926578,0.09386050701141357,0.108127661049366,0.04873397573828697
1772364972590654700,3.10165478515625,0.1289451818049885,0.02466565470099449,-0.11033201380968093,0.08004508912563324,0.09914342314004898,0.0423426553606987
1772364972600724700,3.111724853515625,0.12015015492551027,-0.06948153250515461,-0.1748404340773821,0.06832637637853622,0.09726642817258835,0.05576339364051819
1772364972610794500,3.12179443359375,0.13845527988495304,-0.08650748610794544,-0.09357435575425624,0.041521042585372925,0.05503823980689049,0.06567146629095078
1772364972620864500,3.131864501953125,0.11572241987744346,-0.2751391296505928,-0.17160510541796684,0.04685535281896591,0.028430331498384476,0.061095625162124634
1772364972630934800,3.141934814453125,0.15538770998539403,-0.2788864994853735,-0.1572808119893074,0.01812659204006195,0.0495276115834713,0.05905207246541977
1772364972641005600,3.152005615234375,0.2331491046558134,-0.1711883413106203,0.11326748273968695,-0.010692272335290909,0.04880322888493538,0.07990089058876038
1772364972651075600,3.16207568359375,0.24499891599602996,-0.19160276830792425,0.14117080418765543,-0.024075455963611603,0.01862848550081253,0.07166267931461334
1772364972661145600,3.1721455078125,0.14817491079606115,-0.0818032539397478,0.07890753249824047,-0.048565883189439774,0.022327616810798645,0.06645140051841736
1772364972671215600,3.182215576171875,0.16822817633077503,0.023902853634953498,0.14956629208922384,-0.059708286076784134,0.008418992161750793,0.06281591951847076
1772364972681285600,3.19228564453125,0.18992920907251537,-0.06310556773245335,0.1247989305794239,-0.04601617529988289,0.01711607724428177,0.07198119163513184
1772364972691356700,3.202356689453125,0.1861415437599644,-0.039404374149441715,0.10508183819651604,-0.029018457978963852,0.046662792563438416,0.06602668017148972
1772364972701426400,3.212426513671875,0.08020950020859018,-0.02053951468169689,0.21882044557929037,-0.01643342524766922,0.06057088449597359,0.05769817903637886
1772364972711496700,3.22249658203125,0.10136944834357127,-0.0425900184482336,0.21353519865274428,-0.01790393516421318,0.04177611321210861,0.061461225152015686
1772364972721566700,3.232566650390625,0.14402869610311464,-0.05843289974629878,0.0776163236439228,0.013569300994277,0.013719978742301464,0.06436912715435028
1772364972731636500,3.242636474609375,0.13264907782422378,-0.027591186758875844,-0.08031155407726764,0.06314697861671448,0.039562758058309555,0.06135416775941849
1772364972741707500,3.25270751953125,0.16685652265138923,0.0056552492827177045,0.032061610171198844,0.08683978766202927,0.07822733372449875,0.054723694920539856
1772364972751777500,3.262777587890625,0.16170772505346684,0.08179682419896125,0.13664660476148127,0.09750699251890182,0.06398666650056839,0.04954458400607109
1772364972761847800,3.272847900390625,0.18140567434448748,0.10532792191207409,0.00818038384616375,0.10078800469636917,0.008591316640377045,0.05415957793593407
1772364972771917600,3.28291748046875,0.1865062488865107,0.038052959540486334,-0.17691197965443134,0.10272270441055298,-0.017158832401037216,0.050813160836696625
1772364972781987600,3.292987548828125,0.2309327437805943,-0.06310264512300491,-0.20190379756987092,0.1087113469839096,0.005135021172463894,0.05391787737607956
1772364972792057600,3.3030576171875,0.17814608802665025,-0.07638824315369129,-0.02906710453033447,0.10399188101291656,0.04226458817720413,0.03634979948401451
1772364972802128600,3.313128662109375,0.15953407080881296,0.022875264152884482,0.055015784779191015,0.0910760760307312,0.059255555272102356,0.031086329370737076
1772364972812198700,3.32319873046875,0.24534436843283472,0.06378069051504134,-0.016347323688864705,0.08620142191648483,0.020494647324085236,0.03898978978395462
1772364972822268700,3.3332685546875,0.28506127913016827,0.09696166010499,-0.19835633422136306,0.07037372887134552,-0.013265714049339294,0.04268226400017738
1772364972832338700,3.343338623046875,0.3111038482075557,0.11462766517698764,-0.3838239607751369,0.05635440722107887,-0.015931088477373123,0.03198770433664322
1772364972842408700,3.35340869140625,0.3227895367609337,0.07545359265208244,-0.3176069830238819,0.03984680026769638,-0.01143034640699625,0.022503651678562164
1772364972852479700,3.363479736328125,0.2832651894936338,0.039648119777441024,-0.19617723661661146,0.02596498653292656,-0.028375333175063133,0.018770962953567505
1772364972862549500,3.373549560546875,0.2294957880463451,0.10222118806838988,-0.14689210444390774,-0.009981829673051834,-0.01829873025417328,0.0027445913292467594
1772364972872619500,3.38361962890625,0.2638479933727532,0.13094342468380926,-0.12156067931056022,-0.027707384899258614,-0.03616485744714737,-0.0015778737142682076
1772364972882689800,3.393689697265625,0.22542090329024939,0.056497547769546505,-0.1684258908599615,-0.028016578406095505,-0.053961433470249176,-0.00917400885373354
1772364972892759600,3.403759521484375,0.23495956987757236,0.02740238618850708,-0.2953004586696625,-0.023356135934591293,-0.05934407562017441,-0.014326533302664757
1772364972902830600,3.41383056640625,0.2957701220080256,0.006482932278513908,-0.25890929486155506,-0.02411247231066227,-0.07139141857624054,-0.005286965519189835
1772364972912900600,3.423900634765625,0.29730821829549964,-0.06880933233201503,-0.21860709508955478,-0.019518433138728142,-0.08622565865516663,-0.00870119221508503
1772364972922970600,3.433970703125,0.2728512927080504,-0.0056552492827177045,-0.16460720935463904,-0.01522861234843731,-0.07904790341854095,-0.004816971719264984
1772364972933040600,3.44404052734375,0.2347432602457702,0.008631050223112106,-0.03177636348903179,-0.018518947064876556,-0.06965561211109161,-0.010508892126381397
1772364972943110700,3.454110595703125,0.18991651398772372,-0.016199439650774,0.05024900876879692,-0.01841428503394127,-0.06287680566310883,-0.014158221893012524
1772364972953181400,3.464181396484375,0.1804182707423344,-0.01631926663815975,0.11771803240776062,-0.014189534820616245,-0.051510266959667206,-0.012307269498705864
1772364972963251700,3.474251708984375,0.18491375553067774,-0.07793605711758136,0.12940554759204387,-0.00585517194122076,-0.04907640442252159,-0.016089491546154022
1772364972973321700,3.48432177734375,0.22123912409357727,-0.04077624702453613,0.1548012701332569,-0.002635763958096504,-0.04722188413143158,-0.024984128773212433
1772364972983391500,3.4943916015625,0.23057127179075032,0.031004210072755813,0.16161796441078186,0.002727043814957142,-0.04727088660001755,-0.022821906954050064
1772364972993461500,3.50446142578125,0.22387354598408563,0.09654898765087128,0.152104286134243,0.007773730903863907,-0.03834603354334831,-0.024584390223026276
1772364973003531800,3.51453173828125,0.19629403139669446,0.12218845582008361,0.17961188626289368,0.014241216704249382,-0.05237370356917381,-0.022901274263858795
1772364973013602800,3.524602783203125,0.20425160280503332,0.14131868822574614,0.13875614426136015,0.020773597061634064,-0.06147559732198715,-0.027472112327814102
1772364973023672600,3.534672607421875,0.21690259272661058,0.1003214919269085,0.0571294159322977,0.025212816894054413,-0.045677460730075836,-0.033612027764320374
1772364973033742600,3.54474267578125,0.23834712995663285,0.09456161322593688,0.0965524947822094,0.037343695759773254,-0.044309698045253754,-0.03711749613285065
1772364973043812600,3.5548125,0.24818251446820794,0.1286678809672594,0.09633329907357692,0.046906307339668274,-0.05158252269029617,-0.04045896604657173
1772364973053882600,3.564882568359375,0.24678417371129616,0.15926877093613148,0.038942601856589314,0.050834741443395615,-0.055115070194005966,-0.044509630650281906
1772364973063953700,3.57495361328125,0.2340451584463939,0.13617314203083514,0.020173603978753087,0.05431069806218147,-0.05160821974277496,-0.048526208847761154
1772364973074023700,3.585023681640625,0.17428723890772088,0.06365794091820716,0.04036006743907928,0.054320551455020905,-0.055032528936862946,-0.05060422420501709
1772364973084093700,3.59509375,0.13429663496869615,0.02395195347368717,0.022614567390084266,0.05345182865858078,-0.0527920126914978,-0.055331334471702576
1772364973094163700,3.605163818359375,0.1555188072854653,-0.002350362518429756,-0.006131634622812271,0.05939360707998276,-0.04931822046637535,-0.050887688994407654
1772364973104233500,3.6152333984375,0.15752589105786755,-0.019551088166236876,-0.018317746978998184,0.060509465634822845,-0.05093076452612877,-0.051675714552402496
1772364973114304500,3.625304443359375,0.13507583004711196,-0.027858313262462613,-0.06885726312696934,0.06926257163286209,-0.046007875353097916,-0.04832417890429497
1772364973124374500,3.63537451171875,0.14115835569803603,0.0007043488770723343,-0.07214344519078732,0.06691286712884903,-0.05337870866060257,-0.040314722806215286
1772364973134444800,3.64544482421875,0.11793950227187014,-0.03340016529858112,-0.09839023160338402,0.057202890515327454,-0.06754755973815918,-0.03314810246229172
1772364973144514600,3.6555146484375,0.10844687591651454,-0.09691314478814601,-0.16466215441226958,0.05342652648687363,-0.0684325248003006,-0.029025530442595482
1772364973154584600,3.66558447265625,0.12438650472047738,-0.082034140086174,-0.1310205815732479,0.047852978110313416,-0.053995341062545776,-0.02446359023451805
1772364973164655600,3.675655517578125,0.13802742812801153,-0.011379472148418427,-0.05238602079749107,0.034487105906009674,-0.03345251455903053,-0.02444601058959961
1772364973174725600,3.6857255859375,0.11665148088848218,0.0401414562523365,0.004804769933223724,0.016989778727293015,-0.035280801355838776,-0.015094594098627567
1772364973184795600,3.695795654296875,0.10393762746430002,0.07518763519227505,0.0013718728750944137,0.0022134967148303986,-0.049843765795230865,-0.009822866879403591
1772364973194865700,3.70586572265625,0.10763850040938705,0.07767360678911209,-0.04446633371412754,-0.0195989478379488,-0.04722831770777702,-0.00004762224853038788
1772364973204935400,3.715935302734375,0.10968181540579534,0.011575286981463432,-0.036112346866726874,-0.03349079564213753,-0.043985120952129364,0.004367631860077381
1772364973215005700,3.726005615234375,0.11741132281245663,-0.04768003506362438,-0.022941315126419067,-0.03967208042740822,-0.042840827256441116,0.007508453913033009
1772364973225076700,3.73607666015625,0.14755880645802244,-0.04126081567108631,0.004261164575815201,-0.04089473932981491,-0.03782103210687637,0.017919816076755524
1772364973235146500,3.746146484375,0.18901972954478113,-0.02235562419295311,0.0021218144595623015,-0.04085860773921013,-0.03257375955581665,0.026522360742092133
1772364973245216500,3.756216552734375,0.1852923430521041,-0.057070963743329046,0.00940378816127777,-0.0384196862578392,-0.028769169002771378,0.030062235891819
1772364973255286800,3.766286865234375,0.17604933494310826,-0.08268120581805706,0.00651332741677761,-0.031085867434740067,-0.025477660819888115,0.03272923454642296
1772364973265356500,3.7763564453125,0.18884543242380022,-0.05416588995158672,0.02640460732281208,-0.026401100680232048,-0.02425101026892662,0.030800040811300278
1772364973275427600,3.786427490234375,0.1960973945797421,-0.0178898769557476,0.03971943144798278,-0.02177901193499565,-0.026124833151698112,0.030281253159046173
1772364973285497600,3.79649755859375,0.1977214338513091,0.045349546289443966,0.06792027453780174,-0.015282229520380497,-0.024151429533958435,0.02467210218310356
1772364973295567600,3.806567626953125,0.20957186624603344,0.0641968701004982,0.10686696804761886,-0.014660116285085678,-0.02410920523107052,0.023177750408649445
1772364973305637600,3.8166376953125,0.23345143033694474,0.051120530906319614,0.12673486707806586,-0.018057510256767273,-0.025001097470521927,0.017157407477498055
1772364973315707600,3.826707763671875,0.2619464523340575,0.050043841585516925,0.16512860288023948,-0.02566678449511528,-0.02257402054965496,0.013708774000406265
1772364973325778700,3.83677880859375,0.2827130355035886,0.07095277410149574,0.22982816180586813,-0.03887659311294556,-0.0169140063226223,0.016296833753585815
1772364973335848400,3.846848388671875,0.2626787486639805,0.05607786105275154,0.27103929311633107,-0.04735086113214493,-0.009485164657235146,0.010374872013926506
1772364973345919500,3.85691943359375,0.23844032466541976,0.027391280272603034,0.27220775237381456,-0.04319073632359505,0.002002113964408636,0.0079655097797513
1772364973355989500,3.866989501953125,0.22288225165810435,0.03558043194711208,0.2191337493121624,-0.030153941363096237,0.007192983757704496,0.004655413795262575
1772364973366059500,3.8770595703125,0.21735537799540905,0.03635024727582931,0.1031961705803871,-0.006717326585203409,0.0023383074440062046,0.0066149672493338585
1772364973376129300,3.88712939453125,0.19901320896120742,0.05138590384423732,-0.02436637949347496,0.02324758656322956,0.0009329929016530514,0.011127641424536705
1772364973386200300,3.897200439453125,0.1638462897184305,0.06131693075001239,-0.09253682940006255,0.05392426997423172,-0.0005184300243854523,0.016187114641070366
1772364973396270600,3.9072705078125,0.12768623125245793,0.05363046790063381,-0.14510580554902552,0.08043870329856873,-0.011065639555454254,0.016747284680604935
1772364973406340400,3.91734033203125,0.1247037265766412,0.03911678937971592,-0.17344868745803832,0.0933944508433342,-0.02199179120361805,0.018122008070349693
1772364973416410400,3.927410400390625,0.1496921834912151,0.06088380002975464,-0.12741992673277855,0.09239185601472855,-0.015566905960440636,0.019217420369386673
1772364973426480600,3.937480712890625,0.1606585995930247,0.05528174223899841,-0.0091062665194273,0.06735681742429733,-0.002985600149258971,0.035886943340301514
1772364973436551700,3.9475517578125,0.18346710038632152,0.04647007475197315,0.10158055207729338,0.027944955974817276,0.011392660439014435,0.0687757059931755
1772364973446621400,3.957621337890625,0.34231497902926056,0.2643435948699713,0.18246318404078482,0.02470974624156952,0.035407714545726776,0.05460715293884277
1772364973456691500,3.96769140625,0.40458661668822166,0.17345920885205268,0.1921498807966709,0.025984514504671097,0.07018814980983734,0.04949105903506279
1772364973466761500,3.977761474609375,0.2147083158190362,0.0652338119328022,0.11546645408868789,0.004791079089045525,0.017191510647535324,0.051321983337402344
1772364973476831500,3.98783154296875,0.07146743649221025,-0.006647182929515838,-0.2947802341878414,0.018003646284341812,-0.008268486708402634,0.024241633713245392
1772364973486902500,3.997902587890625,0.1674233262212947,-0.00003682487905025482,-0.539725301104784,0.01847102865576744,-0.02081650123000145,0.021122004836797714
1772364973496972500,4.00797265625,0.31631500698458404,-0.0029138416200876235,-0.28776246438026426,0.003533092327415943,-0.07974642515182495,0.04444847255945206
1772364973507042300,4.018042236328125,0.41023897989410907,-0.14895137506127357,-0.43234161570668217,-0.013824325986206532,-0.09029041230678558,0.04667993634939194
1772364973517112600,4.028112548828125,0.2510613578401506,0.06459668307304382,-0.24030279406905172,-0.03541518747806549,-0.06825161725282669,0.03735104203224182
1772364973527182300,4.038182373046875,0.2777089253396727,0.09849661458730698,0.009629998132586479,-0.05251188576221466,-0.021835118532180786,0.00949171558022499
1772364973537252400,4.04825244140625,0.3690219668321311,-0.030476971328258513,0.06410743825137614,-0.051754482090473175,0.0023571308702230453,0.0056433407589793205
1772364973547323400,4.058323486328125,0.3310819296142086,-0.13524901292324065,0.0011503390789031982,-0.044294439256191254,-0.014452741481363773,0.011473266407847404
1772364973557393700,4.0683935546875,0.3573121302181855,-0.10210545273423194,-0.07082067215442657,-0.03970279544591904,-0.04297482594847679,0.004312239587306976
1772364973567463400,4.07846337890625,0.4317759811805561,-0.03634089492559433,-0.1645183620274067,-0.03278123959898949,-0.049679335206747055,0.009280898608267307
1772364973577533400,4.088533447265625,0.40375075038596986,0.05969429798424244,-0.11399988866746424,-0.01828148029744625,-0.025825917720794678,0.0026753004640340805
1772364973587603500,4.098603515625,0.3434025916028768,0.08066460529863834,0.03274783886969089,-0.010473092086613178,-0.0012465380132198334,-0.0022960221394896507
1772364973597674500,4.108674560546875,0.3117780576746911,0.09388707496523857,0.13647241723835468,-0.0054831295274198055,0.005689996760338545,-0.006781053729355335
1772364973607744500,4.11874462890625,0.28827565633310004,0.07709259203076362,0.13736205955445766,0.0022205961868166924,0.006244200747460127,-0.011886066757142544
1772364973617814500,4.128814453125,0.27620743473554027,0.043885318955779073,0.08778817356824874,0.009545894339680672,0.0076247695833444595,-0.018703438341617584
1772364973627884300,4.13888427734375,0.3022913039376959,0.021136311531066893,0.04327507810294628,0.019924497231841087,0.014285335317254066,-0.023976493626832962
1772364973637954600,4.14895458984375,0.33634310154542324,0.058629883623123165,0.03405775242447853,0.02641018107533455,0.014508876949548721,-0.02783573605120182
1772364973648025600,4.159025634765625,0.3179060755683109,0.08134440425634383,0.05404840105175972,0.022293731570243835,0.015483060851693153,-0.03144485503435135
1772364973658095400,4.169095458984375,0.2927027703266591,0.10216039779186248,0.06470715771019458,0.02035459689795971,0.012833473272621632,-0.03303880989551544
1772364973668165400,4.179165283203125,0.29657013154560696,0.10566869817376136,0.08156769161820411,0.017250681295990944,0.01481166947633028,-0.0353618860244751
1772364973678235600,4.189235595703125,0.28788525050971653,0.10309913994669914,0.07402735924124718,0.012976217083632946,0.019078286364674568,-0.04087643697857857
1772364973688305400,4.199305419921875,0.259063133716397,0.08145721698105335,0.06900982334017754,0.003199486993253231,0.017617542296648026,-0.04178670793771744
1772364973698375400,4.20937548828125,0.24377142002768812,0.06284720905721188,0.0749018039882183,-0.007938563823699951,0.015178866684436798,-0.04187975823879242
1772364973708446500,4.219446533203125,0.19150265066800637,0.01507365049123764,0.06354629723727703,-0.019591491669416428,0.014897903427481651,-0.040938593447208405
1772364973718516200,4.22951611328125,0.14724710102719255,-0.06355740315318108,0.06282499722540379,-0.027840811759233475,0.021053461357951164,-0.03716373071074486
1772364973728586500,4.23958642578125,0.15091997172050178,-0.13670973312556742,0.06670739161670207,-0.032176971435546875,0.020148517563939095,-0.03232130408287048
1772364973738656500,4.249656494140625,0.1590721341191791,-0.1750315727353096,0.061814943400025364,-0.03213444724678993,0.02549145370721817,-0.026287321001291275
1772364973748726300,4.259726318359375,0.165723500033468,-0.14305062658488749,0.024552257454395293,-0.028345033526420593,0.03326548635959625,-0.021245958283543587
1772364973758797300,4.26979736328125,0.15891931817764415,-0.07114508180320263,0.00663490796983242,-0.03566304221749306,0.044254548847675323,-0.020247697830200195
1772364973768867600,4.27986767578125,0.14284061882970853,-0.024224340674281118,0.0012964695513248442,-0.0337064191699028,0.02949131466448307,-0.00965870264917612
1772364973778937300,4.289937255859375,0.14290827723843977,-0.058223056387901304,-0.02277297282218933,-0.037716254591941833,0.0004953448660671711,-0.005898216739296913
1772364973789007400,4.30000732421875,0.06815486874496564,-0.012245149067044258,-0.08829320048093796,-0.0513649545609951,0.009753823280334473,-0.013350008055567741
1772364973799077600,4.31007763671875,0.12874543971549718,0.11402794571816921,-0.005696750336885452,-0.05914174020290375,0.007168326061218977,-0.020090147852897644
1772364973809148700,4.320148681640625,0.20076978857126085,0.11671849997639655,0.08144552654325962,-0.0643085390329361,-0.01036832295358181,-0.019031275063753128
1772364973819218400,4.330218505859375,0.24128206916367634,0.19085984098613262,0.06353636036515235,-0.07247858494520187,-0.025253593921661377,-0.023146387189626694
1772364973829288400,4.340288330078125,0.23631202566614373,0.2308966678202152,0.07048866372108459,-0.07506371289491653,-0.043601445853710175,-0.027407445013523102
1772364973839358500,4.3503583984375,0.23892193416990337,0.2023854436069727,0.06594517507255077,-0.07288320362567902,-0.06319134682416916,-0.028171241283416748
1772364973849428500,4.360428466796875,0.24854776758402586,0.18567805443406105,0.05586743317246437,-0.06688283383846283,-0.056660741567611694,-0.02991321310400963
1772364973859498500,4.37049853515625,0.25093488191626967,0.15915654273331165,0.08546177644729613,-0.0567568764090538,-0.04884840548038483,-0.02703007683157921
1772364973869569500,4.380569580078125,0.2490172847919166,0.11855214514434337,0.13359247788786888,-0.043446134775877,-0.044864051043987274,-0.02890361100435257
1772364973879639300,4.390639404296875,0.22572518346644938,0.07333060914874076,0.07343933022022246,-0.022330105304718018,-0.03711702302098274,-0.02956567332148552
1772364973889709600,4.40070947265625,0.20815964309424162,0.05882862106561661,-0.014925181931257248,0.007055746391415596,-0.039234504103660583,-0.03480464220046997
1772364973899779600,4.410779541015625,0.19297834924375637,0.057495326635241505,-0.09037702101767063,0.04229362681508064,-0.04162003472447395,-0.03270634263753891
1772364973909849300,4.420849365234375,0.19968944598864763,0.05127893633842468,-0.1357955408900976,0.07814349979162216,-0.03864102065563202,-0.03029431775212288
1772364973919920400,4.43092041015625,0.22315049240654333,0.044352351945638656,-0.1340875679284334,0.10067127645015717,-0.03353358805179596,-0.024667318910360336
1772364973929990700,4.44099072265625,0.20456156380334867,0.0022696984976530075,-0.08982698591947555,0.11337827891111374,-0.019294995814561844,-0.02119429036974907
1772364973940060400,4.451060302734375,0.18953549704719333,-0.03879822494983673,-0.06255261002480983,0.11755730956792831,-0.002456360263749957,-0.014206157065927982
1772364973950130400,4.46113037109375,0.19198161155767737,-0.08103928382992744,-0.06641279258430004,0.11732827872037888,0.014823293313384056,-0.010795979760587215
1772364973960200400,4.471200439453125,0.22100202740207314,-0.06617547669708729,-0.0797036513119936,0.10818493366241455,0.02832598239183426,-0.004227985627949238
1772364973970271200,4.481271240234375,0.2223936826898716,-0.07228373044431209,-0.12316752998530864,0.09574078768491745,0.03891418129205704,-0.0029486026614904404
1772364973980341500,4.491341552734375,0.21004509151466189,-0.09987725529074669,-0.1870177786052227,0.07786733657121658,0.03834018483757973,0.0058272057212889194
1772364973990411500,4.50141162109375,0.2384294014126062,-0.09186170661747455,-0.2223275769174099,0.048318229615688324,0.029943767935037613,0.008448821492493153
1772364974000481300,4.511481201171875,0.2578669462017715,-0.09749006789326667,-0.25113340016305447,0.009449662640690804,0.008771638385951519,0.014498458243906498
1772364974010551600,4.521551513671875,0.25335571585502475,-0.10841887366473674,-0.22734861994981764,-0.027049226686358452,-0.0055202157236635685,0.014928825199604034
1772364974020621600,4.53162158203125,0.21506682866681365,-0.08523556647598743,-0.13731997397840023,-0.06385305523872375,-0.0016866747755557299,0.007618233561515808
1772364974030692400,4.5416923828125,0.1574429437484592,-0.04200374299287796,-0.040272389155626295,-0.09454704821109772,0.0047376686707139015,-0.0037753023207187653
1772364974040762400,4.551762451171875,0.14026371754640712,0.028624621459841727,-0.01377484285235405,-0.11868824064731598,0.00663794856518507,-0.009472973644733429
1772364974050832400,4.561832275390625,0.052554865425219754,-0.01732932046353817,-0.09332067325413226,-0.12887856364250183,0.03249351307749748,-0.025933438912034035
1772364974060902400,4.57190234375,0.007197784283291548,-0.04574409856498241,-0.08861118038892746,-0.13485336303710938,0.027694858610630035,-0.010670970194041729
1772364974070974500,4.581974365234375,-0.002944063228415325,-0.1919365303069353,-0.15134382315576075,-0.13610611855983734,-0.022018635645508766,-0.009033394046127796
1772364974081044500,4.59204443359375,0.041829299741424616,-0.07050444581210613,-0.0034890111595392223,-0.138488307595253,-0.05542520806193352,-0.003212202340364456
1772364974091114500,4.602114501953125,0.02287884434945881,0.04495674757957458,0.23682430430352686,-0.14199569821357727,-0.0572633221745491,0.003588978201150894
1772364974101184300,4.612184326171875,-0.006957573186093941,0.13079437160193919,0.43235681327581404,-0.1391620934009552,-0.03858964890241623,0.013959646224975586
1772364974111255300,4.62225537109375,-0.056381072649871924,0.12741466603577137,0.5456687196791171,-0.13681665062904358,-0.022482585161924362,0.030500005930662155
1772364974121325600,4.63232568359375,-0.047817018681787886,0.06488543688654899,0.510351322582364,-0.13570824265480042,-0.0064512742683291435,0.05856461077928543
1772364974131395300,4.642395263671875,0.043270342562324364,0.018678396984934807,0.4628583345234394,-0.11612841486930847,0.006784636527299881,0.09258169680833817
1772364974141465300,4.65246533203125,0.12431289149499497,-0.041619127589464185,0.3580184883892536,-0.0751921609044075,0.015171635895967484,0.10948222875595093
1772364974151535600,4.66253564453125,0.10243691317830234,-0.04454173703789711,0.3144108173310757,-0.03597179055213928,0.031656600534915924,0.1260923594236374
1772364974161606700,4.672606689453125,0.10140771626103669,-0.027622166419029235,0.309275792530179,-0.013846786692738533,0.04092784970998764,0.12915877997875214
1772364974171676400,4.682676513671875,0.11970184490242972,0.028346389040350913,0.20168460186123846,-0.007050932850688696,0.028205132111907005,0.129111647605896
1772364974181746400,4.692746337890625,0.18133889271859077,0.06986848599612712,0.10468027165830135,-0.011776878498494625,0.020840473473072052,0.1198597177863121
1772364974191816400,4.70281640625,0.2891604763436131,0.06640636284351349,0.11268529893755912,-0.0019588693976402283,0.031797781586647034,0.11101402342319489
1772364974201886500,4.712886474609375,0.3200150670789182,0.028852584996819496,-0.0693418317735195,0.009316590614616871,0.02451913058757782,0.10132336616516113
1772364974211956500,4.72295654296875,0.38147286760434507,0.044749242308735844,-0.29985739132165906,0.025366663932800293,0.013522407971322536,0.08429910242557526
1772364974222027500,4.733027587890625,0.41506256412565706,-0.005241992306709289,-0.42866497302055356,0.0451008640229702,-0.01064034178853035,0.0668058693408966
1772364974232097300,4.74309716796875,0.4145937410375103,0.016191256344318387,-0.5190513463884592,0.05370500311255455,-0.03514861315488815,0.047133900225162506
1772364974242167600,4.75316748046875,0.447449643391557,0.0548030188113451,-0.4768927050948143,0.04137324541807175,-0.05616537854075432,0.028202127665281296
1772364974252237600,4.763237548828125,0.4602951695045456,0.0009101005822420119,-0.38571898074150085,0.002302275039255619,-0.07598595321178436,0.024404458701610565
1772364974262307300,4.773307373046875,0.517120159130171,0.10303776514828204,-0.25555939991176124,-0.03685738891363144,-0.08339754492044449,0.008752845227718353
1772364974272378400,4.78337841796875,0.5032491258943453,-0.05873685112893581,-0.15585457857847212,-0.08076146245002747,-0.0890309289097786,-0.01112179271876812
1772364974282448600,4.79344873046875,0.43334070974662897,-0.17756430608332155,-0.17931962531805037,-0.10405648499727249,-0.09489310532808304,-0.020308896899223328
1772364974292518400,4.803518310546875,0.3801689819315448,-0.2591349203109741,-0.1989431941986084,-0.1316729336977005,-0.103665292263031,-0.019743241369724274
1772364974302588400,4.81358837890625,0.3920358357381075,-0.1503998203039169,-0.22233868283331393,-0.14705127477645874,-0.11645697802305222,-0.02091844193637371
1772364974312658400,4.823658447265625,0.4055744952144101,0.06855097365677357,-0.1410632521599531,-0.15571001172065735,-0.12161818146705627,-0.03161182999610901
1772364974322728400,4.833728515625,0.36975137708522376,0.21631284667253492,-0.03272328895032406,-0.1496722549200058,-0.10948708653450012,-0.032173119485378265
1772364974332799500,4.843799560546875,0.31961192963812496,0.23947452655136583,0.03225917856991291,-0.13937753438949585,-0.09483756870031357,-0.0346144400537014
1772364974342872000,4.8538720703125,0.3267895661825314,0.17925941956341265,0.09665303254723548,-0.12903453409671783,-0.08598615974187851,-0.03625350818037987
1772364974352942300,4.8639423828125,0.34720600247383115,0.06964987480938434,0.16590192534029483,-0.12652024626731873,-0.07404854148626328,-0.03548784926533699
1772364974363012000,4.87401220703125,0.3395646939404309,-0.025334347742795943,0.23780513203442094,-0.12464653700590134,-0.06505996733903885,-0.033850111067295074
1772364974373082000,4.88408203125,0.32443869220744814,-0.06979074458479881,0.31784371438920495,-0.11681710928678513,-0.03931092470884323,-0.030617035925388336
1772364974383153200,4.894153076171875,0.33111192289367314,-0.03721475515067577,0.353109089037776,-0.10656429827213287,-0.012374832294881344,-0.03602980449795723
1772364974393223200,4.90422314453125,0.33126587134636937,0.021963994526863095,0.3470592874795198,-0.08367016911506653,0.018828626722097397,-0.04449759051203728
1772364974403293200,4.914293212890625,0.30756321645863355,0.05893558857142925,0.3017641017258167,-0.06469567120075226,0.038693733513355255,-0.04759133234620094
1772364974413363200,4.92436328125,0.2961880734254606,0.06263795022070408,0.20081015711426733,-0.0452607199549675,0.03750569373369217,-0.04492337629199028
1772364974423433000,4.934432861328125,0.3434521298330277,0.055017538344860076,0.12335866864323615,-0.021323345601558685,0.03304000943899155,-0.046775929629802704
1772364974433503200,4.944503173828125,0.3690528734270483,0.04519406346678734,0.12742051125466822,0.007370617240667343,0.03891254588961601,-0.05420561879873276
1772364974443574300,4.95457421875,0.3357451356522739,0.0018517653465270996,0.14610183084905146,0.038060277700424194,0.0602162629365921,-0.06873203814029694
1772364974453644000,4.96464404296875,0.3454868139984086,0.02058919904232025,0.14403437692523002,0.0562179833650589,0.07771535962820053,-0.07499951869249344
1772364974463714000,4.974714111328125,0.37503658747915175,0.0560316838234663,0.07829436903595924,0.07236799597740173,0.08128605782985687,-0.07497917115688324
1772364974473784300,4.984784423828125,0.39758247354719783,0.055414428707957264,-0.028169278907775878,0.09064687043428421,0.07657812535762787,-0.07833235710859299
1772364974483854000,4.99485400390625,0.4075972697462886,0.10159282703697681,-0.1032487775504589,0.09950650483369827,0.06739330291748047,-0.0836791917681694
1772364974493925000,5.004925048828125,0.38442517807129767,0.15060732557475565,-0.10615034421086311,0.1050964742898941,0.054077230393886566,-0.08931630104780197
1772364974503995100,5.0149951171875,0.37453262001238763,0.16588789681494234,-0.15604805532395838,0.10499713569879532,0.024789797142148018,-0.09916658699512482
1772364974514065200,5.025065185546875,0.3829948530072346,0.15546996317505835,-0.1090782143563032,0.09690991789102554,0.019579853862524033,-0.11084241420030594
1772364974524135200,5.03513525390625,0.36560755527876315,0.14584931739270687,-0.03169862207770347,0.08689039200544357,0.02222498320043087,-0.11773408949375153
1772364974534205200,5.045205078125,0.35854934386294335,0.14286942479908465,-0.09472586387693882,0.08239790797233582,0.01103890873491764,-0.12614408135414124
1772364974544275000,5.05527490234375,0.36865488708540795,0.20049919146895406,-0.13528291519284247,0.08198768645524979,0.017906390130519867,-0.13128511607646942
1772364974554346000,5.065345947265625,0.3180087687578052,0.1784521948337555,-0.1819067192018032,0.09188959002494812,0.002418512012809515,-0.12460137158632278
1772364974564416300,5.075416259765625,0.2543070800294168,0.07738602201938628,-0.2883756278425455,0.10009114444255829,-0.03754099830985069,-0.1233116090297699
1772364974574486000,5.085486083984375,0.2357564558763057,0.030074820268154143,-0.2861047603011131,0.09656485170125961,-0.07372776418924332,-0.12783658504486084
1772364974584556000,5.09555615234375,0.21931710652243344,0.1280710841178894,-0.1850830111503601,0.0903109684586525,-0.08290161937475204,-0.12577396631240845
1772364974594626300,5.105626220703125,0.1350149849716574,0.03666822718381881,-0.030789690539240834,0.08362190425395966,-0.0730455294251442,-0.12467673420906067
1772364974604697300,5.115697265625,0.10592185095092281,-0.06871990048289299,0.09462357254624366,0.07208507508039474,-0.05636042729020119,-0.1317722052335739
1772364974614767000,5.12576708984375,0.0888219461959321,-0.010208674803376198,0.14797756159305572,0.04978403449058533,-0.0596129447221756,-0.1273771971464157
1772364974624837000,5.135837158203125,0.03667621869402937,-0.05154138666689396,0.08546411453485489,0.029108593240380287,-0.07556035369634628,-0.12424105405807495
1772364974634907000,5.145906982421875,0.02671906183315441,-0.05276011480689048,0.13901917911171913,0.011021733283996582,-0.07913804054260254,-0.12018585205078125
1772364974644977200,5.15597705078125,0.01852187298266217,-0.019960253489017487,0.2423819384306669,-0.014515410177409649,-0.07779984176158905,-0.10861516743898392
1772364974655047200,5.166047119140625,-0.02651776710739359,-0.000987257471680641,0.3111713970184326,-0.03448352590203285,-0.0726596787571907,-0.0950426310300827
1772364974665118200,5.1761181640625,-0.04932405767729506,0.004016834425926208,0.38173020336627955,-0.04862721636891365,-0.06504794210195541,-0.08550158143043518
1772364974675188000,5.18618798828125,-0.07010607587797567,-0.027055180186033246,0.4005389487326145,-0.04911297932267189,-0.039962027221918106,-0.07292987406253815
1772364974685258200,5.19625830078125,-0.0889024184204638,-0.06289046367704867,0.35794483863115306,-0.038426946848630905,-0.0222688727080822,-0.05586390569806099
1772364974695328300,5.206328369140625,-0.08237813121825456,-0.0628852029800415,0.26217852579057216,-0.01703031174838543,-0.013092683628201485,-0.04261601343750954
1772364974705398000,5.21639794921875,-0.0853481234723702,-0.03183189306855202,0.19942776284515856,0.012943197041749954,0.004444267600774765,-0.026469215750694275
1772364974715469000,5.226468994140625,-0.09595862054228782,0.010391630154848099,0.1789209813892841,0.044529348611831665,0.017144083976745605,-0.01837906241416931
1772364974725539300,5.236539306640625,-0.09044424103498458,0.03253331933617592,0.1245370647728443,0.07424898445606232,0.021905772387981415,-0.0034744180738925934
1772364974735609000,5.246609130859375,-0.08929468740737065,0.04796761983335018,0.08663315831422805,0.09375131875276566,0.017639387398958206,0.0013578878715634346
1772364974745679000,5.25667919921875,-0.048280430375877766,0.06457213315367698,0.08465805884897708,0.10584712773561478,0.019704602658748627,0.010402516461908817
1772364974755749000,5.2667490234375,-0.0013129092294722794,0.05500234077572822,0.11698095030486583,0.10925491154193878,0.02621896006166935,0.011303463950753212
1772364974765819100,5.276819091796875,0.04509120588051155,0.06121347037553787,0.10112345595955848,0.1088075041770935,0.035150643438100815,0.008524561300873756
1772364974775890200,5.28689013671875,0.08990229791169986,0.06670914518237113,0.03469312771856785,0.10712277889251709,0.03596583753824234,0.014088703319430351
1772364974785960200,5.296960205078125,0.14455441874396055,0.13839081808030604,-0.06155600020289421,0.08601661026477814,0.04473581537604332,0.032939836382865906
1772364974796030000,5.307030029296875,0.20574324786858633,0.16628128004670142,-0.16322949126064776,0.07780608534812927,0.05206669867038727,0.03261706233024597
1772364974806100200,5.317100341796875,0.15824715453712268,0.00374444722533226,-0.3480570663452148,0.0767584815621376,0.040380705147981644,0.025193501263856888
1772364974816170200,5.327170166015625,0.1150324465855956,-0.10687924300730228,-0.510026912933588,0.06847871840000153,0.008387884125113487,0.021671734750270844
1772364974826240000,5.337239990234375,0.1427084986163303,-0.11023147604465484,-0.4913029232412576,0.0461905412375927,-0.04677513241767883,0.031248409301042557
1772364974836311000,5.34731103515625,0.2654669363440946,0.059437692874670024,-0.3408253615260124,0.009140645153820515,-0.03654699772596359,0.014095256105065346
1772364974846381300,5.35738134765625,0.26528416365571317,0.12979425464868544,-0.0869277573466301,-0.012282797135412693,-0.012700363993644714,0.007975844666361809
1772364974856451000,5.367451171875,0.2107378595517948,0.0839472802311182,-0.15160218183100221,-0.02884180098772049,-0.016666077077388763,0.006889007985591888
1772364974866521000,5.37752099609375,0.23069060558779164,-0.025498013871908188,-0.28481179788112637,-0.04133220762014389,-0.03228582814335823,0.01330216508358717
1772364974876591000,5.387591064453125,0.2176263038912788,-0.07182721884846686,-0.3271615778326988,-0.04642763361334801,-0.04642268270254135,0.017354164272546768
1772364974886662000,5.397661865234375,0.19738034706236793,-0.03299509162902832,-0.24217677124738693,-0.041314978152513504,-0.04532338306307793,0.023151174187660217
1772364974896732200,5.407732177734375,0.15831912379479035,0.007555529946088791,-0.11356149725019932,-0.038549017161130905,-0.02609456144273281,0.02358527109026909
1772364974906802200,5.41780224609375,0.14497308254744856,0.03691431089937687,-0.04779577039778232,-0.03344836086034775,-0.011051757261157036,0.02734954282641411
1772364974916872000,5.427871826171875,0.1444251298084855,0.049016836625337595,-0.03213409088551998,-0.019967705011367798,0.0011111660860478878,0.03348173573613167
1772364974926942200,5.437942138671875,0.13613659114642068,0.05735913303494453,-0.007563713252544403,-0.014120468869805336,0.008292912505567074,0.03606713190674782
1772364974937012200,5.44801220703125,0.15588532077660783,0.04363689715266227,-0.005135024800896644,-0.007303309626877308,0.01103969756513834,0.03910979628562927
1772364974947083300,5.458083251953125,0.1583015698717907,0.004826981765031814,-0.0068336454123258585,-0.0001825466752052307,0.015911711379885674,0.05049656704068184
1772364974957153000,5.468153076171875,0.17895881091533228,0.01818973668515682,0.0077729720890522,0.005403699353337288,0.015912776812911034,0.05415787920355797
1772364974967223000,5.47822314453125,0.21704415662176907,0.053532268223166465,0.03669160805940628,0.004021963104605675,0.01736285723745823,0.055141597986221313
1772364974977293000,5.48829296875,0.23291891262913123,0.12627718643844127,0.10460428381264208,0.0021782563999295235,0.025528376922011375,0.05709635838866234
1772364974987363000,5.498363037109375,0.26356979748588055,0.2018096895456314,0.16724632568657397,0.005305871367454529,0.05113851651549339,0.04951892048120499
1772364974997434000,5.50843408203125,0.27043515321072187,0.2031780552893877,0.14656009601056574,0.0014562718570232391,0.07481881231069565,0.04802941530942917
1772364975007504100,5.518504150390625,0.24740879014935344,0.08438157999515533,0.009022679889202117,-0.004111422225832939,0.07620510458946228,0.05370967090129852
1772364975017574100,5.52857421875,0.2773270316163078,0.008900514814257621,-0.0833282715499401,-0.011102486401796341,0.0654672384262085,0.049575645476579666
1772364975027644200,5.53864404296875,0.3008232041465118,-0.014130232161283493,-0.10251929423213005,-0.016057737171649933,0.0547252893447876,0.05247385799884796
1772364975037714000,5.5487138671875,0.2677209806148894,-0.000571077886223793,-0.08678981018066406,-0.019820252433419228,0.0468553826212883,0.04614671692252159
1772364975047784200,5.5587841796875,0.2816624670047313,0.021236849296092986,-0.07730126634538173,-0.019446788355708122,0.04523444548249245,0.04285275936126709
1772364975057855200,5.568855224609375,0.3036128713976592,0.07499532749056816,-0.07677402760088443,-0.018246235325932503,0.05754038318991661,0.04032941535115242
1772364975067925200,5.57892529296875,0.30601107337949796,0.1328764385730028,-0.02829202850461006,-0.011417094618082047,0.06612612307071686,0.03806956484913826
1772364975077995000,5.5889951171875,0.256680805157125,0.10542086089253425,-0.05727496188282966,-0.010114275850355625,0.07088811695575714,0.0427604578435421
1772364975088065000,5.59906494140625,0.23031831994298843,0.053508887347579,-0.09744330614209175,-0.0048061516135931015,0.058188296854496,0.04722386226058006
1772364975098135300,5.60913525390625,0.24573201604355124,0.03792845637798309,-0.04208616057932377,-0.001421540044248104,0.05369900166988373,0.05425034463405609
1772364975108205000,5.619205078125,0.27406985645126547,0.04776479073762893,0.09582593407332897,-0.0001480989158153534,0.06719224154949188,0.060504138469696045
1772364975118276000,5.629276123046875,0.2955735765226185,0.049724108111858366,0.17843173656761646,-0.002458125352859497,0.08259516954421997,0.06366904079914093
1772364975128346000,5.63934619140625,0.3061629577392712,0.046885085293650625,0.1805506284177303,-0.010955295525491238,0.0967412143945694,0.0731138363480568
1772364975138416000,5.649416015625,0.2904910308276303,0.03853285201191902,0.13730594545304775,-0.01382964476943016,0.09994712471961975,0.0739671140909195
1772364975148486100,5.659486083984375,0.2969927043392323,0.07476736395359039,0.09316051425635814,-0.011531516909599304,0.10949215292930603,0.07233262062072754
1772364975158556200,5.66955615234375,0.2730396366206929,0.10271627810895442,0.01528057124018669,-0.01590282842516899,0.1088966652750969,0.07304821908473969
1772364975168626200,5.679626220703125,0.2579160643068142,0.08425356970131397,-0.05418284108638763,-0.010971633717417717,0.10347351431846619,0.07083054631948471
1772364975178697200,5.689697265625,0.2748778483659029,0.08013619751036166,-0.0554781415939331,0.0012695854529738426,0.10230491310358047,0.06550342589616776
1772364975188767200,5.699767333984375,0.3056032414972782,0.07130173366963863,-0.05189969858527183,0.00933409295976162,0.101197250187397,0.05946694314479828
1772364975198837000,5.7098369140625,0.3284081438276917,0.07568973949551581,-0.08838204780817031,0.023006228730082512,0.09079734236001968,0.05778249353170395
1772364975208907000,5.719906982421875,0.3403860933259129,0.10055471616089344,-0.11774842754602431,0.037110596895217896,0.07712747901678085,0.05379755422472954
1772364975218977300,5.729977294921875,0.32572935307249423,0.10702595800161362,-0.12694178782701493,0.04570861533284187,0.06038791686296463,0.052568770945072174
1772364975229048000,5.740048095703125,0.26717985947551204,0.10527239233255385,-0.10638006131350994,0.04669841378927231,0.05447752773761749,0.049760520458221436
1772364975239118000,5.7501181640625,0.24714429399427026,0.09768763629198074,-0.03510170851945877,0.04645899683237076,0.05084177851676941,0.04454125836491585
1772364975249188000,5.76018798828125,0.24141873768800867,0.07106207969486714,-0.006192424899339676,0.04213837534189224,0.05027453601360321,0.040316469967365265
1772364975259258000,5.770258056640625,0.2452773676112294,0.04492401435375214,0.03412555696368217,0.031195977702736855,0.04748993366956711,0.0403556227684021
1772364975269328100,5.780328125,0.24690827501500023,0.02089373494684696,0.07504851898252964,0.01811719685792923,0.04830500856041908,0.04040110856294632
1772364975279398100,5.790398193359375,0.26868451015111056,0.011935352465510368,0.09744155257642269,0.0018332991749048233,0.050432875752449036,0.038201604038476944
1772364975289469000,5.800468994140625,0.23401173110082743,0.014319032731652259,0.09419804061055183,-0.0169021338224411,0.05175217241048813,0.04137587919831276
1772364975299539200,5.810539306640625,0.22741876257658003,-0.001204115092754364,0.08607084825634956,-0.03436661139130592,0.05330346152186394,0.04210158810019493
1772364975309609200,5.820609130859375,0.22887995770294217,-0.027599370065331457,0.05037818810641765,-0.04768907278776169,0.04814426600933075,0.046452611684799194
1772364975319679000,5.830678955078125,0.2147747138524428,-0.0573299069404602,-0.016868717214465142,-0.054222606122493744,0.045998021960258484,0.0438791960477829
1772364975329749000,5.8407490234375,0.2360482418971136,-0.008284428742527961,-0.061548985940217966,-0.0500846691429615,0.04522453993558884,0.045028138905763626
1772364975339816400,5.85081640625,0.27617303927559406,0.04649111754000187,-0.12030746437907218,-0.034402113407850266,0.037097636610269547,0.041836872696876526
1772364975349887500,5.860887451171875,0.2899060157475993,0.08307400452792645,-0.16466799963116646,-0.025516126304864883,0.021098000928759575,0.04444485157728195
1772364975359957200,5.870957275390625,0.26781558182947335,0.09242693928480147,-0.17396949646174906,-0.00720449723303318,0.010514600202441216,0.03811664879322052
1772364975370027300,5.88102734375,0.2728713308490813,0.09421908339858054,-0.13215747664868832,0.0074719153344631195,0.005312235094606876,0.03609083592891693
1772364975380097300,5.89109716796875,0.29538886760547756,0.08672492825090884,-0.04981120187342167,0.01246986910700798,0.0003262651152908802,0.03336961939930916
1772364975390167300,5.901167236328125,0.31262455496881153,0.06194762986898422,0.028678981995582577,0.009495923295617104,-0.009443903341889381,0.02997632324695587
1772364975400238300,5.91123828125,0.3316909283580258,0.02105798559784889,0.11871698031723499,-0.003787658177316189,-0.018237395212054253,0.025788504630327225
1772364975410308400,5.921308349609375,0.31717326778173444,0.035034488502144814,0.18745675454437732,-0.012926392257213593,-0.013784382492303848,0.022985421121120453
1772364975420378400,5.93137841796875,0.29657857058038933,0.08156593805253505,0.19494389542937277,-0.013818284496665001,-0.00023288698866963387,0.017355764284729958
1772364975430448400,5.941448486328125,0.28936493114084005,0.11559738699197769,0.12314414910972117,-0.00900861993432045,0.015568806789815426,0.014737503603100777
1772364975440518400,5.951518310546875,0.2959525659028441,0.11381810235977172,0.004623568147420883,0.002741512842476368,0.011864616535604,0.01427544467151165
1772364975450588200,5.961588134765625,0.3222807469885796,0.05326221911013126,-0.1029658689558506,0.009149792604148388,-0.00645975349470973,0.010088156908750534
1772364975460659200,5.9716591796875,0.3156551913689822,-0.0076852938055992125,-0.11568857240676879,0.007665080018341541,-0.018171537667512894,0.016350047662854195
1772364975470729500,5.9817294921875,0.2907675279477611,-0.06658698010742664,-0.02035831289589405,-0.0022396640852093697,-0.012452734634280205,0.010193989612162113
1772364975480799500,5.991799560546875,0.33417138352952896,-0.014742811101675033,0.11488777741789817,-0.005816023331135511,0.00047797802835702896,0.00011232774704694748
1772364975490869200,6.001869140625,0.3394165907066315,0.03147007401883602,0.07991115658283234,-0.013298881240189075,-0.003136548912152648,-0.002002594992518425
1772364975500939300,6.011939208984375,0.3278068534662947,0.02171732628941536,-0.10908347505331038,-0.016262978315353394,-0.0339336097240448,-0.006556067615747452
1772364975511009300,6.02200927734375,0.25445198665913193,0.02924538370668888,-0.20779460917413234,-0.0009524635970592499,-0.04748561233282089,-0.0032740943133831024
1772364975521080300,6.032080322265625,0.1463683180318214,0.04722703059911727,-0.1075017588198185,0.01992698386311531,-0.03271199390292168,-0.007837420329451561
1772364975531150300,6.042150390625,0.10784235241841524,0.005913607957959175,-0.045722471255064005,0.01875980943441391,-0.01592622697353363,-0.012898119166493416
1772364975541220400,6.052220458984375,0.16423614755254237,-0.056956397452950475,-0.011390578064322471,0.013032148592174053,-0.0189872644841671,-0.010141747072339058
1772364975551290400,6.062290283203125,0.19126758153680712,-0.08395254092812537,-0.029508418557047843,0.01035256963223219,-0.028814027085900307,-0.005945458076894283
1772364975561360400,6.0723603515625,0.19051369442958382,-0.050887891194224356,0.011843582528829574,0.016185693442821503,-0.0109873590990901,-0.00042312685400247574
1772364975571430400,6.082430419921875,0.13715430768844672,-0.02670388253033161,0.15156243434250355,0.014752203598618507,0.008940163999795914,0.005482699256390333
1772364975581501200,6.092501220703125,0.11768739980747922,-0.032681203374266624,0.003326514074206352,-0.0011013271287083626,-0.011395201086997986,0.008403654210269451
1772364975591571500,6.102571533203125,0.1350892649174202,0.01642740318775177,-0.052044075492024416,-0.0010070577263832092,-0.02513742819428444,0.010869155637919903
1772364975601641500,6.112641357421875,0.16214648179691285,0.03896364464461803,0.03785948279500007,0.0031810281798243523,-0.014023791998624802,0.013202883303165436
1772364975611711200,6.122711181640625,0.18605620356407016,0.06433131013512611,0.046155601975321765,-0.008903775364160538,-0.01465749554336071,0.010104135610163212
1772364975621781200,6.13278125,0.181646022439003,0.10934300277233124,-0.009862053322792053,-0.01680430956184864,-0.027507249265909195,0.004791927989572287
1772364975631852300,6.142852294921875,0.16564515583394093,0.10112404048144817,-0.030613164928555488,-0.017696820199489594,-0.039556436240673065,-0.0019231252372264862
1772364975641922300,6.15292236328125,0.15879992958167566,0.07604629784822464,-0.05270867688059806,-0.020714448764920235,-0.03892393410205841,-0.004121032543480396
1772364975651992300,6.162992431640625,0.14934747997308148,0.003115501672029495,-0.1067214220970869,-0.02051462046802044,-0.04602217301726341,-0.0046227723360061646
1772364975662062300,6.173062255859375,0.17793856448950246,-0.04339782769978046,-0.10607435636520385,-0.024579670280218124,-0.0550159327685833,-0.006142372265458107
1772364975672132400,6.18313232421875,0.2092094078755006,-0.09149579591453075,-0.042428105884790415,-0.03265632688999176,-0.061643894761800766,-0.005276843905448914
1772364975682202400,6.193202392578125,0.20565127700250593,-0.09276070128381252,0.03882628200054168,-0.042310021817684174,-0.05791999772191048,-0.0014682570472359657
1772364975692273400,6.2032734375,0.20626414820384234,-0.06630757864415646,0.07963993842601776,-0.054338812828063965,-0.052468396723270416,-0.003805181011557579
1772364975702343200,6.21334326171875,0.2167042206102982,-0.018146482065320015,0.08685060045719147,-0.055591829121112823,-0.047941550612449646,-0.005851288326084614
1772364975712413200,6.2234130859375,0.22223967943824827,0.053643327382206916,0.05673018748164177,-0.04621589556336403,-0.0512082539498806,-0.007289128378033638
1772364975722483500,6.2334833984375,0.18765457867141813,0.0909533596009016,0.047100773870944974,-0.032114457339048386,-0.04367763549089432,-0.006853967905044556
1772364975732553200,6.24355322265625,0.15277986557455733,0.09426876775920391,0.02251812127828598,-0.017179429531097412,-0.04386090859770775,-0.0022811638191342354
1772364975742623200,6.253623291015625,0.13981598291206174,0.0664361734598875,0.016197101563215254,-0.000627618283033371,-0.0458068810403347,-0.001418832689523697
1772364975752694300,6.2636943359375,0.14181808911524713,0.024615385818481442,0.05672726487219333,0.008124479092657566,-0.0402163565158844,0.0037372102960944176
1772364975762764300,6.273764404296875,0.15475571395847945,-0.026018238353729246,0.14076573051810265,0.012799658812582493,-0.026946360245347023,0.004749211482703686
1772364975772834300,6.283834228515625,0.18004521791255101,-0.029447628280520437,0.19491116220355031,0.010227479971945286,-0.012627283111214638,0.008036564104259014
1772364975782904300,6.293904296875,0.21038257984071967,-0.002717442265152931,0.21646365332007406,0.005040441639721394,0.0005271350964903831,0.008243225514888763
1772364975792974300,6.303974365234375,0.2176654303252697,-0.0008797054439783096,0.170534261316061,0.002102981321513653,0.01423687394708395,0.013076649978756905
1772364975803044400,6.31404443359375,0.21774203922543672,-0.008143558967113494,0.1600216351300478,0.0051887864246964455,0.028390508145093918,0.015973370522260666
1772364975813115400,6.324115478515625,0.24082630648650227,-0.026006547915935516,0.12687924398481845,-0.0041177887469530106,0.03455796837806702,0.013326878659427166
1772364975823185400,6.334185302734375,0.24386344569269566,-0.0030552959173917767,0.03544423834681511,-0.0073580569587647915,0.02765265665948391,0.013331938534975052
1772364975833255200,6.344255126953125,0.24662030665278434,0.017114800930023193,-0.014184592697024344,-0.008091241121292114,0.026576785370707512,0.008440885692834854
1772364975843325400,6.354325439453125,0.24711055612144991,0.04814063831269741,-0.0156897365629673,-0.0020288219675421715,0.02867721952497959,0.00687894131988287
1772364975853395200,6.364395263671875,0.2515339072553441,0.06665010847151279,-0.051259062594175335,0.003433062694966793,0.02704741433262825,0.00615488039329648
1772364975863465200,6.37446533203125,0.24720407962379976,0.054713002440333364,-0.06996727019548415,0.006567071191966534,0.021680081263184547,0.005006259307265282
1772364975873536300,6.384536376953125,0.23333319251844659,0.02382394317984581,-0.05307400306165218,0.012329259887337685,0.013452092185616493,0.0032025007531046867
1772364975883606500,6.3946064453125,0.22979919143971053,-0.02137304289638996,-0.05556932700872421,0.008586186915636063,0.012103734537959099,0.003408363088965416
1772364975893676300,6.40467626953125,0.2136944626013748,-0.028371523481607437,-0.023030162453651425,0.007219179533421993,0.010724165476858616,0.0027760756202042103
1772364975903746300,6.414746337890625,0.2293641610233113,0.025614918249845502,0.016719079610705373,0.004800231195986271,0.014216368086636066,-0.0008399644866585732
1772364975913816300,6.42481640625,0.23526410578209905,0.055602060234546655,0.058955462315678595,-0.0015151835978031158,0.023738138377666473,-0.00019723735749721527
1772364975923886300,6.43488623046875,0.20526841516476124,0.025090017592906952,0.06768588126003741,-0.01406160183250904,0.026580531150102615,0.0049035148695111275
1772364975933957400,6.444957275390625,0.2063316422157921,0.018553309300541877,0.1041466031730175,-0.02376003935933113,0.03296676650643349,0.007010715082287788
1772364975944027400,6.45502734375,0.19704775410713626,-0.013325930041074753,0.13345569976568222,-0.041658081114292145,0.03707335889339447,0.00936255231499672
1772364975954097200,6.46509716796875,0.18882807943020014,-0.0165828860104084,0.13841127634644507,-0.05109461396932602,0.04222215712070465,0.01625523716211319
1772364975964167400,6.47516748046875,0.19022042883774265,0.01582008494436741,0.12683482032120227,-0.05463288724422455,0.05677872896194458,0.015467474237084389
1772364975974237400,6.485237548828125,0.18887246656119822,0.029367548781633376,0.09750935711562633,-0.0469798669219017,0.06918474286794662,0.01852680742740631
1772364975984307200,6.49530712890625,0.19752510756161062,0.027483634731173514,0.003984685721993446,-0.024715039879083633,0.07703840732574463,0.025935720652341843
1772364975994378200,6.505378173828125,0.20734430812336505,0.041433249628543854,-0.08302432016730309,0.0018794666975736618,0.06808274239301682,0.026028774678707123
1772364976004448500,6.515448486328125,0.2139951443146914,0.07734452096521854,-0.09758768304884433,0.026925962418317795,0.06829392910003662,0.02847089245915413
1772364976014518300,6.525518310546875,0.21676208827737717,0.1139846910983324,-0.07183189502358436,0.04904119670391083,0.06969616562128067,0.03211122006177902
1772364976024588300,6.53558837890625,0.1866060194665566,0.10842588792741298,-0.050206923192739485,0.05868183821439743,0.059017155319452286,0.03181454539299011
1772364976034658600,6.545658447265625,0.21124507842157034,0.08306056052446364,-0.0038145898520946502,0.05784906446933746,0.051190510392189026,0.03146173059940338
1772364976044729300,6.555729248046875,0.24715059587089344,0.045936990788578984,0.08594692961573601,0.05485939979553223,0.05839170143008232,0.027377504855394363
1772364976054799400,6.56579931640625,0.24305432126689702,0.029446459236741065,0.13615385280847547,0.043239492923021317,0.06887637078762054,0.02620944380760193
1772364976064869400,6.575869384765625,0.2521859962222166,0.032034137642383574,0.11010872644782066,0.019327770918607712,0.07460162788629532,0.04685906320810318
1772364976074939100,6.585939208984375,0.38538364783991125,0.16012743359208106,0.06820376765429974,-0.005657016299664974,0.08200480043888092,0.06375596672296524
1772364976085009400,6.596009521484375,0.4098775261705741,0.13444704889059067,0.03999415673613548,-0.002682797610759735,0.08957669883966446,0.04914852976799011
1772364976095079400,6.606079345703125,0.2700247823115438,0.046647184884548186,-0.10313479578197002,0.002301393076777458,0.08593786507844925,0.04215847700834274
1772364976105150200,6.616150146484375,0.21349983507841824,-0.013918635237216948,-0.19568039301037787,-0.003873945213854313,0.06735751777887344,0.04057016596198082
1772364976115220200,6.62622021484375,0.25964456859985363,-0.03550736671090126,-0.23855390457510947,-0.011159113608300686,0.0416385680437088,0.02480206824839115
1772364976125290500,6.63629052734375,0.30209291355507445,-0.026871640312671658,-0.14231997422277926,-0.017611952498555183,0.033945225179195404,0.01834789663553238
1772364976135360300,6.6463603515625,0.3126106725739315,0.01132744970023632,-0.003338204512000084,-0.025848938152194023,0.048137035220861435,0.019847363233566284
1772364976145430300,6.65643017578125,0.3218997483143583,0.0017255086183547972,0.042669513425230975,-0.029184281826019287,0.05911991372704506,0.01946493424475193
1772364976155500300,6.666500244140625,0.3043727863868698,-0.05713759923875331,-0.009372808501124381,-0.022974489256739616,0.06043252348899841,0.025477871298789978
1772364976165571300,6.6765712890625,0.30824301541633903,-0.06058686290979385,-0.03201660198569298,-0.015675563365221024,0.056173063814640045,0.025709833949804306
1772364976175641300,6.686641357421875,0.2893240876737982,-0.041323359513282774,-0.0045627778708934785,-0.00779641792178154,0.05049616098403931,0.03074592351913452
1772364976185711400,6.69671142578125,0.2812556215032004,-0.03346037105321884,0.025991350346803662,-0.00010946951806545258,0.04948629438877106,0.028499014675617218
1772364976195781000,6.706781005859375,0.29851640677517277,-0.003961304846405982,0.051606853118538853,0.006436561234295368,0.0519728809595108,0.030014675110578537
1772364976205851400,6.716851318359375,0.3168259156487882,0.05494798023998737,0.056579380834102626,0.02361288294196129,0.05124343931674957,0.026387449353933334
1772364976215921400,6.72692138671875,0.34048275863341987,0.13165654138922692,0.07102467029392719,0.03483420982956886,0.05175218731164932,0.01641817018389702
1772364976225992400,6.736992431640625,0.3035422538468614,0.13589315604567526,0.04856324763894081,0.03666406869888306,0.05118866264820099,0.014976602047681808
1772364976236062200,6.747062255859375,0.2828644632056355,0.10050970797538757,-0.01698152993917465,0.04048598185181618,0.04234449937939644,0.009609266184270382
1772364976246132500,6.757132568359375,0.28350853326283393,0.09173544988930225,-0.04478840527534485,0.045050110667943954,0.02690109610557556,0.003999849781394005
1772364976256202200,6.7672021484375,0.2825066627439111,0.09742109431028366,-0.0383200860440731,0.04396095871925354,0.012795502319931984,0.0001555243507027626
1772364976266272300,6.777272216796875,0.239293324765563,0.11264379788339138,-0.02601940739750862,0.04023013636469841,0.003867254126816988,-0.004477044567465782
1772364976276342300,6.78734228515625,0.22893462876593693,0.10553718074858189,-0.05211655620634555,0.03339557349681854,0.00037913303822278976,-0.010326302610337734
1772364976286413300,6.797413330078125,0.223188504595682,0.05124503406882286,-0.10918167473077774,0.02874675579369068,-0.007108610589057207,-0.010584364645183086
1772364976296483300,6.8074833984375,0.20963764322493225,-0.03879764042794704,-0.18091010937988758,0.024435006082057953,-0.01857314258813858,-0.010770786553621292
1772364976306553300,6.81755322265625,0.21899244114533065,-0.061380059114098544,-0.17535890499353407,0.0158122219145298,-0.03139732778072357,-0.008429335430264473
1772364976316623000,6.827623046875,0.20038321867277845,-0.04476385535597801,-0.1514905381500721,0.0010589389130473137,-0.048409152776002884,-0.006523418240249157
1772364976326693400,6.837693359375,0.18159845697022972,-0.03153670951426029,-0.12121347330808639,-0.01662445068359375,-0.06077980250120163,-0.006791864521801472
1772364976336762600,6.8477626953125,0.16785503216944633,-0.009270517170429229,-0.06704232265949249,-0.027769166976213455,-0.06004270911216736,-0.0067629944533109665
1772364976346833700,6.857833740234375,0.1805943214289844,-0.023157588225603102,-0.005839373677968979,-0.030698111280798912,-0.045091453939676285,0.0016640452668070793
1772364976356903700,6.867903564453125,0.18357538306638596,-0.04881459205150604,0.005826514196395874,-0.03336283564567566,-0.03652948886156082,0.006734753493219614
1772364976366973700,6.8779736328125,0.16705715979002414,-0.05571954913437366,-0.022970541220903397,-0.03486086428165436,-0.036846138536930084,0.013528743758797646
1772364976377043700,6.888043701171875,0.16852451066253707,-0.05645078601837158,-0.02862228337228298,-0.03431492671370506,-0.039076436311006546,0.021637165918946266
1772364976387113700,6.89811376953125,0.20231544711068272,-0.029781974801421165,0.02966448590159416,-0.029938820749521255,-0.03790571168065071,0.016870373860001564
1772364976397184500,6.9081845703125,0.2579203568894416,0.05743161374926567,0.07148994971811772,-0.03188472241163254,-0.03632482886314392,0.017242684960365295
1772364976407254800,6.9182548828125,0.24733141406420617,0.07276946813464165,0.08450432959198952,-0.03214651346206665,-0.025582434609532356,0.015605107881128788
1772364976417324800,6.92832470703125,0.2503833489807322,0.05946107375025749,0.10021978511810302,-0.029381338506937027,-0.02061343565583229,0.009210005402565002
1772364976427394600,6.93839453125,0.27876013315934683,0.04409633135795593,0.10793372049629688,-0.029617827385663986,-0.01838809624314308,0.006944986525923014
1772364976437464800,6.94846484375,0.31505671401917934,0.053016719916462896,0.09761632462143897,-0.028691060841083527,-0.021544165909290314,0.0015463335439562798
1772364976447534800,6.958534912109375,0.32712760249786077,0.0962163946956396,0.07410334708690643,-0.028188258409500122,-0.01930391415953636,-0.004526206292212009
1772364976457605600,6.968605712890625,0.31971688784994184,0.13155892623364926,0.044698973426222796,-0.02089276723563671,-0.018356356769800186,-0.015430307947099209
1772364976467675600,6.978675537109375,0.30946609093789007,0.0996978070706129,-0.01530453663766384,-0.011465976014733315,-0.02770378813147545,-0.019352879375219345
1772364976477745700,6.98874560546875,0.30748229670953003,0.043323008897900576,-0.06989712756872177,-0.005034203641116619,-0.03897736221551895,-0.021659065037965775
1772364976487815700,6.998815673828125,0.306448131356202,0.025891981625556944,-0.059174658024311065,0.010807076469063759,-0.042556118220090866,-0.026173658668994904
1772364976497885700,7.0088857421875,0.29620743571305647,0.05032733470201492,-0.030099954709410667,0.020359059795737267,-0.046956866979599,-0.03126855194568634
1772364976507955700,7.018955810546875,0.2651526462305337,0.06137012224197387,-0.013568506625294685,0.02482890896499157,-0.052233390510082245,-0.03314980864524841
1772364976518026500,7.029026611328125,0.21956713576074688,0.046402854734659195,0.01309504389464855,0.02548101171851158,-0.052618034183979034,-0.0378153994679451
1772364976528096800,7.0390966796875,0.2111725611746311,0.006319266149401664,0.04488309782147407,0.02209799736738205,-0.051102958619594574,-0.039283864200115204
1772364976538166800,7.049166748046875,0.20367866175528615,-0.046430327263474465,0.060522565501928326,0.013951749540865421,-0.05518646910786629,-0.0367094948887825
1772364976548236500,7.059236572265625,0.21432496079094707,-0.061276598739624016,0.06459083785414696,0.002950497902929783,-0.05687038600444794,-0.03936466574668884
1772364976558306800,7.069306884765625,0.21847532193604854,-0.042976387417316436,0.07515782457590103,-0.010831449180841446,-0.061817217618227005,-0.03947683796286583
1772364976568376800,7.079376953125,0.21946049704849718,0.017224106523394584,0.08993103081583977,-0.01850135251879692,-0.06452804803848267,-0.042043060064315796
1772364976578448000,7.08944775390625,0.20782566189952192,0.03997369846999645,0.10231471157073974,-0.031706809997558594,-0.06390749663114548,-0.043323032557964325
1772364976588517600,7.099517578125,0.15172630140101537,-0.011511574095487594,0.08437164312303065,-0.04762132465839386,-0.06385236978530884,-0.0397285595536232
1772364976598587600,7.109587646484375,0.13476692849472163,-0.04939268420040607,0.0715560006916523,-0.05610785260796547,-0.05950840190052986,-0.037150781601667404
1772364976608657700,7.11965771484375,0.15046903134891762,-0.045295185753703116,0.04365267924368381,-0.05568920448422432,-0.0560833103954792,-0.03785998001694679
1772364976618727700,7.129727783203125,0.15378219275120644,-0.029213235002756115,-0.05154080214500427,-0.048030659556388855,-0.05835166200995445,-0.03396979719400406
1772364976628797700,7.139797607421875,0.14545742286513558,-0.012329904741048812,-0.13036825514435768,-0.03484748303890228,-0.06525804102420807,-0.03373410552740097
1772364976638868700,7.14986865234375,0.14161262967102228,0.022486557096242903,-0.1574889017820358,-0.01055305078625679,-0.07002969831228256,-0.036292605102062225
1772364976648938800,7.159938720703125,0.10892532534953206,0.07461129660904407,-0.1473813492655754,0.014569079503417015,-0.07292695343494415,-0.036360785365104675
1772364976659008800,7.1700087890625,0.09623164706369862,0.09960954426527023,-0.15159575209021567,0.03143414855003357,-0.08144089579582214,-0.03502605855464935
1772364976669078500,7.18007861328125,0.10607755296928807,0.0800952809780836,-0.08897124587297439,0.034373752772808075,-0.09341154247522354,-0.029539145529270172
1772364976679148800,7.190148681640625,0.11166906196656637,0.02134206323623657,-0.0066822542428970335,0.029312863945961,-0.10012252628803253,-0.02474258281290531
1772364976689218800,7.20021875,0.12849365691151468,-0.0006003039807081222,0.11729016238451004,0.016652461141347885,-0.08742643892765045,-0.023060796782374382
1772364976699289900,7.210289794921875,0.1288818525115028,-0.02373100419938564,0.19338263746201992,-0.004555793479084969,-0.07541514933109283,-0.024087708443403244
1772364976709359600,7.220359619140625,0.15056056382358074,0.0063040685802698134,0.20515549284219742,-0.01623748242855072,-0.059792786836624146,-0.0205124169588089
1772364976719429600,7.2304296875,0.16496932066529987,0.024317864176630972,0.12618366293609143,-0.027780689299106598,-0.03597187623381615,-0.01955527812242508
1772364976729500000,7.2405,0.17534721455574034,0.01652326477766037,0.01424012227654457,-0.022411756217479706,-0.030067648738622665,-0.014067300595343113
1772364976739569700,7.250569580078125,0.16927967641139402,-0.017553776869177817,-0.12240063726603984,-0.02102966047823429,-0.03527890518307686,-0.007792520336806774
1772364976749639700,7.2606396484375,0.18395039039123803,-0.0304296250551939,-0.14501228204667568,-0.018294062465429306,-0.04876195639371872,-0.005290481261909008
1772364976759710700,7.270710693359375,0.22831288013840093,0.014906477230787276,-0.06100421153903007,-0.02547191083431244,-0.05154300853610039,-0.005112208425998688
1772364976769780700,7.28078076171875,0.2379411795042455,0.060447746700048446,0.03010638445019722,-0.02494114264845848,-0.0418885163962841,-0.005728996358811855
1772364976779850800,7.290850830078125,0.24316200115876271,0.09447802659571171,0.10427636703252792,-0.027717843651771545,-0.021151943132281303,-0.009095604531466961
1772364976789920800,7.300920654296875,0.2204455625630915,0.08535831607282161,0.08379647358357906,-0.024120710790157318,-0.004127418622374535,-0.006520860828459263
1772364976799990500,7.310990478515625,0.19257815267872064,0.03833236100375652,-0.017432780838012696,-0.011324318125844002,0.004245526622980833,-0.003766832873225212
1772364976810060800,7.321060791015625,0.18887102352278307,-0.0007516951501369476,-0.07986322578787804,0.005488216876983643,0.003969623241573572,-0.0003832867369055748
1772364976820131800,7.3311318359375,0.19395999895855784,-0.0032651392757892606,-0.06870119578242302,0.018105478957295418,0.005758613348007202,0.0022784899920225143
1772364976830201600,7.34120166015625,0.2128189766747877,0.024361118796467778,-0.003033668607473373,0.030384784564375877,0.01742459088563919,-0.0001780092716217041
1772364976840271600,7.351271728515625,0.23404559683781115,0.03699906657338142,0.050372927409410476,0.0411541685461998,0.032342854887247086,0.002220645546913147
1772364976850342000,7.361341796875,0.23416162443291394,0.025977321821451186,0.05373275923132896,0.044857293367385864,0.04056429862976074,0.005263839848339558
1772364976860411600,7.37141162109375,0.2536217646463774,0.0032242227435111998,0.0024836335092782973,0.0415242463350296,0.038334254175424576,0.008720995858311653
1772364976870481700,7.381481689453125,0.2662814858636819,-0.019801263535022734,-0.0687584789276123,0.0317525789141655,0.008978763595223427,0.013888327404856682
1772364976880552700,7.391552734375,0.23558564762035383,-0.0240682733297348,-0.08356324934959411,0.032657261937856674,0.0007202047854661942,0.020560717210173607
1772364976890622700,7.401622802734375,0.20716683266460895,0.042376667958497996,0.02472001523673534,0.03665066882967949,0.025033533573150635,0.015331600792706013
1772364976900692700,7.411692626953125,0.2435572658203542,0.12489829930067062,0.1280231533229351,0.028585638850927353,0.03326534852385521,0.00843364093452692
1772364976910762800,7.4217626953125,0.2571344124098308,0.14721943670213222,0.08618833715617656,0.008830312639474869,0.03031616471707821,0.005899110808968544
1772364976920832500,7.43183251953125,0.25403469282882285,0.13737959521114826,0.024608371555805204,0.002169305458664894,0.01715497486293316,0.005889523308724165
1772364976930902800,7.44190283203125,0.2239457161711529,0.03868424318134785,-0.06647708999216556,-0.00017427559942007065,0.01097084954380989,0.01134847104549408
1772364976940973800,7.451973876953125,0.18459875303106382,0.06289513985216617,-0.00696516283750534,0.0025371843948960304,0.029900362715125084,0.006180285941809416
1772364976951043600,7.462043701171875,0.1862844045630656,0.02207797629535198,0.02521510527729988,-0.005415014456957579,0.028869720175862312,0.006185878533869982
1772364976961113600,7.472113525390625,0.22081037728749214,-0.007901566904783249,-0.043318917244672774,-0.01020125299692154,0.014635633677244186,-0.00009215064346790314
1772364976971183900,7.482183837890625,0.23358466479517517,0.010348960056900978,0.01004910032749176,-0.01777608133852482,0.006779307499527931,0.006497841794043779
1772364976981253600,7.492253662109375,0.17344118000501765,-0.08120996422171592,0.022094342908263204,-0.019911739975214005,0.02088415063917637,0.012556369416415691
1772364976991323600,7.50232373046875,0.1903392511781305,-0.02622632814645767,0.048938510692119595,-0.011904147453606129,0.03532833606004715,0.011879393830895424
1772364977001394000,7.512393798828125,0.20524600240355356,-0.006669979283213615,0.04234510377645492,-0.0056719183921813965,0.0447528213262558,0.018109967932105064
1772364977011464700,7.522464599609375,0.16296349726822226,-0.03814940565228462,-0.005908931782841682,-0.004467370919883251,0.044191960245370865,0.023775842040777206
1772364977021534700,7.53253466796875,0.16394193211263045,-0.02560848850905895,-0.0054985974162817,-0.00022042077034711838,0.05058889463543892,0.026501215994358063
1772364977031604700,7.542604736328125,0.20258794390913099,0.043650341156125066,0.030212767434120175,0.00020648352801799774,0.050564393401145935,0.03178306296467781
1772364977041674500,7.552674560546875,0.21913203227911143,0.09204290840327739,0.05472586192190647,0.006850882433354855,0.05264641344547272,0.0333857536315918
1772364977051744800,7.562744873046875,0.24195934737073257,0.12565174801647663,0.06235094997286796,0.006500410847365856,0.05621451884508133,0.03328695148229599
