time,seconds_elapsed,accel_x,accel_y,accel_z,gyro_x,gyro_y,gyro_z
1772363418601788200,0.1217880859375,-0.07587547132596373,-0.05024725520312786,-0.20531857444941995,0.02600010111927986,-0.03236787021160126,0.0005982816219329834
1772363418611858200,0.131858154296875,-0.0834530669733882,-0.06193301682174206,-0.09533552020788193,0.026181500405073166,-0.012557024136185646,-0.00990963913500309
1772363418621927200,0.14192724609375,-0.04236205491125583,-0.046019408375024794,-0.06805120744109153,0.026306137442588806,-0.006710053887218237,-0.018679428845643997
1772363418631997200,0.1519970703125,-0.018065379653126,0.014810615640878676,-0.12666530897319317,0.035599563270807266,-0.009244676679372787,-0.010826276615262032
1772363418642066200,0.162066162109375,-0.045295770275592805,0.0585585719525814,-0.10869593704044818,0.04880111664533615,-0.0028578839264810085,-0.014404499903321266
1772363418652136400,0.172136474609375,0.02536795775145292,0.0954798971146345,-0.11246376514136791,0.04694283753633499,-0.02330489456653595,-0.02581535466015339
1772363418662204200,0.1822041015625,0.07220438159778714,0.08102291721701621,-0.1898228991538286,0.050759412348270416,-0.0504012294113636,-0.022342856973409653
1772363418672274400,0.1922744140625,0.06892170666530728,0.07951017456650733,0.14426117141842842,0.04881414398550987,-0.005671180319041014,-0.018936775624752045
1772363418682343200,0.20234326171875,-0.03448927570953965,-0.017034136909246444,0.2243523607432842,0.008330103941261768,0.024265680462121964,-0.01373881846666336
1772363418692413400,0.212413330078125,-0.03834580500721931,-0.012568974193930625,-0.023069909942150114,-0.0019561881199479103,-0.007739153690636158,-0.011951173655688763
1772363418702482200,0.222482177734375,0.0038140053302049633,-0.01368891813457012,-0.025941081464290618,-0.006395677570253611,-0.019185952842235565,-0.00543814804404974
1772363418712552200,0.23255224609375,-0.027992753297090528,-0.06445230616629123,0.11862287229299545,-0.016149019822478294,0.0055561363697052,-0.0022635445930063725
1772363418722621200,0.24262109375,-0.01646130545735359,-0.05435527504384517,0.1485883869677782,-0.0024382686242461205,0.032054588198661804,0.004390896297991276
1772363418732691200,0.252691162109375,-0.028045068006217477,-0.09175357006788253,0.31299510531425473,-0.020268341526389122,0.07860281318426132,0.016330033540725708
1772363418742760200,0.26276025390625,-0.041241526448726654,-0.1443131938666105,0.07740881837308407,-0.06551545113325119,0.05191394314169884,0.013209608383476734
1772363418752830200,0.272830322265625,0.06124181968718767,-0.0943558615207672,-0.2657142987012863,-0.06093325838446617,-0.008094392716884613,0.017746353521943092
1772363418762899200,0.282899169921875,0.07602846993058919,0.016373627173900604,-0.08475099782943725,-0.03333359211683273,0.018179023638367653,0.015454702079296112
1772363418772969200,0.29296923828125,0.02555427410379052,0.09124445150196552,0.10817103638350963,-0.008835133165121078,0.056562069803476334,0.011654285714030266
1772363418783038200,0.3030380859375,0.04884586397260427,0.14148060078918934,-0.05310732080936432,-0.0009130276739597321,0.0270643662661314,0.008320541121065617
1772363418793108200,0.313108154296875,0.04867065353617072,0.12243921571075915,-0.1551321095228195,0.0063308235257864,-0.008954187855124474,0.008179579861462116
1772363418803178200,0.32317822265625,0.05980827975273132,0.09258592923879623,-0.05317103369534015,0.023264534771442413,-0.014428049325942993,0.002667901571840048
1772363418813247200,0.333247314453125,0.1096013614475727,0.09926116921901702,0.0834416687965393,0.04003366827964783,-0.0023291539400815964,-0.004372660536319017
1772363418823317200,0.343317138671875,0.09854133051186799,0.018922142612934113,0.1236006607055664,0.03395553305745125,0.005276301875710487,-0.0010889829136431217
1772363418833386200,0.35338623046875,0.04215075024813413,-0.09375088136494159,0.1722510021060705,0.046022605150938034,0.03479337692260742,-0.005177093204110861
1772363418843456300,0.363456298828125,-0.005756663830578327,-0.19169103111326694,0.14629998376965522,0.013740300200879574,0.038119133561849594,0.008612754754722118
1772363418853525200,0.373525146484375,-0.0657597355030477,-0.13484861542880533,-0.11045359436273575,0.009617474861443043,0.007048343308269978,0.014090949669480324
1772363418863595300,0.38359521484375,0.02840133409798145,0.02895487632751465,-0.14321429271399974,0.015576831065118313,-0.024448595941066742,-0.0013846796937286854
1772363418873664300,0.393664306640625,0.14266338083297014,0.13211656011641024,-0.07596446478366851,0.021568937227129936,-0.01897888444364071,-0.009344637393951416
1772363418883734300,0.403734375,0.14901611086055636,0.21629005031883716,-0.05869710364043712,0.010046770796179771,-0.013979066163301468,-0.013331122696399689
1772363418893803300,0.41380322265625,0.08158712697103619,0.152025960201025,-0.1749228516638279,-0.0025070905685424805,-0.02549532987177372,-0.013676196336746216
1772363418903873300,0.423873291015625,0.07147285245284438,0.03564589839875698,-0.18264964652359483,-0.009628916159272194,-0.042319584637880325,-0.017111940309405327
1772363418913942300,0.4339423828125,0.10445186972990632,-0.04973229141831398,-0.10056699112057685,-0.018566802144050598,-0.05504311993718147,-0.02088935673236847
1772363418924012300,0.44401220703125,0.14128829308748245,-0.0389911171734333,0.03487959020137787,-0.02067895606160164,-0.059255439788103104,-0.023742401972413063
1772363418934081300,0.454081298828125,0.121287853718549,0.01803776099383831,0.1435866331577301,-0.023012692108750343,-0.042014025151729584,-0.028341714292764664
1772363418944151000,0.464151123046875,0.059532531551271674,0.08459609952867031,0.17449731972813606,-0.009129101410508156,-0.02190369740128517,-0.033586278557777405
1772363418954220300,0.47422021484375,0.004047521825134754,0.10857727909684181,0.11141922452449798,-0.0025631291791796684,-0.007775527890771627,-0.03667386621236801
1772363418964290000,0.4842900390625,-0.0666379796423018,0.02818447647690773,-0.024259411987662315,-0.0017750998958945274,-0.015515739098191261,-0.03872743248939514
1772363418974359300,0.494359375,-0.07122296934500336,-0.07003098308146,-0.12614333092570304,0.0014378214254975319,-0.03671930730342865,-0.0345134474337101
1772363418984429300,0.50442919921875,-0.03355710942596197,-0.0900602101534605,-0.11201835946142673,0.005336955189704895,-0.058842986822128296,-0.035094812512397766
1772363418994498300,0.514498291015625,0.0065500061653554435,-0.11359598404169081,-0.006408697998523712,0.005073553882539272,-0.06395097076892853,-0.03661075979471207
1772363419004568300,0.524568359375,-0.016767741058021784,-0.08933423396646976,0.06668693335056304,0.003592570312321186,-0.05952932685613632,-0.034919653087854385
1772363419014638000,0.53463818359375,-0.07070932073444128,-0.09246201059818267,0.08977730155885219,0.00634697824716568,-0.04170508310198784,-0.03468356654047966
1772363419024707300,0.544707275390625,-0.09376417923793195,-0.12623159373104573,0.037459085300564764,0.01109539344906807,-0.029210863634943962,-0.03384866565465927
1772363419034777000,0.554777099609375,-0.12358911639824509,-0.1412298408985138,-0.09140168789029121,0.015340538695454597,-0.03487241640686989,-0.03008902259171009
1772363419044846300,0.564846435546875,-0.10689312540218233,-0.09831950445473193,-0.13986790489554404,0.016815131530165672,-0.04331756755709648,-0.027483118698000908
1772363419054916000,0.574916015625,-0.06572977875620126,-0.032461423143744464,-0.07154547929763794,0.02144753560423851,-0.045189592987298965,-0.027463076636195183
1772363419064985300,0.5849853515625,-0.02110050956532359,0.03410568321943283,0.00525543631017208,0.029478829354047775,-0.03729518502950668,-0.025988483801484108
1772363419075055400,0.595055419921875,0.04916150579303503,0.13698328936994075,0.06495967116653918,0.031661197543144226,-0.04352205991744995,-0.02690897136926651
1772363419085124400,0.605124267578125,0.06294438582137227,0.17819617424607276,0.08709668417274952,0.020686578005552292,-0.05367136746644974,-0.02311370149254799
1772363419095194400,0.6151943359375,-0.00095963881239295,0.15548749883174895,0.09451368243098258,0.003024417906999588,-0.05698923021554947,-0.024540651589632034
1772363419105263400,0.625263427734375,-0.05820099068656563,0.0963993500471115,0.10528583633601665,-0.008945425972342491,-0.04822130501270294,-0.029495995491743088
1772363419115333400,0.63533349609375,-0.1271063307389617,-0.005547697255015373,0.09160159437656402,-0.019973309710621834,-0.031995996832847595,-0.02528740093111992
1772363419125402000,0.645402099609375,-0.15996990494281052,-0.11646131034493445,0.0169184015750885,-0.028025910258293152,-0.018769674003124237,-0.020014341920614243
1772363419135472400,0.655472412109375,-0.16783333179429172,-0.18783610925078392,-0.041406946143507956,-0.030754918232560158,-0.01671552285552025,-0.010815509594976902
1772363419145541000,0.665541015625,-0.10549421838968992,-0.2156424000650644,-0.04117138382196426,-0.034946467727422714,-0.00299598160199821,-0.005381062626838684
1772363419155611400,0.675611328125,-0.051459407471865413,-0.16912790164947508,-0.01397474933862686,-0.035815343260765076,0.0063864076510071754,0.0021002315916121006
1772363419165680000,0.68568017578125,-0.06058160221278667,-0.10361761086285114,-0.03420329837501049,-0.031364668160676956,0.010197124443948269,0.008681435137987137
1772363419175750100,0.695750244140625,-0.0714243371360004,0.004574468308687209,-0.04431026636958122,-0.023239610716700554,0.010188950225710869,0.012699121609330177
1772363419185819100,0.705819091796875,-0.09773907421827316,0.06445113712251185,-0.04032967230081558,-0.019047262147068977,0.006156924180686474,0.015741784125566483
1772363419195889200,0.71588916015625,-0.12845745308697223,0.033089784175157545,-0.020894319468736648,-0.017521679401397705,-0.001430995762348175,0.016805697232484818
1772363419205958400,0.72595849609375,-0.14675065014660357,0.0010983166307210921,0.02358604277074337,-0.019616521894931793,0.006147295702248812,0.025032466277480125
1772363419216028200,0.736028076171875,-0.1372754041843116,-0.007498831322789192,0.11355156037807464,-0.010030739940702915,0.015096047893166542,0.02601783722639084
1772363419226098200,0.74609814453125,-0.10375964968204497,0.021319266882538795,0.16974924841821193,-0.005887127481400967,0.0327080674469471,0.029916437342762947
1772363419236167200,0.756167236328125,-0.09377806163281202,0.004520692294836044,0.17029285377562045,0.00020546931773424149,0.048050254583358765,0.03281322121620178
1772363419246237200,0.7662373046875,-0.06594415215924382,-0.024563947892189023,0.26180443178117274,0.009117204695940018,0.0870559811592102,0.04100697115063667
1772363419256306200,0.77630615234375,-0.08422361295446754,-0.11669102744758128,0.15255495251119136,-0.03733501210808754,0.07796131819486618,0.05636906996369362
1772363419266376200,0.786376220703125,-0.01861293053328991,-0.07780512421429157,-0.18678981506824494,-0.047909628599882126,0.019310254603624344,0.061336666345596313
1772363419276445200,0.796445068359375,0.05837649338394403,-0.05017828162014484,-0.10252630849480629,-0.05130060762166977,0.004791045095771551,0.06832005083560944
1772363419286515200,0.80651513671875,0.02716273221373558,-0.06472878502011299,0.11085457637906074,-0.06256018579006195,0.03194570168852806,0.06985136866569519
1772363419296584400,0.81658447265625,0.02597776021286845,-0.026364275312423704,0.09722118782401085,-0.05993929132819176,0.03210212662816048,0.06706546247005463
1772363419306654200,0.826654296875,0.04555237538516521,-0.006306991189718246,-0.006003039807081222,-0.049865350127220154,0.025337964296340942,0.06363344937562943
1772363419316723500,0.836723388671875,0.03602832184508443,-0.015531915652751922,-0.08675181625783443,-0.047311075031757355,0.015526585280895233,0.06000027433037758
1772363419326793200,0.846793212890625,0.018582097003608942,0.01916764180660248,-0.12881927213668823,-0.028913957998156548,-0.0028758582193404436,0.05128294974565506
1772363419336862200,0.8568623046875,0.01098038982823491,0.04462883079946041,-0.12372633291184902,-0.013947959989309311,-0.01535407081246376,0.04998026788234711
1772363419346932200,0.86693212890625,-0.03248290432319045,0.024700726014375684,-0.09468202473521233,-0.0014481469988822937,-0.02925523929297924,0.05106816813349724
1772363419357001200,0.877001220703125,-0.01878258801177144,0.052471945515274995,-0.038163434177637096,0.010212677530944347,-0.03861958533525467,0.049720510840415955
1772363419367071200,0.8870712890625,0.01623904100880027,0.08200023781657219,0.05268061982989311,0.016907863318920135,-0.0468844398856163,0.047674406319856644
1772363419377140200,0.89714013671875,-0.008749708166718483,0.05928747074902057,0.0993055928826332,0.0025479700416326523,-0.05204842612147331,0.05083635821938515
1772363419387210500,0.90721044921875,-0.09034209583476185,0.0018266309052705765,0.0584235473960638,-0.005880934651941061,-0.06178733706474304,0.057511571794748306
1772363419397279200,0.917279296875,-0.13227043550387024,-0.039835751304030415,0.10923895787596702,-0.004055529832839966,-0.055244382470846176,0.05932893976569176
1772363419407349200,0.927349365234375,-0.1254436582237482,-0.05739186626076698,0.18623802640438078,-0.015405922196805477,-0.03113425523042679,0.0618690624833107
1772363419417418200,0.937418212890625,-0.08216156585812569,-0.01924012252092361,0.1524140827357769,-0.02014775574207306,-0.022115558385849,0.06357798725366592
1772363419427488300,0.94748828125,-0.04452741625159978,0.003713467565178871,0.08065233033895491,-0.02773803099989891,-0.025111613795161247,0.06839697808027267
1772363419437557200,0.95755712890625,-0.02400602174848318,-0.005564063867926597,0.07724573676586151,-0.03362284600734711,-0.019949577748775482,0.07099827378988266
1772363419447627300,0.967627197265625,-0.01577083897516131,-0.021038111853599547,0.11174889487028121,-0.04532957077026367,-0.010708675719797611,0.07997685670852661
1772363419457697300,0.977697265625,-0.020030249985307454,-0.05143266559541225,0.10701894373893737,-0.049869462847709656,-0.005471835378557444,0.08231644332408905
1772363419467766300,0.987766357421875,0.0030814532719552513,-0.05019289466738701,0.08562193544507027,-0.05020182579755783,0.006573375780135393,0.08432313799858093
1772363419477836300,0.997836181640625,0.04455401199758052,-0.032522213420271874,0.018124270233511923,-0.04348023235797882,0.01749219372868538,0.0857914462685585
1772363419487905300,1.0079052734375,0.05966653319448232,-0.03528174126148224,-0.09000584961771964,-0.03940639644861221,0.01737554743885994,0.08812757581472397
1772363419497975300,1.017975341796875,0.09645166475623845,-0.055770987060666084,-0.13651274924874304,-0.032547153532505035,0.007742514833807945,0.0887550488114357
1772363419508044300,1.028044189453125,0.1421134918652475,-0.06058803195357322,-0.09307634310424327,-0.023509714752435684,-0.0038265236653387547,0.08392833173274994
1772363419518114300,1.0381142578125,0.1776854482449591,-0.059258244654536246,0.004250643181800842,-0.01880514807999134,-0.002379221376031637,0.08216249197721481
1772363419528183300,1.048183349609375,0.2156855085544288,-0.04268412647247314,0.06424246280789375,-0.010066516697406769,0.009793289005756378,0.0788726955652237
1772363419538253300,1.05825341796875,0.27609321550503374,-0.022809213179349898,0.07359013686776161,0.0060638366267085075,0.017126264050602913,0.06940167397260666
1772363419548322300,1.068322265625,0.29756606551408765,-0.001572363883256912,0.006592237871885299,0.011410932056605816,0.02596236579120159,0.06408120691776276
1772363419558392300,1.078392333984375,0.3042193859234452,-0.007309446230530738,-0.06682897216975689,0.01046371553093195,0.018844477832317352,0.05584271252155304
1772363419568461000,1.0884609375,0.32766280535310505,-0.016407529443502426,-0.08037292887568473,0.002648136578500271,0.01344491820782423,0.044212423264980316
1772363419578531300,1.09853125,0.3614851415865123,-0.0022679449319839475,-0.021391163074970243,-0.006685163360089064,0.005499685648828745,0.02966897189617157
1772363419588600000,1.10860009765625,0.3899130714304745,0.053849663609266275,0.023432898035645484,-0.025892678648233414,-0.005061079282313585,0.015438105911016464
1772363419598670300,1.11867041015625,0.362697001594305,0.08649404210448265,0.037002573704719544,-0.033662132918834686,-0.0049890074878931046,-0.003995593637228012
1772363419608739300,1.1287392578125,0.3669878306560218,0.10329495477974414,0.014248305583000182,-0.03853704780340195,-0.007664152421057224,-0.016475966200232506
1772363419618809300,1.138809326171875,0.3744821319341659,0.09073825554549693,-0.0423112015068531,-0.037260640412569046,-0.01629653573036194,-0.03114001266658306
1772363419628878300,1.14887841796875,0.34238369688391684,0.06896949132978916,-0.07706453498005866,-0.03709019720554352,-0.023733943700790405,-0.042533282190561295
1772363419638948000,1.158947998046875,0.3058578007802367,0.04768471123874187,-0.0565630142211914,-0.03296038135886192,-0.02636418305337429,-0.05275111272931099
1772363419649017300,1.169017333984375,0.23784487952291963,0.02178922248184681,0.0004161795854568481,-0.020952187478542328,-0.021175812929868698,-0.054779376834630966
1772363419659087600,1.179087646484375,0.18008812547251582,0.020182956328988075,0.028835633862018584,-0.00014816783368587494,-0.016220789402723312,-0.05674581229686737
1772363419669156900,1.189156982421875,0.11233064028099178,-0.00870879163444042,-0.006818447843194008,0.014539697207510471,-0.01530546136200428,-0.05591011047363281
1772363419679227000,1.199226806640625,0.08909925616681576,0.006795066967606544,-0.01468845056593418,0.033218055963516235,-0.032462187111377716,-0.05929628759622574
1772363419689296000,1.2092958984375,0.07233750645816325,0.027818565773963928,0.02993102788329124,0.04123044013977051,-0.03701432794332504,-0.06661784648895264
1772363419699366000,1.219365966796875,0.034893910987675185,-0.006788052704930305,0.10869769060611724,0.04418322816491127,-0.03088529221713543,-0.07375296205282211
1772363419709435600,1.229435546875,-0.0019240999303758142,-0.009695464584231376,0.14643793093562124,0.04877398535609245,-0.020741842687129974,-0.08429242670536041
1772363419719505000,1.2395048828125,-0.054242023927718395,-0.03720832540988922,0.09369476726353168,0.04328162595629692,-0.007483934983611107,-0.08278658986091614
1772363419729574700,1.24957470703125,-0.08518354402780533,-0.0766448482632637,-0.0185872115701437,0.04217854514718056,-0.019160831347107887,-0.07679953426122665
1772363419739644000,1.259643798828125,-0.09681801385059952,-0.10255962624251842,-0.11242869382798672,0.04563385248184204,-0.03604409843683243,-0.06320498138666153
1772363419749713700,1.269713623046875,-0.10380991856455803,-0.09195406107604503,-0.07933014182448386,0.04496486857533455,-0.03508403152227402,-0.057460278272628784
1772363419759783000,1.279782958984375,-0.06475260428711771,-0.02827332380414009,-0.012100187638401984,0.042769841849803925,-0.03145654872059822,-0.0545157715678215
1772363419769853000,1.28985302734375,-0.05840308912992477,0.003618775019049644,0.029025018954277036,0.030255116522312164,-0.031615808606147766,-0.05761302635073662
1772363419779921700,1.299921630859375,-0.08310366901382804,0.02893558710515499,0.03062076371312141,0.018450528383255005,-0.028775660321116447,-0.05905994027853012
1772363419789992000,1.309991943359375,-0.0900264540143311,0.06362286960482597,0.033656770408153534,0.0037165889516472816,-0.035808268934488297,-0.05857177823781967
1772363419800060700,1.320060791015625,-0.11605901315435767,0.07471767959296703,0.06454641419053077,-0.01477895025163889,-0.038812510669231415,-0.06081661954522133
1772363419810131000,1.330130859375,-0.1304648473866284,0.059227264994382856,0.08821487454771995,-0.022178543731570244,-0.03945939242839813,-0.055677782744169235
1772363419820199700,1.34019970703125,-0.13225348436906934,0.04344926562607288,0.08898936605155468,-0.025823064148426056,-0.03384300693869591,-0.04963366314768791
1772363419830269700,1.350269775390625,-0.1508728446431458,-0.00594341857433319,0.05383855769336223,-0.0333145372569561,-0.024997850880026817,-0.03555512800812721
1772363419840338700,1.360338623046875,-0.17846666175052522,-0.06903086612820625,0.003217208480834961,-0.03325195983052254,-0.03316245973110199,-0.025157921016216278
1772363419850408700,1.37040869140625,-0.18654037035182117,-0.09745324301421641,0.03316051132380962,-0.029998108744621277,-0.029404208064079285,-0.018582575023174286
1772363419860477700,1.380477783203125,-0.20470204998627303,-0.05200198991596698,0.05890986960828304,-0.021035514771938324,-0.01549733430147171,-0.012228308245539665
1772363419870547700,1.390547607421875,-0.2081372851319611,-0.009206219762563705,0.027952421286702153,-0.004674917086958885,-0.01257238443940878,-0.004600748885422945
1772363419880616700,1.40061669921875,-0.1928263187535107,0.01716857694387436,-0.026805004817247388,0.015178452245891094,-0.016617069020867348,-0.004698640201240778
1772363419890686700,1.410686767578125,-0.14693652810752392,0.04719605093896389,-0.0038385552495718,0.03088231384754181,-0.010353846475481987,-0.0034626671113073826
1772363419900755700,1.420755615234375,-0.13998875479623674,0.04435702812075615,0.01949380502104759,0.03901340067386627,-0.009073764085769653,0.0026596453972160816
1772363419910825700,1.43082568359375,-0.13602248151376842,0.05383446604013443,0.022620412608981132,0.03947998955845833,-0.0038132215850055218,0.005103894509375095
1772363419920895700,1.440895751953125,-0.12240604409351945,0.05149930109083652,0.008697685718536376,0.043034449219703674,0.00218362919986248,0.011419359594583511
1772363419930964700,1.45096484375,-0.09603986908495425,0.031150340545177457,-0.007058101817965507,0.03554191440343857,0.004392721690237522,0.017560875043272972
1772363419941034800,1.46103466796875,-0.07561155969277024,0.012889292189478874,-0.03815758895874023,0.027714774012565613,0.003958975430577993,0.01963690295815468
1772363419951103700,1.471103759765625,-0.013427490719407796,0.021954057654738426,-0.03842413094043731,0.02461911365389824,0.0018928954377770424,0.017736203968524933
1772363419961173800,1.481173828125,0.06589081453680992,0.060822425231337546,-0.012423428243398666,0.021084873005747795,0.007825061678886414,0.016264189034700394
1772363419971242800,1.49124267578125,0.07228416883572936,0.07270049455165863,0.012545008796453476,0.012170739471912384,0.012968158349394798,0.01720561645925045
1772363419981312800,1.501312744140625,0.046966918358206745,0.07517945188581943,-0.008284428742527961,0.011731394566595554,0.01333976723253727,0.013374954462051392
1772363419991381800,1.5113818359375,0.05612856832668185,0.03966273282468319,-0.030543606823682783,0.010808075778186321,0.0028157527558505535,0.01504741981625557
1772363420001451800,1.52145166015625,0.029251082795113324,-0.014319617253541946,-0.022509937971830367,0.006092045456171036,0.009863624349236488,0.01371699757874012
1772363420011520800,1.531520751953125,0.026430618546903133,0.00866962866783142,-0.0006786299139261245,0.012331565842032433,0.011890023946762085,0.010671140626072884
1772363420021590800,1.5415908203125,0.06091960199549794,0.02359422607719898,0.03710077338218689,0.027563361451029778,0.0206977017223835,0.006554901599884033
1772363420031659800,1.55165966796875,0.04075228162705898,0.00753507167994976,0.0426858800381422,0.029241686686873436,0.03520287573337555,-0.00027504144236445427
1772363420041729800,1.561729736328125,0.022381197025626895,-0.031116438275575635,-0.04347381554543972,0.028085850179195404,0.03723546862602234,-0.0037588304840028286
1772363420051798800,1.571798828125,0.027510522738099098,-0.037924949246644975,-0.1032008467555046,0.03576188161969185,0.030094467103481293,-0.008067557588219643
1772363420061868500,1.58186865234375,0.04738105211704969,-0.0010924714118242262,-0.12056348496675491,0.044580306857824326,0.022514283657073975,-0.013533568009734154
1772363420071937800,1.591937744140625,0.06168006497398019,0.008481997141242027,-0.10514730464816092,0.04851166531443596,0.014498967677354813,-0.018314741551876068
1772363420082007600,1.602007568359375,0.04155205370262265,-0.040464112335443496,-0.0822217716127634,0.04714135453104973,0.009047141298651695,-0.01763797551393509
1772363420092076800,1.612076904296875,0.04498363558650016,-0.050693829926848406,-0.029839842468500136,0.048980534076690674,0.005877180956304073,-0.018470479175448418
1772363420102146800,1.622146728515625,0.07760667903274297,-0.021125790137052534,0.05620996299982071,0.04172612726688385,0.008878691121935844,-0.017239615321159363
1772363420112215800,1.6322158203125,0.029745588313788172,0.007261515435576438,0.07601824079751968,0.03828079625964165,0.015243379399180412,-0.018083037808537483
1772363420122285800,1.642285888671875,0.01131429795771837,0.06815875946879386,0.07222936990857123,0.03987787291407585,0.0259938295930624,-0.02014097012579441
1772363420132354800,1.652354736328125,0.0049291269652545445,0.10037643698453902,0.0460930581331253,0.039788391441106796,0.03158673644065857,-0.02404649741947651
1772363420142424800,1.6624248046875,0.004345774119347333,0.10240472794175147,0.003734510353207588,0.034733016043901443,0.03654226288199425,-0.03191010281443596
1772363420152493800,1.672493896484375,-0.03553776184916496,0.014276362633705138,-0.04490414060950279,0.018011029809713364,0.034067388623952866,-0.028047190979123116
1772363420162563800,1.682563720703125,-0.05201236517950892,-0.059545829424262044,-0.07032616663575172,0.0006628567352890968,0.0319809690117836,-0.02466207556426525
1772363420172633600,1.692633544921875,-0.03965031173452735,-0.10384031370282172,-0.03232873667478561,-0.017617879435420036,0.03458154574036598,-0.017646774649620056
1772363420182702800,1.702702880859375,-0.013224369362741708,-0.09914660292863846,-0.004568623089790344,-0.04088105633854866,0.035837966948747635,-0.01381556037813425
1772363420192772900,1.71277294921875,-0.008612930044531822,-0.027023616003990173,-0.04166179768741131,-0.045618556439876556,0.030000317841768265,-0.014695734716951847
1772363420202841900,1.722841796875,-0.022257424515485763,0.055854573690891265,-0.1086994441717863,-0.041605617851018906,0.018760433420538902,-0.012939848005771637
1772363420212911900,1.732911865234375,-0.05847016301676631,0.095005265340209,-0.1534293972581625,-0.029697827994823456,0.014182725921273232,-0.009378137066960335
1772363420222980900,1.74298095703125,-0.08453150985985994,0.09538462004661559,-0.1271077920436859,-0.014649909920990467,0.0059731099754571915,-0.008122759871184826
1772363420233051000,1.75305078125,-0.07442176538631319,0.07233867550194263,-0.04201543343067169,-0.003167690709233284,-0.003886178368702531,-0.0008366163820028305
1772363420243119600,1.76311962890625,-0.07434110136553644,0.03140811469852924,0.04525543826520443,0.0001839892938733101,-0.001467621186748147,0.002688976936042309
1772363420253190000,1.77318994140625,-0.062014703755825754,0.008627543091773986,0.11348726297020911,0.009303185157477856,0.006590304896235466,0.007974286563694477
1772363420263258600,1.783258544921875,-0.030779023014754055,0.00531213493347168,0.13750176028609276,0.015902893617749214,0.016147706657648087,0.011255582794547081
1772363420273329000,1.793328857421875,-0.02998231967911124,-0.023439327776432036,0.12521861729621886,0.01966540701687336,0.02893194369971752,0.017437579110264778
1772363420283397600,1.803397705078125,0.003544979130476713,-0.02225976260304451,0.10700316164791583,0.021606408059597015,0.03211775794625282,0.014497550204396248
1772363420293467600,1.813467529296875,0.020727584599703548,0.004631751453876495,0.10372633193433284,0.015703514218330383,0.03938392922282219,0.011112671345472336
1772363420303536600,1.82353662109375,0.03996463838070631,0.03434007649719715,0.08933715657591819,-0.002094777300953865,0.0431416854262352,0.002826000563800335
1772363420313606700,1.833606689453125,0.049861470755934716,0.05033785609602928,0.008126023310422897,-0.014077138155698776,0.03172178566455841,0.00045285793021321297
1772363420323676000,1.843676025390625,0.0988951123856008,0.07388415137827396,-0.06024316403865814,-0.023571757599711418,0.017616871744394302,-0.0038203857839107513
1772363420333745700,1.85374560546875,0.11314195666387676,0.05583820707798004,-0.08440554539263248,-0.034502435475587845,0.0012850365601480007,-0.00438364502042532
1772363420343815000,1.86381494140625,0.09723302439227699,0.011515081226825713,-0.08379121288657188,-0.048169877380132675,-0.012302173301577568,-0.0026015937328338623
1772363420353884700,1.873884765625,0.0606074673064053,-0.029032617738842963,-0.030569910308718678,-0.048776011914014816,-0.01634272187948227,-0.004885254427790642
1772363420363954000,1.883953857421875,0.024506226355582476,-0.028610592934489247,0.053687166523933405,-0.04502015560865402,-0.00822301022708416,0.00007701339200139046
1772363420374023700,1.894023681640625,0.0050448622994124885,-0.022530980759859084,0.09666238489747046,-0.037340134382247925,0.005062435287982225,-0.0036423569545149803
1772363420384093000,1.904093017578125,0.008466653441637753,0.006465981143712997,0.05162906495034694,-0.025717955082654953,0.005582442507147789,-0.001145289745181799
1772363420394162700,1.91416259765625,0.021599691259115934,0.03735036422908306,0.017484218764305115,-0.01204129122197628,0.00489534717053175,-0.0015245242975652218
1772363420404231700,1.924231689453125,0.0633246173106134,0.0737520494312048,0.03412672600746155,0.00707670021802187,0.0033468552865087986,-0.006080610677599907
1772363420414302000,1.934302001953125,0.036746114725619554,0.06905658509135246,0.070706105864048,0.014910121448338032,0.003808381501585245,-0.005128264427185059
1772363420424371700,1.944371826171875,-0.006501344718039035,0.024933365726470945,0.08850129027366638,0.015696756541728973,0.010259568691253662,-0.005906396079808474
1772363420434441000,1.95444091796875,-0.030542876171320676,0.006766425395011901,0.1014057800322771,0.019931182265281677,0.009318673983216286,-0.004466158803552389
1772363420444510700,1.9645107421875,-0.022818127138167617,-0.023361001843214033,0.08291559909582137,0.015408391132950783,0.005954201333224773,-0.004437210038304329
1772363420454579700,1.974579833984375,-0.030463381194323298,-0.06530103195011615,0.04822305589914322,0.00919257290661335,0.008428012020885944,-0.005642822943627834
1772363420464649700,1.984649658203125,-0.006003916589915752,-0.058251697960495945,-0.003988777375221252,0.009699731133878231,0.009513124823570251,0.0009728358127176762
1772363420474718700,1.99471875,0.006439677658677101,-0.013173369827866554,-0.04657704225778579,0.017768044024705887,0.01413131132721901,0.0027563548646867275
1772363420484788700,2.004788818359375,0.02677212546095252,0.052318800780177116,-0.055012277647852895,0.016965007409453392,0.013724240474402905,0.006312905810773373
1772363420494857700,2.014857666015625,0.048089054255932566,0.045945758616924286,-0.08251987777650356,0.012147350236773491,0.0010097767226397991,0.002701392862945795
1772363420504928000,2.024927978515625,0.045645898887515066,0.02538286305963993,-0.09755436530113219,0.003319794312119484,-0.008492983877658844,0.0030423863790929317
1772363420514996700,2.034996826171875,0.04872574472427368,0.060980830663442606,-0.0634644641727209,-0.003884056583046913,-0.019079580903053284,-0.0004660617560148239
1772363420525066800,2.045066650390625,0.10924567987769841,0.11990122166574001,-0.00790975021123886,-0.0059828259982168674,-0.020449835807085037,-0.013952849432826042
1772363420535135700,2.0551357421875,0.11401947015076876,0.11054010360240936,0.05235562565922737,-0.01425300631672144,-0.014339211396872997,-0.012703027576208115
1772363420545205800,2.065205810546875,0.0630444851949811,0.040972646379470824,0.05043430220782757,-0.020239489153027534,-0.008899730630218983,-0.017265908420085907
1772363420555274800,2.075274658203125,0.04637494381442666,-0.0487029483705759,0.00042202480435371396,-0.02556714415550232,-0.0169664453715086,-0.016710638999938965
1772363420565344800,2.0853447265625,0.04462050136253237,-0.0722311234742403,-0.013378537011146545,-0.0301178228110075,-0.012915248051285744,-0.0174782145768404
1772363420575413800,2.095413818359375,0.025726123539358377,-0.08668576528429985,0.017237550526857374,-0.03366515412926674,-0.0034575634635984898,-0.015991104766726494
1772363420585483800,2.10548388671875,0.010179010317474603,-0.04938040924072265,0.018719898039102553,-0.032495949417352676,-0.0038910277653485537,-0.014187050983309746
1772363420595552800,2.115552734375,-0.015063567488640546,-0.0031540801167488095,0.03599544248878955,-0.023645199835300446,-0.006656454410403967,-0.014203563332557678
1772363420605622800,2.125622802734375,-0.03744417999237776,0.012926117068529128,0.031930092746019365,-0.015719769522547722,-0.011148294433951378,-0.014845633879303932
1772363420615691800,2.13569189453125,-0.04530965267047286,0.017089081966876984,0.00872106659412384,-0.0024745380505919456,-0.01389854121953249,-0.015097303315997124
1772363420625761800,2.14576171875,-0.07667056722640991,-0.002205401089787483,0.02410918986201286,0.010335943661630154,-0.007823830470442772,-0.009110763669013977
1772363420635830500,2.15583056640625,-0.08580401401370763,-0.019285715228319168,0.050264790859818456,0.022699404507875443,0.0000878884457051754,-0.006583422888070345
1772363420645900800,2.16590087890625,-0.05255553214550018,0.014201543831825255,0.05295066894292831,0.03221896290779114,0.0033607869409024715,-0.004627763293683529
1772363420655969800,2.1759697265625,-0.008045359289646148,0.046046880903840064,0.0567722730576992,0.031598713248968124,0.004901159089058638,-0.004878100007772446
1772363420666040000,2.1860400390625,-0.014130524422228336,0.04076338754296303,0.04549216963052749,0.024369746446609497,0.012464551255106926,-0.001992630772292614
1772363420676108800,2.19610888671875,-0.0554706889398396,0.02165244435966015,-0.004355272600054741,0.013112829998135567,0.01290823332965374,0.0035222433507442474
1772363420686178800,2.2061787109375,-0.05580898098349571,-0.009580313771963118,-0.04573766882419586,0.004989015869796276,0.00932583399116993,0.005126891657710075
1772363420696248800,2.216248779296875,-0.03400178445354104,-0.028686580780148505,-0.028087445843219757,-0.0070641846396028996,0.007832598872482777,0.007909095846116543
1772363420706317800,2.22631787109375,-0.025814824736118316,-0.032795185142755506,-0.007104279047250747,-0.01685439795255661,0.009811622090637684,0.00892416387796402
1772363420716387800,2.236387939453125,-0.0014230185404419898,-0.0013888240098953247,-0.0016898527830839156,-0.01860249787569046,0.015991752967238426,0.007205359637737274
1772363420726456800,2.246456787109375,0.025259821201860905,0.011074351722002029,-0.008204933765530586,-0.021107686683535576,0.017862752079963684,0.008995487354695797
1772363420736526800,2.25652685546875,0.02220554819777608,0.014182839131355285,-0.01943418378829956,-0.02299347147345543,0.018099240958690643,0.00737442122772336
1772363420746595800,2.266595947265625,0.00793912243619561,-0.02841360905766487,-0.06585691226720809,-0.0298292338848114,0.015940342098474503,0.008926091715693474
1772363420756665900,2.276665771484375,0.001577770710736513,-0.0438011478036642,-0.06399871717989444,-0.02476443722844124,0.008234484121203423,0.007413416635245085
1772363420766734800,2.28673486328125,-0.005048953952640295,-0.04004734822809696,-0.06032499710321426,-0.02536631003022194,0.0046341572888195515,0.0074568260461091995
1772363420776804900,2.296804931640625,0.01174552898183465,0.0018061726391315459,-0.055748190706968306,-0.023534588515758514,-0.0047074127942323685,0.002017053309828043
1772363420786873900,2.306873779296875,0.02211421665251255,0.041398178315162654,-0.07062719540894032,-0.008967096917331219,-0.010842537507414818,-0.006415313575416803
1772363420796944000,2.31694384765625,0.029768969189375636,0.09140051884651183,-0.027612229546904562,0.009563176892697811,-0.004591831937432289,-0.004974010866135359
1772363420807012900,2.327012939453125,0.016989859376102683,0.09230418968796729,-0.01325111123919487,0.02117282710969448,0.0018656477332115173,-0.006719164550304413
1772363420817083000,2.337082763671875,-0.0013508300870656966,0.053798225682973856,-0.05126841494441032,0.028824353590607643,-0.00013704923912882805,-0.006138329394161701
1772363420827152000,2.34715185546875,-0.004120440930873155,0.03893617211580276,-0.03508943355977535,0.03588702529668808,-0.009617988020181656,-0.005195714067667723
1772363420837222000,2.357221923828125,0.0326351722754538,0.03899345526099205,0.058383215385675424,0.038863107562065125,-0.008036069571971893,-0.0022715632803738117
1772363420847291000,2.367290771484375,0.021329934407025575,0.017778817796707154,0.13875146808624267,0.026662318035960197,0.002585248090326786,-0.000626981258392334
1772363420857361000,2.37736083984375,-0.001093055933713913,0.015438976672291755,0.1373690738171339,0.021111490204930305,0.014754828065633774,0.004388283472508192
1772363420867429600,2.3874296875,-0.020843466064333915,0.013346388307213783,0.09684066407382488,0.014811606146395206,0.015137666836380959,0.00044584041461348534
1772363420877500000,2.3975,-0.015111352153122424,-0.005334931287169456,0.06406476815342903,0.006633304990828037,0.02242780290544033,0.0006959112361073494
1772363420887569000,2.40756884765625,-0.012539894229918717,-0.059212067425251,0.014690788653492926,-0.007822812534868717,0.023467933759093285,0.0006385724991559982
1772363420897639000,2.417638916015625,-0.013123100945353508,-0.0929272900223732,-0.00009936872124671936,-0.021501606330275536,0.02619767375290394,-0.002251223661005497
1772363420907708000,2.4277080078125,-0.03555705107152462,-0.09844634570479392,0.02109948665201664,-0.0359468013048172,0.030523354187607765,0.00446768943220377
1772363420917777700,2.437777587890625,-0.019059797517955303,-0.06710019032657145,0.021575287470221517,-0.044513922184705734,0.03655381500720978,0.0009091733954846859
1772363420927847000,2.447846923828125,0.012712474317848681,0.013200842356681824,-0.0072702832639217375,-0.03852648660540581,0.03668266534805298,0.0010648444294929504
1772363420937916700,2.457916748046875,-0.022917934250831603,0.07559563147127628,-0.05151099152863026,-0.02687595784664154,0.039919205009937286,-0.0031139212660491467
1772363420947987000,2.467987060546875,-0.05514160311594605,0.09815934545695781,-0.09970949750840663,-0.013182666152715683,0.03440359979867935,0.001269051805138588
1772363420958055700,2.4780556640625,-0.053650780036300416,0.09808043500185012,-0.12979074751734732,0.0008466001600027084,0.012206422165036201,-0.0014926460571587086
1772363420968125700,2.488125732421875,-0.028047990615665912,0.057821489849686616,-0.07839373775720596,0.012432201765477657,-0.0030714329332113266,-0.0010804696939885616
1772363420978195000,2.49819482421875,-0.052174131612479684,0.015635960549116135,0.02311316456198692,0.023213475942611694,-0.0015670133288949728,0.003976340871304274
1772363420988264700,2.5082646484375,-0.06215981131494045,-0.0002776478976011276,0.09706453595757483,0.030428815633058548,0.013577557168900967,0.006109981331974268
1772363420998334000,2.518333984375,-0.08577259596213697,-0.018835633373260496,0.12021160278916358,0.03176918625831604,0.028592195361852646,0.012205423787236214
1772363421008403700,2.52840380859375,-0.09934928589388728,-0.04438742325901985,0.07639934906959533,0.029816944152116776,0.032387688755989075,0.013828599825501442
1772363421018473000,2.538472900390625,-0.06677592680826783,-0.03833294552564621,0.019746902999281883,0.025310873985290527,0.030117079615592957,0.01454072818160057
1772363421028542700,2.548542724609375,-0.033422523260861633,0.006083119305968284,0.04584522085189819,0.014264837838709354,0.02704526111483574,0.016211112961173058
1772363421038612000,2.558612060546875,0.012197802793979645,0.04708966795504093,0.0472825601786375,0.002900596708059311,0.023181546479463577,0.011046444065868855
1772363421048681700,2.568681640625,0.05605827956944704,0.06978080771267414,-0.023510054925084112,-0.011900151148438454,0.011560702696442604,0.010153332725167274
1772363421058751000,2.5787509765625,0.074552698289603,0.06978080771267414,-0.09215805921554565,-0.02175411395728588,0.0021371077746152878,0.009264370426535606
1772363421068821000,2.588821044921875,0.0986649568915367,0.046323944279551506,-0.10846446637213229,-0.030020706355571747,-0.005293944384902716,0.009785633534193039
1772363421078889700,2.5988896484375,0.10063830279111861,-0.024385668715834617,-0.097157474938035,-0.04235087335109711,-0.00642046146094799,0.009614658541977406
1772363421088960000,2.6089599609375,0.06333382353037595,-0.06675882954299449,-0.04818623102009296,-0.05354476720094681,0.00184530857950449,0.006945701315999031
1772363421099028700,2.61902880859375,0.08681669818758964,-0.037981063348054886,-0.0034580314993858333,-0.05240706726908684,0.011831896379590034,-0.0012613623403012753
1772363421109099000,2.62909912109375,0.10008402990922331,-0.019315525844693184,-0.022217677026987074,-0.0506315752863884,0.012444300577044487,-0.0021547009237110615
1772363421119167700,2.639167724609375,0.09727584062069654,0.03833469909131527,-0.09576455927491187,-0.039721667766571045,0.0052423132583498955,-0.007477560546249151
1772363421129238000,2.649238037109375,0.10663330542221665,0.09414952529370785,-0.1034755720436573,-0.017896028235554695,-0.006190190557390451,-0.015647750347852707
1772363421139306800,2.659306640625,0.08910992369130254,0.1023427686214447,-0.025815993779897687,-0.007216752506792545,-0.006565696094185114,-0.018451526761054993
1772363421149376800,2.669376708984375,0.030207214476168153,0.07012626014947891,0.01423661514520645,-0.0035749413073062897,-0.009839307516813278,-0.024249717593193054
1772363421159445800,2.67944580078125,0.009358926106244326,0.03580956452786922,0.0419803621172905,0.0065908776596188545,-0.013011399656534195,-0.02939467877149582
1772363421169515800,2.689515869140625,0.01711816193088889,0.0035322657793760296,0.0919113909780979,0.01240429189056158,-0.015275618061423302,-0.02819279208779335
1772363421179586000,2.6995859375,0.019136369885504243,-0.012907996889948843,0.10255436554551124,0.014658390544354916,-0.01802985928952694,-0.030522260814905167
1772363421189654800,2.70965478515625,-0.00023687749579548835,-0.04487608355879783,0.06162906543910503,0.0167587511241436,-0.012830400839447975,-0.02790120616555214
1772363421199724800,2.719724853515625,-0.03331204862371087,-0.07648994996249675,0.03571311841607094,0.020465336740016937,0.0007658349350094795,-0.024040687829256058
1772363421209793800,2.729793701171875,-0.04046352781355381,-0.059581485259532926,0.0012929624199867248,0.01927362009882927,0.0044708349741995335,-0.018913419917225838
1772363421219863800,2.73986376953125,-0.03190817317515612,-0.023785364735126494,-0.06079612174630165,0.01358697097748518,-0.008667869493365288,-0.0201288852840662
1772363421229932800,2.749932861328125,-0.024675737703591584,0.009693711018562316,-0.06906593744158744,0.010826201178133488,-0.015864413231611252,-0.017891015857458115
1772363421240002800,2.7600029296875,-0.015523001693934202,0.05388882657587528,-0.05134907896518707,0.01635465770959854,-0.013800730928778648,-0.01786518469452858
1772363421250071800,2.77007177734375,0.03117196785509586,0.12275778014063835,-0.034606033957004546,0.01464798953384161,-0.01717609353363514,-0.025038352236151695
1772363421260141800,2.780141845703125,0.05610562584251165,0.14198679674565792,-0.006034019467234611,0.005476062186062336,-0.021727435290813446,-0.026221325621008873
1772363421270210800,2.7902109375,0.03335471872165799,0.09535013325512409,0.016443769800662995,-0.0030347146093845367,-0.021882768720388412,-0.02955528162419796
1772363421280280800,2.80028076171875,-0.027360154481977223,0.009509002101421356,-0.0006365443378686904,-0.01502826064825058,-0.014054407365620136,-0.027059899643063545
1772363421290350000,2.81035009765625,-0.049921822641044854,-0.08970540536642074,-0.05118482831418514,-0.025401804596185684,-0.01519397459924221,-0.020266709849238396
1772363421300419800,2.820419921875,-0.04597440018951893,-0.1442652630716562,-0.04643792604804039,-0.03737244755029678,-0.010420790873467922,-0.01414862833917141
1772363421310488800,2.83048876953125,-0.02316357957497239,-0.12380290527939795,0.03256488351821899,-0.04527786001563072,-0.0030049383640289307,-0.017069648951292038
1772363421320558800,2.840558837890625,-0.021059008511155844,-0.1167553248554468,0.08178454923927783,-0.057278864085674286,0.0022417553700506687,-0.01518972311168909
1772363421330627800,2.8506279296875,-0.04402604260072112,-0.11903379118144511,0.0602840805709362,-0.05956985801458359,0.006906508002430201,-0.013198763132095337
1772363421340697900,2.86069775390625,-0.024539251842349768,-0.10233692340254782,0.026170798566937443,-0.04971429705619812,0.006432199385017157,-0.009780596941709518
1772363421350766800,2.870766845703125,0.0028849077865481373,-0.049582069292664524,0.03226911544203758,-0.03701477125287056,0.0066122980788350105,-0.006892241071909666
1772363421360836900,2.8808369140625,-0.03798544726222753,0.0099906481385231,0.038511224702000614,-0.023330118507146835,0.011976169422268867,0.00029243482276797295
1772363421370905900,2.89090576171875,-0.07527253699675202,0.041600422888994217,0.06662263594269752,-0.010233558714389801,0.01616671122610569,0.0017670346423983574
1772363421380975600,2.9009755859375,-0.042910920965671534,0.08760989439189433,0.12283493703007697,0.005164838396012783,0.0185832642018795,-0.002458336763083935
1772363421391044900,2.911044921875,-0.024833120222389697,0.07068506307601928,0.1453460440456867,0.009981767274439335,0.019858594983816147,-0.0015858928672969341
1772363421401115000,2.921114990234375,-0.012225567583739758,0.004165887507796288,0.09500818794965743,0.017949946224689484,0.022552914917469025,0.0005718003958463669
1772363421411185000,2.931184814453125,0.03319017580971122,-0.02882745055556297,0.04398819480836391,0.026124879717826843,0.01845274120569229,0.002100326120853424
1772363421421254000,2.94125390625,0.0484774690516293,-0.0517442157626152,0.0455003529369831,0.025122735649347305,0.024967633187770844,0.005887341219931841
1772363421431323600,2.95132373046875,0.05504661830887198,-0.02293839251697063,0.057695817643404,0.02220873162150383,0.031135864555835724,0.008804178796708584
1772363421441393000,2.961392822265625,0.028941286193579434,0.00709025052189827,0.04806523498892784,0.018518390133976936,0.034389182925224304,0.010708605870604515
1772363421451462700,2.971462646484375,0.011927899811416863,0.03527940317392349,0.02002981159389019,0.010994146578013897,0.03337074816226959,0.007427252363413572
1772363421461532000,2.981531982421875,0.027675650171935556,0.04117021477818489,0.0011088380247354507,0.008060942403972149,0.03191346675157547,0.0033273156732320786
1772363421471601700,2.9916015625,0.020584376736730334,0.008585457515716552,-0.038325931262969966,0.0016356166452169418,0.031347792595624924,-0.0007717572152614594
1772363421481671000,3.0016708984375,0.004824497547000647,-0.05005962367653846,-0.06976444109976292,-0.0012246174737811089,0.02700364775955677,0.002926575019955635
1772363421491741000,3.011740966796875,0.01313932142779231,-0.07266308515071869,-0.07383329797387123,-0.006191512104123831,0.01826338842511177,0.0041182031854987144
1772363421501810000,3.021809814453125,0.06422039710655808,-0.034384500160813326,-0.03564765196442604,0.0005841022357344627,0.01305398065596819,-0.00464892340824008
1772363421511880000,3.0318798828125,0.06891366948932409,0.025437808117270467,-0.004573883786797523,0.0051638344302773476,0.01485755667090416,-0.001572879496961832
1772363421521949000,3.041948974609375,0.027453677984327077,0.05980886427462101,-0.03550093697011471,0.006936167366802692,0.009904342703521252,-0.005096774082630873
1772363421532019000,3.05201904296875,0.011853665531426668,0.06333762292265892,-0.056607437884807585,0.013593323528766632,0.004016377963125706,-0.007845436222851276
1772363421542087700,3.062087646484375,-0.023038491890579462,0.02849602664411068,-0.04499298793673515,0.01388254202902317,-0.00010353187099099159,-0.009663576260209084
1772363421552158000,3.072157958984375,-0.044466772105544804,-0.022453823870420456,-0.03628828795552254,0.014864464290440083,-0.0005556927062571049,-0.010582827031612396
1772363421562226700,3.082226806640625,-0.03303323168233037,-0.01879588588476181,-0.02902969512939453,0.01902884989976883,-0.004098229575902224,-0.0065385508351027966
1772363421572297000,3.092296875,-0.027101941937208173,-0.011779869642853736,-0.0330699104309082,0.024192877113819122,-0.00811883807182312,-0.0022047627717256546
1772363421582365700,3.10236572265625,-0.009268179082870483,-0.01126432133615017,-0.002699322086572647,0.029584180563688278,-0.010569478385150433,-0.0019536269828677177
1772363421592435700,3.112435791015625,0.03528027995675802,0.029797172370553016,0.05251578465700149,0.030730005353689194,-0.01458115316927433,0.0007529598660767078
1772363421602504700,3.122504638671875,0.02781257442459464,0.017619243320822715,0.07299918523728847,0.027493197470903397,-0.01036803238093853,-0.0009115161374211311
1772363421612574700,3.13257470703125,-0.0006128712013363837,-0.01954524294734001,0.06167173553705215,0.01904577575623989,-0.006360280327498913,-0.001632987055927515
1772363421622645000,3.14264501953125,-0.004887041389197111,-0.0417623354524374,0.05859948848485946,0.010176649317145348,0.0006414363160729408,0.00007463153451681137
1772363421632713700,3.152713623046875,0.0025621055729687214,-0.0508031355202198,0.05116670813560485,0.0011352868750691414,0.004254489205777645,-0.0020407247357070446
1772363421642784000,3.162783935546875,0.03881970612928271,-0.01871171473264694,0.03353694342076778,-0.008162608370184898,0.0009668171405792236,0.002379590179771185
1772363421652852700,3.172852783203125,0.04289981504976749,-0.04254384121894836,0.006149754801392555,-0.01989676058292389,0.0005012964829802513,-0.0011064880527555943
1772363421662926600,3.182926513671875,0.03947890069037675,-0.04676525830626487,0.0033189152896404266,-0.03183677792549133,-0.0010798224247992039,-0.0015043639577925205
1772363421672995600,3.19299560546875,0.06929667745754123,-0.03245382435917854,0.04309212275147438,-0.02779628522694111,-0.00048370566219091415,0.0013482277281582355
1772363421683065600,3.203065673828125,0.05590834970474243,0.02057224790751934,0.060252516388893125,-0.020207341760396957,0.01066961232572794,-0.006442050915211439
1772363421693134600,3.213134521484375,0.021254531083256006,0.052069209933280944,0.009912322205305099,-0.007521242834627628,0.017357338219881058,-0.007902313955128193
1772363421703204600,3.22320458984375,-0.019411387434601784,0.0405728334069252,-0.05797112745344638,0.010506226681172848,0.013515196740627289,-0.008605919778347015
1772363421713273600,3.233273681640625,0.01323430623486638,0.03040215252637863,-0.07206395021378993,0.02859034575521946,-0.010298620909452438,-0.00906933844089508
1772363421723343600,3.243343505859375,0.029450404759496448,0.0073643912881612775,-0.012571896803379059,0.04158630967140198,-0.015883270651102066,-0.008478382602334023
1772363421733412900,3.253412841796875,0.00721285398826003,0.0014390928924083708,0.04862286887168884,0.04804859310388565,-0.008408192545175552,-0.004613056778907776
1772363421743482600,3.263482666015625,-0.017239450222998855,-0.02358604277074337,0.05979951192438602,0.04851144924759865,0.0019400520250201225,-0.00006650853902101517
1772363421753551600,3.273551513671875,0.004751286180317402,-0.04462883079946041,0.0996364322721958,0.04575458541512489,0.014400307089090347,-0.0021774815395474434
1772363421763621600,3.28362158203125,0.03388005777001381,-0.03434066101908684,0.10151391658186912,0.04093879088759422,0.023167166858911514,0.0009394818916916847
1772363421773690600,3.293690673828125,0.041610213630646466,0.002520458388328552,0.04528524888157844,0.03395193815231323,0.02031422220170498,-0.005920474883168936
1772363421783760600,3.3037607421875,0.08022562935948371,0.07734276739954948,0.033519992285966874,0.02840430475771427,0.009380348026752472,-0.01571611501276493
1772363421793829600,3.31382958984375,0.10535188730955124,0.0864350053936243,0.014160627299547195,0.014842735603451729,0.0033538909628987312,-0.021275047212839127
1772363421803899600,3.323899658203125,0.08044307150244713,0.031088965746760365,-0.038899931758642196,0.003452662378549576,-0.0008911876939237118,-0.022005286067724228
1772363421813968600,3.33396875,0.07686053684055805,-0.006900865429639816,-0.10012275448441504,-0.0025007762014865875,-0.00666048564016819,-0.019890179857611656
1772363421824038700,3.34403857421875,0.06359773516356945,-0.04431260445713996,-0.10981295837163925,-0.01022314466536045,-0.0064636776223778725,-0.020540257915854454
1772363421834107600,3.354107666015625,0.03302607128918171,-0.05890986960828304,-0.06396130777895451,-0.01724819839000702,-0.0057280841283500195,-0.013820165768265724
1772363421844177700,3.364177734375,0.001964285810291767,-0.04134031064808368,-0.026918986585736274,-0.02092708833515644,-0.008074861019849777,-0.011434771120548248
1772363421854247700,3.37424755859375,-0.017095803968608377,-0.01009878468811512,-0.0033183307677507397,-0.012898539192974567,-0.008751409128308296,-0.013779284432530403
1772363421864316700,3.384316650390625,-0.03362637526988983,0.010803718087077141,0.03752981244921684,-0.001577175222337246,-0.0037337476387619972,-0.011729981750249863
1772363421874386400,3.394386474609375,-0.03198664523884654,0.04230360272228718,0.05917524254620075,0.012661097571253777,-0.002861995715647936,-0.008614536374807358
1772363421884455700,3.40445556640625,-0.04463467601835727,0.05694704510271549,0.06439210041165351,0.025351060554385185,0.0004885271191596985,-0.007999079301953316
1772363421894525400,3.414525390625,-0.0863634014621377,0.049880175456404684,0.06493395220339297,0.032734863460063934,0.0008367723785340786,-0.00023412937298417091
1772363421904594700,3.4245947265625,-0.11689765593558549,0.02180617361664772,0.04569324516057968,0.04012486711144447,-0.001555279130116105,0.0017086467705667019
1772363421914664700,3.434664794921875,-0.119111386462301,-0.017187866166234016,0.0282031811773777,0.03832463175058365,-0.005720941349864006,0.0012819641269743443
1772363421924733700,3.444733642578125,-0.07709668368399143,-0.009117372435331344,0.0640314504057169,0.037226077169179916,0.00474075460806489,-0.0011369846761226654
1772363421934803700,3.4548037109375,-0.10816416825130581,-0.09548808042109012,0.045052609169483185,0.032556310296058655,0.014986719936132431,0.0012716427445411682
1772363421944872700,3.464872802734375,-0.09933014280200005,-0.12060206341147423,0.017855974686145783,0.02595752850174904,0.026741644367575645,0.006979329511523247
1772363421954942700,3.474942626953125,-0.037377544496953484,-0.040517303827404975,-0.013748539367318152,0.032286468893289566,0.026412157341837883,0.006106921937316656
1772363421965011700,3.48501171875,0.003846300164610147,0.04368482794761658,-0.06332593248486519,0.028300516307353973,0.023042727261781693,0.006465649697929621
1772363421975081700,3.495081787109375,0.04142769667059183,0.07565759079158306,-0.14064824161827563,0.02400290034711361,0.005364300217479467,0.0030431929044425488
1772363421985150500,3.505150390625,0.06154138715565204,0.05908288808763027,-0.16774784546792507,0.0135332141071558,-0.013204855844378471,-0.0009350371547043324
1772363421995220700,3.515220703125,0.06417495052963496,0.07407762812376022,-0.10001929410994052,0.004126059822738171,-0.025774385780096054,-0.0060325865633785725
1772363422005289500,3.52528955078125,0.03298588540926575,0.07201485037505627,-0.015755787536501885,-0.010026777163147926,-0.021627042442560196,-0.007428615819662809
1772363422015359700,3.53535986328125,-0.014503157126903534,0.05229074372947216,0.039402620583772655,-0.01872938498854637,-0.01650824211537838,-0.00627866992726922
1772363422025428500,3.545428466796875,0.005367664512991905,0.008242343166470528,0.06121230133175849,-0.02245248481631279,-0.011083648540079594,-0.010077670216560364
1772363422035498500,3.55549853515625,0.013402648539096116,-0.06387538306117058,0.04176058188676834,-0.030466537922620773,-0.0016195140779018402,-0.006246971432119608
1772363422045567700,3.565567626953125,-0.0016198562867939471,-0.12523732199668883,0.03482815227508545,-0.036922305822372437,-0.0015555983409285545,-0.0017145373858511448
1772363422055637500,3.575637451171875,-0.006142740538716316,-0.1088257008999586,0.030972645890712736,-0.03643683344125748,0.004547635093331337,0.003422859124839306
1772363422065707800,3.585707763671875,0.009820406138151884,-0.047264440000057216,0.06169277832508087,-0.0297861211001873,0.009778349660336971,0.003935517743229866
1772363422075776500,3.595776611328125,0.00605345482006669,0.0030938743621110915,0.0763660313218832,-0.0193454809486866,0.01438078097999096,-0.000011892057955265045
1772363422085846800,3.6058466796875,0.004966097974777222,0.03668751640617847,0.053013797307014464,-0.007548210211098194,0.015417816117405891,-0.0008896705694496632
1772363422095915500,3.61591552734375,-0.016167290946841238,0.02486731475293636,0.04603694403171539,0.0021478962153196335,0.020535821095108986,0.003935970366001129
1772363422105985500,3.625985595703125,-0.02375306990072131,0.002834346643090248,0.043099137014150614,0.014238114468753338,0.0237587783485651,0.003439823165535927
1772363422116054500,3.636054443359375,-0.003061433397233486,0.011817279043793677,0.03922784853875637,0.021349847316741943,0.018874894827604294,0.0023813610896468163
1772363422126124500,3.64612451171875,0.02910612136647105,0.0427034156948328,0.05746142436563968,0.025706779211759567,0.01867355965077877,0.004319077357649803
1772363422136193800,3.65619384765625,0.05559782245084643,0.07098433828353881,0.06411445251405239,0.029101071879267693,0.019949886947870255,0.0007942174561321735
1772363422146263600,3.666263671875,0.045524172203987835,0.06429857690930366,0.04662731114029884,0.02824726141989231,0.01727474108338356,0.003400120884180069
1772363422156332800,3.676332763671875,0.042907267703860996,0.03607435294389724,0.03702478553652763,0.02287626825273037,0.016729801893234253,0.0032685534097254276
1772363422166402600,3.686402587890625,0.028915713360905645,-0.025912439891695976,0.03396189083456993,0.012972505763173103,0.022163182497024536,0.006847043056041002
1772363422176471800,3.696471923828125,0.027247487887740132,-0.04487666808068752,0.032952421531081195,0.008149471133947372,0.023579441010951996,0.004769094288349152
1772363422186541600,3.70654150390625,0.06214724409431219,-0.03904197057783603,0.026915479454398154,0.0025283368304371834,0.03069833666086197,0.007772074546664953
1772363422196610800,3.71661083984375,0.07864931995347142,-0.014220833054184912,-0.017681202641129493,-0.00602442491799593,0.028079986572265625,0.0006906208582222462
1772363422206680600,3.7266806640625,0.06631853842958807,0.022752514556050298,-0.0724795452773571,-0.011248747818171978,0.01720416732132435,-0.0014982311986386776
1772363422216749600,3.73674951171875,0.053840457389503715,0.030358313384652134,-0.09843582431077956,-0.01190711185336113,0.005744499620050192,-0.008056409657001495
1772363422226819600,3.746819580078125,0.04937281045615673,0.017114216408133504,-0.083990534850955,-0.017840635031461716,-0.0027350052259862423,-0.009683068841695786
1772363422236888600,3.756888671875,0.030412381659448144,0.02946750202476978,-0.04457505478560924,-0.012596993707120419,-0.0033164802007377148,-0.01593741588294506
1772363422246958800,3.766958740234375,0.02353372806161642,0.052929626154899594,-0.013578443497419357,-0.007674140855669975,-0.003517016302794218,-0.017124120146036148
1772363422257028600,3.777028564453125,-0.002088204450905323,0.04831833296716213,-0.045967970448732375,-0.00036534108221530914,-0.008402652107179165,-0.016547702252864838
1772363422267097600,3.78709765625,-0.012652414693683386,0.05397592033743858,-0.06500117222070693,0.012466833926737309,-0.01887659914791584,-0.015599085949361324
1772363422277167600,3.797167724609375,-0.03881707578077912,0.03435059789121151,-0.06283434957563877,0.017912067472934723,-0.025349417701363564,-0.010119149461388588
1772363422287236600,3.807236572265625,-0.044326632982492446,0.015801964765787123,0.007059855383634567,0.013941559940576553,-0.028959065675735474,-0.003396266605705023
1772363422297306600,3.817306640625,-0.050854281185567375,-0.00756079064309597,0.09331132090389728,0.016081541776657104,-0.027984607964754105,-0.00047872215509414673
1772363422307375600,3.827375732421875,-0.047900838207453486,-0.01977612909376621,0.16840192546248434,0.009448939003050327,-0.01532607153058052,0.001776176504790783
1772363422317445600,3.837445556640625,-0.05968816050440073,-0.048553310766816134,0.16994506325125694,-0.003247274085879326,-0.002508661476895213,0.007912350818514824
1772363422327514600,3.8475146484375,-0.07860708824694156,-0.08928338056206703,0.1105599773466587,-0.0153657216578722,0.0023633255623281,0.015278121456503868
1772363422337584600,3.857584716796875,-0.050721594716608524,-0.06641220806241036,0.12322539765238762,-0.025533495470881462,0.008790723979473114,0.015737416222691536
1772363422347653600,3.867653564453125,-0.029678076035529372,-0.029482115072011945,0.1288636958003044,-0.038063935935497284,0.014070173725485802,0.017419734969735146
1772363422357723600,3.8777236328125,-0.03099529611393809,-0.022450316739082335,0.0937023660480976,-0.05192922055721283,0.015213261358439922,0.01728605106472969
1772363422367792600,3.887792724609375,-0.020320611234009266,0.0037450317472219464,0.06771452283263206,-0.05803212150931358,0.016825273633003235,0.016612539067864418
1772363422377862700,3.897862548828125,0.00036971009522676466,-0.009869652107357978,0.04382628224492073,-0.059572476893663406,0.013398360460996628,0.017677342519164085
1772363422387931600,3.907931640625,-0.025219343061000106,-0.016330957075953483,-0.02163841583430767,-0.050547026097774506,0.008097605779767036,0.017669087275862694
1772363422398001700,3.918001708984375,-0.061650108227133744,-0.02115092457830906,-0.05530044693946838,-0.03676847368478775,0.00992552563548088,0.02097306214272976
1772363422408070700,3.928070556640625,-0.05406842092648148,0.01626782871186733,-0.026648352950811385,-0.024933386594057083,0.011358040384948254,0.02489669807255268
1772363422418140700,3.938140625,0.007290741530060768,0.044051323172450065,-0.0034779052436351775,-0.011557948775589466,-0.002319354796782136,0.021320229396224022
1772363422428209700,3.948209716796875,0.0074978084094822406,0.017125906845927238,0.029155367335677144,-0.007709148805588484,-0.0019635565113276243,0.023253951221704483
1772363422438279700,3.95827978515625,-0.0058553018994629375,0.011873977667093276,0.03766717509329319,-0.00022502802312374115,0.003691317979246378,0.024418991059064865
1772363422448349700,3.968349609375,-0.006428717873245477,-0.003084522011876106,0.01954348938167095,0.005090908147394657,0.015076598152518272,0.026901323348283768
1772363422458418700,3.978418701171875,0.0151766724742949,-0.02186930198073387,0.016827216160297392,-0.0003119930624961853,0.011202193796634674,0.025628842413425446
1772363422468488700,3.98848876953125,0.03910276085436344,-0.01695288836658001,-0.021750644037127495,-0.003247595392167568,-0.003021217416971922,0.01921169087290764
1772363422478557700,3.9985576171875,0.024676760616898535,0.012687047615647316,-0.014207973572611807,-0.003461499698460102,-0.008928912691771984,0.0166088305413723
1772363422488626700,4.008626708984375,0.026019991919398307,0.012289572730660437,-0.014085223975777625,-0.004352593794465065,-0.0028068379033356905,0.012813294306397438
1772363422498696400,4.018696533203125,0.04093026854246855,0.0737163935959339,0.04341828596591949,-0.006379570811986923,-0.009108434431254864,0.004748724400997162
1772363422508765700,4.028765625,0.06093845282644033,0.09892857626378536,0.04130348576903343,-0.011289108544588089,-0.021609844639897346,-0.0034143966622650623
1772363422518835500,4.03883544921875,0.1116043718330562,0.10616729534566402,-0.03618307401537895,-0.014232357032597065,-0.027573630213737488,0.0029854741878807545
1772363422528904700,4.04890478515625,0.11831789799705147,0.08778758904635905,-0.07403378898203372,-0.018831903114914894,-0.03524326905608177,-0.00010033044964075089
1772363422538974500,4.058974365234375,0.08935454610213636,0.03708323772549629,-0.09884498963356017,-0.023083612322807312,-0.03743309527635574,-0.005832373630255461
1772363422549043700,4.069043701171875,0.10201455958038567,0.011478840869665146,-0.08308218783438205,-0.027932696044445038,-0.03628314286470413,-0.0064936368726193905
1772363422559113700,4.07911376953125,0.10495148981511593,-0.005138531932234764,-0.0399888960391283,-0.030189912766218185,-0.017763160169124603,-0.004738584626466036
1772363422569182700,4.0891826171875,0.049006753622740505,-0.027141104903817177,0.01834697307348251,-0.029659945517778397,-0.00925835594534874,-0.0085985716432333
1772363422579252700,4.099252685546875,0.006641629971563816,-0.04325578888058662,0.04698036236166954,-0.02482253685593605,-0.006815849803388119,-0.008572356775403023
1772363422589321700,4.10932177734375,0.01697363889366388,-0.03006663696169853,0.0001543137788772583,-0.020762547850608826,-0.017404578626155853,-0.00694649713113904
1772363422599391700,4.119391845703125,0.004344312814623118,-0.028572599011659622,-0.07689619267582892,-0.01166404876857996,-0.026102617383003235,-0.003786260262131691
1772363422609460500,4.12946044921875,0.0016213175915181636,-0.004626490756869316,-0.08399813363552093,-0.009450696408748627,-0.019481468945741653,0.0003709341399371624
1772363422619530800,4.13953076171875,-0.038779958640784026,-0.027454408636689184,-0.037788171124458314,-0.0013112258166074753,-0.013197200372815132,-0.003086497075855732
1772363422629599500,4.149599609375,-0.045532209379971024,-0.02613222012221813,0.023215455892682074,0.002740240655839443,-0.012572422623634338,-0.007502283900976181
1772363422639669800,4.159669677734375,0.00343465062379837,0.01640519135594368,0.029204467174410817,0.0039523011073470116,-0.012515533715486526,-0.005811522714793682
1772363422649739800,4.16973974609375,0.01462619898468256,-0.009126140263676643,-0.006281856748461723,0.011391309089958668,-0.012062262743711472,0.000010946299880743027
1772363422659808300,4.179808349609375,0.017447978407144547,-0.036598084557056425,-0.04075403519272804,0.011090961284935474,-0.009460178203880787,0.005216117016971111
1772363422669878300,4.189878173828125,0.02217047688439488,-0.027612229546904562,-0.04316577250957489,0.005233072675764561,-0.005973301362246275,0.008526159450411797
1772363422679947300,4.199947265625,0.018286913449317217,-0.03169160781502724,-0.020379940205812453,-0.0032477853819727898,-0.007313604466617107,0.0118882916867733
1772363422690017300,4.210017333984375,0.021982260835915802,-0.020337854629755018,0.00023147066831588744,-0.010471876710653305,-0.008344247937202454,0.012212399393320084
1772363422700086300,4.220086181640625,0.012320698521286248,-0.02001929019987583,0.014798925203084946,-0.015756577253341675,-0.004067913629114628,0.008880813606083393
1772363422710156300,4.23015625,-0.0020925883650779725,0.032247488132119174,-0.0078045362710952755,-0.018115604296326637,-0.006222677417099476,0.003571801818907261
1772363422720225300,4.240225341796875,0.010641074871271848,0.09284078078269958,-0.015414426752924919,-0.02289693057537079,-0.01252843625843525,0.0004140338860452175
1772363422730295300,4.25029541015625,0.008893500551581382,0.12409867335557936,-0.02726151641309261,-0.022580547258257866,-0.02173498272895813,0.0002899304963648319
1772363422740364300,4.2603642578125,0.009744418292492627,0.09562953471839428,-0.034549919855594635,-0.032350536435842514,-0.029800647869706154,0.000865505076944828
1772363422750434000,4.27043408203125,0.008348872280865907,0.020510873109102247,-0.01891045217514038,-0.037538107484579086,-0.026540672406554222,0.00013180449604988098
1772363422760503300,4.28050341796875,0.012182459094375372,-0.05264145686328411,0.0033031331986188885,-0.04478054121136665,-0.01587127149105072,0.004983464255928993
1772363422770573000,4.290572998046875,0.0074004855148494236,-0.10716858134269713,0.05153846405744552,-0.0439847894012928,0.006289158947765827,0.004421004559844732
1772363422780642300,4.300642333984375,-0.010298252782970667,-0.11368190875947475,0.12999883731007575,-0.04068794846534729,0.02579367533326149,0.010430002585053444
1772363422790712300,4.31071240234375,-0.026331688217073677,-0.10572656584084034,0.15259353095591066,-0.03606283664703369,0.030587630346417427,0.01498400792479515
1772363422800782000,4.320781982421875,-0.07593216994926333,-0.107457919678092,0.04694938270151615,-0.025686979293823242,0.017680104821920395,0.017505956813693047
1772363422810851300,4.330851318359375,-0.062407940857112404,-0.05688742386996746,-0.06015373218953609,-0.008526899851858616,0.009068772196769714,0.016225242987275124
1772363422820921000,4.340921142578125,-0.016746259878575802,0.021833646145462987,-0.06835165169239044,0.006631483323872089,0.005121915135532618,0.015302767977118492
1772363422830990300,4.350990234375,0.006262129134684801,0.10871113460958004,0.00696340927183628,0.01265741791576147,0.013694630935788155,0.015097171068191528
1772363422841060000,4.36106005859375,-0.01795242079794407,0.10259762016534804,0.06317980201244354,0.015710381790995598,0.01695009507238865,0.009790757670998573
1772363422851129300,4.37112939453125,0.004549187736958265,0.10110358221530914,0.10370236653685569,0.013415802270174026,0.018371157348155975,0.009743086993694305
1772363422861199000,4.38119921875,0.026991175039112567,0.05888590421080589,0.08016016290783881,0.00755221676081419,0.01369392778724432,0.009087510406970978
1772363422871268400,4.391268310546875,0.005114128143340349,0.01167640926837921,0.013996961170434951,0.002762521617114544,0.012105085887014866,0.012033233419060707
1772363422881338400,4.40133837890625,0.019811054276674983,-0.015940496453642844,-0.0292401230096817,-0.001991839148104191,0.009737284854054451,0.0142931267619133
1772363422891407400,4.411407470703125,0.03803746971040964,-0.005969137537479401,-0.009352350234985351,-0.003471757285296917,0.0028048097155988216,0.009793449193239212
1772363422901477400,4.421477294921875,0.058711716687679286,0.022827333357930184,-0.004750993919372558,-0.002142307348549366,-0.001671964069828391,0.010409971699118614
1772363422911546000,4.431546142578125,0.05440729749202728,0.05027472773194313,-0.003589548924565315,0.00033336691558361053,0.0025613969191908836,0.010373486205935478
1772363422921616400,4.441616455078125,0.06398512704595923,0.0684749858111143,0.03155775230228901,0.003006214275956154,-0.0014911056496202946,0.002673359587788582
1772363422931685000,4.45168505859375,0.06565963612943887,0.059091655915975566,0.012250409764051437,-0.007220324128866196,-0.010118415579199791,-0.0012691845186054707
1772363422941755400,4.46175537109375,0.07143295883387327,0.03499240292608738,0.015706103175878523,-0.015589512884616852,-0.010374292731285095,0.0004634251818060875
1772363422951825200,4.4718251953125,0.02013911718726158,-0.034143677142262456,0.014703648135066031,-0.017336014658212662,0.00041443854570388794,0.001347061712294817
1772363422961894400,4.481894287109375,-0.043374739085137844,-0.07781973726153374,0.0051543140232563015,-0.015043672174215317,0.00500556081533432,0.00008917786180973053
1772363422971964400,4.49196435546875,-0.04261661419421434,-0.06798398742377758,-0.004530044645071029,-0.012381310574710369,0.0021354719065129757,-0.002201673574745655
1772363422982033200,4.502033203125,-0.039900340972840787,-0.05872574521303177,-0.057172670552134514,-0.005595958326011896,-0.009541123174130917,-0.004226984456181526
1772363422992103400,4.512103515625,-0.03421352750808,-0.01106733745932579,-0.11740122154355048,0.0070540569722652435,-0.02228088676929474,-0.00632582139223814
1772363423002172200,4.522172119140625,0.012959288685768842,0.03488134376704693,-0.1418348210543394,0.014502106234431267,-0.03148161992430687,-0.009467892348766327
1772363423012242400,4.532242431640625,0.04185805091187358,0.05559095431864261,-0.13246084350943566,0.02698434144258499,-0.03974008187651634,-0.012670077383518219
1772363423022311200,4.542311279296875,0.0463489325903356,0.08119476665258407,-0.05639408739507198,0.02614009752869606,-0.04252461716532707,-0.00848369486629963
1772363423032381200,4.552381103515625,0.020019582460820674,0.07335925072133541,0.010882628542184828,0.022035103291273117,-0.043800804764032364,-0.008827243000268936
1772363423042450200,4.5624501953125,-0.005863777466863393,0.0454787256270647,0.05499298842549324,0.01639489084482193,-0.040298983454704285,-0.006914157420396805
1772363423052520200,4.572520263671875,-0.004109481145441532,0.02942717001438141,0.10212181934714316,0.011896546930074692,-0.029883895069360733,-0.005002274177968502
1772363423062589200,4.582589111328125,-0.014768822325766085,-0.00518704724907875,0.1418207925289869,0.004281960427761078,-0.016251536086201668,-0.003468322567641735
1772363423072659200,4.5926591796875,-0.05270253940075636,-0.044098669445514674,0.11585048497021197,0.0037226956337690353,-0.010203496553003788,-0.0005010282620787621
1772363423082729200,4.602729248046875,-0.04201367986500263,-0.035599136647582054,0.050838206833601,-0.0032431334257125854,-0.005565652623772621,-0.002552684396505356
1772363423092798200,4.612798095703125,-0.0009448796346783637,-0.011877484798431396,0.02259878529906273,-0.014744793996214867,-0.006743036210536957,0.0004481654614210129
1772363423102868200,4.6228681640625,0.01962678375095129,-0.005603226834535599,0.027813305076956747,-0.02764783427119255,-0.007875502109527588,-0.0019956943579018116
1772363423112937200,4.632937255859375,0.02688157718479633,-0.0013777180939912796,-0.005965630406141281,-0.03824348747730255,-0.02353515475988388,-0.006861822213977575
1772363423123007200,4.64300732421875,0.0644236645936966,0.005753448960185051,-0.03461772439479828,-0.040331918746232986,-0.03151112049818039,-0.009785866364836693
1772363423133076200,4.653076171875,0.061847092103958126,0.004863806644082069,-0.057438628011941904,-0.030273690819740295,-0.03279609978199005,-0.01331828348338604
1772363423143146200,4.663146240234375,0.022380320242792368,0.0378191507846117,-0.04611760805249214,-0.015249314717948437,-0.025584330782294273,-0.01871991530060768
1772363423153215200,4.67321533203125,-0.00845130974203348,0.06511047781407833,-0.013124854511022566,-0.004214506596326828,-0.02267136611044407,-0.012800771743059158
1772363423163285200,4.68328515625,-0.019505495458841324,0.02481120065152645,0.012281973946094512,0.0012851674109697342,-0.01853913813829422,-0.013974536210298538
1772363423173354200,4.693354248046875,-0.05074921337589621,-0.049185178929567336,0.01849310354590416,0.01230346318334341,-0.009463352151215076,-0.010335858911275864
1772363423183424300,4.70342431640625,-0.02705254983752966,-0.06921557504534721,0.04413958597779274,0.01702163740992546,0.003532037604600191,-0.0019072415307164192
1772363423193493200,4.7134931640625,-0.010530161842703818,-0.07757540711164473,0.06792728880047798,0.016705520451068878,0.00856781005859375,-0.00040761567652225494
1772363423203563300,4.723563232421875,-0.007953735483437776,-0.06699614543020725,0.057539165776968,0.021021243184804916,0.012714026495814323,0.004414828959852457
1772363423213632300,4.73363232421875,-0.021513035888969897,-0.06596387977302073,0.046209962511062616,0.022802632302045822,0.011556349694728851,0.0007471237331628799
1772363423223702300,4.743702392578125,-0.008142682184278964,-0.016768179449439046,0.020752865171432495,0.015175659209489822,-0.00007429346442222595,0.00035352958366274834
1772363423233772300,4.753772216796875,0.005549889212101698,0.0378846172362566,-0.01323708271384239,0.009210444986820221,-0.008493078872561455,-0.005756827536970377
1772363423243841300,4.76384130859375,0.024669892484694717,0.06369885745048523,-0.011054477977752684,0.004296093247830868,-0.0024076909758150578,-0.008457913994789124
1772363423253911300,4.773911376953125,0.06162015148028731,0.08887363071739673,0.03138414930105209,-0.007975752465426922,0.0039878906682133675,-0.0081923957914114
1772363423263980000,4.78397998046875,0.0386238912962377,0.05170563731789589,0.0035457097828388213,-0.024462807923555374,-0.005377530585974455,-0.01091509684920311
1772363423274050300,4.79405029296875,0.030057430741935967,-0.026887422403693198,-0.09455459896326064,-0.03492077440023422,-0.018142061308026314,-0.012257860973477364
1772363423284119300,4.804119384765625,0.042023324476182455,-0.05260463198423385,-0.1331435650765896,-0.03763661906123161,-0.019343923777341843,-0.015754874795675278
1772363423294189300,4.814189208984375,0.07904153414145111,-0.015436054062843322,-0.06134440327882766,-0.03906220942735672,-0.010365341790020466,-0.01396363228559494
1772363423304258300,4.82425830078125,0.04348272950425744,0.02485737788081169,-0.014116203635931013,-0.023563586175441742,-0.0020486819557845592,-0.02092237025499344
1772363423314328300,4.834328369140625,0.017140812154114244,0.085751114782691,-0.022327567142248154,-0.008701016195118427,-0.0035999733954668045,-0.022421997040510178
1772363423324397300,4.844397216796875,0.030613895580917594,0.12607318829894065,-0.0579746345847845,0.0012916773557662964,-0.010052746161818504,-0.02005002647638321
1772363423334467000,4.854467041015625,0.015242138925939798,0.07363105340003967,-0.08492635439634323,0.0067527564242482185,-0.017820920795202255,-0.02192169800400734
1772363423344536300,4.864536376953125,0.01961523944362998,0.03817804722487926,-0.07459142286479473,0.007420221343636513,-0.015841562300920486,-0.015193989500403404
1772363423354606000,4.874606201171875,0.0022724749766290186,-0.009354103800654412,0.00798690710067749,-0.00018523447215557098,-0.006394266150891781,-0.01396414265036583
1772363423364676400,4.88467626953125,-0.04465995659008622,-0.07820727527439594,0.05715104324221611,-0.0028869137167930603,0.0012863203883171082,-0.010035309009253979
1772363423374745300,4.894745361328125,-0.07954816848933696,-0.10152969867289066,0.043076925182342525,0.002926500514149666,0.010291000828146935,-0.010328791104257107
1772363423384815000,4.904815185546875,-0.07412336696162819,-0.07966682643294334,-0.008541033852100371,0.013136527501046658,-0.002106813248246908,-0.011773289181292057
1772363423394884400,4.91488427734375,-0.04034267791286111,-0.03764262517392635,-0.09792202956974506,0.020427197217941284,-0.014120332896709442,-0.009879515506327152
1772363423404954000,4.9249541015625,0.02049509101808071,0.030907763960957527,-0.1513514219403267,0.02711702138185501,-0.012462492100894451,-0.006164318881928921
1772363423415023400,4.9350234375,0.038906507629901166,0.06953180138766765,-0.11106208164989947,0.029808413237333298,-0.01706070639193058,-0.013242735527455807
1772363423425093000,4.945093017578125,0.04623027464672923,0.10349076961278915,-0.0638303748756647,0.03171251714229584,-0.029227521270513535,-0.014813920482993126
1772363423435162400,4.955162353515625,0.05904518642574549,0.13598551050424576,-0.03826747907400131,0.025699101388454437,-0.03655893728137016,-0.017705582082271576
1772363423445232000,4.965232177734375,0.05872837556153535,0.13360767545700072,-0.013071663019061089,0.020177751779556274,-0.03697091341018677,-0.024255692958831787
1772363423455301400,4.97530126953125,0.0523402819596231,0.12739186968207358,0.017937223228812218,0.010403416119515896,-0.03426460921764374,-0.02626771107316017
1772363423465371400,4.985371337890625,0.028532413131743668,0.09290741627812385,0.04546294353604317,0.004647044464945793,-0.0269723329693079,-0.02511014975607395
1772363423475440400,4.9954404296875,-0.00745513831153512,0.026956395986676214,0.048432314735651016,-0.0021472126245498657,-0.02136957459151745,-0.021110080182552338
1772363423485510400,5.005510498046875,-0.040710780572891236,-0.045832945892214774,0.02037526403069496,-0.010479935444891453,-0.01551874354481697,-0.012470835819840431
1772363423495580200,5.015580078125,-0.054552551181614395,-0.10314999335110187,-0.005275894576311111,-0.025193102657794952,-0.018390962854027748,-0.013235962018370628
1772363423505649400,5.0256494140625,-0.04421075151786208,-0.13071896827816962,0.0066810851991176605,-0.04052741453051567,-0.011786353774368763,-0.013852087780833244
1772363423515719200,5.03571923828125,-0.019730244125425813,-0.12527063974440097,0.09185176974534988,-0.05302909016609192,-0.0052304500713944435,-0.009528446942567825
1772363423525788400,5.045788330078125,-0.006573094779998063,-0.12088029583096503,0.1437082137107849,-0.05511903017759323,-0.0015075425617396832,-0.00794924981892109
1772363423535858200,5.055858154296875,-0.023595395120978354,-0.1208686053931713,0.15171382551193235,-0.04472364857792854,0.0046731214970350266,-0.001547010149806738
1772363423545927200,5.06592724609375,-0.019129355622828005,-0.09056056089103222,0.08119476665258407,-0.02859431505203247,0.0011373236775398254,0.004600192420184612
1772363423555997400,5.07599755859375,-0.02384630114212632,-0.05071253462731838,0.013080430847406387,-0.0032404903322458267,0.0001676664687693119,0.005394080653786659
1772363423566066200,5.086066162109375,0.004727320782840252,0.0229746328741312,0.0038110827207565303,0.019373372197151184,0.0028516813181340694,0.0008926326408982277
1772363423576136400,5.096136474609375,0.003084522011876106,0.08394377309978007,0.046990883755683895,0.02914956957101822,0.010420385748147964,-0.0017287163063883781
1772363423586205200,5.106205078125,-0.0007004033543169499,0.12286065599322318,0.07885317196249961,0.035290200263261795,0.01064383890479803,-0.0037477235309779644
1772363423596275500,5.116275390625,-0.008869973545521498,0.09873451499640941,0.07185995207428932,0.03993795067071915,0.003708168864250183,-0.0061198011972010136
1772363423606344200,5.12634423828125,-0.007582710213959217,0.03617722879648209,0.01691314087808132,0.0421045646071434,-0.005568676628172398,-0.005583657417446375
1772363423616414200,5.136414306640625,0.03539060846343636,0.03169160781502724,0.006170213067531585,0.03449111804366112,-0.004886641167104244,-0.0053335861302912235
1772363423626484200,5.146484130859375,0.07902326783239841,0.02502981183826923,0.030736499047279355,0.022288138046860695,-0.00032365648075938225,-0.0008317204192280769
1772363423636553200,5.15655322265625,0.0688185385517776,-0.003327683117985725,0.06077917061150074,0.015416914597153664,0.004945407621562481,-0.003847484476864338
1772363423646623500,5.16662353515625,0.0372243997618556,-0.015060206487774848,0.080282912504673,0.007336442358791828,0.013953158631920815,-0.0005629071965813637
1772363423656692200,5.176692138671875,0.004686111989617347,-0.02567746209204197,0.09952128145992756,0.005152915604412556,0.023336540907621384,-0.0007914062589406967
1772363423666758700,5.186758544921875,-0.041030221785604955,-0.03836977040469646,0.06918751799464225,0.000059011392295360565,0.021131880581378937,-0.002104640007019043
1772363423676827600,5.19682763671875,-0.060390755815804,-0.02128594913482666,0.02182955449223518,-0.007802639622241259,0.0131178954616189,0.0006621181964874268
1772363423686897700,5.206897705078125,-0.08720350554808974,-0.038354572835564614,-0.05345511133372784,0.0020184731110930443,0.008367206901311874,-0.0038195503875613213
1772363423696966700,5.216966552734375,-0.09050810005143284,-0.0016477672070264815,-0.08101122677922248,0.010181594640016556,0.00807159673422575,-0.012509710155427456
1772363423707036700,5.22703662109375,-0.05215966469570994,0.06684709234833718,-0.04391103791892528,0.014512387104332447,0.002838350832462311,-0.01165798120200634
1772363423717105700,5.237105712890625,-0.020379794075340033,0.06067454119324684,-0.07556757442057133,0.023877393454313278,0.0009768013842403889,-0.006410755682736635
1772363423727175700,5.24717578125,-0.08477481709644198,-0.005842296287417411,-0.09955343016386031,0.03292976692318916,-0.009593350812792778,-0.005681740120053291
1772363423737244700,5.25724462890625,-0.06261836873739958,-0.031032851645350454,-0.08484101420044898,0.035953786224126816,-0.011532132513821125,0.001983370166271925
1772363423747314700,5.267314697265625,-0.014335253214091062,-0.012249240720272064,-0.028490765947103498,0.03353286534547806,-0.002141213044524193,0.0017650844529271126
1772363423757384000,5.277384033203125,-0.025860125182569027,0.017077976050972936,0.04838555298447609,0.030680354684591293,0.0018913457170128822,0.0044000158086419106
1772363423767453700,5.28745361328125,-0.038071810371428726,0.04672141916453838,0.06245850200057029,0.030688103288412094,0.004419041331857443,0.0024432693608105183
1772363423777523700,5.297523681640625,-0.033767245045304296,0.05750584802925587,0.08327917171120643,0.02958555519580841,0.010772544890642166,0.003259794320911169
1772363423787592700,5.3075927734375,0.005025719207525253,0.044373979255557056,0.12685761667490006,0.02321225218474865,0.015362095087766647,0.003438391722738743
1772363423797662700,5.317662841796875,0.011628040082007646,0.04419628460109234,0.12135901925861835,0.01684570126235485,0.02110387198626995,0.00235395273193717
1772363423807731700,5.327731689453125,0.03170841281935573,0.023186814320087432,0.09462824872136115,-0.0000360831618309021,0.0169071052223444,0.004363005980849266
1772363423817801700,5.3378017578125,0.0678187138594687,-0.029978374156355857,0.05378185907006264,-0.009757686406373978,0.015279913321137428,0.0071212416514754295
1772363423827870700,5.34787060546875,0.06829729115664959,-0.07778875760138035,0.01464753403365612,-0.022197740152478218,0.019332099705934525,0.007195715792477131
1772363423837940700,5.357940673828125,0.06565875934660434,-0.06833820768892765,0.036196518018841745,-0.025806855410337448,0.01954701729118824,0.005838835146278143
1772363423848009700,5.368009765625,0.054556935095787046,-0.033922727867960925,0.04223755174875259,-0.023080872371792793,0.013105805963277817,-0.0003006928600370884
1772363423858079700,5.378079833984375,0.03924962197914719,0.006669979283213615,0.0034480946272611615,-0.01559419371187687,0.01944013498723507,-0.004024857189506292
1772363423868148700,5.388148681640625,0.014554010531306266,0.036517420536279675,-0.03936404213905334,-0.002635667100548744,0.013871162198483944,-0.004705583676695824
1772363423878218800,5.39821875,-0.031814211281389,0.033272739526629444,-0.04763444235622882,0.006819620728492737,0.004442506469786167,-0.0015073930844664574
1772363423888287700,5.408287841796875,-0.06275397781580686,-0.050077159333229065,-0.07010580188333988,0.02135804295539856,0.007658406160771847,0.004878384061157703
1772363423898357500,5.418357421875,-0.07045914536565542,-0.1269376961737871,-0.038105566510558124,0.03449514880776405,0.01967618614435196,0.01237757969647646
1772363423908427800,5.428427734375,-0.03163651662692427,-0.12200900759994983,0.0541319876819849,0.03736213967204094,0.02522224932909012,0.012253613211214542
1772363423918496500,5.43849658203125,0.015351006127893923,-0.05000935479402542,0.0927133550107479,0.031752459704875946,0.027116820216178894,0.008311602286994457
1772363423928566800,5.44856689453125,0.048448681348562235,-0.01765080750286579,0.06510989329218864,0.03143468499183655,0.026107855141162872,0.00452200323343277
1772363423938635800,5.4586357421875,0.05456102674901485,0.014439444240927695,0.03602525310516357,0.02271309867501259,0.018478430807590485,0.002870843280106783
1772363423948705800,5.468705810546875,0.034077772299200296,0.030457682105898855,-0.008471475747227668,0.014938104897737503,0.005188644863665104,-0.004392755683511496
1772363423958774800,5.47877490234375,0.0581730797663331,0.06314589974284171,-0.005905424651503562,0.004229001700878143,-0.0003403434529900551,-0.0025589033029973507
1772363423968844500,5.488844482421875,0.10767492342963814,0.09348550842702388,-0.008006780844926833,-0.0031678276136517525,-0.0005797487683594227,-0.007977334782481194
1772363423978913800,5.498913818359375,0.10293547381758689,0.07758417493999004,-0.020023381853103636,-0.01316932961344719,-0.006770000327378511,-0.009740347042679787
1772363423988983600,5.508983642578125,0.0949181715786457,0.06749708068966866,-0.06130231770277023,-0.017837639898061752,-0.015138348564505577,-0.014876706525683403
1772363423999052800,5.519052734375,0.0733159961014986,0.03026654344797134,-0.08881108687520027,-0.027897197753190994,-0.02100076526403427,-0.018380360677838326
1772363424009122600,5.52912255859375,0.0683250559464097,-0.00008826280534267425,-0.05164484704136848,-0.02968898043036461,-0.014914000406861305,-0.02324972301721573
1772363424019191800,5.53919189453125,0.06413491078019141,-0.03355272551178932,-0.004294482323527336,-0.024194344878196716,-0.007039032410830259,-0.02144702896475792
1772363424029261800,5.54926171875,0.0338347573235631,-0.04528115722835064,0.0222732066065073,-0.018763719126582146,-0.005501464009284973,-0.02724456414580345
1772363424039331600,5.55933154296875,0.0003733633570373058,-0.0446902055978775,-0.015004676908254622,-0.012905031442642212,-0.006081766448915005,-0.03078443557024002
1772363424049400800,5.56940087890625,-0.01991349173784256,-0.053688920089602465,-0.06706278092563152,-0.010217095725238323,-0.01195254921913147,-0.029476789757609367
1772363424059470600,5.579470703125,-0.04375336313918233,-0.08173895653188228,-0.08384381985664367,-0.008870335295796394,-0.011915264651179314,-0.025598959997296333
1772363424069539800,5.589539794921875,-0.03697524730637669,-0.12010931145846843,-0.05848258410692215,-0.005604999139904976,-0.018604880198836327,-0.02296891063451767
1772363424079609600,5.599609619140625,0.018481413108110425,-0.1295610304147005,0.010873276191949844,-0.005122967064380646,-0.016193654388189316,-0.022039998322725296
1772363424089678800,5.609678955078125,0.022379297329485414,-0.06754501148462295,0.07353110015690326,-0.0037509622052311897,-0.01154288835823536,-0.02705794759094715
1772363424099748600,5.61974853515625,-0.026162030738592145,-0.009165303230285644,0.09716858085393905,0.0034041516482830048,-0.01275489293038845,-0.02836955524981022
1772363424109817900,5.62981787109375,-0.042483635464310644,0.04649170206189155,0.050585693377256394,0.013678818009793758,-0.013672981411218643,-0.027697935700416565
1772363424119888000,5.639887939453125,-0.03192643948420882,0.06716916390955448,-0.000025718963146209716,0.01955694705247879,-0.019031792879104614,-0.02634957805275917
1772363424129956600,5.64995654296875,-0.039461365033686156,0.05591536396741867,-0.02870119382739067,0.014635249972343445,-0.025320975109934807,-0.022277500480413437
1772363424140027000,5.66002685546875,-0.0314861483708024,0.04706745612323284,-0.053315995123982426,0.014233378693461418,-0.034274257719516754,-0.020420480519533157
1772363424150095600,5.670095703125,-0.026220629058033226,0.01909340752661228,-0.04557867887020111,0.014079846441745758,-0.03969058394432068,-0.026357946917414665
1772363424160166000,5.680165771484375,-0.019649580104649067,0.03183013950288296,-0.009772621473670005,0.008037133142352104,-0.035203687846660614,-0.02571825496852398
1772363424170234600,5.690234619140625,-0.0012277882292866707,0.05480886403024196,0.02705108853280544,-0.0036292262375354767,-0.03454452380537987,-0.02927275374531746
1772363424180304600,5.7003046875,0.02285641332194209,0.04535948316156864,0.04444061475098133,-0.01713305152952671,-0.032718125730752945,-0.02868925780057907
1772363424190374700,5.710374755859375,0.010217442631721496,0.04087269313633442,0.022270283997058868,-0.022912098094820976,-0.028707094490528107,-0.02506648562848568
1772363424200443600,5.720443603515625,-0.031394086173176766,-0.00018996961414813993,-0.0293751475661993,-0.02841046079993248,-0.025623952969908714,-0.020579593256115913
1772363424210514000,5.730513916015625,-0.0436377739354968,-0.06719780548214913,-0.08097966259717941,-0.036210790276527405,-0.025491386651992798,-0.01955508254468441
1772363424220582700,5.740582763671875,-0.0014855623826384543,-0.11425123308002948,-0.08791150768697262,-0.04208332672715187,-0.023016776889562607,-0.020017139613628387
1772363424230653000,5.75065283203125,0.000656125821173191,-0.11646890912950038,-0.06733224551677704,-0.04818272218108177,-0.025794053450226784,-0.018806517124176025
1772363424240721700,5.7607216796875,-0.021134119573980568,-0.07558978625237942,-0.04646013787984848,-0.04388198256492615,-0.0302180964499712,-0.02599811926484108
1772363424250791700,5.770791748046875,0.0044556642346084115,-0.03334171310961246,-0.021945289826393127,-0.0347905233502388,-0.028116198256611824,-0.025777824223041534
1772363424260860700,5.780860595703125,0.02445347325503826,0.016586977663636208,-0.007523965764045715,-0.014941453002393246,-0.018195657059550285,-0.02424464374780655
1772363424270930700,5.7909306640625,0.01565875690281391,0.05525777684152126,0.0045066637694835664,0.007595127448439598,-0.00962073728442192,-0.02818031795322895
1772363424280999700,5.800999755859375,0.031099341010302303,0.08013385942280292,0.020301029750704764,0.026945387944579124,-0.0053607444278895855,-0.03004186786711216
1772363424291069700,5.811069580078125,0.05831380341127514,0.08170973043739795,0.04618599711358547,0.03025646135210991,0.010331953875720501,-0.027355719357728958
1772363424301138700,5.821138671875,0.06067556410655379,0.054822892555594444,0.05723521439433098,0.03176700696349144,0.019829850643873215,-0.022838464006781578
1772363424311208700,5.831208740234375,0.01853138972967863,0.01403144796192646,0.06713116998672485,0.032242078334093094,0.025482449680566788,-0.0208134762942791
1772363424321278700,5.84127880859375,0.013944938722252845,0.006136310797929764,0.05490881727337837,0.026195906102657318,0.019940944388508797,-0.022050514817237854
1772363424331347700,5.85134765625,0.04455050486624241,0.013974164816737173,0.05156184493303299,0.021533749997615814,0.021200794726610184,-0.021582473069429398
1772363424341417700,5.861417724609375,0.07720467410311102,0.03629121056497097,0.0682400080114603,0.010575640015304089,0.02527889423072338,-0.020561683923006058
1772363424351486700,5.87148681640625,0.06454334545060991,0.015379939961433409,0.07293664139509201,0.0023485450074076653,0.029626062139868736,-0.017177093774080276
1772363424361556700,5.881556640625,0.024766776987910268,-0.006998480585217476,0.06182955644726753,-0.0037895087152719498,0.02772110141813755,-0.01738082617521286
1772363424371625700,5.891625732421875,0.01229863281995058,-0.0018248773396015165,0.025556466060876845,-0.010967063717544079,0.02780131995677948,-0.020447982475161552
1772363424381695700,5.90169580078125,0.021051263596117496,-0.058491351935267444,-0.011171382355690002,-0.011013668961822987,0.029988840222358704,-0.017743540927767754
1772363424391764700,5.9117646484375,0.0024631752431392667,-0.11332593492865561,-0.045585693132877345,-0.005357456859201193,0.02551143988966942,-0.01292218454182148
1772363424401834800,5.921834716796875,0.014558394445478915,-0.10905834061205387,-0.07495265739262104,0.021578285843133926,0.01847510039806366,-0.018531600013375282
1772363424411903700,5.93190380859375,0.03983794326111674,-0.04284545451402664,-0.032329321196675295,0.037043604999780655,0.03292417898774147,-0.03702696040272713
1772363424421973800,5.941973876953125,0.15391937273219228,0.13238076401054857,0.09169511787891388,0.02431289479136467,0.04296775534749031,-0.03709780052304268
1772363424432042500,5.95204248046875,0.12478767853304742,0.10836217504143714,0.05262684381604194,0.016538105905056,0.03750494867563248,-0.03318779915571213
1772363424442112800,5.96211279296875,-0.02622618201598525,-0.05233809000253677,-0.10816577568650244,0.04393031448125839,0.023063424974679947,-0.030621306970715523
1772363424452182800,5.972182861328125,-0.03461597082912922,-0.06271159997880459,-0.148357500821352,0.07120248675346375,0.050129182636737823,-0.03144027292728424
1772363424462251800,5.982251708984375,0.015084464146196842,-0.016529694518446922,0.0850362445116043,0.03541598841547966,0.05087593197822571,-0.028411459177732468
1772363424472321800,5.99232177734375,0.02551335757151246,0.035627193698287006,0.12885142084062098,0.03249438852071762,0.003117924090474844,-0.017964622005820274
1772363424482390500,6.002390625,-0.016734277179837227,0.0598918663829565,-0.2225450190603733,0.03794880956411362,-0.011977671645581722,-0.026211896911263466
1772363424492460800,6.012460693359375,-0.04095379554852843,0.07298807932138443,-0.10342647220492363,0.032193586230278015,-0.0058357263915240765,-0.02723100408911705
1772363424502529500,6.022529541015625,-0.03673442428782582,0.012476035213470458,0.0725140320688486,0.01615682989358902,0.016804339364171028,-0.016626296564936638
1772363424512599800,6.032599853515625,-0.09020107992887497,-0.017014847686886787,0.16697627657353878,-0.0029681669548153877,0.029431048780679703,-0.017577791586518288
1772363424522668500,6.04266845703125,-0.109414314442873,-0.0366425082206726,0.17679799788594244,-0.019464585930109024,0.018611427396535873,-0.00874888151884079
1772363424532738600,6.052738525390625,-0.09895531814023852,-0.10458090293705463,0.06534604013562202,-0.027577579021453857,0.0040373303927481174,-0.009044801816344261
1772363424542807800,6.062807861328125,-0.045327188327163453,-0.1013619408905506,0.006601005700230598,-0.032370470464229584,0.00962970219552517,-0.004583741072565317
1772363424552877600,6.072877685546875,-0.0014114742331206797,-0.017896306696534157,0.06397767439186573,-0.03694836050271988,0.027223609387874603,-0.00045833876356482506
1772363424562946800,6.08294677734375,-0.03483735849484801,0.019236615389585494,0.14123451707363127,-0.027718376368284225,0.033854350447654724,-0.00021998537704348564
1772363424573016600,6.0930166015625,-0.07727846999168396,0.041088966235518457,0.10712357315719127,-0.013830739073455334,0.03322052210569382,0.0034406804479658604
1772363424583086800,6.1030869140625,-0.1213309622079134,0.041460137635469435,-0.0015390461355447769,0.0004629790782928467,0.02764945477247238,0.0068497927859425545
1772363424593155600,6.113155517578125,-0.1345066701233387,0.024640520259737966,-0.05462941581010818,0.012827004306018353,0.00899505615234375,0.011635406874120235
1772363424603225600,6.1232255859375,-0.09962313439920543,-0.011221066716313361,-0.07551672101616859,0.019539233297109604,0.000933400820940733,0.013310801237821579
1772363424613294600,6.133294677734375,-0.06216667944714427,-0.035414427730441095,-0.02650514508783817,0.025836948305368423,0.013566895388066769,0.02355060540139675
1772363424623364600,6.143364501953125,-0.03609890286326408,-0.04109364241063595,0.058065235477685925,0.02557622268795967,0.023014724254608154,0.023451268672943115
1772363424633433900,6.153433837890625,-0.015930851842463015,-0.03448620696961879,0.04311959528028965,0.02763681858778,0.019027626141905785,0.022745704278349876
1772363424643503600,6.163503662109375,0.03440846555829048,-0.011219313150644302,0.003800561326742172,0.028576646000146866,0.009937724098563194,0.016796201467514038
1772363424653572900,6.17357275390625,0.09707155022025107,0.03686228845119476,-0.007478373056650161,0.02378082647919655,0.0030779545195400715,0.008808583952486515
1772363424663643000,6.183642822265625,0.13426014801636338,0.0763052410453558,0.017326982375979422,0.01211271807551384,-0.0006038662977516651,-0.001102370209991932
1772363424673712000,6.193712158203125,0.10465148395523428,0.08925473898947238,0.03823123871684074,-0.00336467195302248,-0.004886309150606394,-0.005584031343460083
1772363424683782000,6.203781982421875,0.06297390417680145,0.03019698534309864,0.040462943291664125,-0.021109845489263535,-0.006875690538436174,-0.0027693361043930054
1772363424693851000,6.213850830078125,0.06016556875780225,-0.05350947186946869,0.018014964640140532,-0.021234292536973953,-0.007136776112020016,0.00003254693001508713
1772363424703921200,6.223921142578125,0.08893091386258602,-0.10249825144410132,0.018943769922852516,-0.017884569242596626,0.00030196551233530045,0.000302325002849102
1772363424713990000,6.233989990234375,0.12987550319135188,-0.06021686055362224,0.056656537723541255,-0.024531742557883263,0.006065940950065851,0.004436112474650145
1772363424724060200,6.24406005859375,0.12253157016932964,-0.041644262030720705,0.07577858682274818,-0.017098061740398407,0.005106936674565077,0.0012208782136440277
1772363424734130000,6.2541298828125,0.088578447163105,0.01078501338660717,0.044511926421523094,-0.005302367266267538,0.004558792803436518,-0.004149279091507196
1772363424744199000,6.264198974609375,0.08009586549997329,0.07174597030580043,0.04781038344502449,0.008547934703528881,0.006201429758220911,-0.008746160194277763
1772363424754269000,6.27426904296875,0.06851108003780246,0.09691139122247695,0.04916530518531799,0.019155146554112434,0.0051797437481582165,-0.009523199871182442
1772363424764338000,6.284337890625,0.04925590607821941,0.08363689910769462,0.005396306085586547,0.03147253394126892,0.006334489677101374,-0.012589829042553902
1772363424774408000,6.294407958984375,0.04132876634076237,0.04673135603666305,-0.01748188067674637,0.0416790209710598,0.010849427431821823,-0.018125368282198906
1772363424784477000,6.304476806640625,0.04249313394501805,0.012387187886238098,0.012861819660663604,0.038523707538843155,0.02587045356631279,-0.016186054795980453
1772363424794547200,6.314547119140625,0.04927928695380687,-0.008284428742527961,0.06525310115516185,0.026752740144729614,0.027153868228197098,-0.012289143167436123
1772363424804616000,6.324615966796875,0.004450403537601232,-0.060447746700048446,0.033386136773228645,0.017647922039031982,0.014156312681734562,-0.014815949834883213
1772363424814686000,6.33468603515625,-0.010397329243272543,-0.08685001593530177,-0.042101358148455614,0.010873406194150448,0.0063726711086928844,-0.014349717646837234
1772363424824755000,6.3447548828125,0.002107932064682245,-0.07025953114032744,-0.05991407821476459,0.011698187328875065,0.005654416512697935,-0.011776838451623917
1772363424834825000,6.354824951171875,0.009063011899590492,-0.05051379718482494,-0.014337152910232543,0.016502242535352707,0.012174699455499649,-0.007199504412710667
1772363424844895000,6.36489501953125,-0.004980857152491807,-0.011254384464025496,-0.024570962154865265,0.016192518174648285,0.00862949900329113,-0.005544083192944527
1772363424854964000,6.3749638671875,-0.011440554685890674,0.043919805747270585,-0.055439563149213784,0.010251635685563087,0.002961522899568081,-0.0021715862676501274
1772363424865034000,6.385033935546875,0.02502601244598627,0.053693011742830275,-0.06291852072775364,0.008614590391516685,-0.007829339243471622,-0.009056922979652882
1772363424875103000,6.39510302734375,0.03747223704308271,0.0550514406144619,-0.05794599301218986,0.004161668010056019,-0.011288749054074287,-0.010149862617254257
1772363424885173000,6.405173095703125,0.03202580820545554,0.07350830380320549,-0.019229601126909256,0.007261320017278194,-0.015164447948336601,-0.015851423144340515
1772363424895242000,6.415241943359375,0.009177870450913906,0.10115443561971187,0.01811316431760788,0.009613613598048687,-0.011870479211211205,-0.01462639681994915
1772363424905312000,6.42531201171875,0.005254705657809972,0.1011965211957693,0.009925766208767891,0.007644739933311939,-0.005209381226450205,-0.011944061145186424
1772363424915381000,6.435381103515625,-0.008226414944976567,0.02369184123277664,-0.008607669347524643,-0.00028453022241592407,-0.00456294184550643,-0.011279193684458733
1772363424925451000,6.445450927734375,-0.011545184104144573,-0.031281273448467255,-0.01565700333714485,-0.00856136903166771,-0.0017567689064890146,-0.010894101113080978
1772363424935520000,6.45552001953125,-0.003623451194167137,-0.0799251851081848,-0.025123335340619085,-0.023139622062444687,-0.0035369014367461205,-0.007006893865764141
1772363424945590000,6.465590087890625,-0.031220190910995003,-0.10713877072632312,-0.042405894052982326,-0.029814036563038826,-0.007981184870004654,-0.0050292303785681725
1772363424955659000,6.475658935546875,-0.024393559761345385,-0.07624445076882838,-0.03929097690284252,-0.02825184538960457,-0.006335817277431488,-0.0020327488891780376
1772363424965729000,6.48572900390625,0.003226560831069946,-0.018823358413577077,0.004278700232505798,-0.021304192021489143,-0.0062543246895074844,-0.003946496639400721
1772363424975799000,6.495799072265625,0.022476035702228545,0.05188625458180904,0.045613750183582304,-0.016818441450595856,-0.008219034411013126,-0.0044405413791537285
1772363424985868000,6.505867919921875,-0.010768646773695946,0.06547989564836025,0.022104279780387877,-0.0065255905501544476,-0.012850005179643631,-0.0016295742243528366
1772363424995938000,6.51593798828125,-0.03819339092448353,0.047045244291424745,-0.01047697035074234,-0.0013570832088589668,-0.011609962210059166,0.002871908713132143
1772363425006007000,6.526007080078125,-0.03493278169333935,0.013206103053689001,-0.00033610008656978605,0.003325819969177246,-0.009756403043866158,0.010346602648496628
1772363425016077000,6.5360771484375,-0.04849821957871318,-0.027213001096248624,0.03865267899930477,0.011331372894346714,0.0056157708168029785,0.011562436819076538
1772363425026146000,6.54614599609375,-0.03429375313743949,-0.036432080340385434,0.10230126756727695,0.014219305478036404,0.01988871768116951,0.015926025807857513
1772363425036216000,6.556216064453125,-0.01750891481414437,0.012139935126900672,0.13055764023661612,0.014478241093456745,0.031060241162776947,0.016017135232686996
1772363425046284800,6.566284912109375,-0.025409166544675826,0.02198737540245056,0.10902268477678298,0.013217766769230366,0.03239954262971878,0.016053088009357452
1772363425056355000,6.57635498046875,0.020066636472940443,0.056035190954804415,0.05403554157018661,0.011932659894227982,0.025262262672185898,0.011590644717216492
1772363425066423800,6.586423828125,0.06333776905313133,0.07980886525213718,0.00893149447441101,0.008639393374323845,0.025907814502716064,0.00854505319148302
1772363425076494000,6.596494140625,0.09631634793877601,0.08575345287024974,0.009466916525363921,0.00028945133090019226,0.02560528740286827,0.009707573801279068
1772363425086564000,6.606564208984375,0.06718786861002445,0.046775195178389545,-0.00018646248281002043,-0.007502158638089895,0.018450705334544182,0.008259613066911697
1772363425096632800,6.6166328125,0.04456234143450856,-0.02729951033592224,-0.030284663626551626,-0.016203830018639565,0.0141290333122015,0.00925092026591301
1772363425106703000,6.626703125,0.03923252471387386,-0.09052899670898913,-0.02171732628941536,-0.02266732230782509,0.02038826048374176,0.01238013431429863
1772363425116771800,6.636771728515625,0.011098609380424023,-0.0953062941133976,-0.010285831692814827,-0.018107373267412186,0.022774171084165573,0.00644694222137332
1772363425126842000,6.646842041015625,0.007125906357169151,-0.041459553113579746,0.005195815077424049,-0.00767523841932416,0.01993737369775772,0.001048448495566845
1772363425136910800,6.656910888671875,0.02689019888266921,0.03236497703194618,-0.02990764700770378,0.006059795618057251,0.008470447733998299,-0.004804264288395643
1772363425146981000,6.666981201171875,0.052681935004144906,0.07969780609309673,-0.11274842730164528,0.013345936313271523,-0.010396716184914112,-0.005769393872469664
1772363425157049900,6.6770498046875,0.03151522833481431,0.06250058757662773,-0.13299334295094012,0.015219035558402538,-0.016931816935539246,-0.006708287168294191
1772363425167120000,6.687119873046875,-0.005566401955485344,0.017987492111325262,-0.0689981329023838,0.01474952045828104,-0.01779281720519066,-0.009586898609995842
1772363425177188900,6.69718896484375,-0.018043606212735173,-0.0024888942062854767,0.025723054799437522,0.017287693917751312,-0.019615735858678818,-0.007984007708728313
1772363425187259000,6.7072587890625,0.0057281683884561055,0.011043956583738326,0.12847265065610408,0.015214957296848297,-0.0003341836854815483,-0.013612865470349789
1772363425197329200,6.7173291015625,0.005800356841832399,0.04468728298842907,0.1546837812334299,0.008330865763127804,0.009004471823573112,-0.00869806483387947
1772363425207398000,6.72739794921875,-0.008325491405278444,0.06945230641067028,0.11484393827617168,0.000926479697227478,0.006438250187784433,-0.00535473320633173
1772363425217468000,6.737468017578125,-0.055657882075011725,0.024403204372525213,0.023496026399731636,-0.007553543895483017,-0.0015253550373017788,-0.0050193690694868565
1772363425227537000,6.747536865234375,-0.0645594198025763,0.02010287683010101,-0.030558219870924948,-0.01852949522435665,-0.011855490505695343,0.0029983441345393658
1772363425237607000,6.75760693359375,-0.05511603028327226,-0.009265840995311737,-0.024576807373762128,-0.03397489711642265,-0.019043903797864914,0.0027764523401856422
1772363425247676000,6.767676025390625,-0.07390592481866479,-0.05127075303196907,0.00968786579966545,-0.03328700363636017,-0.020682547241449356,0.009303860366344452
1772363425257746000,6.777745849609375,-0.09139452749714255,-0.05365735590755939,0.005188216292858124,-0.02053130976855755,-0.0184369757771492,0.00614599883556366
1772363425267815000,6.78781494140625,-0.11660481046885252,-0.031845337072014805,-0.0037853637576103208,-0.009011540561914444,-0.004737409297376871,0.008285315707325935
1772363425277885000,6.797885009765625,-0.1270733052521944,0.013743278670310973,0.013825111734867095,-0.004026550799608231,0.0036323582753539085,0.016674071550369263
1772363425287954000,6.807953857421875,-0.16634937684684992,-0.006940612918138503,-0.017125322324037552,-0.007865497842431068,0.00005200458690524101,0.021741801872849464
1772363425298024000,6.81802392578125,-0.18357304497882723,-0.05360065728425979,-0.028982933378219604,-0.008031139150261879,-0.0044938549399375916,0.028377369046211243
1772363425308093200,6.82809326171875,-0.14357216624096036,-0.0994318496108055,-0.018109657186269758,-0.0024912310764193535,0.010300537571310997,0.03035716339945793
1772363425318163000,6.838162841796875,-0.07705591328218579,-0.06895370923876762,0.04166062864363193,0.0031174831092357635,0.027764780446887016,0.03675101697444916
1772363425328233000,6.84823291015625,-0.027063801883906124,0.01720423277914524,0.10114391422569752,0.0011933492496609688,0.0340849906206131,0.035344865173101425
1772363425338302000,6.858302001953125,-0.0046671150282025335,0.06929039384722709,0.07334872932732105,-0.000682394951581955,0.02659369260072708,0.034020449966192245
1772363425348372000,6.8683720703125,0.00018748539611697197,0.08532207571566104,-0.01718026738166809,-0.009338467381894588,0.015045426785945892,0.03502232953906059
1772363425358441000,6.87844091796875,-0.0089482994787395,0.07555179232954978,-0.07087211008071899,-0.016379481181502342,0.005825352855026722,0.03264183923602104
1772363425368511000,6.888510986328125,0.011461743604391813,0.07489946590065956,-0.04801555062830448,-0.02365177497267723,0.003063121810555458,0.02626117132604122
1772363425378580000,6.898580078125,0.05906637534424662,0.07320142981112003,-0.009460486784577369,-0.032670438289642334,0.0011397958733141422,0.026632465422153473
1772363425388650000,6.90864990234375,0.10125833438560367,0.03672726389467716,-0.018275076881051063,-0.04268286004662514,-0.0074965693056583405,0.022971417754888535
1772363425398719000,6.918718994140625,0.1308402565702796,-0.012730302235484122,-0.0567068066060543,-0.048944056034088135,-0.006864787545055151,0.022912655025720596
1772363425408789000,6.9287890625,0.13197408290579915,-0.037892216020822524,-0.03985094887316227,-0.049416765570640564,0.001150262076407671,0.013485864736139774
1772363425418858000,6.93885791015625,0.1318374509140849,-0.04144552458822727,0.03603577449917793,-0.04940435290336609,0.014765487983822823,0.007242710795253515
1772363425428928000,6.948927978515625,0.12033464464694262,-0.03213175279796123,0.10651976204514503,-0.04707009345293045,0.025678589940071106,0.005763324908912182
1772363425438998000,6.958998046875,0.07559358564466237,-0.045859249377250666,0.08043956437110901,-0.03838224336504936,0.019787928089499474,0.0001100306399166584
1772363425449066800,6.969066650390625,0.0670342854835093,0.0013303718209266662,0.039320787519216534,-0.027861960232257843,0.012997666373848915,0.00012254761531949043
1772363425459137000,6.979136962890625,0.05382321399375796,0.013592472022771834,-0.013532850790023802,-0.014806220307946205,0.0030756480991840363,-0.0032764310017228127
1772363425469205800,6.989205810546875,0.05136646849140525,0.012288403686881064,-0.04743745847940445,-0.006620995234698057,-0.004130333662033081,-0.0046719275414943695
1772363425479276000,6.999276123046875,0.06725260440930723,0.01652794095277786,-0.04535539150834083,-0.006719890516251326,-0.00315229594707489,-0.00570693239569664
1772363425489345000,7.009344970703125,0.053245706366747615,0.0090104049295187,0.005239654219150543,-0.006094580516219139,0.003781510517001152,-0.00826676283031702
1772363425499415000,7.0194150390625,0.02262757300212979,-0.031246786656975743,0.029988311028480527,-0.0023753000423312187,0.002372823655605316,-0.01702120713889599
1772363425509484000,7.029484130859375,0.048117403567582366,-0.01063946743607521,0.052118309772014614,-0.00016221310943365097,-0.006333848461508751,-0.013676542788743973
1772363425519553800,7.0395537109375,0.06587108692303299,-0.00813245305120945,0.030177111598849296,0.009521852247416973,-0.00702835526317358,-0.013071667402982712
1772363425529623000,7.049623046875,0.04085968752428889,0.025609657552838325,0.0015653496205806732,0.019564367830753326,-0.0026109698228538036,-0.012569393962621689
1772363425539692800,7.05969287109375,0.031745676089823247,0.0827139390438795,0.003360416343808174,0.02117225155234337,-0.010824434459209442,-0.014708761125802994
1772363425549762000,7.069761962890625,0.04142784280106425,0.09096563456058501,-0.01247545069158077,0.012873576954007149,-0.022298663854599,-0.018571143969893456
1772363425559831800,7.079831787109375,0.029189854127168655,0.01956394764780998,-0.05670096138715744,0.00842212326824665,-0.02577362209558487,-0.018960922956466675
1772363425569901800,7.08990185546875,0.03508066573143005,-0.0246826058357954,-0.06004734920561313,0.0011927057057619095,-0.020566876977682114,-0.02043551579117775
1772363425579971000,7.09997119140625,0.027479689208418128,0.015355390042066572,0.013617606464028358,-0.007042573299258947,-0.015235715545713902,-0.02663395181298256
1772363425590040800,7.110040771484375,0.020249737954884765,0.03090484135150909,0.0407207174450159,-0.017335424199700356,-0.024384737014770508,-0.02278435230255127
1772363425600110000,7.120110107421875,0.006891805340349674,-0.0024929858595132827,-0.024261165553331375,-0.021622680127620697,-0.032034434378147125,-0.019550612196326256
1772363425610179800,7.130179931640625,-0.0019055413603782652,-0.02448912909030914,-0.06336567997336387,-0.02705579437315464,-0.032089028507471085,-0.01794419437646866
1772363425620249000,7.1402490234375,0.00895282952338457,-0.01475508606135845,-0.04247603667974472,-0.0246310792863369,-0.0221268143504858,-0.02139095775783062
1772363425630318800,7.15031884765625,0.015412234795838593,0.001048047748208046,-0.0089057755112648,-0.025092869997024536,-0.00776758324354887,-0.02271454781293869
1772363425640388000,7.16038818359375,0.01531783451065421,0.007622749963402748,0.054018005913496016,-0.0318421795964241,0.003668136429041624,-0.018087226897478104
1772363425650457900,7.170457763671875,-0.012138766083121299,-0.014594927063584328,0.09176759859323501,-0.031903430819511414,0.004907304886728525,-0.012764899991452694
1772363425660527000,7.180527099609375,-0.05886559207513928,-0.07881868517100811,0.08567571145892143,-0.024809423834085464,0.005502133164554834,-0.008557918481528759
1772363425670597400,7.190597412109375,-0.08631094062253833,-0.09274901084601879,0.07273790395259856,-0.014472365379333496,0.013911064714193344,0.00011519808322191238
1772363425680666400,7.200666259765625,-0.09733326989635825,-0.07955342918634414,0.045865094596147536,-0.0011643683537840843,0.019800394773483276,0.0026520611718297005
1772363425690736400,7.210736328125,-0.09796630710288881,-0.030555881783366202,0.016854104167222977,0.0013664336875081062,0.021843839436769485,0.00948173739016056
1772363425700806400,7.220806396484375,-0.07285466220006347,0.009199790021777152,0.0028279169023036955,0.009229382500052452,0.022794874384999275,0.005479359067976475
1772363425710875400,7.23087548828125,-0.042920565576851366,0.04466331759095192,-0.022983985224366187,0.010628074407577515,0.022852398455142975,0.008739600889384747
1772363425720945400,7.2409453125,-0.0022482173182070252,0.05333119269311428,0.009095160603523254,0.010203341953456402,0.01857815869152546,0.005185828078538179
1772363425731014100,7.25101416015625,0.03653261810541153,0.06668401074111462,0.030286417192220687,0.010465930216014385,0.010583882220089436,0.0023056194186210632
1772363425741084400,7.26108447265625,0.05096490195319056,0.08915653931200504,-0.00322246917784214,0.008067376911640167,0.006786405574530363,0.004816238768398762
1772363425751153200,7.271153076171875,0.03460442652180791,0.04114624938070774,-0.010355974319577216,0.0022928444668650627,0.011200329288840294,0.008376618847250938
1772363425761223400,7.281223388671875,0.025889059016108513,-0.004377484431862831,0.024303251129388807,0.0006508426740765572,0.019629953429102898,0.008742976933717728
1772363425771292400,7.29129248046875,0.01505333835557103,-0.03358662778139114,0.040354806742072105,-0.004525809548795223,0.026695851236581802,0.0037040095776319504
1772363425781362200,7.301362060546875,0.030553689826279876,-0.024904724153876304,0.04414952284991741,-0.012880834750831127,0.027982765808701515,0.0031356331892311573
1772363425791431400,7.311431396484375,0.016810703416913746,-0.037248072898387906,-0.0002332242339849472,-0.012839023023843765,0.022140588611364365,0.0008557010442018509
1772363425801501200,7.321501220703125,-0.0013883856184780598,-0.02879004115462303,-0.06424363185167312,-0.0044334447011351585,0.01178043894469738,-0.0008865967392921448
1772363425811570400,7.3315703125,0.012484218519926071,0.011592822638154029,-0.09172960467040538,0.0031592287123203278,0.004136099945753813,-0.002008853480219841
1772363425821640200,7.34164013671875,0.01710559471026063,0.05151625222563743,-0.077367901840806,0.015846580266952515,-0.0011092592030763626,-0.0038875616155564785
1772363425831710500,7.35171044921875,0.009374123675376177,0.0684884298145771,-0.06405366223752498,0.013473703525960445,-0.006234246306121349,0.00005737878382205963
1772363425841779200,7.361779296875,0.0015549743570387362,0.04605272612273693,-0.0582493598729372,0.007903625257313251,-0.01466298010200262,0.0009473790414631367
1772363425851849200,7.37184912109375,-0.01416208860427141,-0.00845218652486801,-0.05546586663424968,0.005351782776415348,-0.016651827841997147,-0.0000206800177693367
1772363425861918500,7.38191845703125,0.002318944466859102,-0.005341945549845695,-0.054153614991903305,0.010328407399356365,-0.012309635058045387,-0.0015031392686069012
1772363425871988200,7.39198828125,0.038785365468263625,0.016772271102666853,0.007113631397485732,0.0033304179087281227,-0.00950133241713047,0.0003568124957382679
1772363425882057500,7.402057373046875,0.013009995959699153,0.013394903624057769,0.032168577677011485,-0.0006973259150981903,-0.01318295020610094,-0.003765387460589409
1772363425892127200,7.412127197265625,-0.020215251163393257,-0.0048345805495977395,-0.007035889986157417,-0.00810251198709011,-0.01510575320571661,-0.0006228573620319366
1772363425902196500,7.422196533203125,-0.01855111734345555,-0.017597031489014623,0.0074298577398061744,-0.0227819737046957,-0.011651331558823586,-0.0012577329762279987
1772363425912266200,7.432266357421875,-0.012709990099817515,-0.04398527219891548,0.06350128905177116,-0.03559071198105812,-0.0067945243790745735,0.0010991650633513927
1772363425922335500,7.44233544921875,-0.03241042360886931,-0.07889350397288798,0.07841478054523468,-0.04534707963466644,-0.003036417765542865,0.009389866143465042
