time,seconds_elapsed,accel_x,accel_y,accel_z,gyro_x,gyro_y,gyro_z
1772363357403721500,0.094721435546875,-0.03487264900393784,-0.06033727206289768,-0.025430209332704543,-0.06055475026369095,-0.0453936792910099,-0.002809261903166771
1772363357413790500,0.10479052734375,-0.012827332869172096,-0.01045475851893425,0.0447644398778677,-0.0473175048828125,-0.04279017448425293,-0.009799792431294918
1772363357423860500,0.114860595703125,0.055326275500468904,0.0983300258487463,0.0912450360238552,-0.028278883546590805,-0.01989068277180195,-0.021112551912665367
1772363357433929500,0.124929443359375,0.09201667798347771,0.1511100143998861,0.12715689188241958,-0.017150864005088806,0.004215984605252743,-0.018196657299995422
1772363357443999500,0.13499951171875,0.02881583318300545,0.1313520054847002,0.05586392604112625,-0.004988244269043207,0.005772847216576338,-0.013394059613347054
1772363357454068500,0.145068359375,-0.040881205236352976,0.09237725492417811,-0.09177461285591125,0.016415316611528397,-0.008300627581775188,-0.003710806369781494
1772363357464138500,0.155138427734375,-0.059506228066235775,0.07901859165728092,-0.1509632994055748,0.03378935530781746,-0.017416715621948242,-0.004123155493289232
1772363357474207500,0.16520751953125,-0.013327172150090336,0.14483575643599034,-0.08149930255711078,0.043449174612760544,-0.012988144531846046,-0.00975334458053112
1772363357484277500,0.175277587890625,0.0142268244035542,0.05041384394168853,-0.026346155133843422,0.03195589780807495,-0.006099717691540718,-0.0033809510059654713
1772363357494346500,0.185346435546875,-0.02458652505017817,0.014691373175382614,-0.010070143115520477,0.019929859787225723,-0.011854276061058044,0.0002129850909113884
1772363357504416500,0.19541650390625,-0.07668576479554176,0.03491407699286937,-0.02024900730252266,0.013530431315302849,-0.01905973255634308,0.001496683806180954
1772363357514485200,0.2054853515625,-0.11909794245883822,0.011060323196649551,-0.01744213318824768,0.015725674107670784,-0.01719871535897255,-0.0045476267114281654
1772363357524555500,0.215555419921875,-0.08058653509374708,-0.023850831186771393,-0.01030921256840229,0.021580377593636513,0.0007591336034238338,-0.014796232804656029
1772363357534624300,0.225624267578125,0.013784304800443351,0.0041167876690626146,0.04270809186995029,0.01777338795363903,0.02272222377359867,-0.0050740973092615604
1772363357544694500,0.235694580078125,0.061126632342301306,0.0023065233767032623,0.010854571491479873,0.009698932059109211,0.025643138214945793,0.00956069864332676
1772363357554763500,0.245763427734375,0.03405577966310084,-0.0060679217368364334,-0.06263853474259376,-0.0026930226013064384,0.01923716999590397,0.010206781327724457
1772363357564833300,0.255833251953125,0.03616948388144374,0.013650924211740493,-0.05226794737577438,-0.02261986769735813,0.021053293719887733,0.01164005883038044
1772363357574902500,0.265902587890625,0.006991648985631763,0.02218435927927494,0.01514554668366909,-0.036846742033958435,0.01982664130628109,0.009093010798096657
1772363357584972300,0.27597216796875,-0.008684314780309796,0.03264496301710605,0.014563947403430939,-0.04056882858276367,0.021653717383742332,-0.0030983611941337585
1772363357595046000,0.2860458984375,0.04107212469857186,0.06394318760037422,0.006430909830331802,-0.03721058368682861,0.04390256106853485,-0.00987956952303648
1772363357605116000,0.296115966796875,0.0461368972748518,0.09230243612229823,0.02847673742175102,-0.04005712643265724,0.08034677058458328,-0.005608482286334038
1772363357615185000,0.306184814453125,-0.0036072672443464397,0.1013753848940134,-0.021204700592160224,-0.03444744274020195,0.09419627487659454,-0.0043549323454499245
1772363357625255000,0.3162548828125,-0.05320964867267757,0.0633510669261217,-0.12267886968553066,-0.030203983187675476,0.09521734714508057,0.0061056227423250675
1772363357635324000,0.326323974609375,-0.10717113862596452,-0.02242225968837738,-0.13915595723390578,-0.02636796608567238,0.08314630389213562,0.011616235598921776
1772363357645394000,0.336393798828125,-0.12140296799819916,-0.056605099797248835,-0.08427168987989425,-0.022706836462020874,0.06475423276424408,0.012536688707768917
1772363357655463000,0.346462890625,-0.0789293790038675,-0.03793079446554184,-0.03669862232208252,-0.02327994629740715,0.043958939611911774,0.018322937190532684
1772363357665533000,0.356532958984375,-0.06904591756686568,-0.04758241990804672,-0.03153495594859123,-0.009363515302538872,0.026646191254258156,0.014363150112330914
1772363357675602000,0.366601806640625,0.002658478619530797,0.08417290568053722,-0.013860767570137976,0.010398737154901028,0.03473980724811554,0.01319588627666235
1772363357685671700,0.376671630859375,0.06811134013049304,0.206845930147171,0.02980535567700863,0.025566302239894867,0.04802951589226723,0.002140030264854431
1772363357695741000,0.386740966796875,0.10422668267190456,0.29765432831943034,0.008057634249329567,0.03997213765978813,0.062097929418087006,-0.010651931166648865
1772363357705811000,0.39681103515625,0.11992719635721295,0.30874680022001266,-0.004765022444725036,0.0522858090698719,0.06761348992586136,-0.01751086488366127
1772363357715880000,0.4068798828125,0.10024093750398605,0.2830161466360092,-0.054693713217973706,0.05202614888548851,0.06021656095981598,-0.014548897743225098
1772363357725950000,0.416949951171875,0.010271583971753716,0.17183540704250336,-0.12764789026975631,0.05339321494102478,0.030082043260335922,-0.007102975156158209
1772363357736019000,0.42701904296875,-0.0858659368013963,0.07111410214304924,-0.1111176112294197,0.05431440472602844,-0.00429537333548069,-0.01904006116092205
1772363357746089000,0.4370888671875,-0.03685750267822295,0.11768003848493098,-0.012403554499149321,0.050575993955135345,-0.01498279720544815,-0.02128509059548378
1772363357756158000,0.447157958984375,0.002618621533177793,0.1387935536623001,0.07016016241908073,0.05575264245271683,-0.007744592148810625,-0.02224968746304512
1772363357766228000,0.45722802734375,0.001415858147293329,0.12744856830537318,0.06408464189767837,0.05536361411213875,0.0005067386664450169,-0.015546821057796478
1772363357776297000,0.467296875,-0.016281747639365494,0.11866671143472193,0.00012508768439292906,0.052409637719392776,0.0019054305739700794,-0.013829881325364113
1772363357786367000,0.477366943359375,-0.06346618120577185,0.00497837293446064,-0.06951835738420487,0.042037155479192734,-0.0037705644499510527,-0.013385133817791939
1772363357796435700,0.487435791015625,-0.1017595619060099,-0.1469014567941427,-0.07230360418856144,0.026048067957162857,-0.00027223583310842514,-0.021292325109243393
1772363357806506000,0.497506103515625,-0.07551642875522374,-0.18211363995075225,0.013507131826877593,0.010232537984848022,0.004351823125034571,-0.0178955290466547
1772363357816574700,0.50757470703125,-0.08679729936737567,-0.19247429044544695,0.03768061909675598,-0.0026084259152412415,0.0068852887488901615,-0.01746329665184021
1772363357826645000,0.51764501953125,-0.08493545101825148,-0.10769874269664287,-0.07713760021626949,-0.0006820317357778549,-0.0003703329712152481,-0.02280188724398613
1772363357836714000,0.5277138671875,-0.03689440062250942,0.02801321156322956,-0.21605741060674188,0.007008112035691738,-0.012919680215418339,-0.028308503329753876
1772363357846784000,0.537783935546875,-0.012495105240121483,0.12003332361280918,-0.315340791657567,0.02034819684922695,-0.02115527354180813,-0.029542699456214905
1772363357856853000,0.54785302734375,-0.0008493468383327126,0.19099311197698116,-0.29811668513417244,0.03605631738901138,-0.01358790136873722,-0.03599580377340317
1772363357866922800,0.5579228515625,0.004616334689036011,0.24813129573762416,-0.22093992195129394,0.05021156370639801,-0.0046379296109080315,-0.05162905529141426
1772363357876992000,0.567991943359375,0.017181472958065568,0.27849954599440097,-0.11631927152574062,0.05264755338430405,0.0017744298093020916,-0.05402110517024994
1772363357887061800,0.578061767578125,0.003665902096405625,0.2477326518088579,-0.05257774397730827,0.04420815780758858,-0.007073037326335907,-0.05096210539340973
1772363357897131000,0.588131103515625,-0.015527056814543902,0.15487667345702646,-0.07564180870056152,0.026313044130802155,-0.051586974412202835,-0.03724043443799019
1772363357907200800,0.59820068359375,-0.06791410052534193,0.005773907226324081,-0.13481003698408603,0.018744533881545067,-0.09793327003717422,-0.021210098639130592
1772363357917270000,0.60827001953125,-0.08196220736112445,-0.04408931709527969,-0.08035597774088382,0.02115629054605961,-0.10403883457183838,-0.02359629049897194
1772363357927340000,0.618340087890625,-0.026043336262367663,0.025243746849894524,0.09251695565581321,0.03251237794756889,-0.05431678891181946,-0.02507553994655609
1772363357937409000,0.628408935546875,-0.0063381900455802675,0.10173135872483254,0.2112204919695854,0.043340522795915604,-0.005744725465774536,-0.02651284635066986
1772363357947479000,0.63847900390625,-0.0024396117044612766,0.13110650629103182,0.11127777022719383,0.04651810973882675,0.01659884676337242,-0.0277529526501894
1772363357957547800,0.6485478515625,-0.0075938891950994725,0.08312193532288074,-0.11458031890392303,0.0505373477935791,0.0042883846908807755,-0.01837116852402687
1772363357967618000,0.6586181640625,-0.05648070623259991,0.005659925457835197,-0.26101941888332364,0.05008777230978012,-0.02132299356162548,-0.0006687515415251255
1772363357977686800,0.668686767578125,-0.12075772889722138,-0.06407587406933307,-0.2432277416050434,0.044403787702322006,-0.04064502194523811,0.00410150270909071
1772363357987757000,0.678757080078125,-0.12968622769694774,-0.0992576620876789,-0.0763484956651926,0.029792290180921555,-0.040162406861782074,0.0050900778733193874
1772363357997825800,0.68882568359375,-0.1241488326402381,-0.11875848137140273,0.0845920078754425,0.020119421184062958,-0.03188849985599518,0.005175032652914524
1772363358007896000,0.69889599609375,-0.10668477988112718,-0.13555705595910547,0.087658994230628,0.01771506667137146,-0.021973934024572372,0.006698407232761383
1772363358017964800,0.70896484375,-0.07154493130836635,-0.10747136368155479,0.01612228276133537,0.01759042963385582,-0.009094353765249252,0.02226138859987259
1772363358028034800,0.719034912109375,-0.08132197322882712,-0.10071078350543976,-0.11099018545746803,0.021562663838267326,-0.011922414414584637,0.028696898370981216
1772363358038103800,0.729103759765625,-0.0713784887002781,-0.06053893211483955,-0.14637421804964543,0.014197159558534622,0.0010248096659779549,0.029052428901195526
1772363358048173800,0.739173828125,-0.018735497467033565,-0.02677577872276306,-0.005510287854075432,-0.003432159312069416,0.0212042685598135,0.025773849338293076
1772363358058242800,0.749242919921875,0.015711400405503808,-0.0065986676126718515,0.11015665724277496,-0.03122437372803688,0.023355303332209587,0.024008439853787422
1772363358068312800,0.759312744140625,0.028398849879950283,0.017004326292872428,0.15886252822279928,-0.04919639974832535,0.015268469229340553,0.024946890771389008
1772363358078382000,0.769382080078125,0.007146328090690076,0.05320902761816978,0.12897066330611706,-0.048514362424612045,0.012778148055076599,0.019023753702640533
1772363358088451800,0.779451904296875,0.03329308819491416,0.1603098044216633,0.07127075400948524,-0.03538157045841217,0.018403954803943634,0.008486205711960793
1772363358098521000,0.78952099609375,0.035695436628907916,0.22230010438859463,0.028438743498921393,-0.021395446732640266,0.03135890141129494,0.0068033537827432156
1772363358108590800,0.7995908203125,-0.0027761867150664326,0.2433709494680166,-0.07221241877377033,0.003284231759607792,0.035906754434108734,0.002492623869329691
1772363358118660000,0.80966015625,-0.02426215193402022,0.1574240198522806,-0.13635492833852766,0.028432194143533707,0.04227437451481819,0.0026484187692403793
1772363358128729900,0.819729736328125,-0.011477489162795245,0.07137947508096694,-0.17483341981470585,0.042914409190416336,0.04149347171187401,0.0019310088828206062
1772363358138798800,0.829798828125,0.02422320816311985,0.050557051804661746,-0.1408195065319538,0.04945407062768936,0.02503087744116783,0.0010878518223762512
1772363358148868900,0.839868896484375,0.03931709772478789,0.09330547568500042,-0.06005260990262031,0.04658385366201401,0.009938523173332214,-0.0019031264819204807
1772363358158937900,0.849937744140625,0.009865304725803435,0.11324527090787886,-0.021543138766288755,0.04332680627703667,0.0022542388178408146,-0.0028522764332592487
1772363358169008000,0.860008056640625,-0.03448427074085921,0.13265315121114254,-0.05893617309331894,0.04117255285382271,-0.003542110789567232,-0.000974555965512991
1772363358179076900,0.870076904296875,-0.07538681102618575,0.13060557103157042,-0.1224631811082363,0.04081569239497185,-0.00965166836977005,-0.00012820353731513023
1772363358189147000,0.88014697265625,-0.0707499450057745,0.1179798982143402,-0.13804185851216316,0.046445053070783615,-0.009607387706637383,0.0040957266464829445
1772363358199215900,0.8902158203125,-0.005271875988319516,0.07651040822863578,-0.1202805763721466,0.04797344282269478,-0.00953761301934719,-0.003282295074313879
1772363358209286000,0.900285888671875,0.101588735383749,0.07804068653583526,-0.08237900800108909,0.047601647675037384,-0.005347169935703278,0.0032306588254868984
1772363358219355000,0.91035498046875,0.12578100041933357,0.04203764526247978,0.0016097732841968534,0.020642735064029694,-0.002443258883431554,0.013209257274866104
1772363358229425000,0.9204248046875,0.09051814652141182,-0.00908405468761921,0.0737210697710514,-0.0036703115329146385,-0.006305068265646696,0.01447672862559557
1772363358239494000,0.930493896484375,0.049007703470811244,-0.044424248138070103,0.10706161383688449,-0.023516187444329262,-0.00712745264172554,0.013433301821351051
1772363358249564000,0.94056396484375,-0.00876318870279938,-0.0514262358546257,0.10356325032711028,-0.030491050332784653,-0.002895655808970332,0.014460833743214607
1772363358259633000,0.9506328125,-0.03073971391767263,0.03155950586795807,0.011586977419257164,-0.024073630571365356,-0.0029052430763840675,0.010404839180409908
1772363358269703000,0.960702880859375,-0.012882058731094001,0.06369008962213993,-0.1529232013016939,-0.009996943175792694,-0.0017320807091891766,0.009527666494250298
1772363358279772000,0.97077197265625,0.004367547559738159,0.08914894052743912,-0.25679683275222775,0.005458712577819824,-0.0012255473993718624,0.00620244350284338
1772363358289842000,0.980842041015625,0.01364928024392575,0.09157996706664562,-0.27372517119944095,0.016213933005928993,-0.010707765817642212,0.011031202971935272
1772363358299911000,0.990910888671875,-0.021264248759672044,0.04046995755434036,-0.23815876777768133,0.02281457744538784,-0.02536953240633011,0.0022427719086408615
1772363358309981000,1.00098095703125,-0.01472038007415831,0.04396306036710739,-0.14213877243697642,0.01747947558760643,-0.02571186050772667,-0.010479643940925598
1772363358320050000,1.0110498046875,0.02118186770584434,0.05017009831368923,-0.047853638064861294,0.007415655069053173,-0.03197082132101059,-0.01709972880780697
1772363358330120000,1.021119873046875,0.02379895486906171,0.07112579258084296,-0.06938099474012852,0.009415988810360432,-0.04584527760744095,-0.027848368510603905
1772363358340189000,1.03118896484375,0.06873327142111957,0.17231354594826698,-0.11992869419455528,0.017397217452526093,-0.04784051701426506,-0.03349506855010986
1772363358350259000,1.041259033203125,0.08147095324546098,0.23883798221349714,-0.09552490530014038,0.02119193598628044,-0.044725991785526276,-0.037721313536167145
1772363358360328000,1.051327880859375,0.0628621874306351,0.26796529249846934,-0.05273264227807521,0.024387728422880173,-0.03875358775258064,-0.0425187312066555
1772363358370397700,1.061397705078125,0.04663472726177424,0.2528916420072317,-0.04117372190952301,0.03869781643152237,-0.03474472463130951,-0.0462980791926384
1772363358380467000,1.071467041015625,-0.0010849456924945115,0.18267536548674104,-0.06465571978390217,0.04495677724480629,-0.028581371530890465,-0.04485304653644562
1772363358390537000,1.081536865234375,-0.07957326639797538,0.11061375336050987,-0.06685176852345466,0.04257389158010483,-0.040482327342033386,-0.05274141952395439
1772363358400606000,1.09160595703125,-0.11299151534251868,0.07356734051406383,-0.09377718484997749,0.028337698429822922,-0.05981474742293358,-0.049273718148469925
1772363358410676000,1.101676025390625,-0.10935845606978982,-0.009607201778888701,-0.08054360926747321,0.008571174927055836,-0.07791267335414886,-0.04441854730248451
1772363358420745000,1.111744873046875,-0.10902484020125121,-0.04865969375073909,-0.03931260421276092,-0.002618628554046154,-0.08418814837932587,-0.043885912746191025
1772363358430815000,1.12181494140625,-0.06129238083064556,-0.008723989203572273,0.04381809893846512,-0.012373346835374832,-0.06253252923488617,-0.044089216738939285
1772363358440884000,1.131884033203125,-0.03436360350325703,-0.0018529343903064726,0.1329109253644943,-0.0209074467420578,-0.03835022449493408,-0.03701559454202652
1772363358450954000,1.1419541015625,-0.06621891398001462,-0.02719020474255085,0.0979115081757307,-0.027774058282375336,-0.029504017904400826,-0.026790320873260498
1772363358461023000,1.15202294921875,-0.09757756351362913,-0.04077040180563926,-0.005265373182296753,-0.022911658510565758,-0.0397566556930542,-0.01338130421936512
1772363358471093000,1.162093017578125,-0.1275640479112044,-0.07912555916309356,-0.09307575858235359,-0.014363917522132397,-0.05290040746331215,-0.009484046138823032
1772363358481161700,1.17216162109375,-0.11123868032582103,-0.04571311890482902,-0.12201076116561889,-0.004977872595191002,-0.050223931670188904,0.006259497255086899
1772363358491232000,1.18223193359375,-0.10931965842936188,-0.05632745189964771,-0.11016834768056868,0.0055493442341685295,-0.03773541748523712,0.021986033767461777
1772363358501300700,1.19230078125,-0.1267291314570233,-0.06964636767804622,-0.09470131395757198,0.01570504531264305,-0.03837377950549126,0.023787394165992737
1772363358511371000,1.20237109375,-0.07471307648308574,-0.003031330519914627,-0.05030863000154495,0.027459170669317245,-0.03562859073281288,0.01814522221684456
1772363358521440000,1.21243994140625,-0.0259949670759961,0.08836685023903847,0.02616144621670246,0.01879047229886055,-0.03029605746269226,0.018405770882964134
1772363358531509800,1.222509765625,-0.031089550268650054,0.09741524909138678,0.03911678937971592,0.011800157837569714,-0.036762334406375885,0.021951019763946533
1772363358541579000,1.2325791015625,-0.04245174248870462,0.09227496359348297,-0.01715980911552906,0.008566546253859997,-0.04156215116381645,0.015834003686904907
1772363358551648800,1.242648681640625,-0.024096914902329444,0.1473421862989664,-0.013729250144958495,0.005913658067584038,-0.040129486471414566,0.018217623233795166
1772363358561718000,1.252718017578125,-0.015271730346605181,0.12669979576468468,-0.0023357494711875914,0.004579946398735046,-0.03484790772199631,0.02504037693142891
1772363358571787800,1.262787841796875,-0.033449411267787214,0.060733577904105183,0.001841243952512741,0.008840245194733143,-0.034731555730104446,0.02272866666316986
1772363358581857000,1.27285693359375,-0.010019435841590166,0.0688894118309021,0.007825579059123993,0.00905729178339243,-0.041152168065309525,0.018667878583073616
1772363358591926500,1.282926513671875,0.03869816210884601,0.08389175065159797,0.022972879308462143,0.007640832103788853,-0.046508174389600754,0.02271481230854988
1772363358601995500,1.29299560546875,0.03256798879075795,0.05939677634239197,0.014547580790519713,0.010106653906404972,-0.04401865229010582,0.017793025821447372
1772363358612065500,1.3030654296875,0.041890564941987396,0.09180793060362338,0.034630583876371385,0.007525050081312656,-0.02875559590756893,0.019910762086510658
1772363358622134500,1.313134521484375,-0.007115275365300476,0.031714404168725015,0.042106618845462795,0.007260066457092762,-0.02081218548119068,0.024108169600367546
1772363358632204500,1.32320458984375,-0.07698686663396656,-0.03947100964486599,-0.028263386932015418,0.017009805887937546,-0.01435123011469841,0.014139325357973576
1772363358642273500,1.3332734375,-0.06051913143582642,-0.028452187502384183,-0.05959902091622352,0.022103633731603622,-0.008890151977539062,0.013725204393267632
1772363358652343600,1.343343505859375,-0.043115942018479105,-0.04167115003764629,-0.1372170981258154,0.031703926622867584,-0.0157901830971241,0.013448482379317284
1772363358662412500,1.35341259765625,-0.03236344266198575,-0.0022147534400224684,-0.23167115932404994,0.0346781425178051,-0.023817216977477074,0.011928882449865341
1772363358672482600,1.363482666015625,0.0042077538881450886,0.04703180028796196,-0.26219547692537304,0.03415965288877487,-0.0283672995865345,0.01131779607385397
1772363358682552600,1.373552490234375,0.007523563905246555,0.05010813899338245,-0.19894553228616713,0.03292900696396828,-0.03529231622815132,0.004562954418361187
1772363358692621600,1.38362158203125,0.026514022514037786,0.09863573079705237,-0.12015198155641556,0.024206038564443588,-0.03420591726899147,0.0007584434933960438
1772363358702691600,1.393691650390625,0.051951465305127204,0.13825111734867096,0.01006429789662361,0.001550259068608284,-0.020190231502056122,0.0007619056850671768
1772363358712760600,1.403760498046875,0.025781653118878603,0.10254676676094532,0.09981237336099147,-0.0236612968146801,-0.014540545642375946,-0.014177408069372177
1772363358722830600,1.41383056640625,0.07741813419070094,0.14994097062051295,0.1336655431240797,-0.04885106906294823,-0.005414691288024187,-0.01786189153790474
1772363358732899300,1.4238994140625,0.060083808758482335,0.11509937434196471,0.11776011798381805,-0.06987973302602768,-0.006975402589887381,-0.01354200579226017
1772363358742969600,1.433969482421875,-0.011667276113852858,0.07074234622120856,0.01607844361960888,-0.06814974546432495,-0.020730096846818924,-0.016213955357670784
1772363358753038600,1.44403857421875,-0.010956789756938815,0.08848024748563765,-0.061114101654291146,-0.064447782933712,-0.011784033849835396,-0.016376812011003494
1772363358763108600,1.454108642578125,-0.004857011577114463,0.07406593768596649,-0.025174773266911504,-0.05624178424477577,0.0037142313085496426,-0.01971721276640892
1772363358773177600,1.464177490234375,-0.023888057924620804,0.0669721800327301,-0.022957681739330292,-0.04118354618549347,0.01153823547065258,-0.025361809879541397
1772363358783247400,1.474247314453125,-0.01862940674405545,0.07202595629096031,-0.07096212645173072,-0.03216741606593132,0.015408340841531754,-0.01671772450208664
1772363358793316600,1.484316650390625,-0.05681176481787115,0.01648410181105137,-0.11490472855269908,-0.024281706660985947,0.007150815799832344,-0.010371308773756027
1772363358803386400,1.494386474609375,-0.08772464334536344,0.09197861099541187,-0.15515198326706886,-0.004557003267109394,-0.006193218752741814,-0.005855387542396784
1772363358813455600,1.50445556640625,-0.09982435605973004,0.044071196916699404,-0.1790180120229721,0.011936005204916,-0.006679608020931482,-0.008584143593907356
1772363358823525400,1.514525390625,-0.08286145775578915,-0.04387772017121315,-0.13911036452651024,0.016601864248514175,-0.007631422020494938,-0.005816320423036814
1772363358833594600,1.5245947265625,-0.07536927536949514,-0.004589081355929375,-0.06852467017173766,0.014980455860495567,-0.005122556816786528,-0.0033241622149944305
1772363358843664600,1.53466455078125,-0.07885138186421245,0.03243453513681888,0.02545125212073326,0.0058474112302064896,0.0055908081121742725,-0.0040932828560471535
1772363358853733600,1.544733642578125,-0.06245462954305112,0.027471359771490095,0.1012970589607954,-0.00816679373383522,0.008850136771798134,-0.005161121487617493
1772363358863803600,1.5548037109375,-0.028739699206873772,0.005429623833298683,0.08275544009804725,-0.023761466145515442,-0.006414568983018398,-0.0027118129655718803
1772363358873872600,1.56487255859375,-0.0029085078578442334,0.020340192717313764,-0.01641571274995804,-0.032995108515024185,-0.016419323161244392,0.0037974780425429344
1772363358883942700,1.574942626953125,-0.0002538286305963993,0.029360534518957135,-0.06503975066542625,-0.03597918152809143,-0.01754370890557766,0.009354430250823498
1772363358894011400,1.585011474609375,-0.01607913773935288,0.03575871112346649,-0.028045944789052007,-0.044602587819099426,-0.00979671347886324,0.008320222608745098
1772363358904081700,1.59508154296875,-0.027420908225886522,0.019796002838015556,0.03379705566167831,-0.04901251569390297,-0.007496807724237442,0.008065092377364635
1772363358914150400,1.605150390625,-0.04269727821499109,0.0031909049957990644,0.05832008702158928,-0.05862697586417198,0.002189627382904291,0.0034882486797869205
1772363358924220700,1.615220703125,-0.022766214287839828,0.00881342105269432,0.050125090128183364,-0.056788064539432526,0.008348986506462097,0.0037673478946089745
1772363358934289400,1.625289306640625,0.0029240707531571386,0.01083294418156147,-0.020894903990626334,-0.04301799088716507,0.015213074162602425,0.004509578458964825
1772363358944359400,1.635359375,0.0014655425079166888,0.010360065972805022,-0.11826631394028662,-0.024955634027719498,0.0050693596713244915,0.013274308294057846
1772363358954428400,1.645428466796875,-0.016327303814142942,0.022774141865968704,-0.2360907293319702,-0.005572207272052765,-0.01443425752222538,0.008081164211034775
1772363358964498400,1.65549853515625,0.011282368449494241,0.08960077594816684,-0.2652180396169424,0.004561121575534344,-0.030780740082263947,0.007551194634288549
1772363358974567700,1.665567626953125,-0.011905432251282036,0.08039280261993408,-0.21180267577171324,-0.002351106144487858,-0.0419221855700016,0.004798854701220989
1772363358984637400,1.675637451171875,-0.040442375427670776,0.08313947097957133,-0.16819734280109405,0.01045283954590559,-0.04998890310525894,-0.008922815322875977
1772363358994706700,1.685706787109375,0.024014826109446583,0.13836509911715983,-0.07895312520563602,0.01774703711271286,-0.03789474442601204,-0.009984627366065979
1772363359004776400,1.6957763671875,0.017864048394747076,0.0916939488351345,0.015415011274814604,0.028082765638828278,-0.025408513844013214,-0.009888753294944763
1772363359014845700,1.705845703125,-0.025401275499165057,0.041863457739353176,-0.04949672909677028,0.028000138700008392,-0.02994142472743988,-0.008271940052509308
1772363359024915500,1.71591552734375,-0.024484781708754597,0.04236439299881458,-0.12398761419653892,0.02872558683156967,-0.03650478273630142,-0.006134220864623785
1772363359034984700,1.725984619140625,0.011153737101145087,0.05351356352269649,-0.1029740522623062,0.02418677881360054,-0.02839595079421997,-0.007645758334547281
1772363359045054500,1.736054443359375,0.017865327036380767,0.0710416214287281,0.0022457331001758574,0.016646835952997208,-0.011933354660868645,-0.002138607669621706
1772363359055124500,1.74612451171875,-0.016218692340515553,0.0536047489374876,0.017874094864726065,0.00703022163361311,-0.00640537403523922,-0.003362108487635851
1772363359065193700,1.75619384765625,-0.037150238547101616,0.05037877262830734,0.021280103915929792,-0.009231306612491608,-0.00039967941120266914,0.00004833610728383064
1772363359075263500,1.766263427734375,-0.05072736687026918,0.04368775055706501,0.033661446583271026,-0.028399134054780006,-0.0002487902529537678,0.002063053660094738
1772363359085332700,1.776332763671875,-0.05438892158512026,0.021286533656716344,-0.006029927814006805,-0.04075513780117035,-0.0167236365377903,0.003592240624129772
1772363359095402500,1.786402587890625,-0.049304823253862554,-0.010603811600804328,-0.0902735606431961,-0.049796558916568756,-0.032991934567689896,0.006637868005782366
1772363359105471500,1.796471435546875,-0.033720739022456106,-0.007340425890684127,-0.0986129344433546,-0.053397417068481445,-0.035645775496959686,0.006189924199134111
1772363359115541500,1.80654150390625,-0.008356945989467204,0.01912614075243473,-0.017165654334425927,-0.05081558600068092,-0.025242963805794716,0.007703527808189392
1772363359125610500,1.816610595703125,0.01598090152926743,0.03495440900325775,0.11303659659326076,-0.04892394319176674,0.0032368814572691917,0.0005470812320709229
1772363359135680500,1.826680419921875,0.009057824267819523,0.050014615491032595,0.17788287051320076,-0.053767427802085876,0.01038016565144062,0.005780495703220367
1772363359145749500,1.83674951171875,-0.006504084664396941,0.021540216156840323,0.041456630504131314,-0.05542204901576042,-0.005892281420528889,0.006597553379833698
1772363359155819800,1.84681982421875,-0.02599584385883063,-0.004555179086327552,-0.11318389610946178,-0.04045420140028,-0.015382468700408936,0.009400861337780952
1772363359165888500,1.856888427734375,-0.021061127403005957,0.009574468553066253,-0.12961480642855167,-0.0183078832924366,-0.0003896714188158512,0.012278140522539616
1772363359175958500,1.86695849609375,-0.04354881701041013,0.027328736430406567,-0.076771104991436,0.004181653261184692,0.013882951810956001,0.017812766134738922
1772363359186027500,1.877027587890625,-0.10640351525433361,0.00990881507396698,-0.020545944422483444,0.017128344625234604,0.02439524605870247,0.018960054963827133
1772363359196097500,1.88709765625,-0.09479008821956812,0.010802549043297766,0.006520926201343536,0.015659242868423462,0.03216179460287094,0.016155876219272614
1772363359206166500,1.89716650390625,-0.07102836008835584,0.005689151552319526,0.05388882657587528,0.011247185058891773,0.030967632308602333,0.020266465842723846
1772363359216236500,1.907236572265625,-0.04304715109858662,0.020586860954761504,0.04351765468716621,0.015145687386393547,0.025186680257320404,0.019309453666210175
1772363359226305500,1.917305419921875,-0.018226232770644127,0.04703063124418259,0.0316191271007061,0.013846596702933311,0.027538787573575974,0.015937626361846924
1772363359236375600,1.92737548828125,0.02249415588080883,0.08378653671145439,0.06519347992241382,0.010148159228265285,0.03186677396297455,0.017309512943029404
1772363359246444500,1.937444580078125,0.05413589667212218,0.10363163938820362,0.03434007649719715,0.0026862481608986855,0.020225031301379204,0.017785420641303062
1772363359256514600,1.9475146484375,0.04772975595686584,0.09784487268030644,-0.0006616787791252136,-0.00608204398304224,0.017513904720544815,0.020390920341014862
1772363359266583600,1.95758349609375,0.02314732255991548,0.061600423866510386,0.0017547347128391265,-0.013627578504383564,0.010091143660247326,0.01844654604792595
1772363359276653600,1.967653564453125,0.02708071648608893,0.04605974038541317,-0.009234861335158348,-0.01487935520708561,0.011995162814855576,0.013799495063722134
1772363359286722300,1.977722412109375,0.0311006561845541,0.04082008616626263,-0.008559738552570343,-0.019709262996912003,0.012511016800999641,0.012376568280160427
1772363359296792600,1.98779248046875,0.031041181082278487,0.05209492889642715,-0.02883329577445984,-0.018878858536481857,0.017501331865787506,0.017627667635679245
1772363359306861600,1.997861572265625,0.004683152847550809,0.04895253921747207,-0.08703063319921493,-0.013678237795829773,0.014207267202436924,0.019864456728100777
1772363359316931600,2.007931640625,-0.014330029049701988,0.09028758916854858,-0.11924831071496009,0.0004030531272292137,0.005225364118814468,0.01318428572267294
1772363359327000600,2.01800048828125,-0.018191197989881037,0.08301555233895778,-0.11345862139761448,0.024206120520830154,0.008823827840387821,0.009301130659878254
1772363359337070600,2.028070556640625,-0.017054266381822527,-0.013543372184038161,-0.15500351470708845,0.044172003865242004,0.012578325346112251,0.013577762991189957
1772363359347139600,2.0381396484375,-0.011613609697856008,-0.0006570026040077209,-0.15120529146790504,0.05376976728439331,0.005491120275110006,0.02003379724919796
1772363359357209300,2.048209228515625,-0.013432020764052867,0.05167933383285999,-0.09659867201149464,0.04997250437736511,0.0033711353316903114,0.013690398074686527
1772363359367278600,2.058278564453125,0.02252020363751799,0.07252455346286296,-0.05483692108094692,0.04726753011345863,-0.00430755689740181,0.010357984341681004
1772363359377348400,2.068348388671875,0.05308635108657181,0.07343056239187717,-0.058522916117310524,0.044115711003541946,-0.018269363790750504,0.005392400547862053
1772363359387417600,2.07841748046875,0.06531093228962272,0.10995558171272277,-0.04959960494935512,0.04192792624235153,-0.01680995151400566,0.0024528028443455696
1772363359397487600,2.088487548828125,0.08029650263860821,0.11816168452203273,0.020807225707173346,0.025963373482227325,-0.009818005375564098,-0.0011503086425364017
1772363359407556600,2.098556640625,0.04369418029785156,0.08848024748563765,0.041429742497205733,0.009306364692747593,-0.0060914442874491215,-0.01027323305606842
1772363359417626600,2.108626708984375,0.009091105482913553,0.04142331275641918,0.01094575690627098,-0.016583912074565887,-0.00885780993849039,-0.013456609100103378
1772363359427695600,2.118695556640625,0.0014119126245379448,0.061681672409176824,0.02085457198023796,-0.04126076400279999,-0.014696523547172546,-0.023019755259156227
1772363359437765600,2.128765625,0.03968099913373589,0.16945874103903769,0.06929623906612396,-0.053933050483465195,-0.015686392784118652,-0.033686645328998566
1772363359447834400,2.13883447265625,0.041000813028030096,0.06842120979726314,0.044374563777446745,-0.052665118128061295,-0.007854835130274296,-0.043560050427913666
1772363359457904600,2.148904541015625,0.03756404351238161,0.06938683995902538,0.0003214870393276214,-0.045492321252822876,0.0027058464474976063,-0.04067034274339676
1772363359467973400,2.158973388671875,-0.021914785090275106,0.09784545720219612,-0.045237318086624144,-0.032835911959409714,0.00978399533778429,-0.03584922105073929
1772363359478043600,2.169043701171875,-0.08738565718196332,0.0926525647342205,-0.1108165824562311,-0.014634959399700165,0.006876581814140081,-0.031090013682842255
1772363359488112400,2.1791123046875,-0.1473725083719939,-0.008140636357665062,-0.18747136759161948,0.010101811960339546,-0.008380668237805367,-0.020491430535912514
1772363359498182700,2.1891826171875,-0.15580931466463951,-0.10052315197885035,-0.2430272505968809,0.03735441341996193,-0.020843520760536194,-0.017086802050471306
1772363359508251400,2.19925146484375,-0.11013539525903761,-0.12200959212183951,-0.20855624119639396,0.050555434077978134,-0.02285740338265896,-0.008754570037126541
1772363359518321400,2.2093212890625,-0.04614690721221268,-0.05534019442796707,-0.12493337061405181,0.05624872446060181,-0.024556539952754974,-0.005673364736139774
1772363359528390700,2.219390625,0.015161803698725997,0.05651742151379585,-0.003632219022512436,0.05199911445379257,-0.019020628184080124,-0.011724865064024925
1772363359538460400,2.22946044921875,0.04903784288074821,0.13978373374342917,0.08873802163898944,0.03006185218691826,-0.005188855342566967,-0.013728398829698563
1772363359548530700,2.23953076171875,0.03375431249849498,0.12034662734568119,0.09927753583192825,0.008876407518982887,-0.012254754081368446,-0.010845260694622993
1772363359558599400,2.249599365234375,-0.007407353647053241,0.12189385678768157,0.014362871873378752,-0.0069002415984869,-0.01706014946103096,-0.013035241514444351
1772363359568669400,2.25966943359375,-0.03324720322657376,0.11042027661502361,-0.03677110303640366,-0.01122894324362278,0.0000029904767870903015,-0.009227719157934189
1772363359578738400,2.269738525390625,-0.03035429479666054,0.06040507660210132,-0.033169279152154924,-0.016992632299661636,0.014808203093707561,-0.008434126153588295
1772363359588808400,2.279808349609375,-0.007604593252204358,0.0032440964877605435,-0.03512508939504623,-0.027921713888645172,0.00847733672708273,-0.0038865129463374615
1772363359598874600,2.28987451171875,0.027887027900293467,-0.017104279536008835,-0.047348611152172086,-0.04487936571240425,-0.014663739129900932,-0.001317518763244152
1772363359608944400,2.2999443359375,0.040850810098089274,-0.021955226698517797,-0.0025707272708415984,-0.06848429143428802,-0.031467750668525696,-0.00034493301063776016
1772363359619013600,2.310013671875,0.037560828641988335,0.002329319730401039,0.036329789009690285,-0.08660444617271423,-0.03311571478843689,-0.004009975120425224
1772363359629083400,2.32008349609375,0.03909450448267161,0.05981295592784881,0.015524901390075682,-0.07370568811893463,-0.03288828209042549,-0.013140622526407242
1772363359639152600,2.330152587890625,0.048477907443046565,0.11942366728186607,-0.04201309534311294,-0.05252748727798462,-0.016731850802898407,-0.016703851521015167
1772363359649222400,2.340222412109375,0.046130175273120404,0.19468962840735912,-0.08730828109681606,-0.029209647327661514,-0.005863489583134651,-0.020127080380916595
1772363359659291400,2.35029150390625,0.010364048028178512,0.19402853415012358,-0.14972703560888767,-0.009989194571971893,-0.010828225873410702,-0.028664052486419678
1772363359669361400,2.360361328125,-0.01866564710121602,0.16843758129775524,-0.20074819779396055,0.0013308385387063026,-0.030622703954577446,-0.03583301603794098
1772363359679430400,2.370430419921875,0.0001458016788586974,0.15107903473973272,-0.18569559009075165,0.0068330951035022736,-0.04505600035190582,-0.044553935527801514
1772363359689500700,2.380500732421875,0.004476743555255234,0.11843465624451636,-0.14681553207635878,0.011413998901844025,-0.05327318236231804,-0.04581841081380844
1772363359699569400,2.3905693359375,-0.013664697008766232,0.07156769112944603,-0.09748597624003887,0.02060846984386444,-0.049451153725385666,-0.04520145431160927
1772363359709639400,2.400639404296875,-0.037397747034765776,0.04679623796641826,-0.07217384032905101,0.031676035374403,-0.04063316062092781,-0.03690384328365326
1772363359719708400,2.41070849609375,-0.05676142287012189,0.024834581527113913,-0.058255789613723755,0.04037944972515106,-0.032488204538822174,-0.034655291587114334
1772363359729778400,2.4207783203125,-0.0777229988887906,0.024798341169953345,-0.056337973293662066,0.03519108146429062,-0.03424908593297005,-0.033035021275281906
1772363359739847400,2.430847412109375,-0.06373677830807864,0.007466098096966743,-0.06471475649476051,0.02788121998310089,-0.04768477752804756,-0.03256718069314957
1772363359749917400,2.44091748046875,-0.049477914798445995,-0.0018237082958221435,-0.10397475373744965,0.019040323793888092,-0.06788458675146103,-0.031663570553064346
1772363359759986400,2.450986328125,-0.04349343356136232,0.031554829692840576,-0.08993453794717789,0.012277665548026562,-0.07556036114692688,-0.03412889316678047
1772363359770056400,2.461056396484375,-0.03879347570948302,0.11405483372509478,0.009161796098947525,0.003125712275505066,-0.06832855939865112,-0.04201717674732208
1772363359780125400,2.47112548828125,-0.026205248825810847,0.16173077713549136,0.10294891782104969,-0.0010349471122026443,-0.0457574762403965,-0.03841082751750946
1772363359790195500,2.481195556640625,-0.03731478145904839,0.15917817004323004,0.09871405673027038,-0.004503714852035046,-0.023802375420928,-0.03416627645492554
1772363359800265500,2.491265380859375,-0.06238963801544159,0.1044341879427433,-0.0013303718209266662,-0.008613595739006996,-0.0224501620978117,-0.03258632495999336
1772363359810334500,2.50133447265625,-0.06160685360729694,0.05421382074654102,-0.0944523076325655,-0.017395636066794395,-0.0285919439047575,-0.029042191803455353
1772363359820404500,2.511404541015625,-0.06126589468251913,-0.00583235941529274,-0.1138239475786686,-0.030040226876735687,-0.03356137499213219,-0.02110636606812477
1772363359830473500,2.521473388671875,-0.09402188032604754,-0.09235679665803909,-0.09182488173842429,-0.040923234075307846,-0.03410971909761429,-0.016511349007487297
1772363359840543500,2.53154345703125,-0.10996109813805668,-0.11812018346786499,-0.029871406650543213,-0.042014215141534805,-0.02124764770269394,-0.009438316337764263
1772363359850612500,2.541612548828125,-0.1125083349354565,-0.10156769259572028,0.01896364366710186,-0.044527970254421234,-0.01167944073677063,-0.003268037922680378
1772363359860682500,2.5516826171875,-0.09815196586810052,-0.013705284747481346,-0.026511574828624724,-0.02942330203950405,-0.012664612382650375,-0.002978178206831217
1772363359870751500,2.56175146484375,-0.07064411001112311,0.08698036431670188,-0.09988310050964355,-0.00938408076763153,-0.008025918155908585,-0.004733734298497438
1772363359880821500,2.571821533203125,-0.0555658929426223,0.17602701351344585,-0.051883331972360607,-0.0025210510939359665,0.009447401389479637,0.0014615338295698166
1772363359890890200,2.58189013671875,-0.1255245414402336,0.1323889473170042,-0.011298808127641677,0.0005530361086130142,0.015137244947254658,0.0016586077399551868
1772363359900960500,2.59196044921875,-0.14927640576455742,0.1145984390825033,-0.04433540081083774,0.0008330689743161201,0.006614217069000006,-0.0014461209066212177
1772363359911029200,2.602029296875,-0.07883947223071008,0.1562047071903944,-0.04687047224640846,-0.001453787088394165,0.0048754396848380566,-0.0007078931666910648
1772363359921099500,2.612099609375,-0.07672569494713097,0.08453940090537071,-0.04768412671685218,-0.0014354633167386055,0.0043524932116270065,-0.002229276578873396
1772363359931168500,2.62216845703125,-0.03425042545236647,0.055658758857846255,-0.036820787397027016,-0.0021494561806321144,0.005391925573348999,0.0006930101662874222
1772363359941238500,2.632238525390625,-0.015750051915459334,0.0873673178076744,-0.024740473502874373,-0.005828591994941235,0.006409451365470886,0.011799300089478493
1772363359951307500,2.6423076171875,-0.06330898135006427,0.05726093335747719,0.01163549273610115,-0.00476093078032136,0.020534057170152664,0.01907186023890972
1772363359961377300,2.652377197265625,-0.10218651861380786,0.018635142365097997,0.016688099950551986,-0.013672484084963799,0.024424154311418533,0.02432035282254219
1772363359971446500,2.662446533203125,-0.08420622342824935,0.01582183851003647,-0.01002513493001461,-0.010153915733098984,0.011469737626612186,0.017549533396959305
1772363359981516300,2.672516357421875,-0.041809900921210646,0.055980830419063564,-0.04266892890334129,-0.009631739929318428,0.011928925290703773,0.0179482139647007
1772363359991585500,2.68258544921875,-0.0003139978526160121,0.09158581228554248,-0.025395722541213035,-0.008883126080036163,0.015803825110197067,0.022027112543582916
1772363360001655300,2.6926552734375,-0.037027708145976064,0.06431669708788394,-0.08884732723236083,-0.0056188334710896015,0.007792135234922171,0.024879544973373413
1772363360011724500,2.702724609375,-0.05670289761591702,0.05442892480194568,-0.1592769542425871,0.007221330888569355,-0.0025891331024467945,0.020969491451978683
1772363360021794600,2.712794677734375,-0.02118011414017528,0.08372633095681667,-0.1634451798379421,0.021163344383239746,0.0008461074903607368,0.020704910159111023
1772363360031864300,2.7228642578125,0.003284063171967864,0.0982166286021471,-0.11263093840181827,0.032704416662454605,0.013008232228457928,0.022992832586169243
1772363360041933600,2.73293359375,-0.010412234551459551,0.11152969916164875,-0.07832359513044357,0.042367737740278244,0.022813580930233,0.02156096324324608
1772363360052003300,2.74300341796875,-0.023702691420353948,0.09457271914184093,-0.044293899756669995,0.03964625298976898,0.027292752638459206,0.02607608772814274
1772363360062072600,2.753072509765625,-0.033026509680598976,0.08174772436022758,-0.016096563798189162,0.0318768136203289,0.010519958101212978,0.02593127079308033
1772363360072142300,2.763142333984375,-0.003252133663743734,0.0782961226016283,-0.028003859212994572,0.019016675651073456,0.0003962176851928234,0.026276681572198868
1772363360082211600,2.773211669921875,0.0025767186202108857,0.050263037294149396,-0.004017418947815895,0.006398147903382778,-0.0021124272607266903,0.027098223567008972
1772363360092281300,2.78328125,0.014083543475344776,0.03584638940691948,0.01336392396390438,0.00022760406136512756,0.005295687820762396,0.021468300372362137
1772363360102350600,2.7933505859375,0.042119039935618635,0.059682607546448704,0.04731353983879089,-0.00734262028709054,0.00939572136849165,0.019473088905215263
1772363360112420600,2.803420654296875,0.05701985461059957,0.08609773626327515,0.07387129189670086,-0.020178791135549545,0.01846271939575672,0.017372122034430504
1772363360122489300,2.8134892578125,0.04725377247557044,0.06675766049921512,0.047316462448239324,-0.038560524582862854,0.009470502845942974,0.015088771469891071
1772363360132559600,2.8235595703125,0.028973252234421668,0.02180383552908897,0.007787000614404678,-0.05196208506822586,0.0019239038228988647,0.01877005770802498
1772363360142628400,2.83362841796875,-0.016911898769065736,-0.025521394747495648,0.008646247792243957,-0.05402996018528938,0.0060086022131145,0.021314701065421104
1772363360152698600,2.84369873046875,-0.06806428611837327,-0.0674818831205368,0.004231353959441185,-0.045190129429101944,0.014480117708444595,0.012304162606596947
1772363360162767400,2.853767333984375,-0.0490978294396773,-0.015441314759850501,-0.027454408636689184,-0.03513023257255554,0.017449483275413513,0.013215221464633942
1772363360172837400,2.86383740234375,-0.023706454280018805,0.03767302031219005,-0.09020575610399245,-0.013368213549256325,0.008250925689935684,0.004203883931040764
1772363360182906400,2.87390625,0.019395824539288876,0.12096388246119022,-0.1387976453155279,-0.00121354591101408,0.00712867034599185,0.0035447515547275543
1772363360192976400,2.883976318359375,0.034448761036060746,0.14347791208624838,-0.11597440361082553,0.006298965774476528,0.01448192447423935,0.00615012226626277
1772363360203045400,2.89404541015625,0.0021328107776120305,0.08031856833994389,-0.15365443818569183,0.009416850283741951,0.0044422997161746025,0.003628353588283062
1772363360213115400,2.904115478515625,0.003970072674751282,0.07102525481581687,-0.20859832677245138,0.015575941652059555,-0.020677167922258377,-0.0003906222991645336
1772363360223184400,2.914184326171875,0.03193688781298697,0.10386544814407825,-0.12967092052996157,0.010373027995228767,-0.02503977343440056,0.0005533751100301743
1772363360233254400,2.92425439453125,0.00396243735756725,0.09085399087965487,0.027097850283980367,0.0061753541231155396,-0.024664001539349556,0.002230900339782238
1772363360243324400,2.934324462890625,-0.0443094626519829,0.06320844358503819,0.08367372398674487,0.0005931099876761436,-0.03566296771168709,-0.002197901252657175
1772363360253393400,2.944393310546875,-0.06800345930922776,0.07236673255264758,0.07479425196051598,-0.005298334639519453,-0.03301871567964554,0.00667814863845706
1772363360263463400,2.95446337890625,-0.09561583498660474,0.043431145447492596,0.04619944111704826,-0.00732393516227603,-0.03412632271647453,0.0048951623030006886
1772363360273532400,2.964532470703125,-0.05424772301614284,0.049099254211783405,-0.02766191390752792,-0.0013280939310789108,-0.019351374357938766,0.010640399530529976
1772363360283602400,2.9746025390625,0.01799874415770173,0.006649521017074584,-0.00715162532031536,-0.0011137314140796661,-0.0023997530806809664,0.019290238618850708
1772363360293671400,2.98467138671875,-0.0030933994380757212,-0.03685468966662884,0.0019131401449441908,-0.003557980991899967,0.005382269620895386,0.025222962722182274
1772363360303741400,2.994741455078125,-0.025754692046716807,-0.0428384402513504,0.02351590014398098,-0.00870381761342287,0.012865389697253704,0.029067739844322205
1772363360313810400,3.004810546875,-0.02655672914460301,-0.0423982952684164,0.0704138449192047,-0.015261318534612656,0.029463540762662888,0.03398100659251213
1772363360323880400,3.01488037109375,-0.03898439517170191,-0.03726794664263725,0.08913023582696915,-0.015880083665251732,0.04663979262113571,0.03790896013379097
1772363360333949400,3.024949462890625,-0.04320413175858557,-0.02961713962852955,0.023200258323550223,-0.015507240779697895,0.051346130669116974,0.041421402245759964
1772363360344019500,3.03501953125,-0.020066709538176655,0.00020575170516967773,-0.10000935723781586,-0.008318647742271423,0.03868376836180687,0.040510304272174835
1772363360354088400,3.04508837890625,0.010757102466374634,0.04640928447544575,-0.19346271696090697,0.003551327623426914,0.028422873467206955,0.04148848354816437
1772363360364158500,3.055158447265625,0.029379239219427106,0.07276479195952415,-0.21896189987659453,0.006033743731677532,0.01999395526945591,0.036093249917030334
1772363360374227500,3.0652275390625,0.021627382983639833,0.09934475584924221,-0.18224983355104923,0.008683322928845882,0.005931665655225515,0.02806488610804081
1772363360384297500,3.07529736328125,0.06392630953080952,0.17704583516716957,-0.10820201604366302,0.005174783989787102,0.010808838531374931,0.018034521490335464
1772363360394366500,3.085366455078125,0.07972688605710863,0.1796148088723421,0.008304887008666991,-0.0014010937884449959,0.028520988300442696,0.017026515677571297
1772363360404436200,3.095436279296875,0.014190949372574686,0.10519932709634304,-0.004513678032159805,-0.004432128742337227,0.03253929316997528,0.010485691018402576
1772363360414505500,3.10550537109375,-0.0038957653295248747,0.04451894068419933,-0.0797515821069479,-0.0070002153515815735,0.03330095484852791,0.010648410767316818
1772363360424575500,3.115575439453125,-0.005893880344182253,0.021697452545166016,-0.14469021048545835,-0.002743775025010109,0.020051322877407074,0.005380044691264629
1772363360434644500,3.12564453125,0.03253689953275025,0.04246668432950973,-0.14780162050426005,-0.0044987984001636505,0.02693958953022957,0.006883931811898947
1772363360444714500,3.135714599609375,0.052520314701646566,0.03007891192138195,-0.07770926262438296,-0.008775957860052586,0.020642319694161415,0.0048551554791629314
1772363360454784500,3.145784423828125,0.01118270746730268,0.025806056907773017,-0.07368950558900833,-0.01700752228498459,0.009807249531149864,0.008125251159071922
1772363360464853500,3.155853515625,-0.030046763217449188,0.05548924750983715,-0.06737491561472415,-0.021066345274448395,-0.0048041557893157005,0.002863515168428421
1772363360474923300,3.16592333984375,-0.013864201636239885,0.09944412457048893,-0.00823649794757366,-0.021851979196071625,-0.011653539724647999,-0.010478654876351357
1772363360484992500,3.175992431640625,0.06726984780505299,0.1556821446210146,0.03975625632703304,-0.02445191517472267,-0.007613607682287693,-0.019179029390215874
1772363360495062300,3.186062255859375,0.0849647136453539,0.1563736340165138,0.05616086316108703,-0.02204468473792076,-0.0024438793770968914,-0.02386512979865074
1772363360505131500,3.196131591796875,0.03742167589962482,0.11143909826874732,-0.010186462971568108,-0.024362167343497276,0.000004897359758615494,-0.020104479044675827
1772363360515201500,3.206201416015625,-0.02053396172374487,0.03623685002923011,-0.07395137139558791,-0.02859632670879364,-0.015127716585993767,-0.01367880403995514
1772363360525270500,3.2162705078125,-0.06583426204398274,-0.031066753914952276,-0.07266425419449805,-0.030250411480665207,-0.025330131873488426,-0.006022444926202297
1772363360535340500,3.226340576171875,-0.09061930534094571,-0.09530220246016978,-0.039214989057183264,-0.028357967734336853,-0.025365551933646202,0.00014277268201112747
1772363360545409500,3.236409423828125,-0.09248999458365142,-0.11867898639440536,0.04011865989863872,-0.02287772297859192,-0.016543187201023102,-0.0028061820194125175
1772363360555479600,3.2464794921875,-0.032637145036831496,-0.05189560693204403,0.0881038153886795,-0.0070769209414720535,-0.005814909003674984,-0.005811559036374092
1772363360565548500,3.256548583984375,0.03735635557845235,0.020641221490502355,0.076252634075284,0.0040290625765919685,0.01292969286441803,-0.001024268101900816
1772363360575618600,3.26661865234375,0.015878317937627433,0.04713818327188492,0.008666706058382987,0.014707005582749844,0.01720939390361309,-0.0025534559972584248
1772363360585687300,3.276687255859375,-0.030940643317252395,0.07078326275348663,-0.1026736080110073,0.022694967687129974,0.0018132240511476994,-0.0019760532304644585
1772363360595757000,3.286757080078125,-0.0713954033024609,0.07564590035378932,-0.16719079610705376,0.026671066880226135,-0.011193388141691685,0.0015808641910552979
1772363360605826000,3.296825927734375,-0.09633571022637188,0.050120998474955554,-0.13321195413768291,0.02868545800447464,-0.01601725071668625,0.0009898669086396694
1772363360615896000,3.30689599609375,-0.08194266241043806,0.05664660085141658,-0.06534370204806328,0.03130920231342316,-0.008699949830770493,-0.001722828485071659
1772363360625965000,3.316965087890625,-0.008254325865209102,0.08422317456305027,-0.015062544575333594,0.03077434003353119,-0.004824013914912939,-0.003669735975563526
1772363360636035000,3.32703515625,0.02657178058326244,0.10520867944657802,0.005137947410345077,0.01965644210577011,-0.0036421027034521103,-0.003734717145562172
1772363360646104000,3.33710400390625,0.01876212974563241,0.10468027165830135,-0.02599719556570053,0.015110449865460396,-0.017455987632274628,-0.002565748058259487
1772363360656173800,3.347173828125,0.02051028858721256,0.10548515830039977,-0.05098375278413295,0.008975058794021606,-0.021230218932032585,-0.006875808350741863
1772363360666243000,3.3572431640625,0.031711627689749,0.12385025155246257,-0.012810381734371185,0.00020196754485368729,-0.01726682111620903,-0.0018553896807134151
1772363360676312800,3.367312744140625,-0.027535949440300463,0.03299509162902832,0.006872808378934859,-0.008920158259570599,-0.009069344028830528,0.0025710505433380604
1772363360686382000,3.377382080078125,-0.08665412803702056,-0.028162849166989325,-0.017812720066308973,-0.012041259557008743,-0.010761675424873829,-0.001697552390396595
1772363360696452000,3.3874521484375,-0.0615789426870644,-0.03656301324367523,-0.035165421405434605,-0.016757983714342117,-0.0035900487564504147,0.00014668656513094902
1772363360706522000,3.397522216796875,-0.034715412615612146,-0.025416180807352064,-0.012457330513000488,-0.017846394330263138,-0.004914241377264261,-0.003047666046768427
1772363360716591000,3.407591064453125,-0.005981047170981764,0.009974866047501564,-0.042346272820234294,-0.019690100103616714,-0.0046636383049190044,-0.002230342011898756
1772363360726660900,3.417660888671875,-0.037085575813055036,-0.0018698855251073835,-0.08275719366371631,-0.017103344202041626,-0.00976536888629198,0.001496897079050541
1772363360736730000,3.427730224609375,-0.07614281702525913,-0.018877134427428246,-0.09675357031226157,-0.013793567195534706,-0.013577951118350029,0.0022305981256067753
1772363360746799900,3.4377998046875,-0.06381050113141537,0.0058902270823717115,-0.0948351694703102,0.002720177173614502,-0.01557634212076664,-0.0010010763071477413
1772363360756869000,3.447869140625,-0.02124510566778481,0.07297229723036289,-0.03630991526544094,0.012975743971765041,-0.007117344066500664,-0.0007776371203362942
1772363360766939000,3.45793896484375,-0.019175386721640823,0.12146657128632068,-0.02312543952167034,0.023958802223205566,-0.0020594538655132055,-0.002151360735297203
1772363360777008000,3.468008056640625,-0.012017550856247543,0.15290508112311363,-0.01275660572052002,0.02614525705575943,0.003943577874451876,-0.0005111191421747208
1772363360787078100,3.478078125,0.00520480210147798,0.13389818283617497,-0.002408230185508728,0.028415977954864502,0.008373277261853218,0.003432330209761858
1772363360797147100,3.488147216796875,-0.011253653811663388,0.049532969453930854,0.028189737173914906,0.020794011652469635,0.009307781234383583,0.003771350486204028
1772363360807217200,3.498217041015625,-0.02019771550670266,-0.021855273455381394,0.025481647258996962,0.009797814302146435,-0.008452452719211578,0.011138519272208214
1772363360817286000,3.508285888671875,-0.0337605230435729,-0.08659341082572937,0.008028992676734924,-0.00127507746219635,-0.011919356882572174,0.012932424433529377
1772363360827356200,3.518356201171875,-0.013684753416106104,-0.05259177250266075,0.0502151064991951,-0.009946434758603573,-0.003896235954016447,0.007537752389907837
1772363360837425000,3.5284248046875,0.03190868463180959,0.02854161935150623,0.11636018805801868,-0.020837165415287018,0.011686718091368675,0.005736922845244408
1772363360847495200,3.5384951171875,0.02176357658393681,0.06190554429292679,0.1119850417137146,-0.0345434732735157,0.01752544939517975,-0.0011729798279702663
1772363360857564000,3.54856396484375,0.01939334032125771,0.07806231384575367,0.03407294999361038,-0.04048125818371773,0.009486430324614048,-0.0035083056427538395
1772363360867634200,3.55863427734375,0.027955416961386797,0.047885786768794056,-0.04862696052491665,-0.0441986545920372,0.0072497036308050156,-0.00152973597869277
1772363360877704200,3.5687041015625,0.005518544225767254,-0.004449965146183967,-0.09606734161376952,-0.03661104291677475,0.005799612961709499,-0.0034402883611619473
1772363360887773000,3.57877294921875,0.0007888853553682565,0.00210837045609951,-0.09829320096969604,-0.025898661464452744,0.007742641028016806,-0.0038602035492658615
1772363360897843200,3.58884326171875,0.0035723785940557718,0.026318098083138463,-0.08191782023012638,-0.013035059906542301,0.01344393566250801,-0.0027304906398057938
1772363360907912000,3.598911865234375,0.012363368619233369,0.050424365335702895,-0.08417699733376502,0.008485237136483192,0.00023532984778285027,-0.01121389027684927
1772363360917982200,3.608982177734375,0.0863296453230083,0.1297176822811365,-0.1492804608851671,0.025816291570663452,-0.007043089717626572,-0.015142052434384823
1772363360928051000,3.619051025390625,0.13933314043171702,0.18370587757825851,-0.13790332682430742,0.034757912158966064,-0.0008872849866747856,-0.01064821146428585
1772363360938121000,3.629120849609375,0.04623575453944504,0.1639122128278017,-0.11696283012628554,0.046381279826164246,-0.0067686098627746105,-0.008272139355540276
1772363360948190000,3.63918994140625,-0.024523469751328228,0.1439957984805107,-0.07853460753262043,0.046610549092292786,-0.01178795751184225,-0.01779281720519066
1772363360958260000,3.649260009765625,-0.013292246967181563,0.1411199507832527,0.016463643544912338,0.049625247716903687,-0.0057686809450387955,-0.02898901328444481
1772363360968329000,3.659328857421875,0.0278055601619184,0.15871113705337048,0.11691431480944156,0.03902038559317589,-0.0007357662543654442,-0.03588772565126419
1772363360978399000,3.66939892578125,0.036350649134628474,0.1108779572546482,0.09587912556529045,0.026561051607131958,0.004566054791212082,-0.032223477959632874
1772363360988468000,3.679468017578125,0.024638291770033537,0.03550093697011471,-0.006906710648536682,0.017518213018774986,0.003800033126026392,-0.024245742708444595
1772363360998538000,3.6895380859375,0.008284574873000383,-0.0538964253604412,-0.12519056024551392,0.008607808500528336,-0.002356130164116621,-0.014635195024311543
1772363361008607200,3.699607177734375,-0.005777012498863041,-0.11116788011193275,-0.16470248642265795,-0.00745741743594408,-0.019669516012072563,-0.011491188779473305
1772363361018677000,3.709677001953125,-0.009742555128969252,-0.08995441169142722,-0.11469430067241192,-0.026042021811008453,-0.034845273941755295,-0.016253985464572906
1772363361028746200,3.719746337890625,0.025753778731264172,-0.02584989604949951,-0.034603111347556115,-0.04535485804080963,-0.039177291095256805,-0.022236526012420654
1772363361038816000,3.72981591796875,0.03652735740840435,0.06098959849178791,0.02646948925256729,-0.04695621505379677,-0.038385532796382904,-0.034028735011816025
1772363361048886000,3.739885986328125,0.06366546663753687,0.16477146000564097,0.009911153161525726,-0.030949868261814117,-0.02370486408472061,-0.04483545944094658
1772363361058955000,3.749955078125,0.09934190630502998,0.24121640178263187,-0.010844050097465514,-0.020664207637310028,-0.0012773196212947369,-0.048126861453056335
1772363361069025000,3.76002490234375,0.04915668348744511,0.21221301013827323,-0.11788345210254192,-0.008177632465958595,-0.006707942113280296,-0.04574490338563919
1772363361079094000,3.770093994140625,-0.032877493131346996,0.1549450625181198,-0.2514671621620655,-0.00034101493656635284,-0.036427486687898636,-0.04501466453075409
1772363361089164000,3.7801640625,-0.06316595615018158,0.09322130453288555,-0.26323884849846363,0.0029392698779702187,-0.05397271737456322,-0.04923391714692116
1772363361099233000,3.79023291015625,-0.07368249132633209,0.023436405166983604,-0.1558253524839878,-0.0016344422474503517,-0.05867426097393036,-0.04954817146062851
1772363361109303000,3.800302978515625,-0.08037585148513317,-0.009596095862984657,-0.03679389939010143,0.0009009921923279762,-0.05587882548570633,-0.043856557458639145
1772363361119372000,3.8103720703125,-0.08990370441749691,0.012457330513000488,0.025253683722019193,0.007139180786907673,-0.04433562234044075,-0.04129859060049057
1772363361129442000,3.820442138671875,-0.09410692826099694,0.010033902758359909,0.050044426107406614,0.01586298644542694,-0.02521478198468685,-0.032529231160879135
1772363361139511000,3.830510986328125,-0.0892642374701798,0.009974281525611877,0.0014519523739814758,0.018482472747564316,-0.023417146876454353,-0.030312150716781616
1772363361149581000,3.8405810546875,-0.07723678627442568,0.042382513177394866,-0.06384849505424499,0.020956028252840042,-0.029685650020837784,-0.02318359538912773
1772363361159650000,3.850650146484375,-0.09176836577821522,0.046106502136588096,-0.05940262156128883,0.023084428161382675,-0.02864941582083702,-0.018746236339211464
1772363361169719800,3.8607197265625,-0.11031071529332548,0.01815934154689312,-0.0331833076775074,0.02322731539607048,-0.023137323558330536,-0.015677224844694138
1772363361179789000,3.8707890625,-0.11687661314755678,0.018625790014863013,-0.0248830968439579,0.02015189826488495,-0.02970973774790764,-0.01828525774180889
1772363361189859000,3.880859130859375,-0.10733820228856056,0.051805006039142606,-0.044078795701265334,0.018800705671310425,-0.035746827721595764,-0.017625190317630768
1772363361199929000,3.89092919921875,-0.06942508961018175,0.11535071875452994,-0.05722001682519912,0.014416079968214035,-0.04240339994430542,-0.016517847776412964
1772363361209998000,3.900998046875,-0.04785458791293203,0.1407452722519636,-0.07122399225831032,0.012484780512750149,-0.03755689039826393,-0.01716751605272293
1772363361220068000,3.911068115234375,-0.03702084001377225,0.11715864495933055,-0.08637012346386909,0.014799068681895733,-0.03021082654595375,-0.014558415859937668
1772363361230137000,3.92113720703125,-0.03672781188394874,0.06293079568743705,-0.10018646737039089,0.01312856562435627,-0.030670205131173134,-0.009943654760718346
1772363361240206800,3.931206787109375,-0.0506282538773492,0.025063714107871053,-0.07799860095977783,-0.0026756972074508667,-0.03691291809082031,-0.005612289998680353
1772363361250276000,3.941276123046875,-0.06759889709632844,-0.015042086309194564,-0.014967852029204368,-0.01858937367796898,-0.034859225153923035,-0.0027542351745069027
1772363361260345900,3.951345947265625,-0.07650631657540798,-0.06355740315318108,0.03450958784520626,-0.03045748546719551,-0.029372580349445343,0.0022051031701266766
1772363361270415000,3.9614150390625,-0.1053848031984642,-0.139729957729578,-0.003743278181552887,-0.03097933903336525,-0.02166767045855522,0.013262828812003136
1772363361280485000,3.971485107421875,-0.10906371090691536,-0.13665771067738533,-0.08424421735107898,-0.021068118512630463,-0.013365533202886581,0.019098879769444466
1772363361290554000,3.98155419921875,-0.07805208471268416,-0.054928106495738024,-0.13261340372264385,-0.008425572887063026,-0.009051524102687836,0.021798986941576004
1772363361300624100,3.9916240234375,-0.031843108582310375,0.04695639696419239,-0.1442009656637907,0.00458157155662775,0.0015172306448221207,0.02093692310154438
1772363361310693000,4.001693115234375,0.01645692154318094,0.14009937556385993,-0.07156184591054916,0.0060516297817230225,0.006462565157562494,0.02043088525533676
1772363361320763100,4.01176318359375,0.018694982793554662,0.16878128016889093,-0.03456687099039554,0.0034073777496814728,0.01057368703186512,0.022385379299521446
1772363361330833000,4.0218330078125,0.0021275135479867455,0.15473521915972233,-0.01838379795253277,0.0006732912734150887,0.015102408826351166,0.019792459905147552
1772363361340902100,4.031902099609375,-0.005441168140619993,0.12386544912159442,0.003359247300028801,-0.0011179503053426743,0.02433638647198677,0.027216821908950806
1772363361350972000,4.041971923828125,-0.005912877305597066,0.07558686364293098,-0.0147878192871809,-0.0008968040347099304,0.02311018481850624,0.022931700572371483
1772363361361041200,4.052041259765625,0.01634483947083354,0.05517009855806827,-0.004154197070002556,-0.006522199138998985,0.029997650533914566,0.02309681661427021
1772363361371111200,4.062111083984375,0.03846533973366022,0.01859013417959213,0.0038069910675287244,-0.018115557730197906,0.03927132859826088,0.01975102350115776
1772363361381180200,4.07218017578125,0.022504311948642133,-0.0005529577076435089,0.009976619613170623,-0.0274595245718956,0.035940513014793396,0.01631314866244793
1772363361391250200,4.082250244140625,0.03648147244006395,0.02422200258672237,-0.02583995917737484,-0.030347727239131927,0.028430506587028503,0.008465309627354145
1772363361401319000,4.09231884765625,0.04992788705565035,0.062443304431438446,-0.0212099612891674,-0.028599362820386887,0.032722458243370056,0.0006228331476449966
1772363361411389200,4.10238916015625,0.06032090544998645,0.10953881760537623,0.009420739296078682,-0.02113613300025463,0.03725298121571541,-0.006565643474459648
1772363361421458000,4.1124580078125,0.04051134901065379,0.11835106961429119,0.004025017732381821,-0.019964342936873436,0.041201915591955185,-0.003571983426809311
1772363361431528200,4.122528076171875,-0.03205313460379839,0.04751052371561527,-0.056661798420548436,-0.011592379771173,0.03764660656452179,0.0016532889567315578
1772363361441597000,4.132596923828125,-0.08500990449395031,-0.0052151042997837065,-0.10741232697069644,-0.0024209851399064064,0.028335129842162132,0.00005299551412463188
1772363361451667000,4.1426669921875,-0.0638120720339939,0.007062193471193313,-0.1305798520684242,0.012130730785429478,0.018042493611574173,-0.0017075766809284687
1772363361461737200,4.1527373046875,-0.03751717216335237,0.031164369070529937,-0.1313555126160383,0.028391458094120026,0.017881371080875397,-0.00008091796189546585
1772363361471806000,4.162805908203125,-0.029633104382641613,0.06429974595308303,-0.12132862412035464,0.0459723174571991,0.02216613106429577,0.00382806989364326
1772363361481876200,4.172876220703125,-0.05245850151181221,0.0909054288059473,-0.07974164523482322,0.055219344794750214,0.02529827505350113,0.007156488485634327
1772363361491945000,4.182945068359375,-0.07456482711881399,0.09402969830632209,0.005845803418755531,0.05400902032852173,0.02489798702299595,0.010099612176418304
1772363361502015200,4.19301513671875,-0.08951854102481156,0.07549158657491206,0.06703180126547813,0.05145744979381561,0.02418665774166584,0.010365662164986134
1772363361512084000,4.203083984375,-0.07569174878951161,0.0804962629944086,0.09980126744508742,0.04445312172174454,0.020656269043684006,0.0207764133810997
1772363361522154000,4.213154052734375,-0.09453454255592078,0.04911854343414306,0.10922726743817329,0.037038613110780716,0.029544034972786903,0.025113102048635483
1772363361532223000,4.223222900390625,-0.12379800990857183,0.04333119220435619,0.09487140982747078,0.030216243118047714,0.03619269281625748,0.03213606774806976
1772363361542293000,4.23329296875,-0.12207410872541367,-0.015499182426929473,0.09275076441168785,0.019996359944343567,0.04751431941986084,0.04209868609905243
1772363361552362000,4.243362060546875,-0.132331700704433,-0.08050386177897453,0.11082651932835579,0.008296744897961617,0.05225769057869911,0.038133177906274796
1772363361562432000,4.253431884765625,-0.06092661625817418,-0.04403554108142853,0.11555822402536868,-0.014542791992425919,0.06550079584121704,0.04515566676855087
1772363361572501000,4.2635009765625,-0.04916946990378201,-0.07693594016432762,0.09006371728479862,-0.022756345570087433,0.06524670124053955,0.04806050285696983
1772363361582571000,4.273571044921875,-0.06289170578606426,-0.0407470209300518,-0.06978723745346069,-0.0189413670450449,0.05855896696448326,0.051014482975006104
1772363361592640000,4.283639892578125,-0.043704190235212444,0.04424772252738476,-0.16607026764452457,-0.010978941805660725,0.060846541076898575,0.05389859154820442
1772363361602710500,4.29371044921875,-0.046929764685593546,0.09628712184429168,-0.2182312475144863,-0.0022365832701325417,0.05240219086408615,0.06002093106508255
1772363361612780300,4.3037802734375,-0.06364208576194942,0.07484744345247744,-0.27613398590683935,0.010942854918539524,0.04475434496998787,0.07111719250679016
1772363361622849500,4.313849609375,-0.06074051910154521,0.010203998628258704,-0.26573183435797687,0.0212242528796196,0.035464707762002945,0.0698537826538086
1772363361632919300,4.323919189453125,0.01500971840955317,0.051045127582550046,-0.19900982969403266,0.0298401340842247,0.03165552020072937,0.0721772313117981
1772363361642988500,4.333988525390625,0.09525471005663275,0.11589432411193847,-0.12178747380375861,0.024557486176490784,0.025590971112251282,0.07011009007692337
1772363361653058600,4.34405859375,0.10259710870869457,0.1234481004923582,-0.05351823969781398,0.016810163855552673,0.019833315163850784,0.07609956711530685
1772363361663127300,4.354127197265625,0.09093597007468342,0.10955167708694934,-0.008387889117002487,0.008745578117668629,0.024352699518203735,0.07249018549919128
1772363361673197600,4.364197509765625,0.08656637668833136,0.08897066135108471,0.037951837253570556,-0.006258482579141855,0.031433943659067154,0.06597340106964111
1772363361683266300,4.374266357421875,0.0783043059080839,0.05046528186798095,0.03230184866786003,-0.02626015432178974,0.02437683753669262,0.0645693838596344
1772363361693336600,4.384336669921875,0.0679038348596543,-0.014829904863238335,-0.055021045476198197,-0.03554598614573479,0.01483828853815794,0.055157002061605453
1772363361703405300,4.3944052734375,0.09895086116082966,0.00046761751174926756,-0.13603461034297942,-0.04000704735517502,0.009731943719089031,0.05656341463327408
1772363361713475600,4.4044755859375,0.13355923320539295,0.00418926838338375,-0.09593874679803847,-0.0345819927752018,0.013235124759376049,0.0464993380010128
1772363361723544300,4.41454443359375,0.17756364849619566,0.03516483688354492,-0.04163081802725792,-0.03674847260117531,0.007755138911306858,0.03576626628637314
1772363361733614300,4.4246142578125,0.193801666591689,0.0875678088158369,-0.021904373294115067,-0.03775838017463684,-0.0019424734637141228,0.030365195125341415
1772363361743683300,4.434683349609375,0.18260376155525446,0.13084171787500382,-0.008705284503102302,-0.03959782421588898,-0.008260024711489677,0.02125212550163269
1772363361753753300,4.44475341796875,0.1400936764754355,0.11856909627914428,0.0009217910200357436,-0.031430959701538086,-0.0013006075751036406,0.008788336999714375
1772363361763823600,4.45482373046875,0.10594006246104835,0.11215396853983402,0.007808627924323082,-0.004145810380578041,0.010649794712662697,-0.009420229122042656
1772363361773892400,4.464892333984375,0.11921996140331029,0.14467033674120902,-0.009369301369786262,0.021686408668756485,0.02394896373152733,-0.021366802975535393
1772363361783962400,4.47496240234375,0.09900544089227914,0.1632709923148155,-0.0388473247885704,0.032040249556303024,0.018048197031021118,-0.02940715104341507
1772363361794031400,4.48503125,0.06778115832805633,0.12084639356136322,-0.1055319200515747,0.03770316392183304,-0.0028771464712917805,-0.03621327131986618
1772363361804101400,4.495101318359375,0.03059051470533013,0.08614917418956757,-0.13666414041817188,0.035753197968006134,-0.014272812753915787,-0.04389995336532593
1772363361814170400,4.50517041015625,0.007507306890189647,0.03485562480390072,-0.09859422974288463,0.03052525967359543,-0.020211588591337204,-0.04566941410303116
1772363361824240400,4.515240478515625,-0.03403948611542582,-0.0541144520252943,-0.09218728531002998,0.03883671760559082,-0.026591457426548004,-0.04374554380774498
1772363361834309400,4.525309326171875,-0.02792633699737489,-0.049508419534564016,-0.0883563288450241,0.05735349282622337,-0.016572393476963043,-0.04588772729039192
1772363361844379400,4.53537939453125,0.003732099200412631,0.01763385636806488,-0.0018996961414813995,0.06700106710195541,-0.004049944691359997,-0.041153691709041595
1772363361854448400,4.545448486328125,-0.011461889734864235,0.018625205492973328,-0.0016600421667098998,0.06967441737651825,-0.004926182795315981,-0.03374425321817398
1772363361864518400,4.555518310546875,-0.03283588247932494,0.0465986695677042,-0.036166707402467725,0.05849286913871765,-0.013288509100675583,-0.020634843036532402
1772363361874587400,4.56558740234375,-0.07122384612783789,0.013249942195415495,-0.029122634109854696,0.05064980685710907,-0.016866207122802734,-0.01545860804617405
1772363361884657400,4.575657470703125,-0.05572327546142041,0.045995442977547644,0.04314472972154617,0.04949745908379555,-0.007517713122069836,-0.017275681719183922
1772363361894726400,4.585726318359375,-0.03318630335219204,0.06822481044232845,0.10077917256653308,0.048648007214069366,0.010808859020471573,-0.02174592763185501
1772363361904796400,4.59579638671875,-0.049047012567892664,0.08974865998625754,0.08139584218263625,0.03970697894692421,0.031333040446043015,-0.01892004907131195
1772363361914866400,4.605866455078125,-0.049300475872308014,0.11315642358064651,0.007940145349502563,0.03246358409523964,0.036094922572374344,-0.007829327136278152
1772363361924935400,4.615935302734375,-0.07344042619876563,0.14282090948224066,-0.07128419801294804,0.028634756803512573,0.026214860379695892,-0.0025956835597753525
1772363361935005400,4.62600537109375,-0.05421148265898228,0.15046002605855463,-0.14335866962075233,0.019903037697076797,0.0125551987439394,-0.004347849637269974
1772363361945074400,4.636074462890625,-0.04296623134948313,0.11905308040380477,-0.16679507478773592,0.004528875462710857,-0.006834744475781918,0.0037905042991042137
1772363361955144400,4.64614453125,-0.05807802189402282,0.03330781084001064,-0.16578151383101938,-0.005969754420220852,-0.019420325756072998,-0.0012348159216344357
1772363361965213200,4.656213134765625,-0.05494542295671999,-0.01331248603761196,-0.14294424360096453,-0.0138737503439188,-0.012235382571816444,-0.010656280443072319
1772363361975283500,4.666283447265625,-0.04540134954191744,-0.06163432613611221,-0.1026478890478611,-0.01655764691531658,-0.007337054703384638,-0.014776278287172318
1772363361985352400,4.6763525390625,-0.02915324844382703,0.002720364874601364,-0.10675824697613716,-0.011710694059729576,-0.010235372930765152,-0.02069169096648693
1772363361995422500,4.68642236328125,-0.027188158915936945,0.07660042459964751,-0.15265490575432777,-0.009291674941778183,-0.01644006371498108,-0.024699756875634193
1772363362005491500,4.696491455078125,-0.03459511070419103,0.09462649515569209,-0.17289982140362262,-0.012578547932207584,-0.02823014371097088,-0.033064741641283035
1772363362015561200,4.706561279296875,-0.03406867567729205,0.11838555640578269,-0.16937632345259188,-0.013999156653881073,-0.0342433899641037,-0.03918951004743576
1772363362025630500,4.71663037109375,-0.028771738312952218,0.08999299013614653,-0.1158884788930416,-0.03088466264307499,-0.03760936111211777,-0.03748295456171036
1772363362035700200,4.7267001953125,-0.07905351684018969,0.0022533318847417832,-0.06882160729169845,-0.041495032608509064,-0.04151323065161705,-0.03800839185714722
1772363362045769500,4.73676953125,-0.10768840396571903,-0.048827451533079144,-0.04649170206189155,-0.0485854335129261,-0.04700946435332298,-0.046596284955739975
1772363362055839200,4.746839111328125,-0.08216196771692484,-0.021970424267649648,-0.01630231550335884,-0.04817623272538185,-0.04298847168684006,-0.050610482692718506
1772363362065908500,4.756908447265625,-0.01692874030601233,0.06877192293107509,0.0467249262958765,-0.047002311795949936,-0.03084525652229786,-0.049288757145404816
1772363362075978500,4.766978515625,-0.010833126844651996,0.13506956470310688,0.09285130217671393,-0.039362385869026184,-0.025412069633603096,-0.04770050197839737
1772363362086048300,4.77704833984375,-0.04260335285384208,0.19279285487532616,0.041624388286471366,-0.03501637279987335,-0.02243012748658657,-0.03872431814670563
1772363362096117500,4.787117431640625,-0.09091109136175364,0.03662263447642326,-0.04492167626619339,-0.027224160730838776,-0.03152061998844147,-0.030605681240558624
1772363362106187300,4.797187255859375,-0.08203129054196179,-0.025783845075964925,-0.06656418375372886,-0.014583468437194824,-0.046611957252025604,-0.013767845928668976
1772363362116256500,4.807256591796875,-0.10112868012394756,-0.023595395120978354,-0.014817629903554915,0.006482131779193878,-0.04430058225989342,-0.012017516419291496
1772363362126326300,4.817326171875,-0.09806151110567152,0.039081718066334724,0.09658990418314933,0.01569214276969433,-0.024401705712080002,-0.013214075937867165
1772363362136395500,4.8273955078125,-0.07167169949319213,0.11402794571816921,0.1195575227946043,0.03725128620862961,-0.0017239435110241175,-0.009128166362643242
1772363362146465300,4.83746533203125,-0.0801466093065217,0.13383330090641973,0.07398878079652786,0.05637331306934357,0.018565881997346878,-0.008552124723792076
1772363362156534500,4.847534423828125,-0.08842205102499574,0.09404021970033645,0.05296703555583954,0.061712559312582016,0.033426590263843536,-0.002452635671943426
1772363362166604500,4.8576044921875,-0.10865154990945011,0.01376782858967781,-0.06602642361521721,0.0651504322886467,0.014699774794280529,0.008988570421934128
1772363362176673500,4.867673583984375,-0.10872735509201883,-0.048234746336936946,-0.2028857943445444,0.06571725755929947,-0.009660241194069386,0.010351749137043953
1772363362186743600,4.87774365234375,-0.06276468187291175,-0.027684125739336013,-0.19082710776031017,0.07000920921564102,-0.013359105214476585,0.011858299374580383
1772363362196812300,4.887812255859375,-0.03225939776562154,0.024529461100697515,-0.07346212657392025,0.06367474049329758,0.00016080401837825775,0.015385836362838745
1772363362206882600,4.897882568359375,-0.04238116147052497,0.039194530791044235,0.02461129416525364,0.04412926733493805,0.013897388242185116,0.01751103810966015
1772363362216951300,4.907951416015625,-0.07304032096527516,-0.01524140827357769,0.010234978288412093,0.014810776337981224,-0.001971099292859435,0.020316340029239655
1772363362227021600,4.918021484375,-0.047974889824353155,-0.03782441148161888,-0.08749591262340545,0.007732095196843147,-0.021848667412996292,0.011115649715065956
1772363362237090300,4.92809033203125,-0.010796338498219846,0.00974105729162693,-0.03383972575962543,-0.0003087148070335388,-0.00014528445899486542,0.01059270091354847
1772363362247160300,4.938160400390625,0.0048220863942056895,0.024026187753677368,0.10183598814308643,-0.009977320209145546,0.0317830853164196,0.006229111459106207
1772363362257229300,4.948229248046875,0.004831621407531202,0.041463644766807556,0.11148176836669445,-0.02395794913172722,0.0401400551199913,0.009381890296936035
1772363362267299300,4.95829931640625,0.00042228053268045186,0.020445406657457352,0.008176292192935943,-0.04363071918487549,0.0324094332754612,0.012061030603945255
1772363362277369600,4.96836962890625,-0.03734850106555968,-0.017626257583498953,-0.04754325694143772,-0.05633984133601189,0.02568073570728302,0.018690776079893112
1772363362287438300,4.978438232421875,-0.0590101881776005,-0.04080021242201328,-0.03450724975764751,-0.06184859201312065,0.027629371732473373,0.01777171902358532
1772363362297508400,4.98850830078125,-0.031175621116906402,-0.00803308432996273,0.025724808365106582,-0.05757664516568184,0.0409189872443676,0.02192743867635727
1772363362307577300,4.998577392578125,-0.03632525896504521,0.005756371569633483,0.04048164799213409,-0.048706185072660446,0.04616541415452957,0.025952806696295738
1772363362317647400,5.0086474609375,-0.0392321228550747,0.07062894897460938,-0.01450549521446228,-0.03907070681452751,0.04546615108847618,0.02925894781947136
1772363362327716400,5.01871630859375,-0.036254458751156925,0.06920037747621535,-0.04663549444675445,-0.03387381508946419,0.04027538374066353,0.03973555564880371
1772363362337786400,5.028786376953125,-0.03456975706722587,0.026764672806859013,-0.036950551256537435,-0.023366466164588928,0.038939349353313446,0.04458405077457428
1772363362347855400,5.03885546875,-0.02537497201412916,-0.027115385940670967,-0.030012860947847365,-0.006002657115459442,0.05215848237276077,0.048155881464481354
1772363362357925400,5.04892529296875,0.006856989755295217,-0.021826047360897063,0.014489713123440742,0.0010487483814358711,0.06705214083194733,0.0460302010178566
1772363362367994400,5.058994384765625,0.05439834700059146,0.014679682737588882,0.06489478923678398,-0.0030780863016843796,0.06834084540605545,0.050408437848091125
1772363362378064400,5.069064453125,0.05231379581149667,0.01986205381155014,0.04835749593377113,-0.007161791902035475,0.05142306536436081,0.05400017276406288
1772363362388133600,5.079133544921875,0.018596636985614895,0.00563712910413742,0.0018710545688867567,-0.014438080601394176,0.044483669102191925,0.052521321922540665
1772363362398203400,5.089203369140625,-0.003945851548947394,0.007833762365579604,0.02634966226518154,-0.018518084660172462,0.041237153112888336,0.03927623853087425
1772363362408272400,5.0992724609375,0.02726663097962737,0.0744143127322197,0.04803717793822288,-0.015697797760367393,0.03980517387390137,0.026073351502418518
1772363362418342400,5.10934228515625,0.09814279618095606,0.15312719944119452,0.027231705796718596,-0.014173796400427818,0.03939572721719742,0.01744602993130684
1772363362428411400,5.119411376953125,0.13551413013283162,0.14867431168556214,-0.019233108258247374,-0.013171648606657982,0.037879589945077896,0.019183475524187088
1772363362438481400,5.1294814453125,0.1440640414111316,0.11357727934122085,-0.0897591813802719,-0.01811857707798481,0.03382261469960213,0.02254527620971203
1772363362448550400,5.13955029296875,0.09666366353910416,0.02336509349644184,-0.10302549018859862,-0.025010839104652405,0.022070350125432014,0.025125345215201378
1772363362458620400,5.149620361328125,0.07001786787156015,-0.012405892586708068,-0.07539046428799628,-0.025794675573706627,0.012524573132395744,0.01980196125805378
1772363362468690400,5.1596904296875,0.07613949255701154,-0.0029342998862266537,0.016287117934226988,-0.029149990528821945,0.016372308135032654,0.016034120693802834
1772363362478759400,5.169759521484375,0.07755118598584085,0.023313071048259734,0.05811082818508148,-0.021799296140670776,0.020311573520302773,0.010312759317457676
1772363362488829400,5.179829345703125,0.07506755247656255,0.09349486077725887,0.02625029354393482,-0.012846280820667744,0.025032559409737587,0.006186457350850105
1772363362498898400,5.1898984375,0.06003646248541772,0.14693652810752392,-0.03529460074305534,-0.0009827334433794022,0.021672474220395088,0.00233561173081398
1772363362508968400,5.199968505859375,0.02939721326753497,0.13033318383097647,-0.13464286372363565,0.006619525142014027,0.004717724397778511,0.0011896537616848946
1772363362519037400,5.210037353515625,-0.01584664415773004,0.05413257220387459,-0.21475041966140268,0.014380539767444134,-0.019043978303670883,-0.002542621921747923
1772363362529107500,5.220107421875,-0.01661569230146706,-0.0001204115092754364,-0.17950316519141196,0.017250627279281616,-0.022315669804811478,-0.00754829915240407
1772363362539176400,5.230176513671875,0.014413725277781486,-0.0005769231051206588,-0.05705401260852813,0.01625833287835121,-0.014816741459071636,-0.013581158593297005
1772363362549246200,5.24024609375,0.0222151562763378,0.0066512745827436446,0.05195464364290237,0.018161695450544357,-0.007139913737773895,-0.019241707399487495
1772363362559315500,5.2503154296875,0.03475556196290999,0.02916296612024307,0.040675709259510036,0.01554867159575224,-0.0010099071078002453,-0.01597428135573864
1772363362569385500,5.260385498046875,0.008743497621640563,0.03359364204406738,-0.04541968891620636,0.016216859221458435,-0.005756192374974489,-0.012225616723299026
1772363362579454500,5.270454345703125,-0.028176147039979695,0.03423427803516388,-0.1565659417182207,0.017299143597483635,-0.026852620765566826,-0.004981128498911858
1772363362589524500,5.2805244140625,-0.0415976464100182,0.016501052945852277,-0.18870003260374069,0.015168881043791771,-0.036720164120197296,-0.0007288595661520958
1772363362599593700,5.29059375,-0.0430193497762084,-0.0038531682968139646,-0.1264765084028244,0.01166505180299282,-0.03990516811609268,-0.008839949034154415
1772363362609663500,5.30066357421875,-0.015210684341751038,0.04126315375864505,-0.021601590955257415,0.011852804571390152,-0.036004167050123215,-0.014169733040034771
1772363362619732700,5.310732666015625,0.020594350141473112,0.14786299530267716,0.05710720410048961,0.004523015581071377,-0.0323353111743927,-0.024277880787849426
1772363362629802500,5.320802490234375,0.03803867528680712,0.20616788475513456,0.062250996729731556,-0.0026020044460892677,-0.027468116953969002,-0.02285229042172432
1772363362639871500,5.33087158203125,0.010679543718136847,0.15227204391658306,-0.04681786527633667,-0.0016827946528792381,-0.034523434937000275,-0.020698003470897675
1772363362649941800,5.340941650390625,-0.04631196158081293,0.07316986562907696,-0.11233633936941623,0.00042989104986190796,-0.038255322724580765,-0.02151772379875183
1772363362660010500,5.351010498046875,-0.029382052231021225,0.08087737126648425,-0.10167992079854012,0.00732987467199564,-0.0325566902756691,-0.017933376133441925
1772363362670080800,5.361080810546875,-0.01951696670092642,0.05021159936785698,-0.06415244643688202,-0.004412002861499786,-0.03535594046115875,-0.008679689839482307
1772363362680149500,5.3711494140625,-0.054119128200411794,-0.04650397702157497,-0.09252572348415851,-0.01568729430437088,-0.05394427105784416,-0.002407679334282875
1772363362690219500,5.381219482421875,-0.059513826850801706,-0.0884650499165058,-0.10534253495931625,-0.025510629639029503,-0.05789799988269806,0.0009276634082198143
1772363362700289500,5.39128955078125,-0.06510521711707115,-0.10757307049036026,-0.004618307450413704,-0.022534236311912537,-0.04284941405057907,0.002956676296889782
1772363362710358500,5.401358642578125,-0.06218611479997634,-0.08308335687816143,0.07421908242106437,-0.012724217027425766,-0.022939886897802353,-0.005213901866227388
1772363362720428500,5.411428466796875,-0.019586378675326702,0.005077741655707359,0.06757599114477635,-0.002358592115342617,-0.009338116273283958,-0.006135363131761551
1772363362730497500,5.42149755859375,-0.015107991152256726,0.06347089391350746,-0.017031798821687698,0.0031781205907464027,-0.009327463805675507,-0.003204021602869034
1772363362740567800,5.43156787109375,-0.0480636275537312,0.09415244790315627,-0.12903203810453415,0.013757497072219849,-0.017881089821457863,-0.004570368677377701
1772363362750636500,5.441636474609375,-0.049320861073210834,0.1320002402603626,-0.1736287202000618,0.019335754215717316,-0.02249528095126152,-0.007771221920847893
1772363362760706600,5.45170654296875,-0.006243789760395884,0.17620821529924868,-0.09843757787644862,0.026222597807645798,-0.025539416819810867,-0.011387628503143787
1772363362770775600,5.461775634765625,0.01526288945302367,0.15508125611841678,-0.06023147360086441,0.0313960537314415,-0.025089874863624573,-0.013962372206151485
1772363362780845600,5.471845458984375,0.023738749114423988,0.1280892042964697,0.004949731361865997,0.02657342702150345,-0.026557669043540955,-0.011956379748880863
1772363362790914600,5.48191455078125,0.002472162267193198,0.12373334717452525,-0.0038519992530345916,0.030745800584554672,-0.021150387823581696,-0.010048490948975086
1772363362800984600,5.491984619140625,-0.03382145945057273,0.07801905922591686,0.007657236754894256,0.02369406819343567,-0.02147192694246769,-0.0009426912292838097
1772363362811053600,5.502053466796875,-0.07636478921286761,0.023703531670570373,-0.028424714973568913,0.020225565880537033,-0.026984138414263725,0.003724498674273491
1772363362821123600,5.51212353515625,-0.07513363998271524,0.004587912312150002,-0.03455810316205025,0.013779275119304657,-0.02408684231340885,0.005453015211969614
1772363362831192600,5.522192626953125,-0.06974164474606513,-0.021992051577568054,0.01009352399110794,0.0026565827429294586,-0.013086922466754913,0.009310337714850903
1772363362841262600,5.5322626953125,-0.05690576324425638,-0.04287877226173877,0.0466378325343132,-0.00567260105162859,-0.009741348214447498,0.009213577024638653
1772363362851331600,5.54233154296875,-0.011527794577926397,-0.027843700215220448,0.02991290770471096,-0.01213822327554226,-0.010424981825053692,0.008523551747202873
1772363362861401600,5.552401611328125,0.00909041136316955,0.01075228016078472,0.030621932756900786,-0.01460077241063118,-0.008171848952770233,0.0026798052713274956
1772363362871470600,5.562470703125,0.02764927362166345,0.06292904212176799,0.009539981761574745,-0.012540284544229507,-0.004086293280124664,0.00011438224464654922
1772363362881540600,5.57254052734375,0.019534502357617018,0.06925590705573559,-0.039360535007715226,-0.00878995843231678,-0.01044255681335926,0.003795427968725562
1772363362891609600,5.582609619140625,-0.050947658557444805,0.025673370438814163,-0.1286456691354513,-0.0007083294913172722,-0.01759953610599041,0.00027845753356814384
1772363362901679600,5.5926796875,-0.038683731724694366,0.04255436261296272,-0.17703706733882427,0.01116624940186739,-0.020468195900321007,-0.0008613476529717445
1772363362911748600,5.60274853515625,-0.0160765439234674,0.04335866473317146,-0.1365156718581915,0.018208447843790054,-0.014115758240222931,0.0038567082956433296
1772363362921818400,5.612818359375,-0.018172127963230013,0.055176528298854825,-0.11250175906419753,0.01769132912158966,-0.01772892475128174,0.0028761248104274273
1772363362931887600,5.6228876953125,-0.03830306184403598,0.07562310400009155,-0.10387421597242355,0.01810837909579277,-0.02375592477619648,0.004229010548442602
1772363362941957400,5.632957275390625,-0.05471972444206476,0.06404781701862812,-0.058193245771527284,0.02152126282453537,-0.027311230078339577,-0.0003972835838794708
1772363362952027600,5.643027587890625,-0.03924209625981748,0.10381517926156521,-0.009719429981708527,0.021147355437278748,-0.02625102549791336,-0.0059089623391628265
1772363362962096600,5.6530966796875,-0.01528678178526461,0.123060562479496,0.01285889705121517,0.017133504152297974,-0.01963636465370655,-0.008418433368206024
1772363362972166700,5.663166748046875,-0.007974705206230281,0.12225099966228008,0.00834463449716568,0.01602136716246605,-0.021592456847429276,-0.009910071268677711
1772363362982235600,5.673235595703125,0.03726918875165283,0.12748188605308533,-0.011276596295833587,0.011500660330057144,-0.020474573597311974,-0.009868488647043705
1772363362992305400,5.683305419921875,0.019209362056478857,0.08717676367163657,0.005028057295084,0.002290915697813034,-0.02032969892024994,-0.0052934447303414345
1772363363002374700,5.693374755859375,-0.019471154797822236,0.035355391019582745,-0.008237082469463348,-0.010578636080026627,-0.020031297579407692,0.0035899607464671135
1772363363012444400,5.7034443359375,-0.07138897356167435,-0.05929097788035869,-0.02054477537870407,-0.017432548105716705,-0.0192272886633873,0.010240406729280949
1772363363022513700,5.713513671875,-0.10775054594911634,-0.11170330216288565,-0.027418752801418304,-0.020609447732567787,-0.0104982890188694,0.012270195409655571
1772363363032583400,5.72358349609375,-0.06846694863513111,-0.05729132849574089,-0.018446926316618917,-0.02033247798681259,0.007264463230967522,0.007111385464668274
1772363363042652700,5.733652587890625,-0.02741583019196987,0.03266717484891415,-0.012154548174142837,-0.02076096460223198,0.010737001895904541,0.00934212189167738
1772363363052722700,5.74372265625,-0.003915346812829375,0.0830845259219408,-0.10585749874413013,-0.017010968178510666,0.008576112799346447,0.015081766992807388
1772363363062791700,5.753791748046875,-0.025252222417294978,0.0703138916760683,-0.21059739163517951,-0.0007066633552312851,-0.0015090408269315958,0.020006347447633743
1772363363072861700,5.76386181640625,-0.010732114155590534,0.0684101038813591,-0.23875147297382354,0.012970533221960068,-0.0017252895049750805,0.02570657804608345
1772363363082930700,5.7739306640625,0.013544614293053746,0.08208090183734894,-0.1561386562168598,0.01769615337252617,0.004427328705787659,0.024848680943250656
1772363363093000700,5.784000732421875,0.03160648681484163,0.08399988720118999,-0.025922376763820646,0.01138792373239994,0.014433890581130981,0.02240070328116417
1772363363103069400,5.7940693359375,0.013589037956669926,0.06650397799909115,0.07158171965479851,0.003981059417128563,0.020182644948363304,0.018266314640641212
1772363363113139700,5.8041396484375,0.0025173165831714867,0.07200082184970379,0.08347557106614112,-0.001860584132373333,0.019366919994354248,0.010052859783172607
1772363363123208400,5.81420849609375,-0.006941855027154087,0.06595043576955795,0.0423415966451168,-0.0035047391429543495,0.016743116080760956,0.011061228811740875
1772363363133278700,5.82427880859375,-0.023644933351129292,0.09812778127491474,-0.002994505640864372,-0.0013233441859483719,0.018119970336556435,0.005426246672868729
1772363363143347500,5.834347412109375,0.010208893999084829,0.10650164186656474,-0.04818798458576202,0.002267090603709221,0.027089525014162064,0.00561381783336401
1772363363153417500,5.84441748046875,0.01944222096428275,0.07119593520760535,-0.034521862804889676,-0.0008232416585087776,0.052610863000154495,0.008902555331587791
1772363363163486500,5.854486572265625,-0.010866188864037394,-0.008772504520416259,0.022886954590678212,-0.016938114538788795,0.04087231308221817,0.00973665900528431
1772363363173556500,5.864556396484375,-0.01031995315812528,-0.04317161772847175,-0.07710545151233672,-0.025555038824677467,-0.0016061686910688877,0.0015162802301347256
1772363363183625500,5.87462548828125,0.050489685656875366,0.021404607078433037,-0.08187047395706176,-0.03017440438270569,-0.009694644249975681,-0.007039401214569807
1772363363193695500,5.884695556640625,0.06854242502413689,0.08717501010596751,0.07437690333127975,-0.02634264901280403,0.02210909128189087,-0.009022923186421394
1772363363203764700,5.8947646484375,0.011218801693990825,0.09958967052102088,0.13081073821485042,-0.01758565939962864,0.04470810294151306,-0.00836572889238596
1772363363213834500,5.90483447265625,-0.03603599369488656,0.09224807558655738,0.01793663870692253,0.0009888233616948128,0.04612543806433678,-0.00914390292018652
1772363363223903700,5.91490380859375,-0.06417969976998865,0.08035890035033226,-0.10418751970529555,0.011081711389124393,0.042600180953741074,-0.005337265785783529
1772363363233973500,5.924973388671875,-0.08196377826370298,0.0382025971442461,-0.15519582240879534,0.017278090119361877,0.025895237922668457,-0.004379593301564455
1772363363244043500,5.93504345703125,-0.08172726609408855,0.0200859256953001,-0.1718809997498989,0.016553519293665886,0.014380093663930893,-0.005142826586961746
1772363363254112500,5.945112548828125,-0.07066767354980111,-0.0046270752787590025,-0.12532733836770057,0.007513418793678284,0.011952623724937439,-0.00209696963429451
1772363363264182500,5.9551826171875,-0.045974180993810294,-0.004662146592140198,-0.06628302872478961,0.011798908933997154,0.017973817884922028,0.0006367736496031284
1772363363274251500,5.96525146484375,-0.04435527455508709,0.01394435420036316,-0.04244330345392227,0.017030956223607063,0.02153632789850235,0.0026748906821012497
1772363363284321500,5.975321533203125,-0.041695042369887234,0.033521745851635934,-0.07284720954596996,0.022818733006715775,0.018984545022249222,0.015768863260746002
1772363363294390800,5.985390869140625,-0.049699923518672584,0.051690439748764035,-0.10964344702363013,0.025278162211179733,0.015537349507212639,0.018957732245326042
1772363363304460500,5.99546044921875,-0.05023585702627897,0.07855155866742133,-0.1075058504730463,0.016707539558410645,0.017405584454536438,0.026105741038918495
1772363363314529500,6.005529541015625,-0.06398717287257313,0.04239712622463703,-0.06332476344108581,0.014151704497635365,0.013562376610934734,0.01589651219546795
1772363363324599600,6.015599609375,-0.03242006822004914,0.05157353537082672,-0.047584757995605464,0.005465005524456501,0.005463703535497189,0.0055099185556173325
1772363363334668500,6.02566845703125,0.03135740742459893,0.09246551772952079,-0.04004617918431758,-0.0014701327309012413,-0.0019260358531028032,0.002492823638021946
1772363363344738600,6.035738525390625,0.018713102972134948,0.14334113396406173,-0.02149111631810665,-0.0036173155531287193,-0.012022387236356735,-0.005597081035375595
1772363363354807600,6.0458076171875,0.02713270240165293,0.1847434039324522,0.01033317796587944,-0.004601885564625263,-0.009174935519695282,-0.009749215096235275
1772363363364877600,6.055877685546875,-0.0009832388836890458,0.1423012695223093,0.024860885012149808,0.0010104682296514511,-0.004295604303479195,-0.008168327622115612
1772363363374946600,6.065946533203125,-0.020965119682624937,0.07497311565876007,-0.022859482061862946,-0.0007251137867569923,-0.0017323116771876812,-0.00228939950466156
1772363363385016600,6.0760166015625,-0.03139043291136622,-0.041166123124957085,-0.08395838614702224,-0.009025686420500278,-0.0068560512736439705,0.0027041486464440823
1772363363395085600,6.08608544921875,-0.021245617124438284,-0.1132920326590538,-0.10170096358656883,-0.020466893911361694,-0.014395460486412048,0.009813724085688591
1772363363405155600,6.096155517578125,-0.005608852857723832,-0.15120938312113283,-0.04433949246406555,-0.03503850847482681,-0.021730870008468628,0.009881153702735901
1772363363415224600,6.106224609375,-0.020556027425080538,-0.11598375596106052,0.019546411991119384,-0.04276034235954285,-0.020683979615569115,0.009666768833994865
1772363363425294600,6.116294677734375,0.0013142244037240743,-0.0301420402854681,0.07014204224050044,-0.038261786103248596,-0.009437467902898788,0.0023484155535697937
1772363363435363600,6.126363525390625,0.025991277281567454,0.0637304216325283,0.05893909570276737,-0.024468474090099335,-0.0014162927400320768,-0.00007692491635680199
1772363363445433600,6.13643359375,0.013025558855012059,0.10970014564692973,0.012709259447455405,-0.006176978815346956,0.0016041803173720837,-0.005417189560830593
1772363363455502600,6.146502685546875,0.02288395891599357,0.16837036128044128,-0.09566577507555485,0.010053390637040138,-0.00770196970552206,-0.00449600163847208
1772363363465572600,6.156572509765625,0.027645108903199433,0.16601532258689403,-0.12154489721953868,0.02001333236694336,-0.01891205459833145,-0.006723009515553713
1772363363475641600,6.1666416015625,0.024538228929042814,0.10937281338870525,-0.11775076563358307,0.025212354958057404,-0.022856995463371277,-0.004477165173739195
1772363363485711600,6.176711669921875,0.024581702744588256,0.03892915785312653,-0.05097089330255985,0.023960761725902557,-0.0189095176756382,-0.0061098490841686726
1772363363495780400,6.1867802734375,0.01429075648523867,-0.00856675281524658,0.024713000974059103,0.01916787028312683,-0.013296639546751976,-0.005553248804062605
1772363363505850600,6.1968505859375,0.006900280907750129,-0.023825112223625183,0.05723989056944847,0.012155896052718163,-0.014849682338535786,-0.0034181764349341393
1772363363515919600,6.206919677734375,-0.016982041395828127,-0.005747603741288185,0.030490999853610992,0.007861815392971039,-0.022710800170898438,-0.007148998789489269
1772363363525989600,6.21698974609375,-0.027039763421192763,0.0239811795681715,-0.0027630349725484846,0.003926505334675312,-0.023161660879850388,-0.011849861592054367
1772363363536058600,6.22705859375,0.0030735622264444827,0.062488897138833994,-0.0093283848375082,0.0014178082346916199,-0.016896307468414307,-0.016648877412080765
1772363363546128400,6.23712841796875,0.011909779632836579,0.07704699932336807,0.009739888247847557,-0.006131064612418413,-0.004527299199253321,-0.013998252339661121
1772363363556198700,6.24719873046875,-0.01658040179237723,0.0528466240465641,0.004519523251056671,-0.0052215950563549995,-0.002897178288549185,-0.013621681369841099
1772363363566267400,6.257267333984375,-0.031747502720728515,0.017810381978750227,-0.033680735805630684,-0.00968206487596035,-0.007690812461078167,-0.006308685522526503
1772363363576337700,6.267337646484375,-0.03673420509211719,-0.012997428739070891,-0.0820212806046009,-0.011593681760132313,-0.021237246692180634,-0.0008665160275995731
1772363363586406400,6.277406494140625,-0.038948666271194816,-0.012455576947331428,-0.10834054773151874,-0.002479887567460537,-0.028033467009663582,0.0034741414710879326
1772363363596480000,6.28747998046875,-0.01562675432935357,0.014449965634942054,-0.07410802326202393,0.008506983518600464,-0.022207802161574364,-0.004066864959895611
1772363363606549000,6.297549072265625,0.055485667313262814,0.09107903180718421,-0.022187281888723372,0.011961826123297215,-0.012730507180094719,-0.0078089009039103985
1772363363616618800,6.30761865234375,0.09448357955366372,0.15189444277584552,-0.008393149814009666,0.021360386162996292,-0.00961381010711193,-0.009361524134874344
1772363363626688000,6.31768798828125,0.051797626450285315,0.13640519722104072,-0.053959553724527355,0.025965536013245583,-0.00322153652086854,-0.015606068074703217
1772363363636757800,6.3277578125,0.018686945617571473,0.11919511922299861,-0.11330430761873721,0.027651051059365273,-0.005249533802270889,-0.014581549912691116
1772363363646827000,6.337826904296875,-0.04917027362138033,0.044108021795749665,-0.13482698811888694,0.023820333182811737,-0.011242908425629139,-0.009288093075156212
1772363363656896800,6.347896728515625,-0.09159414172247052,-0.02192073990702629,-0.1580208167016506,0.01769719459116459,-0.024188002571463585,-0.008926969021558762
1772363363666966000,6.357966064453125,-0.06869418151974678,-0.04347849172055721,-0.108925654143095,0.012797154486179352,-0.035433605313301086,-0.01392129622399807
1772363363677035800,6.368035888671875,0.007594985173642635,-0.000720130968093872,0.014938625934720038,-0.0006725825369358063,-0.024289341643452644,-0.015758078545331955
1772363363687105000,6.37810498046875,0.07095913077704608,0.055558221092820166,0.11048866567611694,-0.0076733664609491825,-0.014422440901398659,-0.01902312971651554
1772363363697175000,6.388175048828125,0.07760865179412066,0.10296294634640216,0.11092354996204376,-0.022614233195781708,-0.00033005839213728905,-0.02327859401702881
1772363363707244000,6.398244140625,0.07011763845160603,0.13297756085991858,0.060357145807147024,-0.027219878509640694,-0.013661648146808147,-0.01958281733095646
1772363363717314000,6.40831396484375,-0.0057183776468038554,0.050124505606293675,-0.062030631977319714,-0.03026626817882061,-0.023463677614927292,-0.01760515384376049
1772363363727382800,6.4183828125,-0.049749023357406254,-0.0401022932857275,-0.05777355905473232,-0.041462913155555725,-0.018895836547017097,-0.019096992909908295
1772363363737453000,6.428453125,-0.038436771226301784,-0.035134441745281214,-0.004188683861494064,-0.04155399277806282,-0.017634032294154167,-0.01889858767390251
1772363363747521800,6.438521728515625,0.0030124796889722345,0.0037041152149438856,0.032248072654008864,-0.03585103899240494,-0.012307806871831417,-0.021405663341283798
1772363363757592000,6.448592041015625,0.027098361740633844,0.055361237215995784,0.045134442234039306,-0.02839551866054535,-0.0011960335541516542,-0.03171182796359062
1772363363767660800,6.458660888671875,0.018469868800789116,0.09046820643246173,0.035789690783619876,-0.024615421891212463,0.00815117172896862,-0.026637740433216095
1772363363777730800,6.468730712890625,-0.0655957040477544,0.029853870993852612,-0.02636485983431339,-0.016196371987462044,-0.0033217270392924547,-0.027794349938631058
1772363363787799800,6.4787998046875,-0.09647058865241706,0.033570845690369604,-0.18807810131311414,0.005801454186439514,-0.029334615916013718,-0.021480318158864975
1772363363797869800,6.488869873046875,-0.10403072170838713,0.04123685027360916,-0.18673019383549688,0.037986285984516144,-0.016313623636960983,-0.007498990278691053
1772363363807938800,6.498938720703125,-0.11545688254274428,0.06553250261843205,-0.03446282609403133,0.05904008448123932,0.0023392830044031143,-0.012174801900982857
1772363363818008800,6.5090087890625,-0.04691387299671769,0.12035714873969554,0.06515431695580481,0.0577218160033226,0.013179146684706211,-0.011666936799883842
1772363363828077800,6.519077880859375,-0.021410525362566112,0.0801519796013832,0.08402619068622588,0.058217935264110565,0.00598145229741931,-0.006982780992984772
1772363363838147800,6.52914794921875,-0.03344824222400784,0.07363689861893653,0.0589157148271799,0.048959456384181976,0.009698692709207535,0.002416579518467188
1772363363848217000,6.539217041015625,-0.09206899269260466,0.021232173120975494,0.06997311541438102,0.04128238931298256,0.019792839884757996,-0.0020065871067345142
1772363363858286800,6.549286865234375,-0.09895224940031766,0.010537760627269745,0.07841419602334498,0.025434449315071106,0.018163785338401794,0.00487821688875556
1772363363868356000,6.559356201171875,-0.08285283605791628,-0.02084112797677517,-0.009079378512501715,0.013067265041172504,0.01191494520753622,0.013026157394051552
1772363363878425900,6.56942578125,-0.0724214584145695,-0.049854456493258474,-0.10310147803425788,0.004356863908469677,0.010184955783188343,0.013187013566493988
1772363363888494800,6.579494873046875,-0.02001395643763244,-0.017591770792007445,-0.10988251647651195,-0.007997540757060051,0.014370645396411419,0.01247994415462017
1772363363898564900,6.58956494140625,0.028780908000096677,-0.010627776998281479,-0.05588613787293434,-0.021615348756313324,0.014072372578084469,0.015373202040791512
1772363363908635000,6.599634765625,0.018195143512636423,-0.027423428976535796,-0.028262802410125732,-0.0389586016535759,0.0050401221960783005,0.011952056549489498
1772363363918703900,6.609703857421875,0.018050401279702782,-0.0036257892817258834,-0.002327566164731979,-0.051705293357372284,0.007871062494814396,0.014164344407618046
1772363363928774000,6.61977392578125,-0.003269230929017067,-0.0024596681118011473,0.0076888009369373315,-0.05407055839896202,0.015419455245137215,0.01568799652159214
1772363363938843100,6.629843017578125,-0.024463775453343987,0.026971593555808065,-0.04366378515958786,-0.04506295174360275,0.017114024609327316,0.015132727101445198
1772363363948913000,6.639912841796875,-0.015682503104582426,0.06567103430628776,-0.12957213633060455,-0.027111448347568512,0.017540453001856804,0.010477795265614986
1772363363958982000,6.64998193359375,-0.014095672304555773,0.10669862574338912,-0.16788696167767048,-0.011342871002852917,0.019525839015841484,0.011267954483628273
1772363363969052000,6.660052001953125,-0.041107378675043584,0.11929857959747314,-0.21368892790973185,-0.001984364353120327,0.010799543932080269,0.00922700110822916
1772363363979121000,6.670120849609375,-0.0694281948827207,0.09193535637557507,-0.209966107994318,-0.002791834995150566,-0.0026914982590824366,0.006512440741062164
1772363363989191000,6.68019091796875,-0.06774184923097491,0.08057517344951629,-0.1566273165166378,-0.0029217973351478577,-0.022786380723118782,0.0026668361388146877
1772363363999260000,6.690260009765625,-0.03744527597092092,0.07481529474854469,-0.1084814175069332,0.011595360934734344,-0.02440132014453411,-0.0026038261130452156
1772363364009330000,6.700329833984375,0.01614332554936409,0.1309200438082218,0.03768704883754253,0.02761080488562584,0.013106219470500946,-0.002386814448982477
1772363364019399000,6.71039892578125,0.02206219420433044,0.12579495587944983,0.17449848877191543,0.03261834755539894,0.05045385658740997,0.0017674509435892105
1772363364029469000,6.720468994140625,-0.005081321852281689,0.09378010745942592,0.09690496148169041,0.02610773965716362,0.03647032752633095,0.006659786216914654
1772363364039538000,6.730537841796875,-0.01807765461280942,0.06291735168397426,-0.09158815037310122,0.02346082404255867,0.010273078456521034,0.0116273807361722
1772363364049608000,6.74060791015625,-0.027518706044554708,-0.00036766426861286163,-0.12874912950992584,0.020519331097602844,0.0073696160688996315,0.014772961847484112
1772363364059677000,6.750677001953125,-0.007798983313143253,-0.007148118188977241,-0.058553311255574225,0.02307463437318802,0.014118599705398083,0.017407894134521484
1772363364069747000,6.760746826171875,-0.002460691025108099,0.02952712325751781,0.014919921234250068,0.019146906211972237,0.02652410790324211,0.016064457595348358
1772363364079816000,6.77081591796875,0.012367752533406018,0.07437339619994163,0.05866729302406311,0.004423618316650391,0.014589153230190277,0.011329356580972672
1772363364089886000,6.780885986328125,0.03283814750164747,0.08356441839337349,-0.044998833155632016,0.0015550758689641953,0.004382684361189604,0.009965633042156696
1772363364099955000,6.790954833984375,0.02789857220761478,0.06786591400206089,-0.04486731573045254,-0.0032423418015241623,0.019033798947930336,0.004835319705307484
1772363364110025000,6.80102490234375,0.04275492668636143,0.049531800410151476,-0.045105800661444664,-0.013225833885371685,0.015750892460346222,0.001826342660933733
1772363364120093700,6.81109375,0.03862776375375688,0.017891630521416662,-0.12520575781464577,-0.015380330383777618,0.0036348411813378334,0.004224252887070179
1772363364130164000,6.8211640625,0.022709625262394548,-0.02806464948952198,-0.14076163886487483,-0.027004746720194817,-0.006035320460796356,0.0019305450841784477
1772363364140232700,6.831232666015625,0.03295943579375744,-0.06520283227264881,-0.08745441156923771,-0.02966444566845894,-0.015781158581376076,0.0008727372623980045
1772363364150303000,6.841302978515625,0.04792969897575676,-0.05734802711904049,0.002803366982936859,-0.024744020774960518,-0.005154697690159082,-0.005751221906393766
1772363364160372000,6.8513720703125,0.08641922330260277,0.005229132825136184,0.12998247069716454,-0.023119492456316948,0.020619109272956848,-0.0070692203007638454
1772363364170442000,6.86144189453125,0.0718443161137402,0.025928221982717513,0.13079963229894637,-0.021397363394498825,0.025102388113737106,-0.004786608275026083
1772363364180511000,6.871510986328125,-0.0011412059243768452,0.045849312505126,-0.038058220237493515,-0.011967109516263008,0.00694788433611393,-0.005090741906315088
1772363364190580700,6.881580810546875,-0.04236760786920785,0.09236731805205345,-0.17167583256661892,0.004002231173217297,-0.004249349236488342,-0.01149342954158783
1772363364200650000,6.89164990234375,-0.031090427051484584,0.11935527822077274,-0.11405600276887416,0.015700165182352066,0.002651966642588377,-0.020261887460947037
1772363364210719700,6.9017197265625,0.017604703338816762,0.15882278073430062,-0.012372574838995933,0.024604719132184982,0.007615985814481974,-0.025258740410208702
1772363364220789000,6.9117890625,0.025807372082024813,0.14987842677831648,0.03201894007325172,0.02297326549887657,0.004239097703248262,-0.024915723130106926
1772363364230858800,6.921858642578125,0.00020355974808335304,0.092295421859622,0.03103577425479889,0.017855461686849594,-0.00959031842648983,-0.015796564519405365
1772363364240928800,6.9319287109375,-0.029813392852991817,0.027271453285217285,0.03151391316056251,0.01832018420100212,-0.00968059990555048,-0.013943005353212357
1772363364250998000,6.941998046875,-0.03204005592651665,0.027810382467508315,0.06989888113439083,0.013872846961021423,0.0031052795238792896,-0.011873176321387291
1772363364261067800,6.95206787109375,-0.034148134121671316,0.031193595165014264,0.05215162751972675,0.011547641828656197,0.004256297368556261,-0.00976315326988697
1772363364271137000,6.962136962890625,-0.06304280469454825,0.030776246535778044,-0.03204290547072887,0.0167158804833889,0.0012143501080572605,-0.005515237804502249
1772363364281206800,6.972206787109375,-0.044132863976061344,0.058363341641426085,-0.06955225965380668,0.022868314757943153,0.009358828887343407,-0.0051993862725794315
1772363364291276000,6.982276123046875,-0.044625981255248186,0.03814765208661556,-0.06254793384969234,0.015568863600492477,0.013210180215537548,0.007295135874301195
1772363364301345800,6.992345703125,-0.0886331730250269,-0.05848609123826026,-0.06210545077919959,0.007302412763237953,0.0008571073412895203,0.010595858097076416
1772363364311415000,7.0024150390625,-0.09738616912737488,-0.08213760046064854,-0.06109188982248306,-0.001905534416437149,-0.012232006527483463,0.00964778009802103
1772363364321484800,7.01248486328125,-0.06592537439353764,-0.037979309782385826,-0.03212064688205719,-0.007892054505646229,-0.01260271854698658,0.005320143420249224
1772363364331554000,7.022553955078125,-0.029231574377045034,0.038866614010930056,-0.03558744620978832,-0.004273868165910244,-0.006385526154190302,0.0015156245790421963
1772363364341624000,7.0326240234375,-0.01749254820123315,0.09019991088509559,-0.10865443598628044,0.008310900069773197,0.01003366056829691,-0.0038706189952790737
1772363364351692800,7.04269287109375,-0.016193594431877137,0.12377426370680332,-0.18135609958171844,0.022043675184249878,0.011013762094080448,0.0009195120073854923
1772363364361763000,7.05276318359375,-0.023834756834805012,0.12085516138970852,-0.242130009496212,0.029007039964199066,-0.0024951233062893152,0.0013592001050710678
1772363364371831800,7.062831787109375,0.004201835604012012,0.11378536913394928,-0.22626725445389748,0.021796809509396553,-0.021827388554811478,-0.004055236466228962
1772363364381902000,7.072902099609375,0.040054654751718044,0.07920563866198062,-0.11473171007335185,0.01069861650466919,-0.031683746725320816,-0.0006210897117853165
1772363364391970800,7.082970703125,0.028885610483586788,0.04037351144254207,0.013775427374243735,-0.0058948746882379055,-0.02806253544986248,-0.00510317413136363
1772363364402040800,7.093040771484375,0.021046952747181057,0.027486557340621946,0.09332944108247757,-0.025585222989320755,-0.02949931100010872,-0.008315479382872581
1772363364412109800,7.10310986328125,0.014890549009293317,0.028032500785589217,0.07507073081433772,-0.032951053231954575,-0.02423509769141674,-0.006922334898263216
1772363364422179800,7.113179931640625,-0.020395941492542622,0.03996843777298927,0.038971827951073644,-0.03727282956242561,-0.024622853845357895,-0.009792158380150795
1772363364432248800,7.123248779296875,-0.015715674721822143,0.07260229487419129,0.022404724031686783,-0.03669362515211105,-0.027061592787504196,-0.016531432047486305
1772363364442318800,7.13331884765625,0.0010403028331696987,0.058472647234797476,0.004160042288899422,-0.03169567137956619,-0.023378442972898483,-0.015578020364046097
1772363364452387800,7.143387939453125,0.006757657566666603,0.04373334326446056,0.08760346465110778,-0.03678503260016441,-0.008911674842238426,-0.006706986576318741
1772363364462457900,7.153457763671875,-0.07991305627897381,-0.09014438130557537,0.11413374418020247,-0.03734083101153374,-0.0053387777879834175,-0.0013138186186552048
1772363364472527000,7.163527099609375,-0.09774046245776116,-0.14499182378053665,0.10471768105924129,-0.03884555771946907,-0.012582547962665558,-0.00474601611495018
1772363364482596900,7.173596923828125,-0.0565461361516267,-0.11264788953661918,0.031171383333206175,-0.03326064348220825,-0.017451871186494827,0.0021401196718215942
1772363364492666000,7.183666015625,-0.043007513207942244,-0.052152796563506125,-0.024724106889963147,-0.016491752117872238,-0.011501753702759743,0.009589659050107002
1772363364502736000,7.19373583984375,-0.06020699674673378,0.01591886914372444,-0.013912205496430395,0.004873458296060562,0.0013695699162781239,0.015970060601830482
1772363364512804900,7.203804931640625,-0.09932159416936337,0.039002223089337346,-0.0424900652050972,0.026269229128956795,0.0035934094339609146,0.01690906658768654
1772363364522875000,7.213875,-0.07524769481644034,0.0488467407554388,-0.0985959833085537,0.03882869333028793,-0.01304602064192295,0.024353666231036186
1772363364532944000,7.22394384765625,-0.04016089160516858,0.050853988924622534,-0.13737491903603077,0.05104507505893707,-0.04212784022092819,0.01617320626974106
1772363364543014000,7.234013916015625,0.06906454920209944,0.1496948869049549,-0.09180033181905746,0.06119012087583542,-0.03893231227993965,0.01323467493057251
1772363364553083000,7.244082763671875,0.09907777547612785,0.1705833611547947,0.10072013585567474,0.065569207072258,0.00016008829697966576,0.0036030388437211514
1772363364563153200,7.254153076171875,0.04707790445201099,0.16204115825891494,0.18244038768708704,0.059246327728033066,0.021786553785204887,-0.004769407212734222
1772363364573222000,7.264221923828125,0.008323957035318016,0.10894845049679279,0.06183598618805408,0.044297028332948685,0.012232338078320026,-0.00023394357413053513
1772363364583292000,7.2742919921875,-0.02719480785243213,0.029318448942899703,-0.12779869691729545,0.02808716893196106,-0.015075982548296452,-0.000977231189608574
1772363364593362000,7.28436181640625,-0.0010770546469837427,-0.01311433311700821,-0.23236323324143884,0.017762018367648125,-0.03557891398668289,-0.0010697045363485813
1772363364603427000,7.294427001953125,0.06374708050638436,-0.009824059399962424,-0.2475415131509304,0.012519584968686104,-0.037457242608070374,-0.005528634879738092
1772363364613497300,7.304497314453125,0.14000534060485662,0.07179214753508567,-0.1695990262925625,0.009880785830318928,-0.02468251809477806,-0.00820506364107132
1772363364623566000,7.314566162109375,0.1839293841358274,0.1283855568945408,-0.017942483925819395,-0.005369273480027914,0.002845245413482189,-0.00905035063624382
1772363364633636400,7.32463623046875,0.10251001494713127,0.07099252158999443,0.05199906730651855,-0.022152090445160866,0.0019693011417984962,-0.010502813383936882
1772363364643705000,7.334705078125,0.024630364191904664,0.023398411244153976,-0.013958967247605323,-0.038762759417295456,-0.004200710449367762,-0.017967121675610542
1772363364653775000,7.344775146484375,0.009921966816484927,0.014915829581022262,-0.03617372166514397,-0.0405980683863163,-0.0005292776040732861,-0.025693433359265327
1772363364663844000,7.354843994140625,0.0166200031504035,0.05065875861346721,-0.0694599051952362,-0.028909722343087196,0.007713206112384796,-0.02889907918870449
1772363364673914000,7.3649140625,0.04996748841367662,0.12709376351833343,-0.13004267645180226,-0.01237402856349945,0.0068980129435658455,-0.029944157227873802
1772363364683983000,7.374983154296875,0.05237447649016976,0.14537351657450198,-0.19142916530668735,-0.0017940886318683624,0.0038369763642549515,-0.03478498384356499
1772363364694053000,7.38505322265625,0.0026942805852741003,0.0999421372205019,-0.19792612611055374,-0.003521132282912731,-0.003997470252215862,-0.031022395938634872
1772363364704122000,7.3951220703125,-0.050062984677404165,0.003971826240420341,-0.1772358047813177,-0.00869112741202116,-0.016139354556798935,-0.02873367816209793
1772363364714192100,7.405192138671875,-0.08104892844110727,-0.07536299175918101,-0.10871405721902846,-0.008959830738604069,-0.027859769761562347,-0.03159307688474655
1772363364724261000,7.41526123046875,-0.06868724032230675,-0.0368342314004898,-0.0027098434805870055,-0.009054905734956264,-0.019947519525885582,-0.03213875740766525
1772363364734331100,7.4253310546875,-0.03585457271337509,-0.007828501668572425,0.046503392499685284,-0.00019409600645303726,-0.011154618114233017,-0.03251342102885246
1772363364744400400,7.435400390625,0.01387165429033339,0.11466156744658947,0.05272855062484741,0.017609402537345886,0.005354583729058504,-0.03520561009645462
