time,seconds_elapsed,accel_x,accel_y,accel_z,gyro_x,gyro_y,gyro_z
1772363407535306200,0.12030615234375,-0.08096183467954397,-0.11625263603031634,0.017788170146942138,0.02926195040345192,0.04822942614555359,0.023810097947716713
1772363407545376300,0.130376220703125,-0.08759674264937639,-0.16642741051912308,-0.051855274921655654,0.023400332778692245,0.04089082032442093,0.023871617391705513
1772363407555445500,0.140445556640625,-0.03772957280501723,-0.14244739999473094,-0.07125672548413277,0.016643354669213295,0.020502358675003052,0.02170456573367119
1772363407565515300,0.150515380859375,0.03474354273155331,-0.06367664561867714,-0.1372650289207697,0.015571964904665947,0.004942573141306639,0.013892450369894505
1772363407575584500,0.16058447265625,0.08097191768214106,0.02754384048581123,-0.15466273844540118,0.01973145455121994,0.0019552791491150856,0.002506499644368887
1772363407585654300,0.170654296875,0.10768500643223523,0.12445581623017787,-0.09150865539610385,0.018269114196300507,0.010027852840721607,-0.006297911051660776
1772363407595723300,0.18072314453125,0.13217194356545806,0.205133865532279,0.030572832918167113,0.012238561175763607,0.02044147253036499,-0.009935356676578522
1772363407605793300,0.190793212890625,0.04966185653060674,0.15924071388542652,0.06372048476040362,0.007238210178911686,0.02019619569182396,-0.013988420367240906
1772363407615862300,0.2008623046875,0.01324585054218769,0.09997954662144183,0.03966623995602131,0.007835639640688896,0.01914556510746479,-0.017933830618858337
1772363407625932300,0.210932373046875,0.02750190104022622,0.07588087815344333,0.006204699859023094,0.0002967631444334984,0.02063746750354767,-0.005334150046110153
1772363407636001300,0.221001220703125,-0.014501695822179316,0.014843348866701125,-0.02459200494289398,-0.011340259574353695,0.023717045783996582,0.007151254918426275
1772363407646070300,0.2310703125,-0.08322890282869339,-0.06772036805152892,-0.05294599276781082,-0.023942869156599045,0.017792578786611557,0.012393953278660774
1772363407656139000,0.241138916015625,-0.06838117004781961,-0.10983049402832984,-0.02687807005345821,-0.03183872252702713,0.011791765689849854,0.011333308182656765
1772363407666209300,0.251209228515625,-0.005750234089791775,-0.08723696942627429,0.021091303345561026,-0.030364660546183586,0.002851267345249653,0.011115727946162224
1772363407676278000,0.261278076171875,0.03640446168109775,0.011647183173894881,0.021509236496686936,-0.015795167535543442,0.009064527228474617,0.006474655121564865
1772363407686347300,0.27134716796875,0.0264189281091094,0.12200374690294265,0.010547697499394416,-0.0030514104291796684,0.016142675653100014,0.0035382541827857494
1772363407696417000,0.2814169921875,-0.0017003741770982741,0.2050216373294592,0.0037467853128910064,0.010906079784035683,0.007369586266577244,0.004982734099030495
1772363407706486300,0.291486328125,-0.062197805237770076,0.16250819124877453,-0.02503039636015892,0.007165670394897461,-0.005205327644944191,0.004504696931689978
1772363407716556300,0.301556396484375,-0.09283815043419599,0.02477320672869682,-0.06215805774927139,0.012041863054037094,-0.03176935762166977,0.01562423910945654
1772363407726625300,0.311625244140625,-0.043944647927582264,-0.062252750295400616,-0.16184885055720805,0.01742837391793728,-0.02074812911450863,0.026112033054232597
1772363407736695300,0.3216953125,-0.025501374872773885,-0.08381868541538715,-0.05815992802381515,0.022812655195593834,0.00163315050303936,0.028150314465165138
1772363407746764300,0.331764404296875,-0.046892976339161396,-0.0648328299164772,0.10613163951039313,0.02930278144776821,-0.0023354922886937857,0.0201128963381052
1772363407756834300,0.341834228515625,-0.009918605815619229,0.015392799443006514,0.10616963343322276,0.029021019116044044,-0.012800384312868118,0.016411101445555687
1772363407766903000,0.351903076171875,0.015091186147928237,0.0785837073713541,0.054146016207337375,0.023000409826636314,-0.02177843265235424,0.006735038477927446
1772363407776973300,0.361973388671875,-0.013459493292868137,0.12700491619110107,0.03332300840914249,0.016867022961378098,-0.027038075029850006,-0.0013849209062755108
1772363407787042000,0.3720419921875,-0.02358604277074337,0.05708733035624027,-0.0111801501840353,0.010458392091095448,-0.03489333391189575,0.006830931641161442
1772363407797112300,0.3821123046875,0.003917319574207067,-0.056115854975581164,-0.02511924368739128,0.018147360533475876,-0.023864030838012695,0.00930030643939972
1772363407807181000,0.39218115234375,0.03131108406484127,-0.08746142583191395,0.02640460732281208,0.024102455005049706,-0.010538637638092041,0.012578923255205154
1772363407817251300,0.402251220703125,0.09675254739895463,-0.034977205356955525,0.06698503951430321,0.02697078324854374,0.004470697604119778,0.011601414531469345
1772363407827320000,0.412320068359375,0.1341110949344933,0.020492752930521965,0.060360068416595455,0.03230962157249451,0.008343732915818691,0.004536314867436886
1772363407837390000,0.42239013671875,0.16546952527239916,0.13496493528485298,0.05081833308935165,0.030865967273712158,0.024303754791617393,-0.007547860965132713
1772363407847459000,0.432458984375,0.12974369350522755,0.1297346334159374,0.030329087290167808,0.02853783220052719,0.031119847670197487,-0.013221725821495056
1772363407857529000,0.442529052734375,0.05707768574506044,0.053908700320124625,-0.025929391026496884,0.0290544293820858,0.019191700965166092,-0.020754696801304817
1772363407867598300,0.452598388671875,0.052231999279558655,0.01424362940788269,-0.07743979803323746,0.03278205543756485,0.013878694735467434,-0.025141188874840736
1772363407877668000,0.462668212890625,0.06895838541388512,0.027570143970847127,-0.10269932697415352,0.033305130898952484,0.008890251629054546,-0.021193210035562515
1772363407887737300,0.4727373046875,0.04668225619792938,0.027360300612449644,-0.105579850846529,0.02846003882586956,0.004922940395772457,-0.01875055953860283
1772363407897807000,0.48280712890625,-0.0070313599415123456,0.022213585373759268,-0.1295475864112377,0.028609322383999825,-0.007367878220975399,-0.01698589324951172
1772363407907876400,0.49287646484375,-0.02096446209549904,0.03813537712693214,-0.13177636837661266,0.03394416719675064,-0.002631979063153267,-0.03363970294594765
1772363407917946000,0.502946044921875,0.006876169379800558,0.09200140734910964,-0.0339981311917305,0.03862149640917778,0.01110730692744255,-0.033929113298654556
1772363407928015400,0.513015380859375,0.0205740014731884,0.126063251426816,0.06445873590707779,0.03429599106311798,0.024657471105456352,-0.027186255902051926
1772363407938085000,0.523085205078125,-0.043249213009327644,0.06238543676435947,0.028086276799440382,0.025363754481077194,0.009310091845691204,-0.0182862039655447
1772363407948154000,0.533154052734375,-0.08128376011028886,0.014471008422970772,-0.07697276504337787,0.021391652524471283,-0.00819539837539196,-0.010350782424211502
1772363407958224400,0.543224365234375,-0.07205182138457894,-0.05161737451255321,-0.11064239493310452,0.030606674030423164,-0.005083935335278511,-0.007161564659327269
1772363407968293000,0.553293212890625,-0.05287438883632421,-0.0634603725194931,-0.04587736955583095,0.0327763557434082,0.008843597956001759,0.0005658632144331932
1772363407978363400,0.56336328125,-0.030178572903573512,0.023214286848902702,0.004765022444725036,0.025356508791446686,0.011714864522218704,-0.0005814624018967152
1772363407988432100,0.57343212890625,-0.05469853552356362,0.05796645127832889,0.007148118188977241,0.004271200858056545,-0.0007966654375195503,-0.0019569857977330685
1772363407998502100,0.583502197265625,-0.07385010297819972,0.039492052432894706,-0.023930326163768768,-0.010373826138675213,-0.01665986143052578,-0.0009344788268208504
1772363408008571100,0.593571044921875,-0.040231326492875814,-0.013643909949064253,-0.03350011854171753,-0.02712404355406761,-0.017589570954442024,0.003496222198009491
1772363408018641200,0.60364111328125,-0.024622692342102525,-0.07910276280939578,0.020754034215211867,-0.03557610884308815,-0.0001398557797074318,0.0038890750147402287
1772363408028710100,0.613710205078125,-0.017562252436578274,-0.09978723891973496,0.10417758283317088,-0.045894525945186615,0.011557014659047127,0.009195956401526928
1772363408038780200,0.6237802734375,0.00480623123794794,-0.09966682741045951,0.10716390516757965,-0.05807872116565704,0.01349768415093422,0.013231590390205383
1772363408048849200,0.63384912109375,-0.022435265300422905,-0.1355646547436714,0.023479075264930725,-0.05725953355431557,0.01181190274655819,0.019520379602909088
1772363408058919200,0.643919189453125,-0.02508124976456165,-0.15703823540508746,-0.06393792690336704,-0.049608003348112106,0.004547865595668554,0.017451636493206024
1772363408068988200,0.65398828125,-0.008338935408741236,-0.1227905133664608,-0.10177461334466933,-0.04197964444756508,-0.006161238066852093,0.010186797939240932
1772363408079058200,0.66405810546875,0.045969724014401435,-0.036550153762102126,-0.05356032527387142,-0.027075951918959618,-0.007181583903729916,0.002251285593956709
1772363408089127400,0.67412744140625,0.09758695239648223,0.08263736667633056,-0.008075169906020164,-0.01252896711230278,-0.007218868471682072,-0.005718756467103958
1772363408099197200,0.684197265625,0.09857245630249381,0.1455640707105398,0.049938043123483655,-0.0023516789078712463,-0.0016634759958833456,-0.012592567130923271
1772363408109266200,0.69426611328125,0.08786723015382886,0.13306173201203345,0.07554302450120448,0.0030018072575330734,-0.004293614067137241,-0.017564157024025917
1772363408119336200,0.704336181640625,0.06177519591152668,0.08862696247994899,0.04690671260356903,0.007923943921923637,-0.01321867760270834,-0.022432085126638412
1772363408129405200,0.7144052734375,0.054944326978176826,0.05543254888653755,0.03337970703244209,0.011634793132543564,-0.020037701353430748,-0.026952534914016724
1772363408139474200,0.72447412109375,0.05597600811347365,0.06491817011237144,0.040833530169725414,0.015924759209156036,-0.01979275420308113,-0.03046199306845665
1772363408149544200,0.734544189453125,0.05726385596692562,0.09701602064073085,0.06943067910075187,0.015740733593702316,-0.02924298122525215,-0.027972735464572906
1772363408159614200,0.7446142578125,0.0437599390104413,0.07249357380270957,0.055220951962471,0.008180931210517883,-0.04722047224640846,-0.02484734356403351
1772363408169683200,0.75468310546875,-0.007279197222739457,-0.006077274087071418,0.008078092515468597,0.00635293684899807,-0.04377487301826477,-0.029404543340206146
1772363408179752200,0.764752197265625,-0.006879676511138677,-0.07124328148066997,0.05997311492562293,0.006072957068681717,-0.03123350441455841,-0.030956698581576347
1772363408189822200,0.774822265625,0.03630933074355125,-0.04457037861049175,0.14850830746889113,0.0026651760563254356,-0.008636049926280975,-0.027684470638632774
1772363408199891200,0.78489111328125,-0.026325404606759546,-0.0659831689953804,0.10732757129669189,0.01141034159809351,-0.0021585067734122276,-0.020275503396987915
1772363408209961200,0.794961181640625,-0.08936068358197807,-0.06601882483065127,-0.02585164961516857,0.010769053362309933,-0.014680955559015274,-0.017695965245366096
1772363408220030200,0.8050302734375,-0.09357289444953203,-0.06283844122886657,-0.12515081275701523,0.003223218023777008,-0.026187701150774956,-0.014809245243668556
1772363408230100200,0.815100341796875,-0.06605754940584302,-0.07362579270303249,-0.15413783778846263,-0.004222714342176914,-0.039073407649993896,-0.01519487053155899
1772363408240169200,0.825169189453125,-0.018453794448822735,-0.043918052181601525,-0.12659925799965857,-0.010261422023177147,-0.03574696555733681,-0.022157667204737663
1772363408250239200,0.8352392578125,0.0670437839642167,0.020174188500642776,-0.013314239603281021,-0.023793209344148636,-0.022670311853289604,-0.023991521447896957
1772363408260308200,0.84530810546875,0.11261690987646579,0.04514554814994335,0.0867576614767313,-0.03976269066333771,-0.015473145060241222,-0.023419346660375595
1772363408270378200,0.855378173828125,0.06520487809926272,0.024347090271115302,0.06740647979676723,-0.04145033657550812,-0.02241467498242855,-0.020449388772249222
1772363408280447200,0.865447265625,-0.017597762141376733,-0.016142741027474403,-0.018825111979246138,-0.030965633690357208,-0.021779218688607216,-0.01786811463534832
1772363408290517000,0.87551708984375,-0.06507496810927987,-0.03340659503936767,-0.05711246479749679,-0.016336891800165176,-0.02000448852777481,-0.017477428540587425
1772363408300586200,0.885586181640625,-0.07456292742267251,-0.01022679498195648,-0.045398061606287954,-0.008270498365163803,-0.032153356820344925,-0.012127360329031944
1772363408310656300,0.89565625,-0.07160992283597588,-0.031657121023535725,-0.025607903987169264,0.007885834202170372,-0.03917078673839569,-0.01083546131849289
1772363408320725200,0.905725341796875,-0.03443549969568849,-0.0409258846282959,0.015149638336896896,0.020585566759109497,-0.025266196578741074,-0.008021894842386246
1772363408330795300,0.915795166015625,0.02160568260848522,0.0005547112733125686,0.11637889275848864,0.028048809617757797,-0.018366746604442596,0.003556197974830866
1772363408340864300,0.9258642578125,-0.01915434393361211,-0.010412672942876814,0.10902443834245204,0.029752258211374283,-0.01863745041191578,0.008819504640996456
1772363408350934300,0.935934326171875,-0.06528568825051188,-0.036546062108874316,0.048664954447746274,0.038561463356018066,-0.016628893092274666,-0.00004003383219242096
1772363408361003300,0.946003173828125,-0.0011130758084356785,-0.012341010656952858,0.06002864450514316,0.039493054151535034,-0.005092574283480644,-0.003591019194573164
1772363408371073300,0.9560732421875,0.02752601256817579,0.011229250022768974,0.1087432833135128,0.0382634773850441,0.012057117186486721,-0.007546345237642527
1772363408381142000,0.96614208984375,0.010717793369293212,-0.0013689502656459808,0.1264332537829876,0.027962053194642067,0.01848522759974003,-0.014227602630853653
1772363408391212300,0.97621240234375,0.04138283461555838,-0.03965513404011726,0.09809621709287165,0.015087267383933067,0.01073596253991127,-0.01089998334646225
1772363408401281000,0.986281005859375,0.06142842830047011,-0.07521276963353156,-0.02021802764236927,0.012644387781620026,0.0011212266981601715,-0.016338009387254715
1772363408411351300,0.996351318359375,0.09631327919885516,-0.053470308902859684,-0.10565642321407795,0.0032514184713363647,0.0013087131083011627,-0.019702382385730743
1772363408421420000,1.006419921875,0.09690598439499735,-0.02222059963643551,-0.1478513048648834,-0.0018462073057889938,-0.010445412248373032,-0.026736579835414886
1772363408431490300,1.016490234375,0.10915522511526941,0.06228314543366432,-0.13075637767910955,-0.005991950165480375,-0.019770203158259392,-0.0305534228682518
1772363408441559300,1.026559326171875,0.083264120272547,0.08462824823260306,-0.09673954178690909,-0.0042198942974209785,-0.019881408661603928,-0.04320560395717621
1772363408451629000,1.036629150390625,0.0560533111333847,0.12125848149359225,-0.03979600381553173,0.004185840487480164,-0.017817191779613495,-0.04422639310359955
1772363408461698300,1.0466982421875,0.034786943481862544,0.11851122861206531,-0.016428572231531144,0.021037232130765915,-0.013081001117825508,-0.04341081529855728
1772363408471768000,1.05676806640625,0.014722791226953268,0.11778700599074363,-0.0405552977502346,0.036269981414079666,-0.008010076358914375,-0.04148348420858383
1772363408481837300,1.06683740234375,0.008778495869785546,0.1133399634540081,-0.057490065938234323,0.05375641584396362,-0.006822297349572182,-0.03776150569319725
1772363408491907000,1.076906982421875,-0.010570493853092193,0.09617606268525122,-0.017698153775930404,0.05889471620321274,0.003556573763489723,-0.038452863693237305
1772363408501976300,1.086976318359375,-0.05249971030503511,0.08623685247302054,0.017421674922108648,0.05575632303953171,0.013288233429193497,-0.03215150162577629
1772363408512046000,1.097046142578125,-0.07782119856625795,0.038598318463563916,0.0471346761405468,0.04964090883731842,0.018860630691051483,-0.0296875461935997
1772363408522115300,1.107115234375,-0.12957432828769086,-0.0032540333598852157,0.01439911223053932,0.042868390679359436,0.01608111709356308,-0.025432219728827477
1772363408532185000,1.11718505859375,-0.12162892224118113,-0.030219781696796417,-0.034676176583766934,0.04170725494623184,0.014793479815125465,-0.013126017525792122
1772363408542254300,1.12725439453125,-0.11769991222918033,-0.043108489364385605,-0.06464227578043938,0.0383075550198555,0.0120319202542305,-0.00440965685993433
1772363408552324400,1.137324462890625,-0.09822598095238208,-0.010185293927788735,-0.09206570475697518,0.029209664091467857,0.007528515532612801,0.0017925789579749107
1772363408562393000,1.14739306640625,-0.03794263103380799,0.02755143927037716,-0.0704103377878666,0.022350922226905823,0.0034948140382766724,0.005089692771434784
1772363408572463400,1.15746337890625,-0.009064765465259552,0.03273030321300029,-0.038113165295124055,0.01517263613641262,0.004309474490582943,0.005053473636507988
1772363408582532000,1.167531982421875,0.003031330519914627,0.05300912113189697,-0.029732290440797803,-0.005439027212560177,0.005573728121817112,-0.0011676531285047531
1772363408592602400,1.177602294921875,-0.0040877077050507065,0.051851767790317534,0.008198504024744034,-0.02407156676054001,0.008246475830674171,-0.000698404386639595
1772363408602671000,1.187671142578125,-0.011299246519058942,0.02897650363743305,0.05067980140149593,-0.03909807652235031,0.006921465042978525,-0.003984303679317236
1772363408612741000,1.1977412109375,-0.014753332495689392,-0.02259527816772461,0.01899579237103462,-0.03956253081560135,0.004852189216762781,0.0011055301874876022
1772363408622810000,1.20781005859375,-0.008753361428529024,-0.05299216999709606,-0.04181961859762669,-0.04255133494734764,0.0029495754279196262,0.0027473592199385166
1772363408632880000,1.217880126953125,0.009081716600060463,-0.053387891316413874,-0.06910977658331394,-0.04370102286338806,-0.002586603397503495,0.006791369523853064
1772363408642949000,1.22794921875,-0.0011461012952029704,-0.05106850845813751,-0.06862053176164627,-0.04206690564751625,-0.0023932578042149544,0.0035588243044912815
1772363408653023200,1.238023193359375,-0.012491232782602309,-0.03283259454369545,-0.009286883783340454,-0.028740182518959045,-0.00008056871592998505,-0.0027813632041215897
1772363408663092500,1.248092529296875,0.013147943125665187,0.009815876093506813,0.042454993891716,-0.014928558841347694,0.00502769136801362,-0.00841367244720459
1772363408673162200,1.258162353515625,0.04425868231281638,0.05876081652641296,0.07184475450515747,0.0011026058346033096,0.002453746274113655,-0.008764144033193588
1772363408683231200,1.268231201171875,0.02148936275243759,0.0570294626891613,0.051938277029991146,0.015692604705691338,-0.0017803627997636795,-0.009796367958188057
1772363408693301500,1.278301513671875,0.008416822950541972,0.04065349742770195,0.011023498317599295,0.028302138671278954,-0.003540446050465107,-0.012021439149975777
1772363408703370200,1.288370361328125,0.012992460303008555,0.07005085682570934,0.033871874463558195,0.03346173092722893,-0.001222417689859867,-0.011772507801651955
1772363408713440500,1.2984404296875,0.005506050070375204,0.08606617208123206,0.07866729400157928,0.035789333283901215,0.0033371802419424057,-0.016278043389320374
1772363408723509200,1.30850927734375,-0.008163432711362838,0.07120061138272285,0.09584054712057113,0.04254109784960747,0.017376843839883804,-0.023690741509199142
1772363408733579500,1.31857958984375,0.025574878500401972,0.048507718059420585,0.0938467429548502,0.042759742587804794,0.026284053921699524,-0.02404654026031494
1772363408743648300,1.328648193359375,0.05503419721871614,0.046781040397286415,0.08691782047450541,0.041496146470308304,0.02169180102646351,-0.0214999970048666
1772363408753717500,1.338717529296875,0.04058744645416736,0.03637655076086521,0.01022679498195648,0.03841380029916763,0.02519012987613678,-0.021586814895272255
1772363408763787300,1.348787353515625,0.029739450833946465,0.0092892218708992,-0.03261339883506298,0.03706543892621994,0.029100613668560982,-0.020097611472010612
1772363408773856500,1.3588564453125,0.031550445778667925,0.024420155507326124,-0.05440262131690979,0.033183347433805466,0.01675925962626934,-0.021316275000572205
1772363408783926300,1.36892626953125,0.01964724201709032,0.04965864166021347,-0.10282558370232582,0.029524054378271103,0.0036257016472518444,-0.019935067743062973
1772363408793995300,1.378995361328125,0.015257774886488914,0.05464052172601223,-0.10723170970678329,0.028101127594709396,0.0014256644062697887,-0.02161206118762493
1772363408804065300,1.389065185546875,-0.0070623396016657345,0.02621814484000206,-0.04281973555088043,0.022984981536865234,0.008692961186170578,-0.018572375178337097
1772363408814134300,1.39913427734375,-0.017215484825521706,0.019989479583501814,0.021895605465769765,0.02261080965399742,0.018609508872032166,-0.023552486672997475
1772363408824204300,1.409204345703125,-0.020960516572743653,0.0036029929280281064,0.024861469534039497,0.025616729632019997,0.026640690863132477,-0.02360651083290577
1772363408834273300,1.419273193359375,-0.011964286299049854,0.0040092356413602825,0.05301029017567634,0.020415043458342552,0.024505365639925003,-0.022360417991876602
1772363408844343300,1.42934326171875,0.012457768904417752,0.029624153891205787,0.028158172991871833,0.007733273319900036,0.017887461930513382,-0.02285735495388508
1772363408854412300,1.439412353515625,0.015115882197767496,0.03367722867429256,-0.00835632493495941,-0.0013654176145792007,0.013549704104661942,-0.023567618802189827
1772363408864482300,1.449482421875,0.0059000178240239615,0.0339238969117403,0.006375380250811576,-0.01103769987821579,0.012060262262821198,-0.01972499117255211
1772363408874551300,1.45955126953125,-0.010710925237089395,-0.00003565583527088165,0.012459668600559234,-0.019022654742002487,0.002135992981493473,-0.010901937261223793
1772363408884621300,1.469621337890625,-0.02970277208536863,-0.048071080207824704,0.0013747954845428467,-0.02110513672232628,-0.009629618376493454,-0.01267329789698124
1772363408894690300,1.479690185546875,-0.019837503892183302,-0.03780219964981079,-0.04018587991595268,-0.011989135295152664,-0.013519431464374065,-0.008719036355614662
1772363408904760300,1.48976025390625,-0.02562529351338744,0.01223638123869896,-0.07510112595260143,0.005993327125906944,-0.01176073681563139,-0.013169445097446442
1772363408914829300,1.499829345703125,-0.05687850991114974,0.07221592590510845,-0.0351484702706337,0.016537049785256386,-0.014778897166252136,-0.014741508290171623
1772363408924899300,1.5098994140625,-0.04008724184706807,0.10333528679013251,0.004477437674999237,0.023376014083623886,-0.01793093793094158,-0.016049496829509735
1772363408934968300,1.51996826171875,-0.0428654743887484,0.06448737747967243,0.005647650498151779,0.0270724818110466,-0.016764739528298378,-0.010910396464169025
1772363408945038300,1.530038330078125,-0.060555444858223194,0.013138298514485358,0.03060439710021019,0.028874235227704048,-0.01005830429494381,-0.00509916665032506
1772363408955107300,1.540107421875,-0.0598297609321773,0.009151859226822852,0.04065466647148132,0.025007857009768486,-0.006974097341299057,0.0020157340914011
1772363408965177300,1.55017724609375,-0.03494476439207792,0.03725333359539509,0.055987844681739805,0.026279937475919724,-0.0057201380841434,0.002945002168416977
1772363408975246300,1.560246337890625,0.006969839012622833,0.04074643640816211,0.08509235861301422,0.009356082417070866,0.001131642609834671,0.007134154438972473
1772363408985316400,1.57031640625,0.008135521791130303,0.03472878355383873,0.13783259967565537,-0.00661687133833766,0.0031974907033145428,0.006833042949438095
1772363408995385300,1.58038525390625,-0.034029110851883884,0.012053425887227057,0.11855448323190211,-0.019310561940073967,-0.0006736796349287033,0.006823988165706396
1772363409005455400,1.590455322265625,-0.03718362936004996,-0.006067337214946746,0.032035891208052635,-0.023081956431269646,0.0008263392373919487,0.00688274297863245
1772363409015524400,1.6005244140625,-0.04135010138973593,-0.04745908578932285,-0.0512999791264534,-0.02497439831495285,0.00014483602717518806,0.01190306805074215
1772363409025594000,1.610593994140625,-0.016836130119115115,-0.015537760871648787,-0.09715572137236594,-0.031135085970163345,-0.011339726857841015,0.02009974606335163
1772363409035663400,1.620663330078125,-0.036006548404693604,-0.028100889846682547,-0.13984686210751532,-0.03483448177576065,-0.00796843133866787,0.019774574786424637
1772363409045733000,1.630733154296875,-0.05260784685462713,-0.040136195555329324,-0.10860065997242926,-0.03868536651134491,0.0016822409816086292,0.01722904108464718
1772363409055802400,1.64080224609375,-0.015479600943624973,-0.0034118542701005936,-0.03793722420632839,-0.041678763926029205,0.0046058595180511475,0.020350798964500427
1772363409065872400,1.650872314453125,-0.003248480401933193,0.01161503446996212,-0.049262335819005965,-0.04172930866479874,-0.0010807253420352936,0.01477089710533619
1772363409075941400,1.66094140625,0.010329963095486163,0.030566987699270246,-0.11189444082081318,-0.03242555633187294,-0.013295046985149384,0.012266727164387703
1772363409086011400,1.671011474609375,0.013706453791260719,0.04731120175123214,-0.14021569541990755,-0.01738651655614376,-0.012053187936544418,0.006028135772794485
1772363409096080400,1.681080322265625,0.002880523872375488,0.09126432524621486,-0.09815700736939907,-0.007664647419005632,-0.012419106438755989,-0.00018049171194434166
1772363409106150400,1.691150390625,0.014470570031553507,0.13869126233160495,-0.011903203761577606,-0.003873949870467186,-0.01227019913494587,0.000036638230085372925
1772363409116219400,1.701219482421875,-0.0043988194808363915,0.12492401826381683,0.008329436928033828,-0.004133874550461769,-0.01059294119477272,0.0019756858237087727
1772363409126289400,1.711289306640625,-0.0076072601333260536,0.09102350222766399,0.03143441818356514,-0.004179910756647587,-0.014025677926838398,0.0012503871694207191
1772363409136358100,1.721358154296875,-0.011470073041319846,0.055258945885300635,0.044376317343115805,0.0025187386199831963,-0.012280508875846863,0.0032445620745420456
1772363409146428400,1.731428466796875,0.01576864701807499,0.060683893543481825,0.024509002834558487,0.0033455193042755127,-0.00994353462010622,0.00739298714324832
1772363409156497200,1.7414970703125,0.0038220425061881538,0.05661386762559414,0.009216741156578064,0.0034895967692136765,-0.0055948588997125626,0.012801600620150566
1772363409166567400,1.7515673828125,-0.019716800121963023,0.05397182868421077,-0.01856616878211498,-0.005365523975342512,-0.015185346826910973,0.013113281689584255
1772363409176636200,1.76163623046875,-0.016208792001008988,0.005211597168445587,-0.03899228621721267,-0.005778314080089331,-0.02684519812464714,0.012047750875353813
1772363409186706400,1.77170654296875,0.0235072784461081,-0.020518471893668174,-0.03739537241458893,-0.008484396152198315,-0.028627563267946243,0.010338883846998215
1772363409196775400,1.781775390625,0.05120017201378941,-0.02278817039132118,-0.013356325179338454,-0.020444652065634727,-0.013517585583031178,0.0064293635077774525
1772363409206844400,1.791844482421875,0.03743000533655286,0.017386603608727454,0.019314941322803498,-0.034006983041763306,-0.009374518878757954,0.006917318794876337
1772363409216914400,1.80191455078125,0.020965338878333566,0.003381459131836891,-0.0013619360029697416,-0.048498574644327164,-0.0175112746655941,0.006654997356235981
1772363409226983400,1.8119833984375,0.022875410283356903,-0.02272854915857315,-0.053255789369344705,-0.05908815190196037,-0.029645662754774094,0.0010302169248461723
1772363409237053400,1.822053466796875,0.023542934281378984,-0.042997430205345154,-0.0667804568529129,-0.06600730866193771,-0.032675810158252716,0.00486650038510561
1772363409247122200,1.8321220703125,0.008301672138273715,-0.055103463062644,-0.07985679604709148,-0.062156256288290024,-0.02825676091015339,-0.0006516235880553722
1772363409257192400,1.8421923828125,0.004906184481084347,-0.032199557337164876,-0.0528115527331829,-0.05323679745197296,-0.0268761795014143,-0.005447976756840944
1772363409267261200,1.85226123046875,0.0675460343979299,0.011153262177109718,-0.014705401700735091,-0.04703463613986969,-0.024320712313055992,-0.009951675310730934
1772363409277331500,1.86233154296875,0.10674524136409162,0.036328035444021224,0.04611760805249214,-0.03504641354084015,-0.02316010557115078,-0.011806568130850792
1772363409287400200,1.872400146484375,0.07900441700145602,0.06121463941931724,0.06843231571316719,-0.027429774403572083,-0.016744017601013184,-0.00859878957271576
1772363409297470200,1.88247021484375,0.031847675159573555,0.07276596100330353,0.06670914518237113,-0.014757655560970306,-0.011754052713513374,-0.008289331570267677
1772363409307539200,1.892539306640625,-0.0015123042590916157,0.08145254080593585,0.048094461083412164,-0.006012386176735163,-0.019602693617343903,-0.009799416176974773
1772363409317609200,1.902609130859375,0.026485855865478514,0.09190613028109074,0.005932897180318832,-0.0007313378155231476,-0.026181500405073166,-0.013723851181566715
1772363409327678200,1.91267822265625,0.027817542860656973,0.09988310050964355,-0.026236265018582342,0.008693855255842209,-0.024069081991910934,-0.01986483484506607
1772363409337748200,1.922748291015625,0.015509849951416254,0.09052373601198196,-0.004868482819199562,0.011065401136875153,-0.02192496880888939,-0.022063273936510086
1772363409347817500,1.9328173828125,0.006559650776535272,0.05583528446853161,0.00450257211625576,0.006432400085031986,-0.025705568492412567,-0.024999268352985382
1772363409357887200,1.94288720703125,0.004673983160406351,0.030267712491750715,0.009179916277527808,0.0018927762284874916,-0.022686609998345375,-0.027289055287837982
1772363409367956500,1.95295654296875,0.011565496239811181,-0.02079261265993118,0.026695699223875997,-0.011234660632908344,-0.010053650476038456,-0.027084728702902794
1772363409378026200,1.963026123046875,0.026276450898498296,-0.05551087481975555,0.053170449173450464,-0.026018932461738586,-0.005483399610966444,-0.021536830812692642
1772363409388095500,1.973095458984375,0.0031961656928062437,-0.0880126299738884,0.04930032974183559,-0.030942402780056,-0.01314689964056015,-0.01880316063761711
1772363409398165200,1.983165283203125,-0.012808335907757281,-0.08580255270898342,-0.0010977321088314056,-0.031227093189954758,-0.01946418359875679,-0.014100817032158375
1772363409408234200,1.993234130859375,0.01836976942718029,-0.010285831692814827,0.014748071798682212,-0.025299550965428352,-0.012963737361133099,-0.014744182117283344
1772363409418304300,2.00330419921875,0.025891981625556944,0.05875087965428829,0.02581424021422863,-0.016592612490057945,-0.005955362692475319,-0.01351459976285696
1772363409428373200,2.013373291015625,0.013760083674639463,0.07602993123531342,-0.015010522127151489,-0.0023971358314156532,-0.0002874326892197132,-0.017528938129544258
1772363409438443500,2.023443603515625,0.01497691211849451,0.08576105165481566,-0.02170505132973194,0.0027531515806913376,0.00793374516069889,-0.0203111432492733
1772363409448512300,2.03351220703125,0.02063990631625056,0.05496551589667797,0.006889759513735771,0.005481540225446224,0.004155746195465326,-0.01676894724369049
1772363409458582500,2.04358251953125,-0.002340133385360241,-0.013977671948075294,-0.00838555102944374,0.004621605388820171,0.00216210400685668,-0.01468928437680006
1772363409468651300,2.0536513671875,-0.016407821704447267,-0.054929860061407085,-0.031174305942654607,0.0009841425344347954,-0.000203592237085104,-0.012444717809557915
1772363409478721300,2.06372119140625,-0.004277677319198847,-0.07984276752173901,0.010984919872879981,-0.011389702558517456,0.005998643580824137,-0.010869458317756653
1772363409488790300,2.073790283203125,0.006538315727561712,-0.0767237587183714,0.07510112595260143,-0.020153651013970375,0.010559801012277603,-0.0087501872330904
1772363409498860300,2.0838603515625,0.024941402902454137,-0.07728314616680144,0.10336334384083748,-0.04129941761493683,0.012352107092738152,-0.014501016587018967
1772363409508929300,2.09392919921875,0.042012364690750835,-0.06784662477970123,0.1058019691646099,-0.06146201491355896,0.012371713295578957,-0.0160968080163002
1772363409518999300,2.103999267578125,0.06408025798350572,-0.06899228768348693,0.10067278958261013,-0.0701039731502533,0.015418371185660362,-0.018160760402679443
1772363409529068300,2.114068359375,0.01853299716487527,-0.08453004855513573,0.07739069819450378,-0.055603936314582825,0.0215267613530159,-0.023108676075935364
1772363409539138300,2.12413818359375,0.009374708197265862,-0.023564415460824967,0.06335223596990108,-0.03391248732805252,0.030868863686919212,-0.022497747093439102
1772363409549207300,2.134207275390625,0.004246259267628193,0.040867432439327236,0.0733463912397623,-0.005367873702198267,0.024172408506274223,-0.020383240655064583
1772363409559277300,2.14427734375,-0.009577245032042265,0.09664251115322113,0.03961304846405983,0.029132580384612083,0.02041149139404297,-0.02235477976500988
1772363409569346300,2.15434619140625,0.0011946166120469569,0.1059463460713625,0.0018377368211746215,0.05651314929127693,0.03294537961483002,-0.021664690226316452
1772363409579416300,2.164416259765625,0.03694236795008182,0.1357166304349899,0.11566109987795352,0.05875686928629875,0.005148902535438538,-0.016375387087464333
1772363409589485300,2.1744853515625,0.015061667792499064,0.08980828121900558,-0.04395955323576927,0.058353617787361145,-0.03228120133280754,-0.015074614435434341
1772363409599555300,2.184555419921875,0.03789119310751557,0.06473053858578205,-0.16268179425001145,0.05124750733375549,-0.027055814862251282,-0.01585785113275051
1772363409609624300,2.194624267578125,0.03826704068258405,0.0007733224600553512,0.016139818418025968,0.037738434970378876,0.0074424948543310165,-0.011433478444814682
1772363409619694300,2.2046943359375,-0.039067543410509824,-0.08266367016136646,0.18378186542391775,0.020939486101269722,0.027604488655924797,-0.01082068495452404
1772363409629763300,2.214763427734375,-0.09932605114877223,-0.12296645445525646,0.17582067728638648,0.006076609715819359,0.019480230286717415,-0.011699408292770386
1772363409639833000,2.2248330078125,-0.07367226219326257,-0.10793488954007625,0.04206161065995693,-0.011123948730528355,0.009225728921592236,-0.012721262872219086
1772363409649902300,2.23490234375,-0.022639409570395945,-0.08889584254920482,-0.10905775609016417,-0.019757289439439774,-0.007393114268779755,-0.012035396881401539
1772363409659972400,2.244972412109375,0.013250672847777605,-0.07256839260458946,-0.21323709248900413,-0.023452427238225937,-0.019689194858074188,-0.014948629774153233
1772363409670041300,2.255041259765625,0.058348290202766655,-0.026051556101441383,-0.2090063230514526,-0.029114317148923874,-0.019576430320739746,-0.018313303589820862
1772363409680111400,2.265111328125,0.06557941050007939,0.014016834914684294,-0.0812111332654953,-0.039701979607343674,-0.013917478732764721,-0.01744724251329899
1772363409690180400,2.275180419921875,0.04407090465575456,0.03602174597382545,0.03214987297654152,-0.03708896040916443,-0.015061672776937485,-0.020697925239801407
1772363409700250400,2.28525048828125,0.03165522132739425,0.051989714956283566,0.06985621103644371,-0.03124997764825821,-0.009901266545057297,-0.02618536911904812
1772363409710319400,2.2953193359375,0.04366802294328809,0.06924129400849342,0.053711131921410554,-0.012850327417254448,-0.00881539098918438,-0.028283389285206795
1772363409720389400,2.305389404296875,0.051475043432414526,0.08714286140203475,0.024877251625061034,0.0006534969434142113,-0.001278111943975091,-0.02758990041911602
1772363409730458400,2.315458251953125,0.005579699828475713,0.07426350608468055,-0.020026304462552068,0.010102235712110996,-0.0077031319960951805,-0.025792624801397324
1772363409740528400,2.3255283203125,-0.07020707030072808,0.04366320063769817,-0.051070262023806566,0.01604641228914261,-0.016736840829253197,-0.024457581341266632
1772363409750597000,2.33559716796875,-0.10807532092407345,0.012148118433356284,-0.01824468174278736,0.016937201842665672,-0.024901583790779114,-0.022923748940229416
1772363409760667400,2.34566748046875,-0.11868439322188495,-0.04182663286030292,0.021786884394288063,0.018567590042948723,-0.02715142071247101,-0.02186434343457222
1772363409770736000,2.355736083984375,-0.08309767766445875,-0.03819616740345955,0.06684475426077842,0.02404995635151863,-0.030942469835281372,-0.01933308318257332
1772363409780806400,2.365806396484375,-0.03942687824219465,-0.020066636472940443,0.07151800676882267,0.021066151559352875,-0.022062692791223526,-0.01789018139243126
1772363409790875400,2.37587548828125,-0.048129824657738206,-0.034870237851142884,0.028466216027736663,0.015621334314346313,-0.013794602826237679,-0.011243658140301704
1772363409800945400,2.3859453125,-0.06398644222021102,-0.0703314273327589,-0.01014145478606224,0.010357063263654709,-0.01025313138961792,-0.006725871469825506
1772363409811014400,2.396014404296875,-0.05089812032729387,-0.06589432166814804,-0.014525368958711623,0.0045781247317790985,-0.014282483607530594,-0.007131259888410568
1772363409821084200,2.406084228515625,-0.057190060078352686,-0.060517889326810834,-0.049205052673816675,0.00669187493622303,-0.01876698061823845,-0.008741406723856926
1772363409831153400,2.4161533203125,-0.03521642094030976,0.013076923716068268,-0.11906769345104694,0.0013877395540475845,-0.029949072748422623,-0.014781658537685871
1772363409841223200,2.42622314453125,0.02560936529189348,0.12216624398827552,-0.10888824474215507,-0.01028090063482523,-0.039762288331985474,-0.017470385879278183
1772363409851292400,2.43629248046875,0.03642696577385068,0.15995090798139572,-0.051746553850173946,-0.014085528440773487,-0.057103753089904785,-0.023459449410438538
1772363409861362200,2.446362060546875,0.0277042917445302,0.13672083904147148,-0.019351181679964063,-0.02406173013150692,-0.06441120058298111,-0.02510954439640045
1772363409871431400,2.456431396484375,0.041818011162430044,0.1021159741282463,0.010623100823163985,-0.03234328702092171,-0.05955882370471954,-0.025539081543684006
1772363409881501400,2.46650146484375,0.042718759394437075,0.02217909858226776,0.02676876446008682,-0.03440643846988678,-0.04852401465177536,-0.024643994867801666
1772363409891570400,2.4765703125,0.027921733887493607,-0.010184709405899047,0.06634381900131701,-0.03783021867275238,-0.04313135892152786,-0.022975333034992218
1772363409901640400,2.486640380859375,0.03951616396084428,-0.04209259032011032,0.11251754115521907,-0.04716353118419647,-0.039302267134189606,-0.022730322554707527
1772363409911709200,2.496709228515625,0.001994388687610626,-0.08588029412031173,0.09991700277924537,-0.04761848598718643,-0.038150496780872345,-0.019440583884716034
1772363409921779500,2.506779541015625,-0.028025340392440555,-0.0927834976375103,0.06854571295976639,-0.038726188242435455,-0.0331227108836174,-0.01994232088327408
1772363409931848200,2.51684814453125,-0.03757686646133661,-0.0714946258932352,0.04000292456448078,-0.021853849291801453,-0.03283802792429924,-0.020928170531988144
1772363409941918500,2.52691845703125,-0.04283391020670533,-0.040294600987434384,0.016116437542438505,-0.008772669360041618,-0.030382860451936722,-0.021527115255594254
1772363409951987200,2.5369873046875,-0.03103241325393319,-0.012290157252550124,0.031900866651535034,0.004564037546515465,-0.02581963874399662,-0.02112020179629326
1772363409962057500,2.547057373046875,-0.034255320823192596,0.0016840075641870497,0.08830956709384917,-0.0007207393646240234,-0.01896173320710659,-0.017169402912259102
1772363409972126200,2.557126220703125,-0.058579322479665276,-0.039838089391589164,0.1428454594016075,-0.004376277327537537,-0.015705740079283714,-0.014645056799054146
1772363409982195500,2.567195556640625,-0.050207799975574015,-0.09172142136394977,0.13306757723093032,-0.007276460062712431,-0.01705170050263405,-0.006724548991769552
1772363409992265200,2.57726513671875,0.0078350775398314,-0.10232172583341598,0.06040040042698383,0.000683278776705265,-0.017912182956933975,-0.0003211800940334797
1772363410002335200,2.587335205078125,0.02061754835397005,-0.0946568902939558,0.02182137118577957,0.004322754219174385,-0.02395995333790779,-0.004164920654147863
1772363410012404200,2.597404296875,0.07578077877983451,-0.025762217766046522,0.018009119421243665,0.007867973297834396,-0.020324965938925743,-0.010376935824751854
1772363410022474200,2.60747412109375,0.12555807838365435,0.04427519505620003,0.052985740256309505,0.007158506661653519,-0.010828133672475815,-0.0180676132440567
1772363410032543500,2.61754345703125,0.11558569655418395,0.10850304481685161,0.09333177917003631,0.009637796320021152,0.0013240170665085316,-0.019498705863952637
1772363410042612200,2.6276123046875,0.05920315346643328,0.11709317850768565,0.06400163978934288,0.011165385134518147,0.0018467959016561508,-0.02234802208840847
1772363410052682500,2.6376826171875,-0.0034128771834075447,0.07110358074903488,-0.0022469021439552304,0.02330198511481285,-0.008271865546703339,-0.023314068093895912
1772363410062752300,2.647752197265625,0.0008661153100430965,0.03890051628053188,-0.06645780076980591,0.030897319316864014,-0.014508189633488655,-0.023150017485022545
1772363410072821500,2.657821533203125,0.026062077495455742,0.031334464940428734,-0.08189093222320079,0.034466616809368134,-0.015124225988984108,-0.018203482031822205
1772363410082890200,2.66789013671875,0.03967252356633544,0.023559154763817786,-0.053583121627569195,0.035801127552986145,-0.01574127934873104,-0.019933471456170082
1772363410092960300,2.677960205078125,0.04053308591842651,0.004622983625531196,-0.02600187174081802,0.02410598285496235,-0.01581382378935814,-0.01967196725308895
1772363410103030300,2.6880302734375,0.04112316076606512,-0.01317395434975624,-0.03490940081775188,0.01653514802455902,-0.01821759343147278,-0.018297242000699043
1772363410113099300,2.698099365234375,0.01916618050187826,-0.03641279111802578,-0.031385318344831464,-0.001706375740468502,-0.012927809730172157,-0.013515280559659004
1772363410123168300,2.708168212890625,-0.021212153246253727,-0.08722820159792899,-0.024058920979499816,-0.011457007378339767,-0.006208920385688543,-0.011793812736868858
1772363410133238300,2.71823828125,-0.05220408835932612,-0.10518120691776275,-0.01955050364434719,-0.01753678359091282,0.005299223121255636,-0.009976920671761036
1772363410143308300,2.728308349609375,-0.03899769304469228,-0.09098901543617248,-0.013207272097468376,-0.023704398423433304,0.01339976117014885,-0.011252841912209988
1772363410153377300,2.738377197265625,-0.0003999591030180454,-0.042936639928817744,-0.021229835033416748,-0.03330626338720322,0.013157120905816555,-0.009980520233511925
1772363410163446500,2.748446533203125,0.022306816615164277,-0.025284663382172584,-0.027315876948833463,-0.03747943416237831,0.012457507662475109,-0.011799193918704987
1772363410173516300,2.758516357421875,0.041778994326293464,0.0035620763957500455,0.022679449319839475,-0.04670381546020508,0.005422654096037149,-0.014370172284543514
1772363410183586300,2.76858642578125,0.04075155097469687,0.011027589970827102,0.07834288435280323,-0.04718904197216034,0.0005538626573979855,-0.010869181714951992
1772363410193655300,2.7786552734375,-0.009907207638770342,-0.0029980127722024916,0.06977905414700508,-0.038847170770168304,0.01205398514866829,-0.0047884308733046055
1772363410203724300,2.788724365234375,-0.046735301559418435,-0.01118365731537342,0.07549392466247082,-0.026940176263451576,0.025925859808921814,0.0006212480366230011
1772363410213794300,2.798794189453125,-0.06554024753347039,-0.01786006633937359,0.1087035358250141,-0.015480764210224152,0.025256695225834846,0.007547200191766024
1772363410223863300,2.80886328125,-0.07813800943046807,-0.03290624430179596,0.09641571666002273,0.008693280629813671,0.02203720062971115,0.010013286955654621
1772363410233933300,2.818933349609375,-0.05855199608132243,-0.01725683974921703,0.02895896798074245,0.02893908880650997,0.023965811356902122,0.013359220698475838
1772363410244002300,2.829002197265625,-0.004141337588429451,0.030240239962935445,0.02515197691321373,0.04109455645084381,0.024338921532034874,0.012993035838007927
1772363410254072300,2.839072265625,0.014587766670435666,0.09161679194569587,0.015205167916417121,0.04787176847457886,0.013973630964756012,0.01668177917599678
1772363410264141300,2.849141357421875,-0.008184767760336399,0.08394143501222133,-0.01810615005493164,0.05548175424337387,0.013855919241905212,0.015496673062443733
1772363410274211300,2.85921142578125,-0.026445962246507405,0.023073417073488235,0.030758710879087447,0.04102339223027229,0.020825352519750595,0.01746506057679653
1772363410284280300,2.8692802734375,-0.020890227815508842,-0.022878186762332914,0.09077741851210594,0.02759386971592903,0.02139553427696228,0.012376027181744576
1772363410294350300,2.879350341796875,0.016470365546643734,-0.03521276767849922,0.10124562103450298,0.011695979163050652,0.029950208961963654,0.011610578745603561
1772363410304419300,2.88941943359375,0.04814721418395638,-0.0335275910705328,0.081368369653821,-0.0010906551033258438,0.03470901399850845,0.012332029640674591
1772363410314489300,2.8994892578125,0.04891059977188706,-0.03650456105470657,0.013123685467243193,-0.01457336638122797,0.03228802978992462,0.016752904281020164
1772363410324558300,2.909558349609375,0.006644844841957092,-0.04891980599164963,-0.13470599208772183,-0.024857960641384125,0.012345748022198677,0.020985731855034828
1772363410334628400,2.91962841796875,0.01314998895227909,-0.04552840998768806,-0.23766484678089617,-0.030626893043518066,-0.0016609937883913517,0.021965280175209045
1772363410344697300,2.929697265625,0.054364335133135315,-0.01087561427950859,-0.16233634181320666,-0.036093562841415405,0.0032445485703647137,0.018226999789476395
1772363410354767400,2.939767333984375,0.0681117054566741,0.012488310173153877,-0.03270224616229534,-0.03439097851514816,0.009427271783351898,0.011649634689092636
1772363410364836000,2.949836181640625,0.08016030903831124,0.029340076252818106,0.04694236843883991,-0.02391223981976509,0.020657822489738464,0.011735388077795506
1772363410374906400,2.95990625,0.07727437833845614,0.01564706646502018,0.06843231571316719,-0.012334473431110382,0.025863494724035263,0.013214252889156342
1772363410384975400,2.969975341796875,0.0627393647685647,0.025522563791275023,0.045781507965922355,-0.0007475921884179115,0.028983652591705322,0.01850968226790428
1772363410395045400,2.98004541015625,-0.01649929938018322,-0.013708207356929777,-0.02133037279844284,0.012801902368664742,0.017733823508024216,0.02405995875597
1772363410405114400,2.9901142578125,-0.060222998033463954,-0.020243162083625792,-0.06359072090089321,0.02240685746073723,0.01625709980726242,0.023614410310983658
1772363410415184400,3.000184326171875,-0.04862213821932673,-0.01640168422460556,-0.015435469540953635,0.029159201309084892,0.019571436569094658,0.01791990175843239
1772363410425253400,3.01025341796875,-0.025996026521921158,0.004787818798422813,0.05303776270449161,0.03817213326692581,0.021528860554099083,0.018300732597708702
1772363410435323100,3.0203232421875,-0.025520956356078386,0.008601824128627776,0.0546504585981369,0.04351124167442322,0.021613549441099167,0.020415017381310463
1772363410445392400,3.030392333984375,0.008659107273817062,-0.0059761518001556395,0.025671616873145103,0.048312656581401825,0.015598533675074577,0.023680586367845535
1772363410455462100,3.040462158203125,0.0225162215821445,-0.009020341801643371,-0.003715221130847931,0.054307352751493454,0.01447245106101036,0.025588445365428925
1772363410465531400,3.050531494140625,0.04971928580626845,0.03963701386153698,-0.011261983248591423,0.050959762185811996,0.012189323082566261,0.025586050003767014
1772363410475601400,3.060601318359375,0.07679317069277167,0.067996262383461,0.03871522284150123,0.04690007120370865,0.010958272963762283,0.02307373471558094
1772363410485670400,3.07067041015625,0.04798427870720624,0.0574082328736782,0.031014146944880482,0.04124990850687027,0.009211773052811623,0.023214083164930344
1772363410495740400,3.080740478515625,0.01013341761007905,0.03838789058327675,-0.017461422410607337,0.03677967190742493,0.0034456984139978886,0.011046954430639744
1772363410505809400,3.090809326171875,0.045484278585016726,0.08913257391452789,-0.02001929019987583,0.028569679707288742,0.00002034055069088936,0.0049672238528728485
1772363410515879400,3.10087939453125,0.0938448432587087,0.120028062915802,0.02282441074848175,0.021643294021487236,0.012976597994565964,0.003149735275655985
1772363410525948200,3.1109482421875,0.05929945344775915,0.06547463495135307,0.03736673084199428,0.022972477599978447,0.01904061622917652,0.0011547617614269257
1772363410536018400,3.121018310546875,0.021263591172546146,0.007725625815987586,-0.027770634979009626,0.02605792135000229,0.017873745411634445,0.0025794515386223793
1772363410546087200,3.131087158203125,0.015476386073231697,-0.055122167763113974,-0.08464753745496273,0.028508029878139496,0.0429958775639534,0.012461377307772636
1772363410556157400,3.141157470703125,-0.004105681753158569,-0.1263449909776449,0.0007008417457342147,-0.00918074045330286,0.06214723736047745,0.021192092448472977
1772363410566226200,3.15122607421875,-0.06498524399921297,-0.17657880217730998,0.09551730651557445,-0.016824811697006226,0.02774292603135109,0.024165242910385132
1772363410576296400,3.16129638671875,-0.084855919508636,-0.1462222423583269,-0.141264912211895,-0.00752896536141634,0.016563761979341507,0.01901448890566826
1772363410586365200,3.171365234375,-0.03343640565574169,-0.098996380802989,-0.16007950279712677,0.009956284426152706,0.02747819572687149,0.009502209722995758
1772363410596435200,3.181435302734375,0.023570406810194254,0.0197200149923563,0.009933364993333816,0.027461590245366096,0.041804924607276917,0.006675062235444784
1772363410606504400,3.19150439453125,0.024858985316008327,0.10509002150297164,0.06741466310322285,0.03719917684793472,0.05249405279755592,0.004448659718036652
1772363410616574200,3.20157421875,-0.009458294827491045,0.1068733977884054,0.03556348081231117,0.04245670512318611,0.0462377667427063,0.0016943542286753654
1772363410626643500,3.2116435546875,-0.02581248664855957,0.04746259292066097,-0.006872223857045173,0.04321597144007683,0.042068056762218475,0.003490390256047249
1772363410636713200,3.221713134765625,-0.006137625972181558,-0.00994447090923786,-0.020929390782117842,0.044236235320568085,0.04462164640426636,0.01114035677164793
1772363410646780200,3.2317802734375,0.026155162606388328,0.0050911856591701506,0.02145370691716671,0.039838291704654694,0.042574476450681686,0.01303626038134098
1772363410656849400,3.241849365234375,0.02827186249941587,0.017112462842464447,0.045945758616924286,0.026753272861242294,0.04083498567342758,0.010049352422356606
1772363410666918400,3.25191845703125,0.03787628779932856,0.016583470532298087,0.01949088241159916,0.0132811414077878,0.027547411620616913,0.005089747253805399
1772363410676988400,3.261988525390625,0.08147665233388543,0.04045475998520851,-0.009607201778888701,0.0006457194685935974,0.018016105517745018,0.003368858713656664
1772363410687058400,3.272058349609375,0.09951645915433764,0.06369476579725741,-0.021698621588945387,-0.013081278651952744,0.012174993753433228,-0.0013782260939478874
1772363410697127400,3.28212744140625,0.07940569127872586,0.060333180409669875,-0.007340425890684127,-0.020911209285259247,0.007225651293992996,-0.0009929877705872059
1772363410707196400,3.292196533203125,0.009624445174634457,0.008624035960435867,-0.03599661153256893,-0.025367209687829018,0.003226648084819317,-0.0037520225159823895
1772363410717266400,3.302266357421875,-0.013626812683790922,-0.02660626737475395,-0.03519757010936737,-0.02500394731760025,0.0018204362131655216,-0.005011696368455887
1772363410727335400,3.31233544921875,-0.02055880390405655,-0.041025253349542615,-0.02908931636214256,-0.017762811854481697,-0.0048206886276602745,-0.008291912265121937
1772363410737405200,3.3224052734375,-0.020325871931016443,-0.024940379989147186,-0.08688216463923454,-0.0020759766921401024,-0.018938599154353142,-0.011414660140872002
1772363410747475500,3.332475341796875,-0.008864712848514318,0.0232318225055933,-0.16503858650922773,0.01556347031146288,-0.03108660690486431,-0.015714067965745926
1772363410757544200,3.342544189453125,0.02146539735496044,0.051388826453685754,-0.19255787707567215,0.03304588049650192,-0.04421638324856758,-0.01614326983690262
1772363410767613400,3.352613525390625,0.029179917255043982,0.07565233009457588,-0.17015782921910286,0.043899066746234894,-0.06184224784374237,-0.015890268608927727
1772363410777683200,3.36268310546875,0.028115795154869554,0.07672609680593014,-0.14273089311122894,0.04899945482611656,-0.06475695222616196,-0.015706079080700874
1772363410787752400,3.37275244140625,0.03506327620521187,0.074296239310503,-0.0522106642305851,0.04399244859814644,-0.05549927055835724,-0.014744676649570465
1772363410797822500,3.382822509765625,0.016072306139767168,0.05265606991052627,0.04431728063225746,0.037946201860904694,-0.04182004556059837,-0.011909237131476402
1772363410807892200,3.392892333984375,-0.001558335357904434,0.032470190972089766,0.05794540849030017,0.023908942937850952,-0.04442834481596947,-0.01213960163295269
1772363410817961500,3.40296142578125,-0.012435849333554506,0.007903320470452307,0.022051088288426397,0.010459814220666885,-0.04539318382740021,-0.010855553671717644
1772363410828030500,3.413030517578125,0.002717880656570196,-0.005052607214450836,0.010884382107853889,0.0012351581826806068,-0.039602138102054596,-0.012556513771414757
1772363410838100500,3.4231005859375,0.033577859953045845,-0.012118307816982268,0.0567635052293539,-0.021468115970492363,-0.04339968040585518,-0.011429831385612488
1772363410848170200,3.433170166015625,0.04729030509367585,-0.016422727012634277,0.10222820233106612,-0.04022609069943428,-0.04881734773516655,-0.0034251692704856396
1772363410858239500,3.443239501953125,0.03143237235695123,-0.028156419426202773,0.08921089984774588,-0.04610057547688484,-0.03395828604698181,0.0018749907612800598
1772363410868308200,3.45330810546875,-0.028189444912970065,-0.05632803642153739,0.1337830320239067,-0.030165016651153564,-0.01697557419538498,0.011585142463445663
1772363410878378500,3.46337841796875,-0.07279314127117395,-0.017624504017829893,0.16320786395072936,-0.01159294880926609,-0.004621950443834066,0.01486874558031559
1772363410888448500,3.473448486328125,-0.10417962865978479,0.03083528324663639,0.09907295317053794,0.015072218142449856,0.006912998855113983,0.015453575178980827
1772363410898517200,3.483517333984375,-0.10365268217623233,0.060085927650332445,0.04660334574282169,0.024646814912557602,0.010085622780025005,0.022922145202755928
1772363410908587500,3.49358740234375,-0.0973708254277706,0.040510289564728734,0.04610007239580154,0.03350022807717323,0.01815366931259632,0.029453281313180923
1772363410918656300,3.50365625,-0.11800897817835211,-0.08095978885293006,0.050562897023558616,0.036352530121803284,0.029829559847712517,0.037057094275951385
1772363410928726500,3.5137265625,-0.0885338773690164,-0.1383931561678648,0.07274141108393668,0.03618421405553818,0.04399651288986206,0.04346013069152832
1772363410938795300,3.523795166015625,-0.04223930531442165,-0.12395429644882679,0.1165332065373659,0.029470358043909073,0.059450436383485794,0.05219332128763199
1772363410948864500,3.533864501953125,0.0109884270042181,-0.05014379482865333,0.1546978097587824,0.021136794239282608,0.06291121244430542,0.04439718648791313
1772363410958934300,3.543934326171875,0.08348463115543127,0.048179216757416723,0.143974755692482,0.0055105965584516525,0.05690309405326843,0.03856339305639267
1772363410969003500,3.55400341796875,0.13129852173179388,0.14762334132790564,0.09798691149950027,-0.002622697502374649,0.04541768133640289,0.024097636342048645
1772363410979073300,3.5640732421875,0.12691811469048261,0.21800328397750854,0.04289689244031906,-0.006145038641989231,0.03542819991707802,0.015623541548848152
1772363410989143300,3.574143310546875,0.11282368449494241,0.22952362590134143,-0.03242401374280453,-0.01549646258354187,0.02237311564385891,0.011056486517190933
1772363410999212300,3.58421240234375,0.08686915902718902,0.12703589585125447,-0.08960486760139465,-0.026921305805444717,-0.001167031703516841,0.01233900897204876
1772363411009282300,3.5942822265625,0.08848580044358968,0.00945171895623207,-0.11745324399173258,-0.03131818398833275,-0.006400143261998892,0.012682557106018066
1772363411019351300,3.604351318359375,0.07302738841846584,-0.05840075104236602,-0.07298983288705349,-0.03858669102191925,0.0033143293112516403,0.013991987332701683
1772363411029420300,3.614420166015625,0.04555778221264481,-0.056305824589729304,0.06061024378538132,-0.041198987513780594,0.021017426624894142,0.01632598042488098
1772363411039490600,3.624490478515625,-0.012465952210873365,-0.02519464701116085,0.13902151719927788,-0.03501089662313461,0.03360152989625931,0.00996411219239235
1772363411049560300,3.634560302734375,-0.049230771636962885,0.025257190853357314,0.12118190912604332,-0.03416134789586067,0.03722476214170456,0.010768386535346508
1772363411059629600,3.644629638671875,-0.03724558868035674,0.07012392206192017,0.045565819388628005,-0.028393574059009552,0.03418766334652901,0.013408239930868149
1772363411069699300,3.65469921875,-0.07612681573852896,0.03310731983184814,-0.04200374299287796,-0.017684737220406532,0.02655690722167492,0.024812161922454834
1772363411079768300,3.664768310546875,-0.09107128689214587,-0.00023906945288181304,-0.05438216305077076,-0.006822354160249233,0.025065157562494278,0.03006453812122345
1772363411089838300,3.67483837890625,-0.11257365525662898,-0.01816226415634155,-0.008758475995063781,0.006906773895025253,0.028734460473060608,0.03432106971740723
1772363411099907300,3.6849072265625,-0.09635434186160564,-0.0076554831892251965,0.041352001085877416,0.021199744194746017,0.023006169125437737,0.03810134530067444
1772363411109977300,3.694977294921875,-0.06495645629614591,0.019494974064826965,0.02388356441259384,0.025271184742450714,0.0209299698472023,0.04334111511707306
1772363411120046300,3.70504638671875,-0.049891135241836304,0.03262684283852577,-0.016924246793985367,0.03251688554883003,0.014239329844713211,0.04251781105995178
1772363411130116400,3.715116455078125,-0.04432590233013033,0.018757307440042496,-0.05322480970919132,0.037591807544231415,0.018100114539265633,0.041339367628097534
1772363411140185300,3.725185302734375,-0.024770576380193234,0.0557569585353136,-0.061325114056468004,0.037139251828193665,0.014834824949502945,0.03959013521671295
1772363411150255400,3.73525537109375,-0.006876169379800558,0.08494739718437194,-0.0766097769498825,0.022043658420443535,0.0036434228532016277,0.035827357321977615
1772363411160324400,3.745324462890625,0.03978898955285549,0.0954191068381071,-0.09819617033600807,0.006191503256559372,-0.0153657803311944,0.03135902062058449
1772363411170394400,3.755394287109375,0.05997706044837832,0.03224047386944294,-0.12675590986609458,-0.004088031128048897,-0.027172373607754707,0.02595706470310688
1772363411180463400,3.76546337890625,0.073051353815943,0.02521978145241737,-0.10477087255120276,-0.015362761914730072,-0.030826035887002945,0.016929326578974724
1772363411190533400,3.775533447265625,0.06949234616011381,0.08177168975770473,-0.015531331130862235,-0.03340940922498703,-0.020344633609056473,0.013010750524699688
1772363411200602400,3.785602294921875,0.06910685397386551,0.09946166022717952,0.06923603331148624,-0.04969029128551483,-0.016403967514634132,0.013378597795963287
1772363411210672400,3.79567236328125,0.04051657317504286,0.020799042400717734,0.0429781409829855,-0.06398002058267593,-0.022960137575864792,0.01182490959763527
1772363411220741400,3.805741455078125,0.004276946666836738,-0.06207505564093589,-0.017845453292131424,-0.07644356787204742,-0.023396188393235207,0.020567718893289566
1772363411230811400,3.815811279296875,-0.022049334722757337,-0.0975064345061779,-0.05455810413956642,-0.08308921754360199,-0.014127057045698166,0.02438163012266159
1772363411240880000,3.825880126953125,-0.040150954733043906,-0.09209785346090793,-0.031105916881561276,-0.0792011171579361,-0.014987265691161156,0.026163607835769653
1772363411250950400,3.835950439453125,-0.016337386816740036,-0.0691284812837839,0.01609539475440979,-0.06850612908601761,-0.0126721803098917,0.026350561529397964
1772363411261019400,3.846019287109375,0.011043079800903797,-0.03790449098050594,0.06171908181011677,-0.05392291769385338,-0.007408022880554199,0.02774289809167385
1772363411271089400,3.85608935546875,0.012642770082503557,-0.004038461735844612,0.06637187605202198,-0.03426745906472206,-0.005087877158075571,0.02918579988181591
1772363411281158400,3.866158447265625,0.0028564123444259166,0.005232639956474304,0.05502396808564663,-0.013084410689771175,0.012489518150687218,0.024953769519925117
1772363411291228400,3.876228515625,0.006145955409109592,0.0365296954959631,0.047588265126943585,0.004111354239284992,0.02105397917330265,0.02268315851688385
1772363411301297400,3.88629736328125,0.005247545264661312,0.06004676468372345,0.025125088906288146,0.011572632007300854,0.02543085813522339,0.02479756996035576
1772363411311367200,3.8963671875,-0.013953998811542988,0.02806581853330135,-0.05634674112200737,0.017082978039979935,0.016133496537804604,0.021830275654792786
1772363411321436400,3.9064365234375,-0.02831087933555245,0.007516366979479789,-0.1091746604681015,0.017690489068627357,0.003277053590863943,0.014202367514371872
1772363411331506200,3.916506103515625,0.01092003794312477,0.006069675302505493,-0.09948913275599479,0.019475605338811874,-0.006422445643693209,0.007874696515500546
1772363411341575400,3.926575439453125,0.07810834494456648,0.049802434045076366,-0.030126258194446563,0.02086130529642105,-0.007023462560027838,0.0024955989792943
1772363411351645400,3.9366455078125,0.10494681363999843,0.07924363258481025,0.01087386071383953,0.018165122717618942,0.003486170433461666,0.0026521924883127213
1772363411361714400,3.94671435546875,0.08710092195644974,0.058414779567718504,0.02587912214398384,0.009159881621599197,0.016735203564167023,0.0019415514543652534
1772363411371784400,3.956784423828125,0.05988908990398049,0.03108136696219444,0.04852057754099369,-0.0027287350967526436,0.02466636337339878,0.0023391610011458397
1772363411381853400,3.966853515625,0.021474457444250583,-0.002000233906507492,0.01930558897256851,-0.01673578843474388,0.016787314787507057,0.00013130856677889824
1772363411391923500,3.97692333984375,0.011743044763803482,-0.025840543699264525,-0.032545594295859334,-0.02341393008828163,0.013705771416425705,-0.006008608732372522
1772363411401992400,3.986992431640625,0.04535772959589958,-0.022525720062851903,-0.060685647109150885,-0.020609788596630096,0.004988206550478935,-0.012705789878964424
1772363411412062500,3.9970625,0.0996181659631431,0.05760229414105415,-0.05322597875297069,-0.009189886972308159,-0.0021645112428814173,-0.017527975142002106
1772363411422131200,4.007131103515625,0.10180778496190905,0.10514262847304344,-0.07457680981755256,-0.001030552200973034,-0.023035496473312378,-0.020240893587470055
1772363411432201500,4.017201416015625,0.0813894124418497,0.12099310855567455,-0.1426759480535984,0.013861311599612236,-0.01908096857368946,-0.01858094520866871
1772363411442270200,4.027270263671875,0.0313369491584599,0.08894552690982818,-0.10826865153908728,0.019295457750558853,-0.014700950123369694,-0.02243761345744133
1772363411452340500,4.037340576171875,0.010458119519799948,0.08477028705179691,0.023066402810811994,0.011939541436731815,-0.03325838968157768,-0.022528959438204765
1772363411462409200,4.0474091796875,-0.011665595613420008,0.005147299760580063,-0.03137655051648617,0.009823799133300781,-0.03918600454926491,-0.02707761898636818
1772363411472479200,4.057479248046875,-0.013186083178967236,-0.012317629781365394,-0.01895136870741844,0.015268364921212196,-0.028891822323203087,-0.028252873569726944
1772363411482548500,4.067548583984375,-0.004870820906758308,-0.002353285127878189,0.07734861261844635,0.007511952891945839,-0.017108701169490814,-0.02614559605717659
1772363411492618200,4.0776181640625,-0.008330021449923515,-0.01285071374475956,0.12468611785471438,-0.0012333355844020844,-0.0148814981803298,-0.022943943738937378
1772363411502687500,4.0876875,-0.02849719568789005,-0.04139291761815548,0.05540390731394291,-0.007884688675403595,-0.011677895672619343,-0.022386454045772552
1772363411512757200,4.09775732421875,-0.034718700551241634,-0.04408873257339001,0.033548049336671826,-0.009806692600250244,-0.004920390900224447,-0.019869498908519745
1772363411522826500,4.107826416015625,-0.016083412055671212,0.0030021044254302976,0.06212064834833145,-0.016309572383761406,-0.011696876958012581,-0.02023557387292385
1772363411532896300,4.117896240234375,0.002733955008536577,0.04533317967653274,0.04646832118630409,-0.024129146710038185,-0.014994669705629349,-0.01865685172379017
1772363411542965500,4.127965576171875,-0.017409546092897653,0.029441198539733884,-0.005398644173145294,-0.022997669875621796,-0.014527577906847,-0.011694421991705894
1772363411553035300,4.13803515625,-0.059376464206725356,0.0015828852772712706,-0.03667114979326725,-0.011256059631705284,-0.009087538346648216,-0.007390221115201712
1772363411563104500,4.1481044921875,-0.07410276256501674,0.004497895941138267,-0.028315409380197522,-0.004071165807545185,-0.014866769313812256,-0.007050852756947279
1772363411573174500,4.158174560546875,-0.0670863079316914,0.0027706337571144104,0.011125789648294448,-0.0071641611866652966,-0.021544646471738815,-0.0015695341862738132
1772363411583243300,4.1682431640625,-0.09668795773014426,-0.06476677894294261,0.027990999731421468,-0.0010368945077061653,-0.021338358521461487,0.002776993438601494
1772363411593313500,4.1783134765625,-0.14706658422797916,-0.11244622948467731,0.046745969083905214,0.01395031064748764,-0.00782414898276329,0.0065749273635447025
1772363411603382300,4.18838232421875,-0.12386457233875989,-0.0816904412150383,0.07254734981656075,0.01422259584069252,0.0031951270066201687,0.007755680941045284
1772363411613452500,4.19845263671875,-0.07671937480419874,-0.04322480922043323,0.050607320687174794,0.01163080707192421,-0.005938450340181589,0.006804666016250849
1772363411623521300,4.208521240234375,-0.04698839953765273,0.0005652326673269272,-0.007180266892910003,0.014223320409655571,-0.015182115137577057,0.0020458358339965343
1772363411633591300,4.21859130859375,-0.013985124602168797,0.05098784443736076,0.007587678650021553,0.015637723729014397,-0.011972206644713879,-0.005021660588681698
1772363411643660300,4.228660400390625,0.0028442835152149197,0.0787362675845623,0.07169102524816989,0.014653136022388935,-0.021697845309972763,-0.008664671331644058
1772363411653730600,4.23873046875,0.013951368463039397,0.10934826346933842,0.060415013474225995,0.015479781664907932,-0.023106925189495087,-0.011480432003736496
1772363411663799600,4.248799560546875,0.03319514424577355,0.1351432144612074,0.05114858795702457,0.015211976133286953,-0.019163934513926506,-0.010491427034139633
1772363411673869600,4.25886962890625,0.010767623860388993,0.08654080385565757,0.016702128475904465,0.012680641375482082,-0.008572542108595371,-0.003100888803601265
1772363411683938600,4.2689384765625,-0.01357698219269514,0.042616321933269495,-0.05831657989025116,0.0062451791018247604,0.0002406029962003231,-0.0008103125728666782
1772363411694008600,4.279008544921875,-0.019572423215210438,-0.01730827767550945,-0.11508300772905349,-0.010091183707118034,0.006135243456810713,0.0006032935343682766
1772363411704077600,4.28907763671875,-0.01741831392124295,-0.06361059464514256,-0.10844576167166232,-0.024261798709630966,0.0037221000529825687,-0.0055004144087433815
1772363411714147600,4.299147705078125,0.032089374960958955,-0.06936930430233477,-0.06590893471539021,-0.04135369881987572,-0.009656555950641632,-0.0089854272082448
1772363411724216600,4.309216552734375,0.0715088005490601,-0.029933950492739676,-0.07092588609457015,-0.030708685517311096,-0.008434558287262917,-0.003440624102950096
1772363411734286600,4.31928662109375,0.04511252266317606,0.013489011648297309,-0.08373509878516197,-0.023478204384446144,0.0159730464220047,0.000016691628843545914
1772363411744355600,4.32935546875,-0.021071721862256525,0.034928105518221855,0.0007446808874607086,-0.014985665678977966,0.0015500765293836594,-0.0003524613566696644
1772363411754425600,4.339425537109375,-0.040437516589462756,0.04085808008909225,-0.11272563094794749,-0.0037788180634379387,-0.013233663514256477,-0.0007745730690658092
1772363411764494600,4.34949462890625,0.017993045069277284,0.04659457791447639,-0.20611586230695247,0.004821427166461945,-0.011876707896590233,-0.0015936577692627907
1772363411774564600,4.359564697265625,0.033259441653639074,0.07837854018807411,-0.10737199496030807,0.007304558530449867,-0.013772079721093178,-0.004646705463528633
1772363411784633600,4.369633544921875,0.012702391315251587,0.043350481426715846,-0.027859482306241988,-0.0002991901710629463,-0.022875383496284485,-0.0060814423486590385
1772363411794703400,4.379703369140625,-0.005410626871883869,0.0030208091259002682,-0.02882394342422485,-0.002155412919819355,-0.023232776671648026,-0.0042465245351195335
1772363411804772600,4.389772705078125,0.0045874739207327365,-0.03736088562309742,0.003745616269111633,-0.0004359930753707886,-0.009415780194103718,-0.00314524257555604
1772363411814842400,4.39984228515625,0.01810804975107312,-0.0920773951947689,0.07498012992143631,0.0010258154943585396,0.011947831138968468,-0.00005650846287608147
1772363411824911600,4.40991162109375,0.037015579316765065,-0.0774205088108778,0.12457096704244613,-0.002295220270752907,0.02122991532087326,0.0027091563679277897
1772363411834981600,4.419981689453125,0.06535597700774669,-0.028495442122220993,0.06856441766023635,-0.003615882247686386,0.010413218289613724,-0.0036693806760013103
1772363411845050600,4.430050537109375,0.07659414098933338,0.018084522745013237,-0.06000351006388664,0.006327519193291664,-0.0055611878633499146,-0.006648575887084007
1772363411855120600,4.44012060546875,0.10126081860363483,0.09464753794372081,-0.13340133922994135,0.007801845669746399,-0.018399754539132118,-0.012228963896632195
1772363411865189600,4.450189697265625,0.1169632685177028,0.17089549584388733,-0.08546294549107551,0.005633276887238026,-0.029841527342796326,-0.014979559928178787
1772363411875259600,4.460259765625,0.11872457910180091,0.1930173112809658,0.005589782831072807,0.0018039168789982796,-0.03414306417107582,-0.014074882492423058
1772363411885328600,4.47032861328125,0.07213233927488327,0.11468845545351504,0.06547171234190463,0.005307271145284176,-0.020116856321692467,-0.01118226908147335
1772363411895398700,4.480398681640625,0.025723054799437522,0.04753799624443054,0.09037526745200157,0.00484947394579649,-0.0038321586325764656,-0.004027688410133123
1772363411905467400,4.49046728515625,-0.02159852221533656,0.0014326631516218184,0.10461714329421519,-0.0010635675862431526,0.008842161856591702,-0.0009603686630725861
1772363411915537700,4.50053759765625,-0.059996349670737976,-0.05854688151478767,0.09971242011785507,-0.011240305379033089,0.001774664968252182,-0.0009206878021359444
1772363411925606400,4.5106064453125,-0.06358253759443759,-0.08956219750344753,0.04983750535845756,-0.015317114070057869,-0.007029181811958551,0.0011755703017115593
1772363411935676700,4.5206767578125,-0.05082227861210704,-0.07417056710422039,0.04949497553110122,-0.016777589917182922,0.0073423003777861595,0.002035238780081272
1772363411945745400,4.530745361328125,-0.056777095363289114,-0.07215045945346354,0.0769499686896801,-0.01198834553360939,0.01913822628557682,0.009157927706837654
1772363411955815700,4.540815673828125,-0.08868731436505914,-0.06720598878860473,0.08058160319030284,-0.004350665956735611,0.020562751218676567,0.015384664759039879
1772363411965884700,4.550884765625,-0.12047551442235707,-0.03468552893400192,0.02637012053132057,0.010636981576681137,0.03033721074461937,0.02386380173265934
1772363411975954400,4.560954345703125,-0.12325199339836836,0.002420505145192146,-0.014941548544168471,0.016866380348801613,0.03099501132965088,0.02676478400826454
1772363411986023700,4.571023681640625,-0.10460326089933514,0.06657236706018448,-0.01514554668366909,0.022791195660829544,0.025602631270885468,0.02938646450638771
1772363411996093400,4.581093505859375,-0.07543430342972278,0.0940600934445858,-0.05983341419398784,0.015240869484841824,0.012336893007159233,0.03130234032869339
1772363412006162700,4.59116259765625,-0.02956497104987502,0.08667816649973392,-0.10312368986606597,0.004506243392825127,0.006000934634357691,0.03260800614953041
1772363412016232400,4.601232421875,-0.004443243144452572,0.00968786579966545,-0.09562310497760772,-0.001657908782362938,0.01362529955804348,0.031021827831864357
1772363412026301700,4.6113017578125,0.013401333364844321,-0.014480945295095443,-0.026414544194936752,-0.008899685926735401,0.022109949961304665,0.030200067907571793
1772363412036371500,4.621371337890625,0.015360358478128909,-0.018960136535763738,0.00705751729607582,-0.015026021748781204,0.028679968789219856,0.03186827152967453
1772363412046440700,4.631440673828125,0.02108823460564017,-0.013429974937438964,-0.022608137649297713,-0.021992741152644157,0.022679246962070465,0.031255654990673065
1772363412056510700,4.6415107421875,0.027016747871786356,0.013880056792497633,-0.09119126001000404,-0.027686048299074173,0.007758620660752058,0.026604441925883293
1772363412066579500,4.651579345703125,0.05470394235104322,0.04941197342276573,-0.12919687327742577,-0.032076891511678696,-0.009236747398972511,0.025637347251176834
1772363412076649700,4.661649658203125,0.0820259567797184,0.05080781169533729,-0.11776362511515617,-0.03221031650900841,-0.018722660839557648,0.020099835470318794
1772363412086718500,4.671718505859375,0.09640139587372541,0.04502221403121948,-0.06062018065750598,-0.024013448506593704,-0.017808496952056885,0.011254917830228806
1772363412096788700,4.681788818359375,0.09847235692888498,0.03695464290976524,0.020751111605763435,-0.013807682320475578,-0.003862587735056877,0.010189120657742023
1772363412106857500,4.691857421875,0.09938917951285839,0.016895605221390723,0.10266308661699294,-0.0039899153634905815,0.006737787742167711,0.006842434871941805
1772363412116927700,4.701927734375,0.05885770102962851,0.01513327172398567,0.06703998457193375,0.012933940626680851,0.00948537141084671,-0.000040238723158836365
1772363412126996500,4.71199658203125,0.007243687517940998,-0.02470481766760349,-0.04444996710121631,0.02330125868320465,0.008165746927261353,0.0016155783087015152
1772363412137066500,4.72206640625,-0.03823649941384792,-0.03873509658575058,-0.0940682767510414,0.03429611772298813,0.0006558988243341446,0.00045417342334985733
1772363412147135500,4.732135498046875,-0.036748452813178296,0.0031990883022546767,-0.06570785918533802,0.03827178478240967,-0.014772248454391956,-0.0032975845970213413
1772363412157205500,4.74220556640625,0.014332768996059893,0.0640875645071268,0.0023719898283481597,0.04213949292898178,-0.02619747444987297,-0.0006368202157318592
1772363412167274500,4.7522744140625,0.03586158697605133,0.09555530043840407,0.04422083452045917,0.06361949443817139,-0.02370620332658291,-0.004890650510787964
1772363412177344500,4.762344482421875,0.036449469866603613,0.11667173822522163,0.0934755715548992,0.06564110517501831,0.04361478239297867,-0.0011220118030905724
1772363412187413500,4.77241357421875,0.03720920219272375,0.09624912792146205,0.41766017940342426,0.02005217969417572,0.04686234891414642,0.006694649811834097
1772363412197483500,4.7824833984375,-0.03866246974095702,-0.0036199440628290175,0.22491174819171428,0.01511894166469574,-0.016899321228265762,0.010748513042926788
1772363412207552800,4.792552734375,-0.03529357782974839,-0.05936755024790764,-0.2332978837430477,0.012356591410934925,-0.002699680859223008,0.010487047024071217
1772363412217622500,4.80262255859375,0.017323621375113726,-0.03137596599459648,-0.07792319763600826,-0.00439841952174902,0.044470760971307755,0.014055948704481125
1772363412227691800,4.81269189453125,-0.05082359378635883,-0.05851473281085491,0.17242402058541773,-0.028787365183234215,0.04119405150413513,0.015172685496509075
1772363412237761500,4.822761474609375,-0.07001593164280057,-0.09841127439141273,0.11189210273325442,-0.0397806279361248,0.013209285214543343,0.016773510724306107
1772363412247830500,4.83283056640625,-0.015715017134696245,-0.11429331865608691,-0.045987844192981714,-0.04336497560143471,0.004735639318823814,0.010906834155321121
1772363412257900500,4.842900634765625,0.014213672661036252,-0.06912380510866642,-0.09195347655415534,-0.031743742525577545,0.01583303138613701,0.011908981949090958
1772363412267969500,4.852969482421875,0.0031296763278543947,0.01783259381055832,-0.10411036281585692,-0.01940324157476425,0.018982693552970886,0.007605358026921749
1772363412278039600,4.86303955078125,-0.030164398247748612,0.07571312037110328,-0.11991700375676155,-0.012369833886623383,0.0033893543295562267,0.006430371198803186
1772363412288108500,4.873108642578125,-0.02293196277618408,0.08904606467485428,-0.10892740770876407,0.0015579573810100555,-0.00545968534424901,0.0013205278664827347
1772363412298178600,4.883178466796875,-0.0009054244071245193,0.0682008450448513,-0.068309566116333,0.01275122445076704,0.0009508095681667328,0.00574616901576519
1772363412308247600,4.89324755859375,0.001305675771087408,0.07077391040325165,-0.02018237180709839,0.01804833486676216,-0.0027126481290906668,0.007959320209920406
1772363412318317600,4.903317626953125,-0.026604659939557313,0.06046060618162155,-0.01748655685186386,0.020901113748550415,-0.009940201416611671,0.01051169354468584
1772363412328386600,4.913386474609375,-0.030948242101818322,0.017339841857552527,-0.010232640200853347,0.018748585134744644,-0.007998309098184109,0.008303574286401272
1772363412338456600,4.92345654296875,-0.0010584230117499827,0.01596679993867874,0.07767945200800895,0.013731722719967365,-0.003278921591117978,0.0061003416776657104
1772363412348525600,4.933525634765625,0.024772622206807135,0.045644145321846005,0.14767653281986712,0.00616852194070816,-0.0017786358948796988,0.0006069382652640343
1772363412358595600,4.943595703125,0.0299449102781713,0.054365211915969845,0.11278583670258521,-0.0018670344725251198,-0.008633612655103207,-0.000658862292766571
1772363412368664600,4.95366455078125,0.026192864268273115,0.03320376594364643,0.026342063480615616,-0.006708295084536076,-0.01240355521440506,-0.0005777650512754917
1772363412378734600,4.963734619140625,0.0698784228682518,0.027233459362387656,-0.039548751056194306,-0.012139013037085533,-0.0182393416762352,-0.0029482445679605007
1772363412388803600,4.973803466796875,0.05209317533075809,-0.008652093011140822,-0.11618716957867145,-0.020934078842401505,-0.02757827192544937,-0.005858737509697676
1772363412398873600,4.98387353515625,0.05579392954483628,-0.04909866968989372,-0.15409867482185363,-0.02438846416771412,-0.03141056001186371,-0.01076960563659668
1772363412408943600,4.993943603515625,0.058908408303558826,-0.03032148850560188,-0.09407879814505576,-0.023703690618276596,-0.022347459569573402,-0.01804693415760994
1772363412419012600,5.0040126953125,0.05425868280157446,0.00027297172248363493,0.021429156997799872,-0.01807430200278759,-0.0134197436273098,-0.024588722735643387
1772363412429082600,5.01408251953125,0.04783434884250164,0.028384382963180542,0.04746083935499191,-0.009365895763039589,-0.014403672888875008,-0.023209718987345695
1772363412439151600,5.024151611328125,0.017485387808084486,0.025176526832580565,-0.028896424138545988,0.003635389730334282,-0.012097375467419624,-0.020727653056383133
1772363412449221600,5.0342216796875,-0.023563538677990437,0.023346388795971867,-0.07488777546286582,0.019213199615478516,-0.008216602727770805,-0.016446154564619064
1772363412459290600,5.04429052734375,-0.0644075902417302,0.027409400451183317,-0.06635843204855918,0.031372129917144775,-0.005410430487245321,-0.01877349056303501
1772363412469360600,5.054360595703125,-0.06617956835031509,0.04948386961519718,-0.0037906244546175,0.029104895889759064,-0.008740167133510113,-0.019862521439790726
1772363412479429400,5.064429443359375,-0.04361234723329544,0.05246610029637813,0.04041267440915108,0.026778090745210648,-0.013312282040715218,-0.01561051793396473
1772363412489499600,5.074499755859375,-0.07818667087778448,-0.010569909331202507,0.005553542473912239,0.025246430188417435,-0.014282570220530033,-0.009259972721338272
1772363412499568400,5.084568359375,-0.08831775040030479,-0.04640519282221794,-0.015962123763561247,0.025913022458553314,-0.005433152429759502,-0.007066060323268175
1772363412509638700,5.094638671875,-0.06905366248190403,-0.04333177672624588,0.004234861090779305,0.0238213911652565,0.007397732697427273,-0.0024240980856120586
1772363412519707600,5.104707763671875,-0.038933103375881906,-0.0025736498802900313,0.009317863443493843,0.01978803426027298,0.006340458057820797,-0.0024728341959416866
1772363412529777400,5.11477734375,-0.013318331256508827,0.03763970256447792,-0.02312368595600128,0.010869723744690418,-0.0016253364738076925,-0.004630462732166052
1772363412539846700,5.1248466796875,0.04910378425642848,0.08295885371565818,-0.06071954937875271,0.003307945095002651,-0.005154024809598923,-0.009378347545862198
1772363412549916400,5.13491650390625,0.03545885139405727,0.07304477794468403,-0.06007832886576652,-0.0034159794449806213,-0.0031825120095163584,-0.011769521981477737
1772363412559985700,5.144985595703125,0.0020125088661909103,0.04502981281578541,-0.08282090654969215,-0.010320490226149559,-0.0013603772968053818,-0.012313339859247208
1772363412570055400,5.155055419921875,0.008934709344804287,0.03318447672128677,-0.06945756710767746,-0.019542375579476357,-0.00377248739823699,-0.01700778678059578
1772363412580124700,5.165124755859375,0.02068155350089073,0.014849194085597992,-0.0137900404214859,-0.029828835278749466,0.0017591645009815693,-0.01766958087682724
1772363412590194400,5.1751943359375,0.027356501220166682,-0.013214870882034302,0.02305880402624607,-0.03758641332387924,0.0063362824730575085,-0.014243380166590214
1772363412600263700,5.185263671875,0.004087561574578285,-0.03549859888255596,-0.008452771046757698,-0.04276466369628906,0.00646198308095336,-0.014528871513903141
1772363412610333700,5.195333740234375,-0.0003232406049966812,-0.03285831350684166,-0.04686345798373222,-0.04434695839881897,0.0014191055670380592,-0.016572488471865654
1772363412620402700,5.205402587890625,0.011990882045030593,-0.02888765631020069,-0.04463876767158508,-0.04200950264930725,-0.00567795243114233,-0.015975674614310265
1772363412630472700,5.21547265625,0.014610416893661021,-0.004644026413559914,0.003025485301017761,-0.034600935876369476,-0.004525588825345039,-0.015660420060157776
1772363412640541400,5.22554150390625,-0.002862695954740047,-0.012722703450918197,0.050102293774485586,-0.023514728993177414,-0.0034334263764321804,-0.02350955456495285
1772363412650611000,5.23561083984375,-0.012381050406396388,0.011840075397491455,0.07737900775671004,0.0023573217913508415,0.003675154410302639,-0.02202921360731125
1772363412660680000,5.245679931640625,-0.007688947067409753,0.018646248281002045,0.12583470336794852,0.021671097725629807,0.017292696982622147,-0.019228367134928703
1772363412670750000,5.25575,-0.049805648915469646,0.024368717581033705,0.1424012227654457,0.04026833549141884,0.02446812018752098,-0.021438047289848328
1772363412680818700,5.265818603515625,-0.0763289141818881,0.042187867388129234,0.11588146463036536,0.04991883039474487,0.028349410742521286,-0.017685920000076294
1772363412690889000,5.275888916015625,-0.06916969007700681,0.04009937067627906,0.07650222492218017,0.051498252898454666,0.030748359858989716,-0.013340311124920845
1772363412700957700,5.285957763671875,-0.08979191460609436,-0.003415361401438713,0.03468552893400192,0.05610125884413719,0.027974143624305725,-0.007934094406664371
1772363412711028000,5.296028076171875,-0.06180749074593186,0.0022135843962430954,0.014306757771968841,0.05644800141453743,0.02788492664694786,-0.002376343123614788
1772363412721096700,5.3060966796875,-0.01607595940157771,0.03993628906905651,0.013456278422474861,0.05200105533003807,0.029260452836751938,0.0003041285090148449
1772363412731166700,5.316166748046875,-0.008108779914677143,0.04231470863819122,0.03257189778089523,0.04665134847164154,0.026816904544830322,0.0027925046160817146
1772363412741236000,5.326236083984375,0.014383622400462627,0.06636135465800762,0.01421440331339836,0.040654439479112625,0.027194540947675705,0.0033096903935074806
1772363412751305700,5.3363056640625,0.0492301871150732,0.05653495717048645,-0.019808277797698972,0.02998344786465168,0.027392076328396797,0.004987590946257114
1772363412761375000,5.346375,0.047493134189397095,0.02000876880586147,-0.043241760355234145,0.017520921304821968,0.032130103558301926,0.007048345170915127
1772363412771444700,5.35644482421875,0.03288461699187755,0.0026391163319349287,-0.05026771346926689,0.007808114401996136,0.03367436304688454,0.00908117275685072
1772363412781514000,5.366513916015625,0.005291822797805071,-0.023335867401957512,-0.0858814631640911,0.009474187158048153,0.02874325029551983,0.005219855345785618
1772363412791583700,5.376583740234375,0.019124679447710513,0.015572247663140295,-0.09946808996796608,0.011259586550295353,0.026521947234869003,0.001831322442740202
1772363412801653000,5.386653076171875,0.07694178538322448,0.071302902713418,-0.04496142375469207,0.01329291146248579,0.029297228902578354,0.003107242751866579
1772363412811722800,5.39672265625,0.048574791946262116,0.07850362787246704,-0.034893618726730344,0.018728598952293396,0.030634794384241104,-0.0020966753363609314
1772363412821792000,5.4067919921875,-0.0037676819704473017,0.07497253113687039,-0.04088029192090034,0.02440006285905838,0.025099415332078934,-0.0003283359110355377
1772363412831862000,5.416862060546875,-0.001030219830572605,0.07310439917743206,-0.066793316334486,0.02752714976668358,0.017274780198931694,-0.003942511975765228
1772363412841930800,5.4269306640625,-0.011364566840231419,0.0558399606436491,-0.07902151426672935,0.029257137328386307,0.004495337139815092,0.0014373399317264557
1772363412852001000,5.4370009765625,-0.024643004477769136,0.017904490002989767,-0.11231237397193908,0.0327129065990448,-0.0005794116295874119,0.0050735389813780785
1772363412862069800,5.44706982421875,-0.0368139192648232,0.007860650372505187,-0.09994096817672252,0.034678053110837936,0.002047264017164707,0.009854178875684738
1772363412872140000,5.45714013671875,-0.013406301800906658,0.005216857865452766,-0.009140753310918808,0.03142822906374931,0.004097179975360632,0.010791490785777569
1772363412882208800,5.467208740234375,-0.007398293557763099,-0.0025689737051725384,0.0467728570908308,0.03147803246974945,0.005664450582116842,0.008500639349222183
1772363412892278800,5.47727880859375,-0.0006515957765281201,-0.012533318358659744,0.06782558199167252,0.029088890179991722,0.010915588587522507,0.010042835958302021
1772363412902347800,5.48734765625,0.02502878892496228,0.01106383032798767,0.08604629833698273,0.020299924537539482,0.015184901654720306,0.008901671506464481
1772363412912417800,5.497417724609375,-0.01830386458411813,-0.015871522870659828,0.04306348117887974,0.014083579182624817,0.011476492509245872,0.00872240774333477
1772363412922486800,5.50748681640625,-0.030493191810697314,-0.04422141904234886,-0.029245968228578566,0.009144745767116547,0.0048729185946285725,0.00585152069106698
1772363412932556800,5.517556884765625,0.025923838068544862,-0.0384334832906723,-0.023704700714349745,-0.007879769429564476,0.00793437473475933,-0.0018103569746017456
1772363412942625800,5.527625732421875,0.06341536433398723,-0.05092120894193649,0.04468085324764252,-0.03144501522183418,0.018299663439393044,0.00472024641931057
1772363412952695800,5.53769580078125,0.03770005444958806,-0.09643149875104427,0.050696168014407156,-0.04061848297715187,0.009477736428380013,0.003164383117109537
1772363412962765000,5.54776513671875,0.0018259002529084681,-0.0980289970755577,0.017107202145457266,-0.03578591346740723,0.0013558943755924702,-0.0036290748976171017
1772363412972834800,5.557834716796875,0.05742635305225849,-0.00864040257334709,-0.03242284469902515,-0.02426963672041893,-0.004419300705194473,-0.00615492882207036
1772363412982904000,5.567904052734375,0.06471183388531207,0.1013017351359129,-0.06546060642600059,-0.014587980695068836,-0.015787802636623383,-0.006277434062212706
1772363412992973800,5.577973876953125,-0.006662672759592533,0.11530980222225189,-0.10794950258731842,0.00035896897315979004,-0.031495627015829086,-0.006798529997467995
1772363413003042800,5.588042724609375,-0.030968115846067665,0.09419453347921371,-0.08182721933722495,0.019704967737197876,-0.027641501277685165,-0.004946568049490452
1772363413013112800,5.59811279296875,-0.038922728112339974,0.05567454094886779,0.03399228597283363,0.034605998545885086,-0.00748838298022747,0.0004686107859015465
1772363413023181800,5.608181884765625,-0.038690819052606816,0.058822191324830055,0.1336041683256626,0.039415933191776276,0.003634043037891388,0.005954722873866558
1772363413033251800,5.618251953125,-0.04609934174343943,0.019585574957728384,0.10657587614655493,0.03990018740296364,0.013895343989133835,0.01666259579360485
1772363413043320800,5.62832080078125,-0.048956192479282616,-0.023471476480364798,0.06830430541932582,0.03938459977507591,0.01518511213362217,0.013256678357720375
1772363413053391000,5.63839111328125,-0.0051914311632514,-0.04025719158649444,0.08121756300628184,0.024907812476158142,0.019603382796049118,0.017113560810685158
1772363413063459800,5.6484599609375,0.005364449642598628,-0.050666941919922825,0.06887421426177025,0.003507448360323906,0.016411583870649338,0.009349913336336613
1772363413073529900,5.65852978515625,-0.006545914512127637,-0.042103111714124675,0.006506313154101371,-0.008734794333577156,0.01394679769873619,0.0034727659076452255
1772363413083598800,5.668598876953125,0.03940305897518992,0.032736148431897164,-0.05335165095925331,-0.02001887373626232,0.013558775186538696,-0.007708515971899033
1772363413093668900,5.6786689453125,0.10832038172632455,0.08251637064516544,-0.10874912853240966,-0.03551781550049782,-0.0016750362701714039,-0.010855093598365784
1772363413103737900,5.68873779296875,0.14601108382567762,0.05640460878908634,-0.17834814993739126,-0.05335034057497978,-0.02383306808769703,-0.008404452353715897
1772363413113808000,5.698807861328125,0.12554039659649133,-0.015707856741547583,-0.2136731458187103,-0.060762010514736176,-0.03368135914206505,-0.011742261238396168
1772363413123876900,5.708876953125,0.09997530883774161,-0.0184258835285902,-0.12020984922349452,-0.06306883692741394,-0.03507925197482109,-0.013843760825693607
1772363413133947000,5.71894677734375,0.09066226769983768,0.008619359785318375,0.013979425513744353,-0.0580139234662056,-0.02938629500567913,-0.013584780506789684
1772363413144016000,5.729015869140625,0.06030497722849249,0.012009002223610878,0.07127426114082336,-0.045013971626758575,-0.022668737918138504,-0.01998142898082733
1772363413154086000,5.7390859375,0.06446399660408496,0.036034605455398556,0.0919248349815607,-0.029406791552901268,-0.01352732628583908,-0.014784837141633034
1772363413164156000,5.749156005859375,0.04086319465562701,0.031309915021061896,0.0899725318700075,-0.017191404476761818,-0.008093145675957203,-0.01061006635427475
1772363413174225000,5.759224853515625,-0.03329349005371332,-0.020975568011403083,0.07903904992341995,-0.005837383214384317,-0.011054341681301594,-0.014838239178061485
1772363413184295000,5.769294921875,-0.05202464013919234,-0.04771569089889526,0.07352467041611671,-0.0011848406866192818,-0.0077448319643735886,-0.015872877091169357
1772363413194364000,5.779364013671875,-0.0014290098898112774,-0.005458849927783012,0.16308160722255705,-0.001012585125863552,-0.0025755390524864197,-0.013976890593767166
1772363413204434000,5.789433837890625,-0.027574820145964622,-0.00417056368291378,0.19128829553127288,-0.004798268433660269,-0.005619531963020563,-0.014470906928181648
1772363413214503000,5.7995029296875,-0.06984992742612958,-0.03329436683654785,0.10129004469811916,-0.002973685972392559,-0.00986337661743164,-0.010989438742399216
1772363413224573000,5.809572998046875,-0.05778861049339175,-0.033436990177631375,0.049967269217967986,0.002248772419989109,-0.0066785020753741264,-0.00397174246609211
1772363413234641700,5.8196416015625,-0.03071735595539212,-0.0016664719074964522,0.04505670082271099,0.008610009215772152,0.0007148534059524536,-0.0039852880872786045
1772363413244712000,5.8297119140625,-0.03536313593462109,0.034491467666625975,0.019686697244644166,0.008483241312205791,0.0009838328696787357,-0.0007412913255393505
1772363413254780700,5.83978076171875,-0.030652766286581753,0.024589082333445547,-0.01910217535495758,0.004423409700393677,-0.00932810828089714,-0.0012432048097252846
1772363413264851000,5.849850830078125,-0.007842384063452482,0.01711363188624382,-0.023756138640642164,0.00690840557217598,-0.016161512583494186,-0.0034858519211411476
1772363413274919700,5.859919677734375,-0.00006838906109333039,0.03957973071634769,-0.03454173654913902,0.0036158068105578423,-0.02378443442285061,-0.012526202946901321
1772363413284990000,5.869989990234375,0.025023089836537837,0.13167992226481437,-0.002682370951771736,-0.005865845829248428,-0.0260209571570158,-0.009982351213693619
1772363413295059000,5.880058837890625,0.025591829635202883,0.13213994099199772,-0.002949497455358505,-0.022084619849920273,-0.030649753287434578,-0.0063391271978616714
1772363413305128700,5.890128662109375,-0.030788229234516618,0.06655366235971451,-0.04887655137181282,-0.029789412394165993,-0.042126115411520004,-0.003508453257381916
1772363413315198000,5.900197998046875,-0.05836787168607115,0.004873158994317055,-0.0785141492664814,-0.038762301206588745,-0.03986160084605217,-0.001436642836779356
1772363413325267700,5.910267822265625,-0.06095686526596546,-0.038702363359928126,-0.05813830071389675,-0.04619305208325386,-0.024135634303092957,0.0009961547330021858
1772363413335337000,5.9203369140625,-0.05865267997682094,-0.052854807353019714,0.021903204250335692,-0.05423040688037872,-0.014634596183896065,0.002682726364582777
1772363413345406700,5.93040673828125,-0.05828998414427042,-0.05746317793130874,0.04203881430625915,-0.06022278219461441,-0.023047788068652153,0.004971180576831102
1772363413355476000,5.94047607421875,-0.060389002250134945,-0.09003215310275554,0.010900164198875427,-0.058928232640028,-0.025071144104003906,0.006572502665221691
1772363413365545700,5.950545654296875,-0.049643444091081616,-0.09260229585170746,0.007465513575077056,-0.048897966742515564,-0.023723052814602852,0.01159016415476799
1772363413375615000,5.960614990234375,-0.057916036265343425,-0.08010638689398765,0.03851239374577999,-0.0292295403778553,-0.014457635581493378,0.015236234292387962
1772363413385685000,5.97068505859375,-0.06648454264625907,-0.031221652215719223,0.06498129847645759,-0.01694038324058056,-0.010533202439546585,0.021263500675559044
1772363413395754000,5.98075390625,-0.0480886158645153,0.02938040826320648,0.06610007337331772,-0.0018933499231934547,-0.009336251765489578,0.020674042403697968
1772363413405824000,5.990823974609375,-0.04373115130737423,0.04935995097458362,0.04734978019595146,0.008135582320392132,-0.00886593759059906,0.01851421780884266
1772363413415892700,6.000892822265625,-0.016757511924952267,0.07058160270154476,0.03941080389022827,0.015266512520611286,-0.012025919742882252,0.01984708197414875
1772363413425963000,6.010962890625,0.02179740578830242,0.07021744556427001,0.04286065208315849,0.00921341311186552,-0.0035317675210535526,0.014564702287316322
1772363413436031700,6.02103173828125,0.024640520259737966,0.04511106135845184,0.045049686560034746,0.007581736892461777,-0.0036915414966642857,0.011316860094666481
1772363413446102000,6.03110205078125,0.039685675308853384,0.03733692022562027,0.02589782684445381,0.0027614152058959007,-0.006854577921330929,0.013483608141541481
1772363413456170800,6.041170654296875,0.03984115813151002,-0.011246201157569885,0.0032739071041345594,-0.00794774666428566,-0.0018271198496222496,0.014863169752061367
1772363413466240800,6.05124072265625,0.014478607207536697,-0.05427694911062717,0.016156185030937194,-0.009248700924217701,0.006500585004687309,0.009484116919338703
1772363413476309800,6.061309814453125,0.02849514986127615,-0.03753858027756214,0.03824702080786228,-0.013836727477610111,0.015128105878829956,0.004117573145776987
1772363413486379800,6.0713798828125,0.09206672767028212,0.017852467554807662,0.06447217991054058,-0.023953277617692947,0.029986413195729256,0.00568457692861557
1772363413496448800,6.08144873046875,0.08684913915246724,0.027737901753187178,0.050291094344854355,-0.03343842551112175,0.026973765343427658,0.007832271046936512
1772363413506518800,6.091518798828125,0.053707186398655175,0.010797872868180274,-0.005136778366565704,-0.03502940014004707,0.010697325691580772,0.010250953957438469
1772363413516588000,6.101588134765625,0.009319324748218059,-0.0254494985550642,-0.09973346290588378,-0.030095841735601425,-0.0028431296814233065,0.004853477701544762
1772363413526657800,6.11165771484375,0.031031682601571083,-0.019306173494458196,-0.09681085345745086,-0.01699868217110634,-0.0038543320260941982,0.0004880237393081188
1772363413536727000,6.12172705078125,0.07039630926251411,0.0404506683319807,-0.031157939329743384,-0.00657940749078989,0.006591019220650196,-0.0029767765663564205
1772363413546796800,6.131796875,0.045974546319991344,0.05858838256895542,0.008481412619352341,0.0034628408029675484,0.0066008735448122025,-0.007590436842292547
1772363413556866000,6.141865966796875,0.033465047228336334,0.05225158076286315,-0.02316167987883091,0.010119909420609474,0.002969793975353241,-0.004469059407711029
1772363413566935800,6.151935791015625,0.01142784133478999,0.017300678890943527,-0.10273732089698315,0.009932689368724823,-0.013847801834344864,-0.003415246494114399
1772363413577004800,6.1620048828125,-0.01643105644956231,-0.005049684605002403,-0.13130232112407683,0.012999885715544224,-0.025831636041402817,-0.0024550636298954487
1772363413587074800,6.17207470703125,0.006676262893527746,0.0007283142745494843,-0.08771101667881011,0.013684318400919437,-0.021603599190711975,-0.005394394043833017
1772363413597143800,6.182143798828125,0.041901597792655225,0.045834699457883835,0.04214695085585117,0.0025459984317421913,-0.015886340290308,-0.0026411539874970913
1772363413607214000,6.192214111328125,0.05002265266701579,0.052419338545203205,0.08858370786011219,-0.0056770434603095055,-0.010767211206257343,-0.000943389255553484
1772363413617282800,6.20228271484375,0.014905308187007903,0.027614567634463308,0.056662382942438125,-0.012978966347873211,-0.015533415600657463,-0.0003830515779554844
1772363413627352800,6.212352783203125,0.019844810415804385,0.03915887495577335,0.026231004321575165,-0.017306869849562645,-0.025670472532510757,-0.0008680135942995548
1772363413637421800,6.222421875,0.043430853186547755,0.05124912572205066,-0.00006838906109333039,-0.023945113644003868,-0.024895083159208298,-0.004681877791881561
1772363413647491800,6.232491943359375,0.04480404123589396,0.06904197204411029,0.07611468690931797,-0.03181981295347214,-0.01094864122569561,-0.004301845096051693
1772363413657561300,6.242561279296875,-0.008710691330581903,0.054330725124478334,0.13315467099249362,-0.03595031052827835,-0.005415224935859442,-0.0037486818619072437
1772363413667631000,6.252631103515625,-0.04303454734534025,0.0016056816309690475,0.11097264980077742,-0.03211482614278793,-0.0005054213106632233,-0.0012567625381052494
1772363413677700400,6.262700439453125,-0.05740984030887484,-0.06914075624346733,0.03889057940840721,-0.026305582374334335,0.005631174426525831,0.006636681500822306
1772363413687770000,6.27277001953125,-0.09918985754847526,-0.12060498602092265,-0.06622633010149001,-0.01388566568493843,0.01297883503139019,0.00881914235651493
1772363413697839400,6.28283935546875,-0.13786884003281594,-0.12297580680549144,-0.12140987266302108,0.000623021274805069,0.02123453840613365,0.014098778367042542
1772363413707909000,6.2929091796875,-0.14156579485461115,-0.11974047814607619,-0.09247019390463829,0.008324883878231049,0.02025609277188778,0.016095615923404694
1772363413717978000,6.30297802734375,-0.07568915497362613,-0.06566869621872902,0.00930266587436199,0.010191050358116627,0.0252310149371624,0.020339198410511017
1772363413728048000,6.313048095703125,-0.037032092060148715,-0.012242810979485512,0.07711889551579952,0.01093220803886652,0.026408135890960693,0.020314164459705353
1772363413738117000,6.3231171875,-0.03379398692175746,0.01794189940392971,0.054900633966922754,0.010437351651489735,0.028710998594760895,0.022442646324634552
1772363413748187400,6.3331875,0.007968202400207519,0.05493921241164207,0.03819032218456268,0.008443976752460003,0.03459099307656288,0.023141726851463318
1772363413758257200,6.343257080078125,0.06995791784524917,0.06562894873023033,0.06965455098450184,0.0009132223203778267,0.03444010019302368,0.015993019565939903
1772363413768326400,6.353326416015625,0.06924684696644544,0.0702004944294691,0.05524024118483066,-0.006672525778412819,0.030201680958271027,0.015051325783133507
1772363413778396200,6.363396240234375,0.0638100627399981,0.11875322067439556,0.0340501536399126,-0.005720637273043394,0.01735442504286766,0.01183398999273777
1772363413788465200,6.373465087890625,0.03835238087847829,0.1179278757661581,-0.020405659168958663,-0.009218699298799038,0.0050628697499632835,0.012220147997140884
1772363413798535200,6.38353515625,0.043143414547294374,0.0921773484379053,-0.06451777261793613,-0.016036581248044968,-0.0027917579282075167,0.01172110065817833
1772363413808604200,6.393604248046875,0.0556502832904458,0.03139174808561802,-0.08683364932239056,-0.02785462513566017,-0.0040719397366046906,0.011945870704948902
1772363413818674200,6.403674072265625,0.046008448589593166,-0.04929857617616653,-0.08252747656106948,-0.04218180105090141,0.0004930123686790466,0.010058092884719372
1772363413828743200,6.4137431640625,0.04537248877361417,-0.11769523605406283,-0.05515548551082611,-0.061156824231147766,0.005941573530435562,0.007717973552644253
1772363413838813200,6.423813232421875,0.03982610669285059,-0.15899053851664066,-0.008543956461548805,-0.07236151397228241,0.007674622815102339,0.003408291842788458
1772363413848882200,6.433882080078125,0.03935366687551141,-0.14389759880304337,0.004852700728178024,-0.07562440633773804,0.013209469616413116,0.00310575682669878
1772363413858952200,6.4439521484375,0.02607274501994252,-0.09965864410400391,-0.0005938742399215698,-0.06187370419502258,0.011074254289269447,-0.005787533707916737
1772363413869021200,6.454021240234375,0.0502455016374588,0.00490647674202919,-0.018741525349020956,-0.04290294647216797,0.0010586390271782875,-0.010053650476038456
1772363413879091200,6.46409130859375,0.06378887382149696,0.09214987590909003,-0.0338543388068676,-0.02582652121782303,-0.013996027410030365,-0.016560964286327362
1772363413889160200,6.47416015625,0.07950140673816204,0.13208558045625685,-0.060791445571184155,-0.007126602344214916,-0.027798926457762718,-0.02238929271697998
1772363413899230200,6.484230224609375,0.055874447435140605,0.12371756508350372,-0.039250644892454147,0.004539656452834606,-0.03681448474526405,-0.022303732112050056
1772363413909299200,6.49429931640625,0.008312339662760496,0.05924480065107345,0.01861585314273834,0.015242368914186954,-0.0388382188975811,-0.020745784044265747
1772363413919369200,6.504369140625,-0.025592852548509834,0.02711947759389877,0.08542553609013558,0.022387240082025528,-0.03248786926269531,-0.01939287781715393
1772363413929438200,6.514438232421875,-0.05443477002084255,-0.009555179330706596,0.10154548076391219,0.02637958526611328,-0.024030201137065887,-0.01330782100558281
1772363413939508200,6.52450830078125,-0.08685790698081254,-0.04848258361816406,0.06411269894838333,0.03902663290500641,-0.018003329634666443,-0.007850850000977516
1772363413949577200,6.5345771484375,-0.07739698180481791,-0.027097850283980367,0.04781155248880386,0.035288356244564056,-0.0101038608700037,-0.010176588781177998
1772363413959647200,6.544647216796875,-0.042419776447862385,0.011043956583738326,0.04010170876383781,0.02064615488052368,-0.017330879345536232,-0.007751034572720528
1772363413969716200,6.55471630859375,0.005816285063326358,0.021775778478384016,0.003616436931490898,0.008559132926166058,-0.024938732385635376,-0.007188840769231319
1772363413979786200,6.5647861328125,0.01841068595945835,0.00519055438041687,-0.06057984864711761,0.0012089665979146957,-0.029707036912441254,-0.00867825374007225
1772363413989855200,6.574855224609375,0.017770926751196382,0.03949789765179157,-0.09624795887768268,-0.012987279333174229,-0.037545252591371536,-0.007622310426086187
1772363413999925200,6.58492529296875,0.05335618100389838,0.06815232972800732,-0.08791793742775916,-0.027526773512363434,-0.049434855580329895,-0.008349740877747536
1772363414009994200,6.594994140625,0.06616422465071081,0.06790156983733177,-0.07445289117693901,-0.03335510194301605,-0.054232001304626465,-0.011307714506983757
1772363414020064000,6.60506396484375,0.070148471981287,0.06361936247348784,-0.033930326652526856,-0.036731742322444916,-0.04678824543952942,-0.010646523907780647
1772363414030133200,6.61513330078125,0.03372925112247467,0.049859717190265655,-0.011968670213222503,-0.04191451519727707,-0.03740992024540901,-0.008826518431305885
1772363414040203000,6.625203125,-0.02358881924971938,-0.0028881226569414135,-0.01527531054317951,-0.04345061257481575,-0.029800431802868843,-0.01138121634721756
1772363414050272300,6.635272216796875,-0.04202522417232394,-0.04654372451007366,-0.013353402569890021,-0.03997545316815376,-0.02605469524860382,-0.014460630714893341
1772363414060342300,6.64534228515625,-0.036763211990892886,-0.0782265644967556,0.03752396723031998,-0.03735428676009178,-0.019662324339151382,-0.0074274237267673016
1772363414070411300,6.655411376953125,-0.029003245513886212,-0.0832148743033409,0.09496493332982063,-0.027571164071559906,-0.006153438705950975,-0.006892661098390818
1772363414080481300,6.665481201171875,-0.05648103502616286,-0.09699088619947432,0.13591186074614525,-0.019705161452293396,0.0038460716605186462,-0.0005345288664102554
1772363414090550300,6.67555029296875,-0.04585238124504685,-0.07490005042254924,0.12542553804516793,-0.009271163493394852,0.009089569561183453,0.002792824525386095
1772363414100620300,6.685620361328125,-0.03552621754184365,-0.038052375018596644,0.08520283325016498,0.0004816139116883278,0.009026010520756245,0.009904567152261734
1772363414110689300,6.695689208984375,-0.03182604784965515,0.00016775778234004974,0.03715864104926586,0.007884137332439423,0.009853987954556942,0.010772225446999073
1772363414120759300,6.70575927734375,-0.03240209417194128,0.022052257332205772,0.003655599898099899,0.01967792958021164,0.011451792903244495,0.01406172476708889
1772363414130828000,6.715828125,-0.017369067952036858,0.05111410116553306,0.01624386331439018,0.02737739309668541,0.01376767735928297,0.006383830681443214
1772363414140898300,6.725898193359375,0.0458000665359199,0.09419102634787559,0.05595101980268955,0.031740471720695496,0.01535070315003395,0.0061804382130503654
1772363414150967000,6.735967041015625,0.06574789893478154,0.10141805499196052,0.0628852029800415,0.024496939033269882,0.014773063361644745,0.00455191545188427
1772363414161037300,6.746037353515625,0.042848815514892336,0.043316579157114024,0.020914777734875677,0.012363840825855732,0.009664587676525116,0.003347367513924837
1772363414171106000,6.75610595703125,0.02314414422214031,-0.022956512695550917,-0.026602760243415832,-0.001383662223815918,0.006488235667347908,0.004995597992092371
1772363414181176000,6.766176025390625,0.009110650433599949,-0.07349836693108082,-0.009417232164740563,-0.006909546907991171,0.017913587391376495,0.006584072019904852
1772363414191245000,6.7762451171875,0.00528378562182188,-0.08339023087024688,0.024306173738837242,-0.01161428727209568,0.02564634382724762,0.00469003152102232
1772363414201315000,6.786315185546875,0.006298369491845369,-0.05391746814846992,0.0030699089646339414,-0.011029206216335297,0.030557703226804733,0.0032385364174842834
1772363414211384300,6.79638427734375,0.01272387249469757,-0.01595861663222313,-0.0765665223300457,-0.010619079694151878,0.013082840479910374,0.0026704841293394566
1772363414221454000,6.8064541015625,0.06162058987170457,0.035739421901106835,-0.1191740764349699,-0.0038497578352689743,-0.003994918428361416,-0.004987032152712345
1772363414231523300,6.8165234375,0.10060425439104437,0.07942366532683372,-0.11894435933232307,-0.003933114930987358,-0.005183487199246883,-0.006936465390026569
1772363414241593000,6.826593017578125,0.10057181342616676,0.06647066025137902,-0.07674597055017948,-0.008638663217425346,-0.004810533486306667,-0.012137388810515404
1772363414251662300,6.836662353515625,0.06809416979998349,0.045268297746777535,-0.042620998108386994,-0.011961488984525204,-0.003719702595844865,-0.013866579160094261
1772363414261732000,6.846732177734375,0.02780716759711504,0.02892155857980251,-0.0402548534989357,-0.009559773840010166,-0.0028048076201230288,-0.014901189133524895
1772363414271801300,6.85680126953125,0.015351882910728453,0.012211246797442435,-0.04816226562261581,-0.0017689624801278114,-0.008710633963346481,-0.014742998406291008
1772363414281871000,6.86687109375,-0.013863251788169145,0.001647182685136795,-0.07136486203372477,0.006585928611457348,-0.01952233910560608,-0.008954774588346481
1772363414291940000,6.876940185546875,-0.04955035898014903,0.008331775015592575,-0.06878712050020694,0.014014550484716892,-0.028893206268548965,-0.007202414330095053
1772363414302010400,6.88701025390625,-0.0406599271684885,0.004693126252293587,-0.050125090128183364,0.019083727151155472,-0.032499853521585464,-0.005002966150641441
1772363414312080100,6.897080078125,-0.022648323529213664,0.005853402203321457,-0.0027308862686157226,0.015772620216012,-0.036656782031059265,0.0018488145433366299
1772363414322149400,6.9071494140625,-0.00200447169020772,0.009247720816731453,0.050634793215990063,0.02148500084877014,-0.02995762787759304,-0.004603363107889891
1772363414332219100,6.91721923828125,0.024222440978139637,0.03584638940691948,0.133224813619256,0.0198516845703125,-0.014630337245762348,-0.006781296338886023
1772363414342288100,6.9272880859375,0.055831046684831374,0.07681786674261093,0.2046498814076185,0.011791102588176727,-0.006166923325508833,-0.00849180854856968
1772363414352358100,6.937358154296875,0.0429147203579545,0.044010406640172,0.18860884718894957,0.00362238846719265,-0.0009234254248440266,0.00043084612116217613
1772363414362427100,6.94742724609375,-0.0361928647570312,-0.02918400890827179,0.05659574744701385,-0.00488342996686697,-0.005669808946549892,0.004509663209319115
1772363414372497200,6.9574970703125,-0.07154927868992089,-0.08176584453880786,-0.011186579924821853,-0.013643898069858551,-0.008065588772296906,0.004193279892206192
1772363414382566100,6.967566162109375,-0.027426789977401493,-0.08737491659224032,-0.009789572608470916,-0.028230365365743637,-0.007272710092365742,0.0066053131595253944
1772363414392636400,6.977636474609375,-0.0029712708957493304,-0.05993512100279331,0.030281156495213506,-0.037350092083215714,-0.000726659782230854,0.00018176855519413948
1772363414402705200,6.987705078125,0.03173354726061225,-0.04617255311012268,0.06324468394219875,-0.049876414239406586,0.005050227046012878,0.005268385633826256
1772363414412775200,6.997775146484375,0.029543928261846302,-0.049202130064368244,0.045488662499189376,-0.04515170305967331,0.0031556542962789536,-0.0003034798428416252
1772363414422844200,7.00784423828125,0.00800546567067504,-0.03253331933617592,-0.007281389179825782,-0.0296800397336483,0.012252984568476677,0.004665256477892399
1772363414432914200,7.0179140625,-0.008897153813391923,0.0128401923507452,-0.057255088138580316,-0.01045281533151865,0.017954280599951744,0.008353468030691147
1772363414442983200,7.027983154296875,-0.03492079899460077,0.0445247859030962,-0.056578211790323255,-0.0027663009241223335,0.008250015787780285,0.01262558251619339
1772363414453053200,7.03805322265625,-0.04706643320992589,0.020109891092777252,-0.0992623382627964,0.002239377237856388,-0.004077757243067026,0.009697702713310719
1772363414463122200,7.0481220703125,-0.06383242070227861,-0.010479892960190772,-0.11185644689798355,0.0060191685333848,-0.0059875925071537495,0.011575885117053986
1772363414473192200,7.058192138671875,-0.019173779286444186,-0.01978314335644245,-0.05230594129860401,0.008339314721524715,0.003676752559840679,0.00943337194621563
1772363414483261200,7.06826123046875,0.013249503803998232,-0.00434007503092289,0.018772505009174347,0.011896639131009579,0.013421257957816124,0.01329500786960125
1772363414493331200,7.078331298828125,0.003089490447938442,0.00042728550136089324,0.04161211332678794,0.014877515845000744,0.01417732983827591,0.010724791325628757
1772363414503400200,7.088400146484375,0.011163052918761967,0.028308395117521284,0.060222705772519106,0.01015426591038704,0.01016942784190178,0.013518697582185268
1772363414513470200,7.09847021484375,0.03803206288293004,0.06360299586057662,0.056391164785623546,-0.0025700507685542107,0.0010813898406922817,0.006303128786385059
1772363414523539200,7.108539306640625,0.04151975886821747,0.07797989625930786,0.04439209943413734,-0.01407355722039938,-0.005730402655899525,0.003949499689042568
1772363414533609200,7.118609130859375,0.0629344489492476,0.09085866705477237,0.05173895506560802,-0.02120310626924038,-0.005396442487835884,0.002126565668731928
1772363414543678200,7.12867822265625,0.06386705362424254,0.05667290433645248,0.0460585713416338,-0.022247489541769028,-0.010718855075538158,0.0019448455423116684
1772363414553748200,7.138748291015625,0.06717705495506525,0.04370470169186592,-0.004603694403171539,-0.021852809935808182,-0.016334928572177887,0.0001069977879524231
1772363414563817200,7.148817138671875,0.08198489411696791,0.03734977970719337,-0.04247545215785503,-0.01908963918685913,-0.019336266443133354,-0.0030480287969112396
1772363414573887200,7.15888720703125,0.07070172194987535,0.02101180836856365,-0.004727613043785095,-0.019480325281620026,-0.0062966314144432545,-0.0031002266332507133
1772363414583956200,7.168956298828125,0.00870601515546441,-0.001017068088054657,0.055603813800215715,-0.012367162853479385,0.0016723009757697582,-0.000937493983656168
1772363414594026000,7.17902587890625,-0.045701720727980136,-0.02845627915561199,0.08710019130408764,-0.004719896242022514,0.013538547791540623,-0.0012592035345733166
1772363414604095200,7.18909521484375,-0.056112201713770626,-0.02955167317688465,0.087864161413908,0.0021352311596274376,0.011902499943971634,0.002984866499900818
1772363414614165200,7.199165283203125,-0.04861673139184713,-0.03329904301166534,0.03669336162507534,0.009151063859462738,-0.0010700244456529617,0.0011086692102253437
1772363414624234200,7.209234130859375,-0.0506647499628365,-0.01750000085532665,-0.09073416389226913,0.01929868757724762,-0.019163792952895164,0.001964012160897255
1772363414634304300,7.21930419921875,-0.028002397908270357,-0.0027858313262462612,-0.12645605013668537,0.026856739073991776,-0.024506626650691032,-0.003380951937288046
1772363414644373200,7.229373291015625,-0.020766163044422865,0.032953590574860574,-0.0538444029122591,0.03521380573511124,-0.015171770006418228,-0.01120559312403202
1772363414654443300,7.239443359375,0.002430149756371975,0.06830313637554646,0.04352992964684963,0.037907857447862625,-0.001851703505963087,-0.010286003351211548
1772363414664512300,7.24951220703125,0.0028064357228577137,0.06565583673715591,0.059898296123743054,0.030220746994018555,-0.0012474048417061567,-0.004102806560695171
1772363414674582300,7.259582275390625,-0.05526566788703203,0.012267945420742034,-0.018650924456119537,0.0244709812104702,-0.007788660936057568,0.001462667714804411
1772363414684651300,7.2696513671875,-0.04789411620572209,-0.024019758012890816,-0.12564298018813133,0.013246455229818821,-0.01211286336183548,0.007211496587842703
1772363414694721300,7.27972119140625,-0.010399667330831289,-0.05151800579130649,-0.12780629570186136,0.0031797057017683983,-0.015698542818427086,0.01449630782008171
1772363414704790000,7.2897900390625,0.004415039963275194,-0.03593406769037247,-0.08009645002186298,-0.000994066707789898,-0.023556943982839584,0.012044343166053295
1772363414714860300,7.2998603515625,0.019850071112811563,-0.00745966835618019,-0.053475569599866865,0.001195318065583706,-0.020667415112257004,0.008184091188013554
1772363414724929000,7.309928955078125,0.06555939062535762,0.067673606300354,-0.03013677958846092,0.0004071807488799095,-0.02012617513537407,-0.0006449944339692593
1772363414734999300,7.319999267578125,0.09070537618920206,0.11972001987993716,-0.0074836337536573405,-0.005852845497429371,-0.024807745590806007,-0.005953473504632711
1772363414745068300,7.330068359375,0.0758846775457263,0.12596972792446612,-0.024931612160801885,-0.012729360722005367,-0.027401048690080643,-0.009660182520747185
1772363414755138000,7.340137939453125,0.059573301953077314,0.047290743485093115,-0.0529991842597723,-0.017686568200588226,-0.03051108866930008,-0.009481484070420265
1772363414765208300,7.350208251953125,0.028948300456255672,-0.0253144739985466,-0.0539186371922493,-0.02621009200811386,-0.02968161180615425,-0.0016803140752017498
1772363414775277000,7.360277099609375,0.015199176567047834,-0.10399462748169898,-0.054425417670607566,-0.03389943763613701,-0.020985592156648636,0.00028616422787308693
1772363414785347300,7.370347412109375,0.019953239226341245,-0.1460129835218191,-0.039921091499924656,-0.031781721860170364,-0.014980247244238853,-0.004138823598623276
1772363414795416000,7.380416015625,0.03826367968171835,-0.0872322932511568,0.04509703283309936,-0.02965865097939968,-0.00746613834053278,-0.008874189108610153
1772363414805486000,7.390486083984375,0.04445566618964076,-0.04224690409898758,0.10545184055268764,-0.019462814554572105,-0.006592987105250359,-0.01692415401339531
1772363414815555000,7.40055517578125,0.04392418966144323,-0.012625672817230224,0.10589899979829788,-0.0023690490052103996,-0.005130645353347063,-0.02149040997028351
1772363414825625000,7.410625,0.05826777231246233,0.00776946495771408,0.0879728824853897,0.016101770102977753,0.002617078833281994,-0.019844569265842438
1772363414835694300,7.4206943359375,0.03590951777100563,-0.0031628479450941083,0.0733902303814888,0.028651650995016098,0.004224563483148813,-0.019895968958735466
1772363414845764000,7.43076416015625,-0.007180997545272111,-0.011618541601300238,0.04776654430329799,0.03696923702955246,0.014969885349273682,-0.01727675087749958
1772363414855833300,7.440833251953125,-0.022879648067057133,0.0016945289582014082,0.052719198274612425,0.04123881459236145,0.020845884457230568,-0.007900824770331383
1772363414865903000,7.450903076171875,-0.05097016265019774,-0.002954173630475998,0.07104512856006621,0.045269470661878586,0.026356792077422142,-0.006487666629254818
