time,seconds_elapsed,accel_x,accel_y,accel_z,gyro_x,gyro_y,gyro_z
1772363448231529700,0.11852978515625,-0.04103577474355698,0.05154781640768051,0.05386953735351562,0.05153907835483551,0.01836416684091091,0.007178574800491333
1772363448241598700,0.1285986328125,-0.04375423992201686,0.027370237484574317,-0.00869534763097763,0.04179083928465843,0.0233626551926136,0.011745363473892212
1772363448251668700,0.138668701171875,-0.04099295851513743,-0.005973813712596893,0.012285481077432632,0.03302661329507828,0.030993487685918808,0.005313186440616846
1772363448261737700,0.14873779296875,0.009629267480224371,-0.0000415010541677475,0.06312719504237174,0.014190609566867352,0.03870200738310814,0.012956192716956139
1772363448271807700,0.158807861328125,0.019422347220033408,-0.029949148061871527,0.05864449667036533,-0.007435527164489031,0.04677266255021095,0.01636902429163456
1772363448281876700,0.168876708984375,-0.04343845197111368,-0.027755437409877775,0.03911445129215717,-0.02089034952223301,0.04430284723639488,0.017012709751725197
1772363448291946800,0.17894677734375,-0.010174772533774376,0.010043255108594894,0.024959084689617154,-0.026128951460123062,0.04067351669073105,0.01640964299440384
1772363448302015700,0.189015625,0.034009237107634545,0.037141105392575265,-0.027981062859296798,-0.026917513459920883,0.02907412126660347,0.01995857059955597
1772363448312085800,0.199085693359375,-0.016779431495815515,0.0405249026119709,-0.09399404247105121,-0.0051488690078258514,0.02997397817671299,0.015587111003696918
1772363448322154800,0.20915478515625,-0.06715893477648496,0.05129588747322559,-0.05454349109232425,0.007110459730029106,0.0403299480676651,0.011401953175663948
1772363448332224800,0.219224853515625,-0.036893560372292994,0.04957739311754703,-0.02636661339998245,0.0036164382472634315,0.012034036219120026,0.0017367261461913586
1772363448342293800,0.229293701171875,0.02702332374304533,0.03464344335794449,-0.15343991865217685,0.016785237938165665,-0.0032575682271271944,0.009825279004871845
1772363448352363800,0.23936376953125,-0.01687777730375528,-0.034548166289925575,-0.08093114728033542,0.028945516794919968,0.014472036622464657,0.01647130772471428
1772363448362432800,0.249432861328125,-0.07342720139101147,-0.03301847250461578,0.043138884502649306,0.02908479794859886,0.02246072143316269,0.016577299684286118
1772363448372502800,0.259502685546875,-0.060857350414246315,-0.057332245028018945,0.017714520388841627,0.028908660635352135,0.01600002869963646,0.015555539168417454
1772363448382571800,0.26957177734375,0.019659516976773737,-0.038541035318374633,0.025642975300550458,0.03126955032348633,0.016691919416189194,0.012688646093010902
1772363448392641800,0.279641845703125,0.09267521495744585,0.03708674485683441,0.08023205910027027,0.0300655085593462,0.01811305806040764,0.005727831274271011
1772363448402710800,0.289710693359375,0.11134352893978357,0.096560678088665,0.09949731606245041,0.019403545185923576,0.019036374986171722,0.007038106210529804
1772363448412780800,0.29978076171875,0.07022182947844266,0.06938859352469444,0.04128536559045314,0.008149010129272938,0.014924202114343643,0.0015820157714188099
1772363448422849500,0.309849609375,0.045171997765451666,0.039136078602075575,-0.001931260323524475,0.004767329432070255,0.005752807483077049,-0.007963020354509354
1772363448432919800,0.319919921875,0.14936521655917168,0.06596914047002791,-0.014307926815748214,0.006525775417685509,0.0027462877333164215,-0.007835867814719677
1772363448442988800,0.32998876953125,0.17300342790856957,0.06629588820636272,-0.02110591639280319,0.0032343752682209015,0.00884758960455656,-0.010532052256166935
1772363448453058800,0.340058837890625,0.10589549266695976,0.06393208168447018,-0.03812777834236622,0.007653478533029556,0.01300644688308239,-0.009160313755273819
1772363448463127800,0.3501279296875,0.04200374299287796,0.05146832143068313,-0.032440964877605435,-0.008855456486344337,0.00027174269780516624,-0.018649687990546227
1772363448473197800,0.36019775390625,0.029653379985690113,0.0054179333955049515,-0.1517161635994911,-0.0011550569906830788,-0.018420401960611343,-0.018818248063325882
1772363448483266800,0.370266845703125,0.031562574607878924,-0.019376316121220587,-0.10614566803574561,0.009470422752201557,-0.0067120809108018875,-0.01779399812221527
1772363448493336600,0.380336669921875,-0.02085720232874155,0.0023223054677248,0.05711304931938648,0.01649448089301586,0.006810994353145361,-0.02083117701113224
1772363448503405800,0.39040576171875,-0.025049977843463418,-0.02556581841111183,0.041969840723276135,0.015778090804815292,-0.006112527102231979,-0.02214331552386284
1772363448513475600,0.4004755859375,-0.030486323678493497,-0.05121639249622822,-0.026299393382668495,0.021346524357795715,-0.0029487682040780783,-0.013674353249371052
1772363448523544800,0.410544921875,-0.03226034761369228,-0.013594225588440895,0.015713117438554764,0.0249287411570549,0.004887583199888468,-0.014980367384850979
1772363448533614600,0.420614501953125,-0.05968903728723526,0.01395955176949501,0.048912791728973386,0.02080715075135231,0.005556048825383186,-0.01319345086812973
1772363448543683800,0.430683837890625,-0.09393310606405138,-0.006280103182792663,0.0026326865911483763,0.01774797961115837,-0.002762068063020706,-0.009866628795862198
1772363448553753900,0.44075390625,-0.0907974383868277,-0.003821604114770889,-0.02705985636115074,0.020620860159397125,-0.0024233635049313307,-0.014603078365325928
1772363448563822800,0.45082275390625,-0.04677563356980681,0.006675239980220795,0.006388239732384681,0.02412984147667885,0.0021660616621375084,-0.008451709523797035
1772363448573892900,0.460892822265625,-0.017911358135193584,0.016695114213228224,0.020527239722013473,0.023682402446866035,0.006027987226843834,-0.009514687582850456
1772363448583961600,0.470961669921875,0.030892566391825676,0.07505670228898524,-0.016726093873381614,0.02492050640285015,-0.0002650623209774494,-0.006992408540099859
1772363448594031900,0.481031982421875,0.06041822834461927,0.0654296267658472,-0.04929623808860779,0.015550493262708187,-0.014409581199288368,-0.007321621291339397
1772363448604100600,0.4911005859375,0.038896424627304076,0.04709200604259967,-0.03331774771213531,0.010681434534490108,-0.021962039172649384,-0.007751988247036934
1772363448614169900,0.501169921875,0.020420272216200828,0.05863923597335815,0.012079729372262954,0.004948311485350132,-0.017597435042262077,-0.014345725998282433
1772363448624239600,0.511239501953125,0.022822511052340268,0.08507716104388237,0.06021919864118099,-0.002199878916144371,-0.015132413245737553,-0.019525308161973953
1772363448634308900,0.521308837890625,0.03330240401253104,0.0803700062662363,0.06846154180765152,-0.009156124666333199,-0.012584032490849495,-0.02243427000939846
1772363448644378600,0.531378662109375,0.004467500802874565,0.010496259573101997,0.004300912064313888,-0.01638873666524887,-0.0045090620405972,-0.022566629573702812
1772363448654447900,0.54144775390625,-0.023388328241556882,-0.06878127528131008,-0.05003974993228912,-0.022651836276054382,-0.011170364916324615,-0.016836360096931458
1772363448664517600,0.551517578125,-0.0381000135526061,-0.12066110012233257,-0.052344519743323326,-0.030465018004179,-0.007616642862558365,-0.011723092757165432
1772363448674587000,0.5615869140625,-0.04747705983743071,-0.13045534890592098,-0.0011748889982700348,-0.03342994302511215,-0.0008611911907792091,-0.010015850886702538
1772363448684657000,0.571656982421875,-0.04465075037032366,-0.0962386065274477,0.024062428110837936,-0.03282860666513443,-0.006213611923158169,-0.010440889745950699
1772363448694725600,0.5817255859375,-0.01379807759746909,-0.03307926278114319,0.023265140253305432,-0.028517786413431168,-0.005963986739516258,-0.014501862227916718
1772363448704795400,0.59179541015625,0.015310381856560706,0.024936872857809066,0.028521745607256888,-0.018868088722229004,-0.018411867320537567,-0.012127386406064034
1772363448714864400,0.601864501953125,0.026837591912597415,0.05585924986600876,0.03200023537278175,-0.0011302167549729347,-0.02200384996831417,-0.006957300938665867
1772363448724934400,0.611934326171875,0.010771277122199534,0.05422434214055538,0.04670622159540653,0.008517350070178509,-0.027792232111096382,-0.005465398542582989
1772363448735003400,0.62200341796875,-0.02740165553614497,0.040082419541478155,0.07888181353509426,0.022551491856575012,-0.02263796143233776,-0.0029025734402239323
1772363448745073400,0.632073486328125,-0.038621114817261694,0.01687690052092075,0.1502478446125984,0.03193460777401924,-0.005832615774124861,-0.0039393422193825245
1772363448755142400,0.642142333984375,-0.02700213482454419,0.004611877709627152,0.2110989114165306,0.0264649149030447,0.018015585839748383,0.0027030124329030514
1772363448765212400,0.65221240234375,-0.05942483339309692,-0.04841244099140167,0.16652327210903167,0.023984180763363838,0.02606525644659996,0.0032119425013661385
1772363448775281400,0.662281494140625,-0.04324453683421015,-0.03759177176952362,0.0928314284324646,0.018956437706947327,0.019122738391160965,0.0023521557450294495
1772363448785351400,0.672351318359375,0.004910568395256996,-0.03345978653132915,0.026740707409381864,0.012002658098936081,0.019373875111341476,0.005105331540107727
1772363448795420400,0.68242041015625,0.02004837016388774,-0.01686345651745796,0.01694587410390377,0.00828106515109539,0.017555326223373413,0.004370997194200754
1772363448805490400,0.692490478515625,0.03906023688688874,0.012148702955245972,0.05763970354199409,0.003573661670088768,0.0196983739733696,0.006330018397420645
1772363448815559400,0.702559326171875,0.03133592624515295,0.010783844342827796,0.08994096768796443,-0.005864324979484081,0.021121680736541748,0.011708768084645271
1772363448825629400,0.71262939453125,-0.011624532950669526,-0.02556640293300152,0.06937456499934196,-0.008243059739470482,0.021872425451874733,0.01694534160196781
1772363448835698400,0.722698486328125,-0.024872137058526277,-0.041540801656246185,0.0374444722533226,-0.007551979273557663,0.020594222471117973,0.01948595978319645
1772363448845768400,0.7327685546875,-0.005007452898472547,-0.041088966235518457,0.02380173134803772,-0.009088623337447643,0.022817961871623993,0.021577339619398117
1772363448855837400,0.74283740234375,0.010539952584356069,-0.01040858128964901,-0.022875264152884482,-0.005377019755542278,0.01483442634344101,0.013969837687909603
1772363448865907500,0.752907470703125,0.03463029161542654,0.03394318613409996,-0.05504617991745472,-0.0017982637509703636,0.002259512897580862,0.014041476882994175
1772363448875976400,0.7629765625,0.02663987738341093,0.023142975178360937,-0.05904314059913158,-0.008868910372257233,0.00011829659342765808,0.013047236017882824
1772363448886046500,0.77304638671875,-0.0044607788011431695,0.0018014964640140532,-0.027623919984698295,-0.0005209660157561302,-0.003054327331483364,0.006924895104020834
1772363448896115200,0.783115234375,0.03734685709774494,0.04260287792980671,0.0075122753262519834,0.0032351743429899216,-0.00678516598418355,0.0031869555823504925
1772363448906185500,0.793185546875,0.04627294474467635,0.032057518517971034,0.058465632972121234,-0.00006474833935499191,0.006388693116605282,0.004579789005219936
1772363448916254500,0.80325439453125,0.015551789397001265,-0.007791092267632484,0.07858546093702316,-0.008847515098750591,0.01764022558927536,0.01050298660993576
1772363448926324500,0.813324462890625,-0.012094780810922384,-0.06297931100428104,0.059222004297375674,-0.02083733305335045,0.015486526302993298,0.009165015071630478
1772363448936393500,0.8233935546875,0.053369771137833595,-0.029450550889968872,0.02999532529115677,-0.028729334473609924,0.007144219242036343,0.002442134078592062
1772363448946463200,0.833463134765625,0.12248583133146167,0.018814006063342093,0.048587797558307645,-0.04042380675673485,0.001329472754150629,0.0014839284121990204
1772363448956532500,0.843532470703125,0.12714037913903592,0.03728139064610004,0.043599487751722336,-0.047732945531606674,-0.001704006688669324,-0.0027830898761749268
1772363448966602200,0.853602294921875,0.0707432230040431,0.0034919337689876553,0.0064794251471757885,-0.04588071629405022,-0.005452672019600868,-0.004019595682621002
1772363448976671500,0.86367138671875,0.04300678255558014,0.004872574472427368,-0.013110825985670089,-0.04416940361261368,-0.012147083878517151,-0.009298127144575119
1772363448986740200,0.873740234375,-0.011112053383886813,-0.005077157133817673,-0.03175122904777527,-0.03642786294221878,-0.008135564625263214,-0.007483449298888445
1772363448996810500,0.883810546875,-0.008465776658803223,-0.006492284628748893,0.003705868780612945,-0.02527061477303505,-0.0077683161944150925,-0.003994433209300041
1772363449006879200,0.893879150390625,-0.014812223076075314,0.0013683657437562943,0.01834229689836502,-0.012266400270164013,-0.012470392510294914,-0.0019951974973082542
1772363449016949500,0.903949462890625,-0.007717588640004396,0.011538462102413176,0.012809212690591812,-0.006484124343842268,-0.01261975895613432,0.001203065738081932
1772363449027018200,0.914018310546875,-0.007316314362734556,-0.009159458011388778,-0.04714402849078178,0.0032814210280776024,-0.009237011894583702,0.0011404813267290592
1772363449037088500,0.924088623046875,0.018468699757009745,-0.01746434502005577,-0.07146949145197867,0.005952479317784309,-0.015721149742603302,0.006073353812098503
1772363449047157500,0.934157470703125,0.04371434630304575,-0.020135025534033773,-0.026491116562485692,0.005679504945874214,-0.021269045770168304,0.0033052642829716206
1772363449057227300,0.944227294921875,0.037635172519832845,-0.00800561180114746,-0.0001274257719516754,0.010092731565237045,-0.024690382182598114,-0.0011295601725578308
1772363449067296500,0.954296630859375,0.03947422451525926,0.028577275186777114,0.059309098058938976,0.011221911758184433,-0.012116268277168274,-0.00247871782630682
1772363449077366300,0.9643662109375,0.06198226279094815,0.07250175710916519,0.11879179911911487,-0.001075970008969307,-0.00843183696269989,-0.008857796899974346
1772363449087435500,0.974435546875,0.06483560639545322,0.08210252914726733,0.07195639818608761,-0.013779249042272568,-0.008473381400108337,-0.010826672427356243
1772363449097505300,0.98450537109375,0.09220891261994839,0.06177928756475448,-0.02844108158648014,-0.026183314621448517,-0.023621605709195137,-0.011359551921486855
1772363449107574500,0.994574462890625,0.11967954173907637,0.029047230786085128,-0.12112521050274372,-0.04070872813463211,-0.03961921110749245,-0.011368339881300926
1772363449117644300,1.004644287109375,0.10750438916832208,-0.020230302602052688,-0.12968027288019657,-0.05476618930697441,-0.043346814811229706,-0.00747518427670002
1772363449127713500,1.014713623046875,0.06769494134932756,-0.04866553896963596,-0.08964052343666552,-0.05663865804672241,-0.0431249737739563,-0.014940823428332806
1772363449137783600,1.024783447265625,0.06778598063364624,-0.018355740901827813,0.005588029265403747,-0.044094268232584,-0.03345847502350807,-0.014616846106946468
1772363449147852500,1.0348525390625,0.05519947078302502,-0.009689619365334511,0.09661971479952335,-0.03833811357617378,-0.015070678666234016,-0.015183833427727222
1772363449157922600,1.044922607421875,-0.028257103321701286,-0.021247370690107344,0.0656301177740097,-0.025772470980882645,-0.010844811797142029,-0.01972273923456669
1772363449167991300,1.0549912109375,-0.0414355877161026,0.004307926326990127,0.005424363136291504,-0.0111200250685215,-0.01311062928289175,-0.020779481157660484
1772363449178061600,1.0650615234375,-0.0467458229534328,0.006006546938419342,-0.010262450817227363,-0.0037115998566150665,-0.01932467147707939,-0.018109479919075966
1772363449188130300,1.07513037109375,-0.07028612688630818,0.0007739069819450377,-0.02003448776900768,0.006145026534795761,-0.023846186697483063,-0.01681278645992279
1772363449198200600,1.08520068359375,-0.09944251713529229,-0.00360416197180748,-0.006911386823654175,0.010475573129951954,-0.02794829197227955,-0.01477288082242012
1772363449208269300,1.095269287109375,-0.11524228994399309,-0.012566051584482192,0.01787351034283638,0.014144343324005604,-0.027881447225809097,-0.008232155814766884
1772363449218339300,1.10533935546875,-0.08123655996769666,-0.006178396373987197,0.05244447298645973,0.016454994678497314,-0.028227785602211952,-0.002418108284473419
1772363449228408300,1.115408203125,-0.046235389213263985,0.017513444858789442,0.06167524266839027,0.01588480919599533,-0.025238387286663055,-0.0012247450649738312
1772363449238478300,1.125478271484375,-0.04090542636215687,0.02793956180512905,0.02711129428744316,0.021122414618730545,-0.019276658073067665,0.004393312614411116
1772363449248547300,1.13554736328125,-0.03886792918518185,0.0599485650062561,-0.001516249781847,0.01832769438624382,-0.01936081424355507,0.004879872314631939
1772363449258617300,1.145617431640625,-0.003933686187118292,0.07997077781558036,-0.04661211357116699,0.014828107319772243,-0.024434568360447884,0.00396377220749855
1772363449268686600,1.1556865234375,0.009064911595731973,0.08964929126501082,-0.05251052395999431,0.012244041077792645,-0.02508224919438362,-0.002371621783822775
1772363449278756400,1.16575634765625,0.045686377028375864,0.10905366443693637,-0.06868366012573242,0.00935527216643095,-0.03246007859706879,-0.007451482117176056
1772363449288825600,1.17582568359375,0.046938569046556945,0.12441840682923794,-0.08857552455365657,-0.0018425211310386658,-0.043101273477077484,-0.009395056404173374
1772363449298895400,1.185895263671875,0.03028349458277225,0.10958616387844085,-0.05832943937182426,-0.01657300814986229,-0.05219319090247154,-0.0062911794520914555
1772363449308964600,1.195964599609375,-0.011793752037733793,0.02332885313928127,-0.012365560576319694,-0.03153970465064049,-0.04952443763613701,-0.00722515070810914
1772363449319034400,1.206034423828125,-0.04707315521165728,-0.04184826017022133,-0.005326747980713844,-0.0468611903488636,-0.04178854823112488,-0.005725478287786245
1772363449329103400,1.216103271484375,-0.036386779893934726,-0.07655307832658291,-0.01814414397776127,-0.05623525008559227,-0.030872251838445663,-0.0006196652539074421
1772363449339173400,1.22617333984375,-0.034097353782504794,-0.09377601580619811,-0.059873746204376216,-0.05973818153142929,-0.032638028264045715,-0.0009832149371504784
1772363449349242400,1.236242431640625,-0.014437836805731057,-0.07725976529121399,-0.10064239444434642,-0.05599271133542061,-0.04323394596576691,0.003778517246246338
1772363449359311400,1.246311279296875,-0.005548866298794746,-0.014706570744514464,-0.07946341281533241,-0.0456315241754055,-0.05326944962143898,0.0020672613754868507
1772363449369381400,1.25638134765625,0.022264731039106846,0.04703998359441757,0.03216273245811462,-0.03215726464986801,-0.04581552743911743,0.00907616876065731
1772363449379450400,1.266450439453125,0.002893383353948593,0.04257774348855018,0.094330142557621,-0.011419441550970078,-0.034972403198480606,0.009360548108816147
1772363449389520400,1.276520263671875,0.005916238306462765,0.06723404583930968,0.10536766940057277,0.0044143833220005035,-0.024863842874765396,0.011835956014692783
1772363449399589600,1.286589599609375,-0.02385229249149561,0.07575520594716072,0.09068564857542515,0.015177004039287567,-0.016291547566652298,0.009649463929235935
1772363449409659400,1.296659423828125,-0.07494476634711027,0.07437807237505913,0.028074001839756963,0.019495854154229164,-0.018620215356349945,0.011881193146109581
1772363449419728600,1.306728759765625,-0.12393325366079806,0.04242401423156261,-0.019548165556788445,0.02582690492272377,-0.02384905330836773,0.0031731249764561653
1772363449429798400,1.31679833984375,-0.11624985955134033,0.013868950876593589,-0.009636427873373031,0.03198013827204704,-0.030083512887358665,0.008063754066824913
1772363449439867400,1.326867431640625,-0.08294511745125055,-0.01863280427753925,0.07012392206192017,0.03284962847828865,-0.018414631485939026,0.014155322685837746
1772363449449937400,1.3369375,-0.03993818876519799,-0.05373626636266708,0.153698861849308,0.024862807244062424,-0.004153937101364136,0.022075297310948372
1772363449460006400,1.34700634765625,-0.039591275023669,-0.09872925429940223,0.1670534334629774,0.01193330530077219,0.008276036940515041,0.03211839869618416
1772363449470076400,1.357076416015625,-0.028881664960831402,-0.1285889705121517,0.1537684199541807,0.001576271839439869,0.028005801141262054,0.04344402253627777
1772363449480145400,1.3671455078125,-0.014665800342708825,-0.13270049748420715,0.11175006391406059,-0.004369677044451237,0.04305865988135338,0.04863861948251724
1772363449490215400,1.37721533203125,-0.00023775427863001821,-0.10711071367561817,0.07577800230085849,-0.00869145430624485,0.053081732243299484,0.049563270062208176
1772363449500284400,1.387284423828125,0.03402224271968007,-0.07626315546929836,-0.010640051957964896,-0.010508804582059383,0.04742422699928284,0.04310320317745209
1772363449510354400,1.3973544921875,0.08812456591576337,-0.015964461851119993,-0.09406126248836517,-0.004645856097340584,0.043253716081380844,0.036412809044122696
1772363449520423400,1.40742333984375,0.13767477876544,0.04012567416131496,-0.1088560960382223,-0.0008376073092222214,0.03567090258002281,0.02623501420021057
1772363449530493400,1.417493408203125,0.16488471112176775,0.0660047963052988,-0.1217138240456581,-0.0013705063611268997,0.025117861106991768,0.01858348585665226
1772363449540562400,1.4275625,0.1513150354526937,0.04798574001193046,-0.1635895567446947,0.001338358037173748,0.01342085748910904,0.01857345923781395
1772363449550632400,1.437632568359375,0.14187719889134168,0.00824175864458084,-0.12708324212431907,0.008065237663686275,0.005203408654779196,0.009017772041261196
1772363449560701400,1.447701416015625,0.16880290747880936,0.047475452402234074,-0.017081483182311057,0.007283739745616913,0.015059070661664009,0.0035026506520807743
1772363449570771500,1.457771484375,0.13371610426753758,0.03173369339108467,0.019068273085355757,0.006175065413117409,0.020833071321249008,-0.004215457011014223
1772363449580840400,1.46784033203125,0.08341171204969286,-0.008002104669809341,-0.006990297278761863,0.00824199803173542,0.018196869641542435,-0.004605389200150967
1772363449590910500,1.477910400390625,0.05707973157167434,-0.0357715706050396,-0.023027239844202994,0.00517217256128788,0.01055439654737711,-0.010925337672233582
1772363449600979500,1.4879794921875,0.040518180610239506,-0.023617606952786443,0.00006663549542427062,0.000059436075389385223,0.00803371425718069,-0.009093347936868668
1772363449611049500,1.498049560546875,0.014968874942511319,-0.008804653224349021,0.06569616874754429,-0.005884472746402025,0.012401032261550426,-0.012670772150158882
1772363449621118200,1.5081181640625,0.00351984468922019,-0.009129647395014762,0.10354980632364749,-0.012664686888456345,0.01676984876394272,-0.015030095353722572
1772363449631188500,1.5181884765625,0.01581234002932906,0.0055944590061902996,0.13191665363013744,-0.01756410486996174,0.014599104411900043,-0.012935252860188484
1772363449641257500,1.528257568359375,0.013492811040580272,0.018863690423965452,0.1108779572546482,-0.01559507381170988,0.011872222647070885,-0.01686621829867363
1772363449651327500,1.538327392578125,0.01893003365844488,0.06367664561867714,0.07881693160533905,-0.002002832479774952,0.022412749007344246,-0.016229456290602684
1772363449661396500,1.548396484375,-0.0027821780644357204,0.08459785309433937,0.07538403454720974,0.008371163159608841,0.03875540941953659,-0.011196712031960487
1772363449671466200,1.55846630859375,-0.0697225016541779,0.05025660755336284,0.02270809089243412,0.015095643699169159,0.032170478254556656,-0.0014418205246329308
1772363449681535500,1.568535400390625,-0.128230366332829,-0.010459434694051742,-0.06889291896224022,0.02652210369706154,0.015285477042198181,0.0007780520245432854
1772363449691601700,1.5786015625,-0.10541808441355824,-0.023963059389591215,-0.06057867960333824,0.03307640925049782,0.010962100699543953,0.00455388193950057
1772363449701672000,1.588671875,-0.08394026596844195,-0.02054477537870407,-0.02399170096218586,0.03434173762798309,0.014681155793368816,0.007387741934508085
1772363449711740700,1.59874072265625,-0.08741977864727378,-0.020324995148181913,-0.020363573592901228,0.027859337627887726,0.013292052783071995,0.008830110542476177
1772363449721811000,1.60881103515625,-0.06693316319659352,-0.028223054921627043,-0.012951836031675337,0.02812904119491577,0.01324374694377184,0.008997063152492046
1772363449731879700,1.618879638671875,-0.0446881597712636,-0.00022796353697776794,0.006725508862733841,0.023831497877836227,0.012124952860176563,0.014256007969379425
1772363449741949700,1.62894970703125,-0.04351853147000074,0.024002806878089904,0.00741875182390213,0.008821521885693073,0.006370076444000006,0.010452729649841785
1772363449752018700,1.639018798828125,-0.04519289442300796,0.04611293187737465,-0.05883914245963096,-0.010384929366409779,-0.010514364577829838,0.006174094974994659
1772363449762088700,1.649088623046875,0.012704729402810335,0.058907531520724296,-0.09506371752917767,-0.021871980279684067,-0.022632889449596405,0.004172847606241703
1772363449772157700,1.65915771484375,0.07127294596657156,0.0667015463978052,-0.07307400403916835,-0.027759164571762085,-0.029542727395892143,-0.0036384696140885353
1772363449782227700,1.669227783203125,0.13291706284433602,0.06421206766963004,-0.0477402408182621,-0.044380221515893936,-0.02512294426560402,-0.005077642388641834
1772363449792296700,1.679296630859375,0.10229483782649039,0.0072474869102239605,-0.061544894286990164,-0.05733170360326767,-0.023577246814966202,-0.004536221735179424
1772363449802366700,1.68936669921875,0.04456234143450856,-0.009745148944854736,-0.05682546454966068,-0.056524910032749176,-0.024691980332136154,-0.009320644661784172
1772363449812436000,1.69943603515625,0.030329671812057493,0.014338321954011916,-0.0025765724897384643,-0.054420217871665955,-0.014640412293374538,-0.010960619896650314
1772363449822505700,1.709505615234375,0.012123276253044605,0.018003858724236488,0.040946342894434926,-0.055781327188014984,-0.012991356663405895,-0.006624846253544092
1772363449832574700,1.71957470703125,-0.04465776463299989,-0.024259996509552,-0.04062602489888668,-0.03937172517180443,-0.024515654891729355,-0.005096458364278078
1772363449842644700,1.729644775390625,-0.035099808823317286,-0.05688800839185714,-0.09577741875648497,-0.021707776933908463,-0.036367785185575485,-0.006738030817359686
1772363449852713700,1.739713623046875,0.020753888084739446,-0.0004015665382146835,-0.046018823853135105,-0.004665941931307316,-0.033180247992277145,-0.0020881514064967632
1772363449862783700,1.74978369140625,0.016909341485798358,0.008853168541193009,0.021628478962182996,0.006377869285643101,-0.02872431091964245,-0.006215205881744623
1772363449872852700,1.759852783203125,-0.007692600329220294,0.014539397484064102,0.06045066930949688,0.014834470115602016,-0.029262270778417587,-0.01051701046526432
1772363449882922800,1.7699228515625,0.02187310137301683,0.02658405554294586,0.037789340168237685,0.022080738097429276,-0.0434030219912529,-0.019194627180695534
1772363449892991700,1.77999169921875,0.0921354089923203,0.09332418038547038,0.034033202505111694,0.033207423985004425,-0.05088357627391815,-0.026120176538825035
1772363449903061800,1.790061767578125,0.15637582597360014,0.1493599558621645,0.05035071557760239,0.03139491379261017,-0.04375234991312027,-0.022862717509269714
1772363449913130800,1.800130859375,0.11133373819813132,0.12101005969047546,-0.002212415352463722,0.03395474702119827,-0.047464799135923386,-0.021247245371341705
1772363449923200800,1.81020068359375,0.0960921837940812,0.10485738179087638,-0.06993979766666888,0.032959092408418655,-0.05746174603700638,-0.018904857337474823
1772363449933269800,1.820269775390625,0.12165975577086209,0.11002864694893359,-0.0900081877052784,0.027898021042346954,-0.0722966194152832,-0.025155561044812202
1772363449943339800,1.83033984375,0.15120149207562208,0.1284358257770538,-0.1477817467600107,0.02055709809064865,-0.0996510237455368,-0.025064149871468544
1772363449953408800,1.84040869140625,0.14936580108106134,0.09757891522049904,-0.19127192891836164,0.01371969934552908,-0.11350452154874802,-0.016123918816447258
1772363449963478800,1.850478759765625,0.06638546618595718,-0.008915127861499787,-0.07061375140547752,-0.002460528165102005,-0.08967791497707367,-0.012978431768715382
1772363449973547800,1.8605478515625,0.009796586871147156,-0.08338204756379126,0.15340893899202346,-0.02800530195236206,-0.06648311764001846,-0.01817718893289566
1772363449983617800,1.87061767578125,-0.002138911724835634,-0.1492810454070568,0.21490824057161806,-0.04660942777991295,-0.054398637264966965,-0.014334277249872684
1772363449993686800,1.880686767578125,-0.07913944155797362,-0.20355740999579428,0.10900398007631301,-0.055307045578956604,-0.05232084169983864,-0.00942953210324049
1772363450003755800,1.890755859375,-0.16930734986960888,-0.24244974296987054,0.010070727637410163,-0.05704805999994278,-0.038966815918684006,0.0008216002024710178
1772363450013825500,1.900825439453125,-0.2334006134651601,-0.25844927613437174,0.017341595423221588,-0.05258779227733612,-0.013704869896173477,0.0010106847621500492
1772363450023894800,1.910894775390625,-0.19551292748898266,-0.2156651964187622,0.09581775076687335,-0.04651319235563278,-0.000060160644352436066,-0.0023329071700572968
1772363450033964800,1.92096484375,-0.12872940189614893,-0.12908932124972342,0.1122504146516323,-0.03722675144672394,0.0034469556994736195,0.0031918208114802837
1772363450044033800,1.93103369140625,-0.1180129237011075,-0.0701525636345148,0.06367547657489776,-0.021370284259319305,0.010485472157597542,0.0036376360803842545
1772363450054103800,1.941103759765625,-0.1044429557710886,-0.01886778207719326,0.0183387897670269,0.0008817585185170174,0.008390629664063454,0.010578365996479988
1772363450064172800,1.9511728515625,-0.044286008711159223,0.023959552258253095,0.01153612401485443,0.023328345268964767,0.008587753400206566,0.01391372736543417
1772363450074242800,1.961242919921875,0.0118140641734004,0.08131050198674201,0.050348962011933326,0.038591984659433365,0.011150779202580452,0.017817389219999313
1772363450084311800,1.971311767578125,0.02982055324614048,0.11968728665411471,0.0985258406817913,0.04144459217786789,0.01227237656712532,0.017645183950662613
1772363450094381800,1.9813818359375,0.03982099212631583,0.1521183146595955,0.1771954727709293,0.04758024960756302,0.024875253438949585,0.017972484230995178
1772363450104450800,1.991450927734375,0.027181875305622813,0.16275544400811195,0.23393559712469578,0.04655439034104347,0.050365280359983444,0.01999778300523758
1772363450114520800,2.001520751953125,-0.010478139394521713,0.0993102690577507,0.22448212460279462,0.041208893060684204,0.06757063418626785,0.023582929745316505
1772363450124589600,2.011589599609375,-0.045603667180985206,0.04706394899189472,0.1508493176370859,0.03408940136432648,0.06794246286153793,0.02429134026169777
1772363450134659800,2.021659912109375,-0.021209084506332875,0.028427053061127663,0.07650397848784923,0.024011999368667603,0.06918642669916153,0.024941418319940567
1772363450144728600,2.031728515625,-0.015629969199746845,-0.02863397381007671,0.03395838370323181,0.01198516320437193,0.0739569440484047,0.02280449867248535
1772363450154798800,2.041798828125,0.020290508356690405,-0.031142741760611534,0.0009662146836519241,0.0018025673925876617,0.07661691308021545,0.017934640869498253
1772363450164867600,2.05186767578125,0.06061521222144365,-0.01210252572596073,-0.06099135205745697,-0.005966599564999342,0.07290136814117432,0.013741254806518555
1772363450174937600,2.0619375,0.08750073492899536,-0.028729250878095625,-0.11860650568008423,-0.007369020022451878,0.06616862863302231,0.01133642066270113
1772363450185006800,2.0720068359375,0.10502031726762652,-0.03531096735596657,-0.1544084714233875,-0.009734116494655609,0.04909761995077133,0.010360061191022396
1772363450195076600,2.08207666015625,0.08877937656268477,-0.020036825856566427,-0.18697101685404777,-0.0036959312856197357,0.03636904060840607,0.011206147260963917
1772363450205145900,2.092145751953125,0.06595876520648598,0.011008885270357132,-0.16193711336255073,0.005246609449386597,0.032594505697488785,0.00758924288675189
1772363450215215600,2.102215576171875,0.021760288648307324,0.03871522284150123,-0.12442483657002448,0.016495268791913986,0.02960803732275963,0.003958289045840502
1772363450225284900,2.112284912109375,-0.022948037128150463,0.036896190720796584,-0.11889467497169971,0.020425932481884956,0.02420983277261257,0.002512596547603607
1772363450235354600,2.122354736328125,-0.07359247495532036,-0.016270751321315766,-0.14316460835337638,0.0201492290943861,0.010905478149652481,-0.0016810833476483822
1772363450245423900,2.132423828125,-0.048115650001913306,-0.050479310393333435,-0.07611410238742827,0.018445808440446854,0.0028065890073776245,-0.0007774634286761284
1772363450255493600,2.14249365234375,0.004238806613534689,-0.040215106010437006,0.00400631303191185,0.01562365610152483,-0.010144096799194813,0.0038505783304572105
1772363450265563000,2.15256298828125,0.025546090797334907,-0.0067167410343885415,0.1010790322959423,0.015057221055030823,-0.024711549282073975,0.011610837653279305
1772363450275633000,2.1626328125,0.03718465227335691,-0.0105178868830204,0.1309773269534111,0.015211418271064758,-0.033673617988824844,0.009951421990990639
1772363450285701600,2.17270166015625,0.06175400699302554,0.03812953190803527,0.18104513393640517,-0.0002157175913453102,-0.021759027615189552,0.010551008395850658
1772363450295772000,2.18277197265625,0.040558951012045145,0.12892740868628025,0.25855799720585343,-0.01348571665585041,0.0013742540031671524,0.005823364481329918
1772363450305840600,2.192840576171875,-0.005320464370399713,0.10366378809213637,0.25993922243118284,-0.018600337207317352,0.012446308508515358,0.00578600587323308
1772363450315910000,2.202909912109375,-0.023519991797208786,0.015935235756635666,0.18054361415505407,-0.01762588694691658,0.00848379172384739,0.0034408261999487877
1772363450325979600,2.212979736328125,-0.06153495741486549,0.0006949965268373489,0.05600421129465103,-0.008899006061255932,0.006994257681071758,0.006264430470764637
1772363450336050000,2.2230498046875,-0.11886632566004991,-0.005576923349499702,-0.05867080015540123,0.001497708261013031,-0.0034027229994535446,0.008951826021075249
1772363450346118700,2.23311865234375,-0.11693477307558059,-0.0165524908721447,-0.09530746315717696,0.017079010605812073,-0.020601214841008186,0.014281123876571655
1772363450356188000,2.24318798828125,-0.07678717934340239,-0.023404840984940528,-0.07811725890338421,0.025819238275289536,-0.036287762224674225,0.014633727259933949
1772363450366257700,2.253257568359375,-0.08449746145978569,-0.060603814044594764,-0.03596563187241554,0.02624380961060524,-0.030893050134181976,0.024365972727537155
1772363450376327000,2.263326904296875,-0.14266674183383582,-0.10998188519775867,0.011059154152870178,0.023700490593910217,-0.018259814009070396,0.03535177931189537
1772363450386396700,2.273396728515625,-0.15447423013597725,-0.13668109155297278,0.03582534661889076,0.019882328808307648,-0.008559097535908222,0.03777343034744263
1772363450396465700,2.283465576171875,-0.14158274598941206,-0.10360708946883677,0.03750350896418094,0.01892438903450966,-0.009325820952653885,0.039615269750356674
1772363450406536000,2.293535888671875,-0.09250453456565737,-0.030847558206319806,0.012650807258486748,0.013202576898038387,-0.009961670264601707,0.035564299672842026
1772363450416604700,2.303604736328125,-0.07118965159729122,0.012353870138525963,0.002388356441259384,0.0033542076125741005,-0.01021973043680191,0.036099061369895935
1772363450426675000,2.313675048828125,-0.06914353272244333,0.0059463411837816236,-0.01596738446056843,-0.008852933533489704,-0.015413046814501286,0.032274194061756134
1772363450436743700,2.32374365234375,0.0010477554872632027,0.03566752570867538,0.009202712631225586,-0.017246151342988014,-0.01709616556763649,0.030657120048999786
1772363450446813700,2.333813720703125,0.03785553727224469,0.05268588052690029,0.031008886247873305,-0.02575618028640747,-0.015143243595957756,0.03474654257297516
1772363450456882700,2.343882568359375,0.0064307636998593804,0.03413783192336559,-0.01812660832107067,-0.03195229172706604,-0.013106457889080048,0.04168407991528511
1772363450466952700,2.35395263671875,0.018191344120353458,0.03117722855210304,-0.0645884997665882,-0.02980189025402069,-0.012419920414686203,0.04155317693948746
1772363450477021700,2.364021728515625,0.03306216551586985,0.06144084939062595,-0.04372106830477714,-0.03039897233247757,-0.007039003074169159,0.03714191913604736
1772363450487091700,2.374091796875,0.042124300632625816,0.05102642288208008,-0.019717092382907867,-0.029680360108613968,0.0012355782091617584,0.040838487446308136
1772363450497160700,2.38416064453125,0.025437515856325626,0.01982815154194832,-0.017280220624804495,-0.022602742537856102,0.003433218691498041,0.04034074395895004
1772363450507230700,2.394230712890625,0.020877222203463313,0.00012099603116512298,-0.0069189856082201,-0.007605442311614752,0.009088036604225636,0.036109935492277145
1772363450517299700,2.4042998046875,0.052257425981760024,-0.010653495961427688,0.003144727766513824,0.010859585367143154,0.014896124601364136,0.03145100176334381
1772363450527369700,2.41436962890625,0.10096329696178435,-0.01770166090726852,0.02501169165968895,0.019337620586156845,0.024001900106668472,0.028498869389295578
1772363450537439000,2.42443896484375,0.08352394025251268,-0.07860650372505187,0.058527592292428016,0.014924229122698307,0.036473751068115234,0.029754016548395157
1772363450547508700,2.4345087890625,0.0195958040907979,-0.13765841215252875,0.03572071720063686,0.012905255891382694,0.044730693101882935,0.02613626793026924
1772363450557577700,2.44457763671875,0.032144612279534336,-0.12891922537982464,0.031048633736371994,0.008282807655632496,0.045445483177900314,0.021524472162127495
1772363450567647700,2.454647705078125,0.06487082383930683,-0.07974515236616134,0.011762918508052824,0.0055089183151721954,0.04661712050437927,0.01265716552734375
1772363450577716700,2.464716796875,0.10155351793989538,-0.024424831682443617,-0.04232932168543339,0.010851752012968063,0.04018665850162506,0.009664305485785007
1772363450587786800,2.474786865234375,0.16742738134190438,0.05118775092363357,-0.1095493389993906,0.022689830511808395,0.02549394592642784,0.0024436675012111664
1772363450597855700,2.484855712890625,0.20191212700679897,0.108054716527462,-0.11735504431426524,0.0322287417948246,0.011045495979487896,-0.0009476020932197571
1772363450607925800,2.49492578125,0.22284239457175134,0.13580840037167072,-0.0759212101638317,0.039534732699394226,0.0030103106983006,-0.004567352589219809
1772363450617994800,2.504994873046875,0.19231705405712127,0.12041034023165702,-0.03297580240666866,0.04172331839799881,0.004205271136015654,-0.011022057384252548
1772363450628064800,2.515064697265625,0.17596578484550118,0.13439678000807762,0.0029682021558284756,0.043663859367370605,0.007175201550126076,-0.013207849115133286
1772363450638133800,2.5251337890625,0.1199700491182506,0.08583937758803367,-0.0004173486292362213,0.036611542105674744,0.011960102245211601,-0.020057765766978264
1772363450648203800,2.535203857421875,0.10326382898911833,0.056207040390372276,0.04014320981800556,0.022850200533866882,0.010974885895848274,-0.03108001872897148
1772363450658272800,2.545272705078125,0.10148585953116417,0.0011620295166969298,0.03871756092905998,0.0006674015894532204,0.008967927657067776,-0.028262659907341003
1772363450668341800,2.555341796875,0.03417947910800576,-0.054772623673081396,0.006640168666839599,-0.011840971186757088,0.006300961598753929,-0.032437581568956375
1772363450678411800,2.565411865234375,-0.0012320260129868984,-0.08862287082672118,-0.02406885785162449,-0.015578185208141804,0.007038123905658722,-0.027569055557250977
1772363450688480300,2.575480224609375,-0.008952391131967306,-0.09296937559843063,-0.008227730119228362,-0.01796337217092514,0.008933116681873798,-0.022015787661075592
1772363450698550300,2.58555029296875,-0.02724354236498475,-0.08002806096076964,-0.00019347674548625944,-0.023103538900613785,0.009226330555975437,-0.025903204455971718
1772363450708619300,2.595619384765625,-0.03088774408623576,-0.06297580387294292,0.0006616787791252136,-0.02210666798055172,0.013140072114765644,-0.022542376071214676
1772363450718689300,2.605689208984375,-0.04367766755446791,-0.08295067040920256,-0.030902503263950346,-0.010434298776090145,0.013796540908515453,-0.018366005271673203
1772363450728758300,2.61575830078125,-0.06875994023233652,-0.08533610424101352,-0.060358314850926395,0.005030861124396324,0.013136358000338078,-0.01573779806494713
1772363450738828300,2.625828369140625,-0.05812295701429247,-0.005564063867926597,-0.037870004189014435,0.028314078226685524,0.00920686312019825,-0.01838524639606476
1772363450748897300,2.635897216796875,-0.02051803350225091,0.09255436505675316,0.022157471272349356,0.04427820444107056,0.013320749625563622,-0.015605145134031773
1772363450758967300,2.64596728515625,-0.002517974170297384,0.1303448742687702,0.06117372288703918,0.049322228878736496,0.015016118064522743,-0.015894629061222076
1772363450769036300,2.656036376953125,-0.022805413787066936,0.10432020617425442,0.07223346156179905,0.04497838765382767,0.025424359366297722,-0.010817432776093483
1772363450779106300,2.666106201171875,-0.021907149773091078,0.06124211194813251,0.07156652208566665,0.04192454367876053,0.029955996200442314,-0.01584707759320736
1772363450789175300,2.67617529296875,0.01366933665126562,0.06305763693749904,0.07100304298400878,0.031697243452072144,0.02639302983880043,-0.01253928616642952
1772363450799245300,2.686245361328125,0.046763943132013076,0.038870705664157866,0.032115386185050006,0.013637280091643333,0.019789189100265503,-0.011237265542149544
1772363450809314300,2.696314208984375,0.0388277433052659,0.020420272216200828,-0.04767360532283783,0.002973569557070732,0.014007478021085262,-0.014295961707830429
1772363450819384300,2.70638427734375,0.0686680241651833,0.0399105701059103,-0.036510406273603434,-0.00569102494046092,0.010766676627099514,-0.011208027601242065
1772363450829453300,2.716453369140625,0.05171805840805173,0.014989479339122772,-0.012484218519926071,-0.01375482976436615,0.009918954223394394,-0.010795842856168747
1772363450839523300,2.7265234375,-0.0004177870206534862,-0.04156009087860584,-0.03550853575468063,-0.016241690143942833,0.004563603084534407,-0.010123929008841515
1772363450849592300,2.73659228515625,0.012705898446589708,-0.03348082931935787,-0.027480127599835393,-0.009134686551988125,-0.0003223586827516556,-0.007056131958961487
1772363450859662300,2.746662353515625,-0.00002367313653230667,-0.015403320837020873,0.013641571861505507,0.0017650993540883064,0.0041325767524540424,-0.010455922223627567
1772363450869731000,2.75673095703125,-0.008567045076191425,-0.005967968493700027,0.013265724286437033,0.014964349567890167,0.0033979499712586403,-0.011342920362949371
1772363450879801300,2.76680126953125,-0.01803513064533472,-0.012545008796453476,-0.023903438156843183,0.02809666283428669,-0.004549721255898476,-0.0064269909635186195
1772363450889870300,2.776870361328125,-0.06303191797435283,-0.020526070678234098,-0.06984218251109123,0.052311189472675323,-0.009005456231534481,-0.020342007279396057
1772363450899940400,2.7869404296875,-0.020502689802646634,0.04978899004161358,-0.04158230271041393,0.06215236335992813,-0.006555614527314901,-0.02656368538737297
1772363450910009300,2.79700927734375,0.01564428998604417,0.029167057773470877,-0.017042904737591742,0.06310686469078064,-0.004476179834455252,-0.025385159999132156
1772363450920079000,2.8070791015625,-0.0396871366135776,-0.025522563791275023,0.005285246926546096,0.06350607424974442,0.0016208612360060215,-0.023108959197998047
1772363450930148400,2.8171484375,-0.05293590976521372,-0.029324294161796566,0.056714405390620226,0.04990597814321518,0.002191680483520031,-0.016390584409236908
1772363450940218000,2.827218017578125,-0.08052899622023105,-0.04884907884299755,0.039733459973335265,0.03691641241312027,-0.004924019332975149,-0.013478417880833149
1772363450950287400,2.837287353515625,-0.05429185441881418,0.00027004911303520204,0.04128361202478409,0.02705523930490017,-0.007696143351495266,-0.011742375791072845
1772363450960357000,2.847357177734375,-0.02574059045612812,0.030096447578072547,0.10195581513047218,0.02128257416188717,0.0028952481225132942,-0.01008429192006588
1772363450970426400,2.85742626953125,-0.03564779809489846,0.0495353075414896,0.15017945555150508,0.015597374178469181,0.02477099746465683,-0.0029438799247145653
1772363450980496400,2.867496337890625,-0.0525435494467616,0.04122457531392574,0.17467676794826983,0.006659804843366146,0.03329763934016228,-0.001426677219569683
1772363450990565400,2.8775654296875,-0.0680908087991178,0.021690438282489774,0.1519254224359989,-0.0051353694871068,0.03926149755716324,0.0013729576021432877
1772363451000635400,2.887635498046875,-0.07955386757776141,-0.03445288922190666,0.10750818856060504,-0.009903493337333202,0.04120667278766632,0.01029641181230545
1772363451010704400,2.897704345703125,-0.1026040499061346,-0.06672609631717205,0.05349310525655746,-0.00559327844530344,0.04465501755475998,0.01636424846947193
1772363451020774400,2.9077744140625,-0.13544877327904103,-0.059901803255081175,-0.017262100446224213,0.007194421254098415,0.044041164219379425,0.01888652890920639
1772363451030843100,2.917843017578125,-0.16549363680034876,-0.04680149866342544,-0.05521569126546383,0.017505668103694916,0.0448332279920578,0.0250808484852314
1772363451040913400,2.927913330078125,-0.13388517722412943,-0.019698387682437896,-0.06374094302654267,0.02740810066461563,0.03125695884227753,0.026738932356238365
1772363451050982100,2.937982177734375,-0.06796674402803182,0.01877718118429184,-0.04986906954050064,0.03725333511829376,0.023406710475683212,0.02739645726978779
1772363451061052400,2.948052490234375,-0.009027648325264453,0.06804302413463592,0.026155600997805593,0.03449217230081558,0.03109898790717125,0.026345839723944664
1772363451071121200,2.95812109375,0.005975128886848688,0.07711305029690266,0.055036243045330044,0.039375968277454376,0.0403490848839283,0.02410116419196129
1772363451081191400,2.96819140625,-0.009036708414554595,0.05941957269608974,0.05731587841510773,0.03657139465212822,0.04861367121338844,0.02927355468273163
1772363451091260200,2.97826025390625,-0.020069997473806143,0.02138181072473526,0.020750527083873746,0.03441891446709633,0.04358470067381859,0.025453874841332436
1772363451101330200,2.988330078125,0.02082695332095027,0.006924830827116966,-0.001710311049222946,0.026403866708278656,0.03437575697898865,0.022814681753516197
1772363451111399400,2.9983994140625,0.03746975282505154,0.006669979283213615,0.01935527333319187,0.021854160353541374,0.04118361324071884,0.02463962696492672
1772363451121469200,3.00846923828125,0.03145399966686964,0.027788170635700223,0.06774550249278545,0.010652637109160423,0.049641549587249756,0.019241666421294212
1772363451131538400,3.018538330078125,0.04429010036438703,0.021639000356197355,0.03567512449324131,-0.001358402892947197,0.044443048536777496,0.018676606938242912
1772363451141607200,3.028607177734375,0.08506167121380567,-0.0009615385085344314,-0.06331073491573333,-0.015832416713237762,0.027930648997426033,0.020312853157520294
1772363451151677400,3.038677490234375,0.14018866128250956,-0.020714286726713178,-0.15443828203976154,-0.022399283945560455,0.012498521246016026,0.013175131753087044
1772363451161746200,3.04874609375,0.16542568613067268,-0.014061843100190163,-0.12620353668034076,-0.03025880455970764,0.006123977713286877,0.009287982247769833
1772363451171816400,3.05881640625,0.15702128427028655,-0.013296119424700737,-0.061249710732698436,-0.03769014775753021,0.004916383884847164,0.005103669129312038
1772363451181885200,3.06888525390625,0.11097484175786375,-0.02395721417069435,-0.041403439012169835,-0.03316942974925041,0.004737419076263905,-0.002080207224935293
1772363451191955200,3.078955078125,0.10574702410697936,0.030045009651780127,-0.021993220621347426,-0.016014346852898598,0.004149662796407938,-0.007085894234478474
1772363451202024200,3.089024169921875,0.08612754687964916,0.05445639733076095,-0.016449030497670172,0.002312995493412018,-0.004072048235684633,-0.009865435771644115
1772363451212094200,3.09909423828125,0.05581964850798249,0.08118190717101097,-0.012381342667341231,0.018333304673433304,-0.006911828648298979,-0.016114287078380585
1772363451222163200,3.1091630859375,0.049608665038645264,0.09634615855515002,0.006539630901813507,0.03295059874653816,-0.010657564736902714,-0.018750816583633423
1772363451232233200,3.119233154296875,0.036229689636081454,0.07302899585366249,0.04053308591842651,0.040418773889541626,-0.0038680527359247208,-0.020804893225431442
1772363451242302200,3.12930224609375,0.03708163029029965,0.036384149545431135,0.06808627875447273,0.04267926514148712,0.00039034150540828705,-0.020041365176439285
1772363451252372200,3.139372314453125,0.01382555012628436,0.008407178339362144,0.04293137923181057,0.04189029708504677,-0.002274732803925872,-0.023581257089972496
1772363451262441500,3.14944140625,0.02110489347949624,-0.0100865097284317,0.010668109008669853,0.039234060794115067,-0.0085587278008461,-0.019787052646279335
1772363451272511200,3.15951123046875,0.013979425513744353,-0.01969429602921009,-0.006727846950292587,0.03600585088133812,-0.004974279087036848,-0.011879567056894302
1772363451282580500,3.16958056640625,-0.035801527351886034,-0.029757424882054326,-0.039565117669105525,0.032427094876766205,0.0002934536896646023,-0.007028618361800909
1772363451292650200,3.179650146484375,-0.031529256860166784,-0.02278524778187275,-0.06114625035822391,0.019095897674560547,-0.00165133411064744,-0.005028363782912493
1772363451302719200,3.18971923828125,0.023846447272598742,-0.021514497193694113,-0.07452770997881888,0.006860801018774509,-0.020023416727781296,-0.008992744609713554
1772363451312789200,3.199789306640625,0.05658697961866855,0.0064770870596170425,-0.06435702909827232,-0.0049115451984107494,-0.016001956537365913,-0.010887226089835167
1772363451322858200,3.209858154296875,0.025761487113684416,0.041216392007470126,-0.02952244708240032,-0.011407794430851936,-0.013138791546225548,-0.014554133638739586
1772363451332928300,3.21992822265625,-0.026186580657958983,0.08053659500479697,-0.026039281141757964,-0.009762980043888092,-0.014449958689510822,-0.019702639430761337
1772363451342997200,3.229997314453125,-0.006209229903668165,0.10046762239933013,-0.010058452677726745,-0.01287807896733284,-0.010089831426739693,-0.01941554993391037
1772363451353067500,3.240067626953125,0.0007183774024248123,0.05656593683063984,0.0035059622943401335,-0.020127544179558754,-0.011971987783908844,-0.017693843692541122
1772363451363136300,3.25013623046875,-0.03108224374502897,-0.0235889653801918,-0.022174422407150268,-0.027114612981677055,-0.011766658164560795,-0.011679360643029213
1772363451373206300,3.260206298828125,-0.0011238894633948803,-0.06973463048338889,-0.03276362096071243,-0.03215743601322174,-0.015400758013129234,-0.014143564738333225
1772363451383275300,3.270275146484375,0.03801058170348406,-0.06365034213364124,0.007347440153360366,-0.03747790306806564,-0.012546914629638195,-0.010420997627079487
1772363451393345300,3.28034521484375,0.008692425021529197,-0.057681789118051524,0.04303951578140258,-0.03723245859146118,-0.001340358518064022,-0.008753465488553047
1772363451403414300,3.290414306640625,-0.010509411315619945,-0.055529579520225525,0.06756722331643104,-0.036947235465049744,0.00032038846984505653,-0.011522088199853897
1772363451413484300,3.300484375,-0.027408377537876366,-0.03827916951179504,0.06611234833300113,-0.03376280143857002,-0.0023034843616187572,-0.009708640165627003
1772363451423553300,3.31055322265625,-0.058506403373926874,-0.011634908214211464,0.03142565035521984,-0.02207019180059433,-0.007969625294208527,-0.010620771907269955
1772363451433623300,3.320623291015625,-0.05267711269855499,0.030606150665879246,0.021794483178853987,-0.010328065603971481,-0.013753997161984444,-0.008027992211282253
1772363451443692300,3.3306923828125,-0.059780076571553944,0.047101358392834664,0.032658407020568846,0.0005616005510091782,-0.017388146370649338,-0.006514517590403557
1772363451453762300,3.34076220703125,-0.05426423575952649,0.037758945029973984,0.06004910277128219,0.013030251488089561,-0.019143221899867058,-0.0038947672583162785
1772363451463831300,3.350831298828125,0.000021919570863246917,0.04496083923280239,0.11022387726008892,0.031116843223571777,-0.013863504864275455,-0.001808180008083582
1772363451473901300,3.3609013671875,0.05462064798176288,0.0695510906100273,0.17683306919932365,0.040624458342790604,0.0006203115917742252,-0.003011413849890232
1772363451483970300,3.37097021484375,0.03576324116811156,0.05656535230875015,0.18224340381026266,0.03686966747045517,0.014570482075214386,0.005982880014926195
1772363451494040300,3.381040283203125,-0.05855754903927445,-0.026100655940175056,0.09323942471146583,0.023491324856877327,0.014001062139868736,0.007501064799726009
1772363451504109300,3.391109375,-0.0827773596689105,-0.05332534747421741,0.02332943766117096,0.012123089283704758,0.0077133383601903915,0.006086926441639662
1772363451514179300,3.401179443359375,-0.043594227054715155,-0.03879822494983673,0.011790391036868094,0.005912477150559425,0.008844051510095596,0.001929787453263998
1772363451524248300,3.411248291015625,-0.020484569624066352,-0.030598551881313323,0.015090601626038551,-0.00374494306743145,0.009140994399785995,0.0025953114964067936
1772363451534318300,3.421318359375,-0.009856208103895188,-0.006991466322541237,-0.021283026525378227,0.003077552653849125,0.0040755486115813255,-0.0022867578081786633
1772363451544387300,3.43138720703125,0.04310892775580287,0.06861819367408752,-0.057557285955548286,0.002833873964846134,-0.006197595503181219,-0.003537378739565611
1772363451554457000,3.44145703125,0.04484013546258211,0.09488660739660262,-0.0775946963340044,0.007296542637050152,-0.013594106771051884,-0.0061842575669288635
1772363451564526300,3.4515263671875,0.02882218985855579,0.10292495242357254,-0.07689093197882176,0.014368566684424877,-0.017323065549135208,-0.008157127536833286
1772363451574596400,3.461596435546875,-0.01846826136559248,0.0667325260579586,-0.06887889043688773,0.012960588559508324,-0.015402102842926979,-0.00110599584877491
1772363451584665300,3.471665283203125,-0.08826996573582291,-0.01265548343360424,-0.05815057567358017,0.009876914322376251,-0.020307911559939384,0.001344112679362297
1772363451594735400,3.4817353515625,-0.09500234273076057,-0.04283025694489479,-0.021871640068292616,0.009449965320527554,-0.01633491739630699,0.009055644273757935
1772363451604804400,3.491804443359375,-0.0744549370035529,-0.045322073760628696,0.054555766052007675,0.0043279072269797325,-0.004004748538136482,0.015367602929472923
1772363451614874400,3.501874267578125,-0.06479805086404085,-0.02402735679745674,0.1277262162029743,-0.0015462180599570274,0.003860517404973507,0.014248047024011612
1772363451624943400,3.511943359375,-0.015096885236352681,0.03922492592930794,0.1376297705799341,-0.006176390219479799,0.008092546835541725,0.013140438124537468
1772363451635012400,3.522012451171875,0.025670155568420887,0.06910451588630676,0.0874152486026287,-0.012797623872756958,0.00941428728401661,0.011586951091885567
1772363451645082000,3.53208203125,0.014705986222624779,0.02513444125652313,0.03510170851945877,-0.022959448397159576,0.012432713061571121,0.012411998584866524
1772363451655152400,3.54215234375,-0.004279577015340328,-0.02551788761615753,-0.007264438045024872,-0.03192427381873131,0.011047996580600739,0.017810657620429993
1772363451665221000,3.55222119140625,0.011149170523881912,-0.04927519530057907,0.032677111721038814,-0.03727216646075249,0.01646273583173752,0.016562433913350105
1772363451675290400,3.562290283203125,0.029602672711759804,-0.06464695195555686,0.08107552418708801,-0.045833878219127655,0.017621729522943497,0.012211957946419716
1772363451685360000,3.572360107421875,0.056619712844491,-0.07171557516753674,0.07548749492168426,-0.053488604724407196,0.015946069732308388,0.012568555772304535
1772363451695433500,3.58243359375,0.06621712388172746,-0.019327216282486914,0.017180851903557778,-0.04442663863301277,0.006020926870405674,0.006878023035824299
1772363451705503500,3.59250341796875,0.05341784806326031,0.03200315798223018,-0.041489363729953765,-0.033483974635601044,0.0029556285589933395,0.0039056693203747272
1772363451715572500,3.602572509765625,-0.00782455614581704,0.02945230445563793,-0.06330021352171898,-0.01769227534532547,-0.004238067660480738,0.0005528321489691734
1772363451725642500,3.612642578125,-0.007783493483066559,0.023107319343090058,-0.045318566629290576,-0.0006142221391201019,-0.013764460571110249,-0.006681910715997219
1772363451735711200,3.622711181640625,0.047179684326052664,0.008625789526104927,0.030596213793754577,0.007662689313292503,-0.009950445964932442,-0.004751091357320547
1772363451745781500,3.632781494140625,0.04893003512471914,0.0023228899896144866,0.11621581115126609,0.019184855744242668,-0.002772162202745676,-0.00845927745103836
1772363451755850200,3.642850341796875,0.039056291364133355,0.01791267330944538,0.13613865523934363,0.030611302703619003,0.017840582877397537,-0.005545687861740589
1772363451765920500,3.65292041015625,0.033198797507584095,0.04004091848731041,0.11166764632761478,0.03486916422843933,0.024632176384329796,-0.003193850629031658
1772363451775989200,3.6629892578125,0.03612812895774841,0.018245266264677047,0.07459083834290504,0.03555615246295929,0.022192806005477905,-0.003686176147311926
1772363451786059300,3.673059326171875,0.031015462119132278,0.04563245488405227,0.02409574585855007,0.03222719952464104,0.018937092274427414,-0.006822314579039812
1772363451796128300,3.683128173828125,0.018091683138161896,0.05588321526348591,0.002554360657930374,0.01891316846013069,0.01639523170888424,-0.010584663599729538
1772363451806198300,3.6931982421875,-0.0013264262981712818,0.043130116674304005,-0.028047113832831382,0.007884752005338669,0.01230541430413723,-0.010150302201509476
1772363451816267500,3.703267578125,0.007291618312895298,0.031256723529100416,-0.06201952606141567,-0.009088363498449326,0.008798716589808464,-0.006525436416268349
1772363451826337300,3.713337158203125,0.025694267096370457,-0.015928806015849114,-0.11509820529818535,-0.02428942173719406,0.00248729158192873,-0.0092732859775424
1772363451836406500,3.723406494140625,0.04189882131367922,-0.047431028738617896,-0.13306991531848908,-0.041790660470724106,-0.0056248498149216175,-0.010993724688887596
1772363451846476300,3.733476318359375,0.04924275433570146,-0.04653846381306648,-0.11419570350050925,-0.05264783650636673,-0.01181776449084282,-0.007563040591776371
1772363451856545500,3.743545654296875,-0.005144815542548894,-0.05805237599611282,-0.05745557914674282,-0.05585337057709694,-0.0048132059164345264,-0.010934961028397083
1772363451866615300,3.753615234375,-0.02885316951870918,-0.035406828945875164,0.018704700469970702,-0.05187913775444031,0.0006281649693846703,-0.01157571841031313
1772363451876684500,3.7636845703125,-0.048003129538148635,-0.027474866902828216,0.05479191289544105,-0.04812950640916824,0.009963050484657288,-0.00812892522662878
1772363451886754300,3.77375439453125,-0.08612257844358683,-0.012936638462543486,0.04484159676730633,-0.03545978665351868,0.01641908474266529,-0.0007698126137256622
1772363451896823300,3.7838232421875,-0.11586728997454046,-0.013294365859031676,0.03046761897802353,-0.022368768230080605,0.017906421795487404,0.005847003310918808
1772363451906893600,3.7938935546875,-0.1126142795279622,0.017220599392056463,0.007884615769982338,-0.002409174107015133,0.014425138011574745,0.006669387221336365
1772363451916962300,3.80396240234375,-0.11335063097849488,0.051097150030732154,0.03422960186004639,0.010004086419939995,0.014786262065172195,0.007072589825838804
1772363451927032600,3.814032470703125,-0.08798194257467985,0.08555120829641819,0.06925415349006653,0.015973560512065887,0.02029687538743019,0.010108061134815216
1772363451937101300,3.824101318359375,-0.0960759633116424,0.0643096828252077,0.05691781900823116,0.019224325194954872,0.020240861922502518,0.01315409317612648
1772363451947171300,3.83417138671875,-0.09707038117647171,0.013428805893659591,0.034010990673303605,0.020162289962172508,0.0128777539357543,0.01303558237850666
1772363451957240300,3.844240234375,-0.0466324257068336,-0.009374562066793442,-0.00894201586842537,0.0239553302526474,0.012649761512875557,0.018660839647054672
1772363451967310300,3.854310302734375,-0.0011766425639390945,-0.0052127662122249604,-0.005536591339111328,0.02071026712656021,0.01741335727274418,0.016860544681549072
1772363451977379300,3.86437939453125,0.032330197979509825,0.012193711140751838,-0.01984451815485954,0.006352579221129417,0.02009137161076069,0.02218131721019745
1772363451987449300,3.874449462890625,0.027671120127290484,-0.016542554000020027,-0.08624386673569678,-0.00356157124042511,0.009371083229780197,0.01816154271364212
1772363451997518300,3.884518310546875,0.035006139190495014,0.002737316009402275,-0.11690320889353752,-0.003257403150200844,0.0036096819676458836,0.012608198449015617
1772363452007588400,3.89458837890625,0.05942234917506575,0.08397183015048504,-0.0857902777493,-0.007210333365947008,-0.004763562697917223,0.0004151822067797184
1772363452017657300,3.9046572265625,0.08213277815505862,0.157494162479043,-0.06557984889149665,-0.012638825923204422,-0.017153307795524597,-0.009464243426918983
1772363452027727400,3.914727294921875,0.09507847670689225,0.15276070421636104,-0.07259294252395629,-0.01689535565674305,-0.03233598917722702,-0.013371367007493973
1772363452037796600,3.924796630859375,0.06881342398524284,0.08175473862290382,-0.0618090981811285,-0.023237142711877823,-0.03334745764732361,-0.012963104993104935
1772363452047866400,3.934866455078125,0.04570157459750771,0.004878419691324234,-0.02589431971311569,-0.032149411737918854,-0.02672577276825905,-0.011036040261387825
1772363452057935400,3.944935302734375,0.029614070888608693,-0.11212591148912907,0.0003156418204307556,-0.03460843861103058,-0.015298044309020042,-0.011126838624477386
1772363452068005400,3.95500537109375,0.050668403224647045,-0.13211129941940306,0.0405336704403162,-0.042169418185949326,-0.004131676163524389,-0.012482387945055962
1772363452078074400,3.965074462890625,0.05767243676781654,-0.1005471173763275,0.06909867066740989,-0.04935421049594879,0.0037842378951609135,-0.011872733011841774
1772363452088144400,3.975144287109375,0.010440291602164507,-0.061248541688919064,0.049349429580569266,-0.04356556385755539,0.006534218322485685,-0.014359060674905777
1772363452098213400,3.98521337890625,-0.016947043147683142,-0.00556874004304409,0.014318448209762573,-0.030767809599637985,-0.0013343046884983778,-0.012387780472636223
1772363452108281300,3.99528125,-0.019835019674152136,0.04136778317689895,-0.005230301868915557,-0.015299903228878975,-0.011505449190735817,-0.012079652398824692
1772363452118351400,4.005351318359375,-0.005712240166962147,0.06690203740596772,-0.031518589335680004,-0.002015414647758007,-0.016161806881427765,-0.007974747568368912
1772363452128420400,4.01542041015625,-0.002589285840839147,0.061949967956542965,-0.0003477905243635177,0.012777647003531456,-0.017015349119901657,-0.0021192566491663456
1772363452138490400,4.025490478515625,-0.005361965424567461,0.036816695743799206,0.05008125098645687,0.019388936460018158,-0.01265750639140606,-0.0007967664860188961
1772363452148559400,4.035559326171875,-0.0027691724523901937,0.026958149552345274,0.13429916485249996,0.017154809087514877,0.004039980471134186,0.00378999556414783
1772363452158629400,4.04562939453125,-0.01840001843497157,0.005278817185759544,0.130602648422122,0.016787990927696228,0.012876855209469795,0.0062450263649225235
1772363452168698400,4.055698486328125,-0.030706103909015653,-0.007379004335403442,0.0651858811378479,0.02100377529859543,0.011615050956606865,0.0067896428517997265
1772363452178768400,4.065768310546875,-0.01207680676281452,0.019491466933488844,0.014167641562223434,0.02446841076016426,0.013416839763522148,0.0031056739389896393
1772363452188837400,4.07583740234375,0.0348791518099606,0.04447977771759033,0.023237667724490166,0.020540781319141388,0.0176432766020298,0.004853506572544575
1772363452198907400,4.085907470703125,0.020650281579792498,0.0013379706054925918,0.004724105912446976,0.010850274004042149,0.017498185858130455,0.004112358670681715
1772363452208976400,4.095976318359375,0.027300679379701612,-0.02030219879448414,-0.04527180487811565,0.003630976192653179,0.011886639520525932,0.003052420448511839
1772363452219046400,4.10604638671875,0.06487900714576245,-0.019511340677738187,-0.048691842454671855,-0.010729661211371422,0.015451979823410511,0.0035962099209427834
1772363452229115400,4.116115478515625,0.07328370126709341,-0.012317045259475707,-0.03472527642250061,-0.018077589571475983,0.010884658433496952,-0.003491260576993227
1772363452239185400,4.126185302734375,0.07593801516816019,0.02851414682269096,-0.05397299772799015,-0.024895913898944855,0.0036706598475575447,-0.007548724301159382
1772363452249254400,4.13625439453125,0.0738749451585114,0.06466214952468871,-0.08715104470849036,-0.028738057240843773,-0.003571273759007454,-0.01304042898118496
1772363452259324400,4.146324462890625,0.025994565217196938,0.04190086714029312,-0.10884849725365638,-0.02332713082432747,-0.011557014659047127,-0.011550454422831535
1772363452269393400,4.156393310546875,0.0016604805581271647,0.021871640068292616,-0.07284604050219058,-0.017688952386379242,-0.012392714619636536,-0.014252763241529465
1772363452279463200,4.166463134765625,-0.003492226029932499,0.016840075641870497,-0.04194353723824024,-0.007041174452751875,-0.01590632274746895,-0.016977472230792046
1772363452289532400,4.176532470703125,0.02067015532404184,0.033874212551116945,0.002638531810045242,0.0007275324314832687,-0.0162165816873312,-0.017649387940764427
1772363452299602200,4.186602294921875,0.009864683671295641,0.04677051900327205,-0.006518588113784789,0.012268038466572762,-0.021939527243375778,-0.013505389913916588
1772363452309671400,4.19667138671875,-0.0024608371555805207,0.04131166907548904,-0.03990414036512375,0.0239326860755682,-0.03200281411409378,-0.016495052725076675
1772363452319741400,4.206741455078125,0.011300269432365893,0.06319558410346508,-0.013590133935213088,0.025531325489282608,-0.03306308016180992,-0.014533323235809803
1772363452329810400,4.216810546875,0.008066986599564552,0.06471358745098113,0.04060673567652702,0.02223539724946022,-0.02973066456615925,-0.012206786312162876
1772363452339880400,4.22688037109375,-0.010375117411464452,0.04904898532927036,0.06342237859666347,0.020119652152061462,-0.028156956657767296,-0.014975655823946
1772363452349949400,4.236949462890625,0.005249444960802793,0.04997662156820297,0.07529577174186707,0.013601566664874554,-0.029037930071353912,-0.017482755705714226
1772363452360019500,4.24701953125,0.02810468923896551,0.03610299451649189,0.07067687976956367,0.003089803270995617,-0.02872474305331707,-0.014910673722624779
1772363452370088400,4.25708837890625,0.03177402540147305,-0.0001911386579275131,0.0480886158645153,-0.007598527241498232,-0.026527367532253265,-0.00835610181093216
1772363452380158500,4.267158447265625,-0.010151683919131755,-0.04896715226471424,0.03155950586795807,-0.016228390857577324,-0.02092602849006653,-0.004448538646101952
1772363452390227200,4.277227294921875,-0.059118251661956306,-0.06803484082818032,0.056065586093068116,-0.022427696734666824,-0.009840620681643486,0.0000724433921277523
1772363452400297500,4.28729736328125,-0.08436930503547191,-0.08438684069216251,0.07387421450614928,-0.027405697852373123,-0.002603786299005151,-0.0014253915287554264
1772363452410366200,4.2973662109375,-0.056827656506747,-0.07370061150491238,0.04600888698101043,-0.025550005957484245,-0.006904525216668844,-0.005231048446148634
1772363452420436500,4.3074365234375,-0.058248190829157824,-0.03467091588675975,0.00584931055009365,-0.020673666149377823,0.000288546085357666,-0.00990373082458973
1772363452430505200,4.317505126953125,-0.07421309107169509,-0.00405249026119709,-0.06349778192043304,-0.013410426676273346,-0.0033501307480037212,-0.007622733246535063
1772363452440575500,4.327575439453125,-0.08273936574608087,0.00940554172694683,-0.1135012914955616,-0.003122185356914997,-0.025748901069164276,-0.0022253687493503094
1772363452450644500,4.33764453125,-0.05456438774988055,0.034573300731182095,-0.12321253817081451,0.0144299091771245,-0.04397956654429436,-0.0006381249986588955
1772363452460714200,4.34771435546875,-0.03321925577372312,0.054016252347826955,-0.02917641012370586,0.03037002868950367,-0.0370643250644207,0.004281945526599884
1772363452470783500,4.357783447265625,-0.01860153235644102,0.10645721820294857,0.06145487791597843,0.03849320113658905,-0.02256101742386818,0.006566138938069344
1772363452480853200,4.367853271484375,-0.05220408835932612,0.1088520043849945,0.1187947217285633,0.03598456829786301,-0.012747054919600487,0.009690817445516586
1772363452490922500,4.377922607421875,-0.07729118334278463,0.04217676147222519,0.11020867969095706,0.03229635953903198,-0.0018611177802085876,0.012451715767383575
1772363452500992300,4.3879921875,-0.05892258295938372,-0.01626958227753639,0.06398527317643166,0.023272927850484848,-0.006747664883732796,0.010228334926068783
1772363452511061500,4.3980615234375,-0.03168035576865077,-0.017804536759853364,0.04052139548063278,0.011916941963136196,-0.005065878853201866,0.010202502831816673
1772363452521131300,4.40813134765625,-0.006506751545518636,0.0037730887979269025,0.050725394108891486,-0.006056237034499645,0.001863645389676094,0.012058844789862633
1772363452531200500,4.418200439453125,-0.012928893547505139,-0.0047726212292909615,0.03077157036066055,-0.0187523253262043,0.0028218505904078484,0.010487579740583897
1772363452541270500,4.4282705078125,-0.006980798798054457,-0.01861643766462803,-0.058408934348821634,-0.03066343069076538,-0.0071706622838974,0.012457842007279396
1772363452551339300,4.43833935546875,0.030690321817994116,-0.034708909809589385,-0.13634382242262363,-0.04082738608121872,-0.014503676444292068,0.013344408012926579
1772363452561409500,4.448409423828125,0.06898454276844859,-0.025884967362880706,-0.14456103114783764,-0.05552375689148903,-0.01242610439658165,0.012248856946825981
1772363452571478300,4.458478271484375,0.06239478911459446,-0.02321077971756458,-0.09042202920317649,-0.060679368674755096,-0.013306545093655586,0.008463439531624317
1772363452581548500,4.468548583984375,0.06536065318286419,0.011855857488512991,-0.04810790508687496,-0.058082062751054764,-0.014599609188735485,0.0031826295889914036
1772363452591617300,4.4786171875,0.09086728875264524,0.05080547360777855,-0.011260814204812048,-0.05173548310995102,-0.021239936351776123,-0.00350323598831892
1772363452601687600,4.4886875,0.0627063392817974,0.05230652582049369,-0.0006622633010149001,-0.03445778414607048,-0.02601059526205063,-0.0055534387938678265
1772363452611756300,4.49875634765625,0.014589666366577148,0.03656476680934429,0.012305939343571663,-0.01923568919301033,-0.020438464358448982,0.00542091578245163
1772363452621826300,4.508826416015625,-0.08953808597549795,-0.032417584002017975,0.03791676594018936,-0.00032376497983932495,-0.006133312359452248,0.007450584787875414
1772363452631895300,4.518895263671875,-0.11824278693422674,-0.05352934561371803,0.09585574468970298,0.016391299664974213,0.0026330146938562393,0.008287616074085236
1772363452641965300,4.52896533203125,-0.07406155377179384,-0.038697687184810634,0.16595687039792537,0.051622964441776276,0.016357002779841423,0.0032070018351078033
1772363452652034300,4.539034423828125,-0.01355389357805252,0.0077712185233831405,0.22487375426888465,0.036943353712558746,0.030876556411385536,0.011963475495576859
1772363452662104300,4.549104248046875,-0.034925475169718265,-0.045231472867727274,0.07796352964639663,0.013914174400269985,0.009221667423844337,0.02036723680794239
1772363452672173300,4.55917333984375,-0.023630320303887127,-0.0023386720806360243,-0.2208019747853279,0.027044624090194702,-0.035689882934093475,0.013370048254728317
1772363452682243300,4.569243408203125,0.10163403583019971,0.05748363619744777,-0.19308277773261068,0.03259015083312988,-0.03108667954802513,0.016453297808766365
1772363452692308500,4.57930859375,0.11194923974797129,0.03799392282962799,0.005460018971562385,0.016766980290412903,-0.011232015676796436,0.01402103342115879
1772363452702378500,4.58937841796875,0.08786854532808065,0.02619067231118679,0.061191843065619464,0.012703308835625648,-0.007816871628165245,0.00791485607624054
1772363452712447500,4.599447509765625,0.10376681007519364,0.05597381615638732,0.009230769681930541,0.018295148387551308,-0.013759715482592583,0.0007845088839530945
1772363452722517500,4.609517578125,0.1681187246069312,0.10499942061007023,-0.031218145084381102,0.015542514622211456,-0.020312270149588585,0.0005235555581748486
1772363452732586500,4.61958642578125,0.14886033577695487,0.10410860925018786,-0.09894435835480689,0.007323998957872391,-0.03495299816131592,-0.010044400580227375
1772363452742656500,4.629656494140625,0.15544833586513995,0.09313421077132225,-0.08981646452546119,-0.0028236843645572662,-0.03938350826501846,-0.01543319784104824
1772363452752725500,4.6397255859375,0.12349383933022617,0.03169277685880661,-0.0214671509206295,-0.014165021479129791,-0.028848305344581604,-0.01904897205531597
1772363452762795500,4.64979541015625,0.07819763066321611,-0.031527357164025306,0.01507014335989952,-0.025864005088806152,-0.01844063214957714,-0.017693614587187767
1772363452772864500,4.659864501953125,0.03978621307387948,-0.11633154648542403,-0.019133739537000656,-0.03846528381109238,-0.016075212508440018,-0.016346586868166924
1772363452782934500,4.6699345703125,-0.0008402502164244651,-0.16645546756982801,-0.04063713081479072,-0.04842684417963028,-0.009724792093038559,-0.01738365925848484
1772363452793003500,4.68000341796875,-0.03109276513904333,-0.1859066024929285,-0.0007598784565925597,-0.05035630613565445,-0.003813107730820775,-0.010544395074248314
1772363452803073300,4.6900732421875,-0.04987710671648383,-0.18020809859037398,0.009488543835282325,-0.0464664101600647,-0.0015856537502259016,-0.014365434646606445
1772363452813142500,4.700142578125,-0.04678425526767969,-0.0982815105319023,0.02572130123376846,-0.03481108695268631,-0.0033763633109629154,-0.01360376924276352
1772363452823212300,4.71021240234375,-0.015123773243278264,-0.017671850290894506,0.030303368327021598,-0.020297564566135406,0.001975132618099451,-0.010782582685351372
1772363452833281500,4.720281494140625,-0.01612052919566631,0.057009004423022265,0.015327917513251304,-0.0048536271788179874,-0.004162388388067484,-0.009005988016724586
1772363452843351600,4.7303515625,-0.04423837017714977,0.11407821460068225,0.030599136403203008,0.009301064535975456,-0.007153004873543978,-0.0050411103293299675
1772363452853420500,4.740420654296875,-0.11285787902548909,0.11875731232762336,0.038112580773234365,0.027886997908353806,-0.007995628751814365,-0.004699959419667721
1772363452863490600,4.750490478515625,-0.12839140211343764,0.13025602694153784,0.08174304818511009,0.04110259562730789,0.002855853643268347,0.0028066649101674557
1772363452873559600,4.7605595703125,-0.15749533152282236,0.09028057490587234,0.1317968266427517,0.04096411168575287,0.011954011395573616,0.011106406338512897
1772363452883629600,4.770629638671875,-0.19778160307332873,0.028169863429665563,0.12171557761132716,0.04248496890068054,0.020275963470339775,0.01939040794968605
1772363452893698600,4.780698486328125,-0.18398922456428407,-0.018442250141501425,0.10716741229891777,0.04241599515080452,0.028940023854374886,0.0294510331004858
1772363452903768600,4.7907685546875,-0.13284428986907004,-0.042783495193719864,0.12993746251165866,0.036099694669246674,0.041366077959537506,0.04873145744204521
1772363452913837300,4.80083740234375,-0.11632511674463748,-0.048182723888754844,0.11315934619009495,0.02874431014060974,0.06084657460451126,0.05906718596816063
1772363452923907600,4.810907470703125,-0.08353855329975485,-0.04759937104284763,0.05754150386452674,0.019845403730869293,0.06718060374259949,0.06958312541246414
1772363452933976300,4.820976318359375,-0.0527561692841351,-0.08661328456997872,-0.01807400135099888,0.004533023573458195,0.06593530625104904,0.07146544009447098
1772363452944046600,4.831046630859375,-0.04148132655397057,-0.10864099198281764,-0.021802081963419914,-0.010157862678170204,0.0736580640077591,0.07531654834747314
1772363452954115300,4.841115234375,-0.06192468738481402,-0.115078331553936,0.010468787044286727,-0.027353361248970032,0.09790055453777313,0.0740177184343338
1772363452964185600,4.851185546875,-0.10555018636062741,-0.11405717181265354,0.019731120908260343,-0.03068351186811924,0.10854984819889069,0.07089731097221375
1772363452974254600,4.861254638671875,-0.0981532079771161,-0.07353752989768982,-0.07894260381162166,-0.01997094601392746,0.08851968497037888,0.06044573336839676
1772363452984324400,4.871324462890625,-0.038801585950702426,0.02444996612370014,-0.19387188228368757,-0.004899941384792328,0.05947563424706459,0.056141696870326996
1772363452994393600,4.8813935546875,0.02360840073302388,0.10221066667437553,-0.23203122480809688,0.011373304761946201,0.04008995369076729,0.05446283891797066
1772363453004463400,4.89146337890625,0.05714797450229525,0.15206220055818556,-0.17389175505042076,0.027733176946640015,0.03131254389882088,0.05569910630583763
1772363453014532600,4.90153271484375,0.08200666755735873,0.14916998624801636,-0.04192717062532902,0.04084045812487602,0.035924870520830154,0.05763202905654907
1772363453024602400,4.911602294921875,0.07945654468312859,0.10436404531598091,0.08731471083760262,0.04381681606173515,0.04249850660562515,0.060885120183229446
1772363453034671600,4.921671630859375,0.10040887794941664,0.06320493645370007,0.17596505419313907,0.038830578327178955,0.053171657025814056,0.05934954062104225
1772363453044741400,4.931741455078125,0.10971095930188894,0.022958266261219978,0.18042729429900645,0.03258737921714783,0.05832637846469879,0.056692156940698624
1772363453054810600,4.941810546875,0.1025527581103146,0.006205868902802467,0.1570844126343727,0.02453371323645115,0.056533534079790115,0.048084557056427
1772363453064880600,4.951880615234375,0.11062383636310696,0.00013502455651760102,0.11581073748171329,0.01632494479417801,0.05777993053197861,0.047209568321704865
1772363453074949400,4.961949462890625,0.08027312176302075,-0.018876549905538557,0.07162672784030437,0.004669352434575558,0.0540216788649559,0.04140467569231987
1772363453085019600,4.97201953125,0.05849938911125063,-0.05135726227164268,0.031463644278049464,-0.012519747018814087,0.046367157250642776,0.039436064660549164
1772363453095088400,4.98208837890625,0.06939560778737068,-0.08231178798377513,0.041321021425724025,-0.023020323365926743,0.037102553993463516,0.03266577795147896
1772363453105158700,4.99215869140625,0.07366933958381414,-0.10966916598677634,0.0474830511868,-0.028721492737531662,0.03786124289035797,0.027591105550527573
1772363453115227400,5.002227294921875,0.08175210827440023,-0.11591828950941561,0.06497428421378135,-0.02751641348004341,0.03798641264438629,0.02245786413550377
1772363453125297700,5.012297607421875,0.05148468804359436,-0.0602449176043272,0.022402970466017722,-0.012441756203770638,0.035535797476768494,0.017774831503629684
1772363453135366400,5.022366455078125,0.03107669078707695,-0.013712883532047271,-0.020841712498664854,0.00351910013705492,0.035188522189855576,0.017956992611289024
1772363453145436400,5.0324365234375,0.0061040159635245795,0.006687514939904213,-0.0631727877497673,0.016235779970884323,0.022738762199878693,0.016620948910713196
1772363453155505400,5.04250537109375,0.0024596681118011473,-0.009097498691082,-0.111518008723855,0.03355085477232933,0.008480197750031948,0.01852164790034294
1772363453165575400,5.052575439453125,-0.006519611027091741,0.0180599728256464,-0.09790040225982666,0.052267614752054214,-0.0009296033531427383,0.019974924623966217
1772363453175644400,5.06264453125,0.013319938691705465,0.05478489863276481,-0.019340660285949707,0.0631258487701416,-0.004847646225243807,0.0236053466796875
1772363453185714400,5.07271435546875,0.02984992547109723,0.06733283003866672,0.02367489009797573,0.0649784505367279,-0.002189784776419401,0.025010833516716957
1772363453195783700,5.08278369140625,0.0176852942943573,0.048175125104188914,0.0834025058299303,0.05975945293903351,0.004582367371767759,0.027466801926493645
1772363453205853400,5.092853515625,0.014225801490247249,0.040268882024288175,0.10764555120468139,0.05238333344459534,0.01849394105374813,0.02112543024122715
1772363453215922700,5.102922607421875,0.014985241555422543,0.02636544435620308,0.09232114082276821,0.02683243528008461,0.01704411581158638,0.018691567704081535
1772363453225992400,5.112992431640625,0.017439795100688934,0.013635726642608642,0.018649755412340163,0.009579346515238285,0.009685855358839035,0.012440338730812073
1772363453236061700,5.123061767578125,0.04536401320621371,0.020108137527108192,-0.05628478180170059,-0.0004376005381345749,-0.0036872075870633125,0.009280497208237648
1772363453246131500,5.13313134765625,0.08374941957145929,0.030074235746264454,-0.07102291672825813,-0.00895803514868021,-0.004803352057933807,0.007431528996676207
1772363453256200400,5.143200439453125,0.10113090861365198,0.006471241840720177,-0.0840776286125183,-0.01693020761013031,-0.010782148689031601,0.007812361232936382
1772363453266270500,5.1532705078125,0.11475465255752205,-0.01371639066338539,-0.1075099421262741,-0.027255183085799217,-0.01986483298242092,0.005648413673043251
1772363453276339500,5.16333935546875,0.1375945531360805,-0.041948213413357735,-0.07400865454077721,-0.03402493894100189,-0.01070808619260788,0.004167163744568825
1772363453286409700,5.17340966796875,0.12260609671026468,-0.0595955137848854,0.021406945165991783,-0.027709316462278366,0.01115359179675579,-0.0014835232868790627
1772363453296478500,5.183478515625,0.10668503560945392,-0.03687690149843693,0.0808931533575058,-0.021853558719158173,0.02775041200220585,0.0075653656385838985
1772363453306548500,5.193548583984375,0.000001315174251794815,-0.07393617382645606,0.013721066838502884,-0.004498894326388836,0.022872958332300186,0.01088782399892807
1772363453316617500,5.203617431640625,-0.043514147555828095,-0.04403612560331821,-0.03923661636710167,0.016707325354218483,0.021280387416481972,0.007019849494099617
1772363453326687500,5.2136875,-0.05813567036539316,0.0017728548914194106,0.017316460981965064,0.03282223641872406,0.025298522785305977,0.004816330503672361
1772363453336756500,5.223756591796875,-0.09287994374930858,-0.02805237452983856,0.08773965825140476,0.04016616940498352,0.027512941509485245,0.004235494881868362
1772363453346826500,5.233826416015625,-0.08502382342144846,-0.050503860312700266,0.10914075819849968,0.04093039780855179,0.01856522262096405,0.001774330623447895
1772363453356895500,5.2438955078125,-0.062282122520357364,-0.06598083090782166,0.11094634631574153,0.03905393183231354,0.026838865131139755,0.008175504393875599
1772363453366965500,5.253965576171875,-0.07263692779615522,-0.11214461618959903,0.11332067423164843,0.03382154181599617,0.04185691848397255,0.011106250807642937
1772363453377034500,5.264034423828125,-0.07683160300701856,-0.09463350941836833,0.08683657193183898,0.04437378793954849,0.05286988615989685,0.016272516921162605
1772363453387104500,5.2741044921875,-0.04134571747556329,-0.004720598781108856,0.057419923311471936,0.05660343915224075,0.054402150213718414,0.011917274445295334
1772363453397173500,5.284173583984375,0.018714637342095376,0.13577157549262045,0.016613281148672103,0.05714060366153717,0.04858074709773064,0.011093026027083397
1772363453407243500,5.294243408203125,0.048321255576610565,0.18967150798439977,-0.036055063721537585,0.052310142666101456,0.039678554981946945,0.0033079995773732662
1772363453417312500,5.3043125,0.06412438938617705,0.17790975852012633,-0.07802431992292404,0.047646414488554,0.022818617522716522,-0.0027805189602077007
1772363453427382500,5.314382568359375,0.06678221041858196,0.12340075421929358,-0.09984919824004172,0.03270915895700455,0.0149587607011199,-0.0017000180669128895
1772363453437451500,5.324451416015625,0.02806654918566346,0.07022329078316689,-0.041966333591938014,0.018371764570474625,0.019370820373296738,-0.002047294285148382
1772363453447521500,5.334521484375,0.00693052991554141,0.053819268471002574,0.03629296413064003,0.009156087413430214,0.020618146285414696,-0.0043291193433105946
1772363453457590500,5.344590576171875,0.027245734322071075,0.05736673181951046,0.06643909606933593,-0.00034473929554224014,0.03347322344779968,-0.004023654852062464
1772363453467660500,5.35466064453125,0.019824644410610198,0.030748189485073088,0.042646717071533204,-0.008748609572649002,0.03892790898680687,-0.003344548400491476
1772363453477729500,5.3647294921875,-0.010115005170553922,-0.01294131463766098,-0.07147825928032397,-0.01765262335538864,0.035297755151987076,0.0028068209066987038
1772363453487799300,5.37479931640625,-0.04717690784707665,-0.06861176393330097,-0.14099720118641854,-0.023226693272590637,0.021805018186569214,0.0028992043808102608
1772363453497868500,5.38486865234375,-0.04584785120040178,-0.07394844878613949,-0.12980302247703074,-0.019603729248046875,0.018334919586777687,-0.0009996634908020496
1772363453507938300,5.394938232421875,-0.05137129079699516,-0.08241291027069092,-0.03918634748458862,-0.016301775351166725,0.020279530435800552,0.00038131512701511383
1772363453518007600,5.405007568359375,-0.05241027845591306,-0.08903320519328117,0.016098901885747908,-0.011178120039403439,0.014220573008060455,-0.0035026385448873043
1772363453528077600,5.41507763671875,-0.02327902264818549,-0.05997253040373325,0.011615618991851807,-0.0006891684606671333,0.0032090749591588974,-0.002733150962740183
1772363453538146600,5.425146484375,0.014878858571499586,-0.003005611556768417,0.007874678897857666,0.011286000721156597,-0.005829960573464632,-0.005163551773875952
1772363453548216600,5.435216552734375,0.02390577624440193,0.04936345810592174,0.021769933259487152,0.02077127993106842,-0.004583893809467554,-0.0019615041092038155
1772363453558285600,5.44528564453125,0.017628887932002544,0.08531681501865386,0.020863339808583257,0.024466682225465775,-0.010457761585712433,-0.001032327301800251
1772363453568355600,5.45535546875,-0.013092121285200119,0.0899731163918972,0.03323006942868233,0.03068501688539982,-0.01587376557290554,-0.0007330439984798431
1772363453578424600,5.465424560546875,-0.007465659705549478,0.07971709531545638,0.04577858535647392,0.03519348055124283,-0.012466249987483025,-0.004550685174763203
1772363453588494600,5.47549462890625,0.003350187210738659,0.05888415064513683,0.04250818538367748,0.03930608183145523,-0.009026046842336655,-0.004099223762750626
1772363453598563300,5.485563232421875,0.019582067826390267,0.028308395117521284,0.08472060269117355,0.03616008907556534,-0.0007260385900735855,-0.0008861199021339417
1772363453608633600,5.495633544921875,0.0005365910947322845,-0.046857612764835355,0.06277414382100105,0.02752714231610298,0.00902382843196392,0.004377434495836496
1772363453618702300,5.505702392578125,-0.0051147126652300355,-0.0757476071625948,0.04220131139159202,0.023714561015367508,0.011972745880484581,0.007486142683774233
1772363453628772600,5.515772705078125,0.002341156298667192,-0.07091244209110736,0.05564180772304535,0.019576838240027428,0.016816696152091026,0.007615149486809969
1772363453638841300,5.52584130859375,0.03548822361901402,-0.024502573093771934,0.06060556761026382,0.01741568185389042,0.012874685227870941,0.008832747116684914
1772363453648911400,5.535911376953125,0.02113090470358729,0.01139934589266777,0.021538462591171263,0.01860019937157631,0.014478380791842937,-0.0006046518683433533
1772363453658980600,5.545980712890625,0.04661576683297753,0.03494154952168464,0.00016658873856067658,0.022140339016914368,0.02048274502158165,-0.0021104030311107635
1772363453669050400,5.55605029296875,0.03142082804962992,0.04300912064313888,-0.007976970228552817,0.01936430111527443,0.026939282193779945,-0.005233043804764748
1772363453679119600,5.56611962890625,-0.011815233217179774,0.02131985140442848,-0.06427578055560589,0.022895120084285736,0.021709632128477097,-0.006879143416881561
1772363453689189400,5.576189453125,-0.020590368086099622,0.012360299879312515,-0.10434066444039344,0.029177766293287277,0.01476673036813736,-0.008054468780755997
1772363453699259000,5.5862587890625,-0.029817338375747203,-0.007207739421725273,-0.1282102003276348,0.033733636140823364,0.007188437972217798,-0.004833907820284367
1772363453709328600,5.59632861328125,-0.0374910878740251,-0.015211597657203674,-0.1203238309919834,0.03784704580903053,0.0034683537669479847,-0.0019967504777014256
1772363453719398000,5.60639794921875,-0.031055940259993073,0.00032967034578323365,-0.08697568814158439,0.041602637618780136,0.0007037268951535225,-0.000108303502202034
1772363453729468000,5.616468017578125,-0.04679360761791467,0.01229424890577793,-0.015226795226335525,0.04620801657438278,0.002285716123878956,0.006844035815447569
1772363453739536600,5.62653662109375,-0.03960354998335242,0.021147417446970938,0.07231938627958297,0.04996680095791817,0.0061382451094686985,0.004237067420035601
1772363453749607000,5.63660693359375,-0.0025515841789543626,0.06844575971662997,0.159431852543354,0.049173738807439804,0.015920497477054596,0.0011910530738532543
1772363453759675600,5.646675537109375,0.018572744653373954,0.07725801172554493,0.1639385163128376,0.04560563340783119,0.024150729179382324,-0.0012414786033332348
1772363453769746000,5.656745849609375,-0.016205431000143287,0.04465221167504787,0.11690554698109626,0.03571556136012077,0.030038893222808838,0.0016998914070427418
1772363453779814700,5.666814697265625,-0.046268122439086436,-0.02841010192632675,0.06649754825830459,0.025327369570732117,0.033931635320186615,0.00814367551356554
1772363453789885000,5.676885009765625,-0.04455664234608411,-0.08617255506515502,0.06533727230727672,0.008699057623744011,0.03338893875479698,0.010017750784754753
1772363453799953700,5.68695361328125,-0.025425240896642207,-0.10189560937583446,0.10927578275501727,-0.01185761671513319,0.039173856377601624,0.009553294628858566
1772363453810023700,5.697023681640625,0.018295827408134936,-0.11934592587053774,0.13781974019408225,-0.03372881934046745,0.04701622202992439,0.013020766898989677
1772363453820092700,5.7070927734375,0.024078940854221582,-0.10141980855762958,0.12533143002092836,-0.047995105385780334,0.04547611624002457,0.011670278385281563
1772363453830162700,5.71716259765625,0.029379823741316792,-0.034141339054703713,0.06725158149600029,-0.0482809878885746,0.03985049948096275,0.005720796063542366
1772363453840231700,5.727231689453125,0.021760434778779744,0.010267126992344855,-0.0020785598397254942,-0.041746124625205994,0.022588951513171196,-0.0042285071685910225
1772363453850301700,5.7373017578125,0.021884791810810565,0.07970423583388328,-0.05021627554297447,-0.026959653943777084,0.0077364481985569,-0.009706372395157814
1772363453860370700,5.74737060546875,0.012782032422721384,0.07740238863229751,-0.0904962634831667,-0.012006804347038269,-0.009768509306013584,-0.007765460293740034
1772363453870440700,5.757440673828125,-0.030050124218314885,0.029588498055934904,-0.11934417230486868,0.005199446342885494,-0.03317234292626381,-0.010409841313958168
1772363453880510000,5.767510009765625,-0.024218641585856675,0.004755670094490051,-0.0795814862370491,0.021648991852998734,-0.03866538032889366,-0.011638090014457703
1772363453890579700,5.777579833984375,-0.007203355507552623,-0.0031201778471469876,0.0324818814098835,0.031815189868211746,-0.02590285614132881,-0.008669288828969002
1772363453900649000,5.78764892578125,-0.0013335866913199424,0.009493804532289504,0.10105682046413421,0.03881397843360901,-0.01488243043422699,-0.007894044741988182
1772363453910718700,5.79771875,0.02738119727000594,0.01985679311454296,0.10490648162961005,0.03606993705034256,-0.013552933000028133,-0.0034089521504938602
1772363453920787700,5.80778759765625,0.03701923257857561,-0.008586626559495925,0.08027765180766581,0.026128359138965607,-0.023746713995933533,-0.012756114825606346
1772363453930857700,5.817857666015625,0.07925824563205242,0.026252631631493568,0.061171384799480436,0.012624797411262989,-0.028101783245801926,-0.01926674321293831
1772363453940926700,5.8279267578125,0.11813216616660356,0.05902852755188941,0.07144143440127372,-0.003837266005575657,-0.03635065630078316,-0.025027161464095116
1772363453950996700,5.837996826171875,0.13788944442942738,0.10395137286186218,0.040970308291912075,-0.01681583933532238,-0.04222741723060608,-0.03456844016909599
1772363453961065700,5.848065673828125,0.15760259128957985,0.0888531724512577,-0.033385552251338955,-0.035198308527469635,-0.05060838162899017,-0.03922577574849129
1772363453971135700,5.8581357421875,0.13274755149632692,0.015880875220894812,-0.11489888333380222,-0.04984348267316818,-0.06499765813350677,-0.04047180712223053
1772363453981204700,5.868204833984375,0.12028642159104347,-0.032171500286459924,-0.13917407741248608,-0.052933014929294586,-0.07655338197946548,-0.04391314461827278
1772363453991274800,5.878274658203125,0.10484159969985485,-0.037843700703978536,-0.10459200885295868,-0.056363191455602646,-0.0748041495680809,-0.047631021589040756
1772363454001343700,5.88834375,0.07764847234785556,-0.024525953969359398,-0.042696985954046245,-0.0497598834335804,-0.06689909100532532,-0.05004624277353287
1772363454011413800,5.898413818359375,0.04369418029785156,0.0035310967355966566,-0.0156330379396677,-0.03704197704792023,-0.06020819768309593,-0.0468052513897419
1772363454021482800,5.908482666015625,0.030536738691478965,0.01780161415040493,-0.00007774141132831573,-0.022942669689655304,-0.05946304649114609,-0.04256603121757507
1772363454031552800,5.918552734375,-0.01179272912442684,0.031193595165014264,0.02077916865646839,-0.009738698601722717,-0.061148256063461304,-0.03747852146625519
1772363454041621800,5.928621826171875,-0.03261106074750423,0.01192658463716507,0.07287351303100585,-0.003984140232205391,-0.05301682651042938,-0.03147522360086441
1772363454051691800,5.93869189453125,-0.07879267394691705,-0.03929214594662189,0.1273310794055462,0.003661838360130787,-0.045653484761714935,-0.026768170297145844
1772363454061760800,5.9487607421875,-0.09711115157827735,-0.039188685572147365,0.17528642427921295,0.006287182681262493,-0.0333627313375473,-0.028416931629180908
1772363454071830800,5.958830810546875,-0.07761603138297796,-0.024216741889715194,0.19891279906034467,0.008896487765014172,-0.025285419076681137,-0.03235863521695137
1772363454081899500,5.9688994140625,-0.055524318823218344,0.02683598447740078,0.15659867494404314,0.008530835621058941,-0.030815474689006805,-0.029261378571391106
1772363454091969800,5.9789697265625,-0.05912643496841192,0.03580722644031047,0.060061377730965614,0.012231139466166496,-0.03241953253746033,-0.025609247386455536
1772363454102038800,5.989038818359375,-0.07503434432670474,0.030019290688633918,-0.017381927433609962,0.018619529902935028,-0.031128698959946632,-0.0208808034658432
1772363454112108800,5.99910888671875,-0.06400953083485364,0.05191021997928619,-0.030223288828134534,0.01714916154742241,-0.02470044046640396,-0.016564497724175453
1772363454122177800,6.009177734375,-0.0581859392479062,0.052293081817030906,-0.050446577167510984,0.011338678188621998,-0.026583828032016754,-0.011403290554881096
1772363454132247800,6.019247802734375,-0.054111091024428605,0.04734101236760616,-0.08320318386554718,0.0018400102853775024,-0.03114168345928192,-0.011528050526976585
1772363454142316800,6.02931689453125,-0.06367664561867714,0.023314240092039105,-0.09828852479457854,-0.0017944052815437317,-0.030740611255168915,-0.011576520279049873
1772363454152386600,6.039386474609375,-0.0436903809055686,0.04037760309576988,-0.07565233009457588,-0.021464787423610687,-0.02923847734928131,-0.015500722452998161
1772363454162455800,6.049455810546875,-0.050770986816287035,0.019607202267646787,-0.06889233444035053,-0.038488246500492096,-0.03036845475435257,-0.01429777406156063
1772363454172525600,6.059525634765625,-0.06221534089446067,-0.03456044124960899,-0.08648819688558577,-0.06097428873181343,-0.03008602000772953,-0.008261086419224739
1772363454182594800,6.0695947265625,-0.04745397122278809,-0.058949617096781724,-0.07842705550491809,-0.07674526423215866,-0.030398676171898842,-0.009151114150881767
1772363454192664800,6.079664794921875,0.00009673837274312972,-0.05349076716899871,-0.05509703332185745,-0.08423920720815659,-0.031674694269895554,-0.007922359742224216
1772363454202733800,6.08973388671875,0.022564883029460907,-0.025252514678239822,-0.05552841047644615,-0.09537840634584427,-0.02943231351673603,-0.009029967710375786
1772363454212803800,6.099803955078125,0.013256225805729627,-0.003964227455854416,-0.06278875686824321,-0.09351290762424469,-0.03237534314393997,-0.005057246424257755
1772363454222872800,6.109872802734375,0.004295066845417022,-0.0019587328523397443,-0.04616670789122581,-0.08595085889101028,-0.032638728618621826,-0.01023469865322113
1772363454232942800,6.11994287109375,0.03201177968010306,0.0008989946663379669,0.01976560769975185,-0.06868589669466019,-0.03154653683304787,-0.010578427463769913
1772363454243011800,6.13001171875,0.03666822718381881,0.019857962158322334,0.07917933517694473,-0.052857134491205215,-0.022453704848885536,-0.01044553704559803
1772363454253081900,6.140081787109375,0.01730827767550945,0.017786416581273078,0.0902256298482418,-0.037973031401634216,-0.029342254623770714,-0.008985207416117191
1772363454263150600,6.150150634765625,0.017817250110954044,0.019809446841478347,0.07045183884203433,-0.020472334697842598,-0.03599989041686058,0.000009086448699235916
1772363454273220900,6.160220947265625,-0.00008007949888706206,0.005816577324271202,0.07114449728131293,-0.002634049393236637,-0.038505952805280685,-0.000998790841549635
1772363454283289600,6.17028955078125,0.0044631168887019155,0.05310848985314369,0.1215969196677208,0.0109419459477067,-0.03360200673341751,-0.000962838064879179
1772363454293359900,6.18035986328125,0.007727525512129068,0.0808230107307434,0.15626257485747336,0.0186561681330204,-0.024095140397548676,-0.004900947213172913
1772363454303430000,6.190429931640625,0.00993117303624749,0.07956745771169663,0.13476912045180797,0.0283237062394619,-0.021153146401047707,-0.009892510250210762
1772363454313498600,6.20049853515625,0.0490405097618699,0.10154138911068439,0.10857844814062118,0.040509868413209915,-0.020212573930621147,-0.01742686703801155
1772363454323569000,6.21056884765625,0.09146393947154283,0.128118430390954,0.10429974790811539,0.04056153446435928,-0.00979082565754652,-0.01911984011530876
1772363454333637600,6.2206376953125,0.04714432075172662,0.04878419691324234,0.03810615103244781,0.029483456164598465,-0.008793473243713379,-0.016118669882416725
1772363454343707000,6.230706787109375,-0.022002134580165148,-0.04685469015538692,-0.07965396695137024,0.018396183848381042,-0.020310578867793083,-0.012685056775808334
1772363454353776600,6.240776611328125,-0.02229717200398445,-0.06922960357069968,-0.07626724712252617,0.01344802975654602,-0.017392287030816078,-0.013754848390817642
1772363454363846700,6.2508466796875,-0.022659575575590132,-0.059870239073038095,0.012896306452155112,0.01542729139328003,-0.0022612714674323797,-0.020829003304243088
1772363454373915600,6.26091552734375,0.0005859831944108009,-0.0537093783557415,0.08771043215692043,0.042174190282821655,0.047487180680036545,-0.01683783158659935
1772363454383985700,6.270985595703125,-0.04567366367727518,-0.08457973291575908,0.2544429631024599,-0.010153725743293762,0.09154412150382996,0.006703446619212627
1772363454394054700,6.2810546875,-0.22681465920358895,-0.16485855376720426,-0.10537877531647681,-0.02537132054567337,0.0358915813267231,0.010298337787389755
1772363454404124700,6.291124755859375,-0.16243761023059486,-0.08455576751828194,-0.4685580074697733,-0.009399277158081532,-0.02841443568468094,0.008501769974827766
1772363454414194000,6.30119384765625,-0.03720306471288204,0.0185305129468441,-0.3642588440835476,-0.004923711065202951,-0.025502845644950867,0.011978507041931152
1772363454424263700,6.311263671875,-0.019944909789413212,0.08295943823754787,-0.09129705847203731,-0.0024315249174833298,-0.0032782345078885555,0.009665551595389843
1772363454434333000,6.3213330078125,-0.04028802511617541,0.11483049427270889,0.025138532909750936,0.0020333556458353996,0.0027939127758145332,0.01019455585628748
1772363454444402700,6.331402587890625,-0.014452157592028378,0.12085399234592914,0.03305179025232792,0.006322643719613552,-0.009134385734796524,0.004196317866444588
1772363454454472000,6.341471923828125,0.05799743093848228,0.12107844875156878,0.022146365356445312,0.007019235752522945,-0.01469201035797596,0.007276962045580149
1772363454464541700,6.351541748046875,0.07390913968905806,0.11597265004515647,0.0428863710463047,0.013085382990539074,-0.012126853689551353,0.008384037762880325
1772363454474610700,6.361610595703125,0.06337357101887464,0.12947627474069595,0.08642331495583057,0.013905255123972893,-0.0011893201153725386,0.008840027265250683
1772363454484680700,6.3716806640625,0.01274418463036418,0.059494391497969625,0.1175572888880968,0.008697975426912308,0.01317097619175911,0.007338004652410746
1772363454494749700,6.381749755859375,-0.010755056639760731,0.01854571051597595,0.13148001577854157,-0.0041976748034358025,0.029932506382465363,0.0038028236012905836
1772363454504820000,6.391820068359375,-0.0054489130556583405,-0.01456687001287937,0.10789631109535694,-0.022334333509206772,0.03659280762076378,0.005367697216570377
1772363454514888700,6.401888671875,-0.03240779326036572,-0.07352116328477859,0.040354222220182416,-0.04461143538355827,0.033134762197732925,0.009193485602736473
1772363454524959000,6.411958984375,-0.052939270766079426,-0.14811375519335268,-0.014496142864227294,-0.05363395810127258,0.026499230414628983,0.009078970178961754
1772363454535027700,6.42202783203125,-0.03874035728275776,-0.14987491964697838,-0.03278466374874115,-0.05173170566558838,0.022434964776039124,0.007312612142413855
1772363454545097700,6.43209765625,-0.023598025469481945,-0.09867255567610263,-0.03352934463620186,-0.043331295251846313,0.02223362773656845,0.0037546290550380945
1772363454555166700,6.442166748046875,-0.02052972394004464,-0.019443536138534546,-0.031171383333206175,-0.029339861124753952,0.0226647537201643,0.0013827448710799217
1772363454565236700,6.45223681640625,-0.03224515004456043,0.03693827629685402,-0.047585927039384836,-0.011155531741678715,0.011939138174057007,0.00805556122213602
1772363454575305700,6.4623056640625,-0.02311740234568715,0.04579729005694389,-0.03461187917590141,0.003074727952480316,0.0138836819678545,0.008501612581312656
1772363454585375700,6.472375732421875,-0.01651113594844937,0.04606207847297191,0.0013444003462791442,0.01315212994813919,0.01346156932413578,0.017084714025259018
1772363454595444700,6.48244482421875,-0.03099427320063114,0.06772212161719798,0.018998130458593367,0.028231289237737656,0.012351661920547485,0.015514010563492775
1772363454605514800,6.4925146484375,0.0033205227248370647,0.12056991470754146,0.04424947609305382,0.032909929752349854,0.0028718742541968822,0.016764897853136063
1772363454615583700,6.502583740234375,0.042662937553972005,0.1454728852957487,0.05655541543662548,0.03739531710743904,-0.006563832052052021,0.009976067580282688
1772363454625653800,6.51265380859375,0.02972922170087695,0.14483575643599034,0.023923896422982215,0.027233228087425232,-0.015073164366185665,0.004207394551485777
1772363454635722800,6.52272265625,0.021153993318229914,0.10605214453339576,-0.015949848803877828,0.019810989499092102,-0.03508138284087181,-0.0034566866233944893
1772363454645792800,6.532792724609375,0.06177548817247152,0.03186813342571258,-0.04087678478956222,0.021343905478715897,-0.012332392856478691,0.006281960289925337
1772363454655861800,6.54286181640625,0.02242678973302245,-0.0536135167658329,0.1425789174199104,-0.004414240829646587,0.01180952601134777,0.004868435673415661
1772363454665931800,6.552931884765625,0.0008368892155587673,-0.12651216423809528,0.02229015774130821,-0.03377159684896469,-0.012443882413208485,0.006333706900477409
1772363454676000800,6.563000732421875,0.04476327083408832,-0.17664426862895488,-0.23629005129635333,-0.04111827537417412,-0.022328456863760948,0.005219109356403351
1772363454686070800,6.57307080078125,0.1192490413673222,-0.06080547409653663,-0.1564051981985569,-0.04142533987760544,-0.0033310633152723312,-0.0018925960175693035
1772363454696138500,6.583138427734375,0.11980214520543812,0.01702420003712177,-0.060198155853152274,-0.048278555274009705,0.0015199678018689156,-0.014463689178228378
1772363454706208500,6.59320849609375,0.07064911497980356,0.04225742549300193,-0.1119365263968706,-0.04965195059776306,-0.015368468128144741,-0.019800929352641106
1772363454716277500,6.603277587890625,0.0473817827694118,0.04808510873317718,-0.15055530312657356,-0.041713614016771317,-0.028385773301124573,-0.01904679462313652
1772363454726347500,6.613347412109375,0.00164762107655406,0.03289513838589191,-0.09844050048589706,-0.029659882187843323,-0.03131018951535225,-0.020380506291985512
1772363454736416500,6.62341650390625,-0.004460194279253483,0.054794835504889484,-0.01087561427950859,-0.01459603849798441,-0.0330950990319252,-0.01952824927866459
1772363454746486800,6.63348681640625,-0.019308511582016945,0.060009355282783505,0.05208791463375091,-0.006089369300752878,-0.033889785408973694,-0.008721942082047462
1772363454756556500,6.643556640625,-0.08293751866668463,0.03347907575368881,0.10885141986310481,0.01033924613147974,-0.02511262334883213,-0.004601325839757919
1772363454766625500,6.65362548828125,-0.12191051566153764,0.03339198199212551,0.19051205046176908,0.023162364959716797,-0.015275705605745316,0.0006429716013371944
1772363454776695600,6.663695556640625,-0.11583689483627677,0.04687339485585689,0.2227361577183008,0.042434073984622955,0.0059767854399979115,0.0005396436899900436
1772363454786764500,6.6737646484375,-0.10512874607816337,0.06368307535946369,0.19800036039054392,0.08378897607326508,0.03934352844953537,0.0009095571003854275
1772363454796834600,6.68383447265625,-0.06672799601331353,0.04547112684249878,0.33743162743449207,0.04703044891357422,0.07839711755514145,0.02527759037911892
1772363454806903600,6.693903564453125,-0.183840171482414,-0.09154957192838191,0.02081833162307739,0.030474375933408737,0.03959698975086212,0.02962093986570835
1772363454816973600,6.7039736328125,-0.10794015023708343,-0.09620119712650775,-0.3550818504154682,0.027511034160852432,-0.013604460284113884,0.031102575361728668
1772363454827042600,6.71404248046875,0.06455868915021419,-0.05762567501664161,-0.25958149503469463,0.010726727545261383,-0.006015249527990818,0.02924288809299469
1772363454837112300,6.7241123046875,0.09331935807988047,-0.06527355942130088,-0.05581015002727508,-0.005500185769051313,0.014584412798285484,0.0224725641310215
1772363454847181600,6.734181640625,0.12249606046453118,0.0173497787296772,-0.01037760162949562,-0.019314534962177277,0.013667486608028412,0.011080360040068626
1772363454857251600,6.74425146484375,0.13778788375109433,0.05313245525062084,-0.06097498544454574,-0.041081007570028305,0.007822212763130665,0.004140457138419151
1772363454867320600,6.754320556640625,0.12544263531044125,-0.007731471034884452,-0.10347791013121604,-0.05603944882750511,-0.00012758933007717133,-0.00013231858611106873
1772363454877390600,6.764390625,0.11734992974773048,-0.04169219282567501,-0.1488935073941946,-0.0624002106487751,-0.009400926530361176,-0.0022492576390504837
1772363454887459600,6.77445947265625,0.10394289729446173,-0.06769640265405177,-0.12836919028162955,-0.06804931163787842,-0.01900588348507881,0.0004573129117488861
1772363454897529600,6.784529541015625,0.09712328040748834,-0.0780219818353653,-0.06690612905919552,-0.06432165205478668,-0.028922609984874725,-0.010239661671221256
1772363454907598600,6.7945986328125,0.12304945656359195,-0.03459609708487987,0.03954992009997368,-0.06538105756044388,-0.02630499005317688,-0.014634675346314907
1772363454917668600,6.804668701171875,0.10046820692121981,-0.018721067082881928,0.15798340730071067,-0.05729791149497032,-0.010985366068780422,-0.020315295085310936
1772363454927737600,6.814737548828125,0.054095455063879486,-0.003981178590655327,0.2455237435877323,-0.04297782853245735,0.0006467890925705433,-0.02370576746761799
1772363454937807600,6.8248076171875,0.0024051614455878733,-0.02824585127532482,0.22276479929089546,-0.018451130017638206,0.013539856299757957,-0.023702919483184814
1772363454947876400,6.83487646484375,-0.05201879492029547,-0.03164776867330074,0.14556231714487075,0.007574079558253288,0.016551092267036438,-0.01837899349629879
1772363454957946600,6.844946533203125,-0.05831058854088187,0.02234159566760063,0.027983400946855544,0.035185616463422775,0.00863552838563919,-0.01923537440598011
1772363454968015400,6.855015380859375,-0.027279636591672894,0.10704466270208358,-0.0029682021558284756,0.0586232990026474,0.004295375198125839,-0.019974134862422943
1772363454978085600,6.865085693359375,-0.03809562963843345,0.13342822723686695,0.021785130828619003,0.061641231179237366,-0.0007116170600056648,-0.015421046875417233
1772363454988154600,6.875154541015625,-0.08678206526562571,0.08821545906960963,0.03307809373736381,0.06107690930366516,-0.0024786246940493584,-0.010096854530274868
1772363454998224400,6.885224365234375,-0.07839139966964721,0.04443652309775352,0.048185646498203276,0.05624879151582718,-0.012050811201334,-0.008014223538339138
1772363455008293600,6.895293701171875,-0.057740241307020185,0.0048550388157367706,0.07850830404758453,0.04307147115468979,0.0004905462265014648,0.0009686187840998173
1772363455018363400,6.90536328125,-0.03944587520360946,-0.028397826966643332,0.13693769666254518,0.021178744733333588,0.02513187751173973,0.011177233420312405
1772363455028432600,6.9154326171875,-0.07949234664887189,-0.0773328305274248,0.11874620641171932,0.006409652531147003,0.03865727409720421,0.014936285093426704
1772363455038502400,6.92550244140625,-0.05085588862076401,-0.06878244432508945,0.028636896419525146,-0.006132818292826414,0.039877939969301224,0.016459662467241287
1772363455048571600,6.935571533203125,-0.003503331945836544,-0.008311901271343231,-0.057573652568459505,-0.014179825782775879,0.039415083825588226,0.013403685763478279
1772363455058641400,6.945641357421875,0.023820436048507688,0.029698388171195984,-0.11687865897417067,-0.020235329866409302,0.03116738609969616,0.013624691404402256
1772363455068710700,6.955710693359375,0.03190773478373885,0.037680034574866295,-0.13650865759551525,-0.022862005978822708,0.016953829675912857,0.008820348419249058
1772363455078780700,6.96578076171875,0.025713702449202538,0.03658639411926269,-0.13353168761134146,-0.02545854076743126,0.011706775985658169,0.006803454831242561
1772363455088849700,6.975849609375,-0.0030278233885765076,0.0010550620108842848,-0.13133622339367865,-0.023692596703767776,0.007200706750154495,0.009040510281920433
1772363455098919700,6.985919677734375,-0.0010375263541936874,0.01745908432304859,-0.1056318732947111,-0.020273175090551376,0.00109153613448143,0.003281429409980774
1772363455108989400,6.995989501953125,0.01819397446885705,0.03915302973687648,-0.10638941366374492,-0.009714805521070957,-0.006879571359604597,-0.0023964298889040947
1772363455119058700,7.00605859375,0.030131665021926164,0.0621837767124176,-0.12310323257744311,-0.00017980672419071198,-0.021665722131729126,-0.006134645082056522
1772363455129128400,7.01612841796875,0.02375657703205943,0.08320844456255436,-0.11521277158856391,0.0026958752423524857,-0.03741006553173065,-0.011547785252332687
1772363455139197700,7.02619775390625,0.010590075336396694,0.06528232724964618,-0.06040332303643226,0.004121146164834499,-0.040904831141233444,-0.016494791954755783
1772363455149267500,7.036267333984375,0.012429857984185218,0.02215688675045967,0.04513853388726711,0.006984309293329716,-0.034948669373989105,-0.02164827659726143
1772363455159336400,7.04633642578125,0.020876929942518472,-0.01998304984271526,0.13408172270953655,0.005220566876232624,-0.02855581045150757,-0.016604790464043617
1772363455169406700,7.05640673828125,0.015512041908502578,-0.042323476466536517,0.16700374910235405,0.004504975862801075,-0.02116180956363678,-0.017476176843047142
1772363455179475500,7.066475341796875,0.02498421913087368,-0.030454174974560735,0.16422376299500466,-0.00022850744426250458,-0.013467852026224136,-0.014553316868841648
1772363455189545700,7.076545654296875,0.023014088101685044,-0.022380174112319944,0.1404886671423912,-0.000904950313270092,-0.011751711368560791,-0.014129075221717358
1772363455199614500,7.086614501953125,0.02018631732985377,-0.006055646777153015,0.13721534456014634,-0.009963278658688068,-0.005832150112837553,-0.007659102790057659
1772363455209684700,7.096684814453125,-0.020908201863616704,-0.02075520325899124,0.11189911699593066,-0.00969616323709488,-0.006483293138444424,-0.007321413606405258
1772363455219753500,7.10675341796875,-0.038729543627798554,-0.022429273951053617,0.10529460416436194,-0.0017022602260112762,-0.0018181493505835533,-0.009169023483991623
1772363455229823500,7.116823486328125,-0.07649652583375573,-0.009846855753660202,0.0714554629266262,0.007723466493189335,0.014494245871901512,-0.006165775004774332
1772363455239892500,7.126892578125,-0.09569938508421182,0.0190881468296051,0.023721651849150656,0.021876784041523933,0.02248968556523323,-0.0004910309799015522
1772363455249962500,7.13696240234375,-0.10909195062071084,0.0110842885941267,-0.05683715498745441,0.030793847516179085,0.007930450141429901,0.0030488427728414536
1772363455260031500,7.147031494140625,-0.09754121355861425,-0.012564298018813133,-0.1299047292858362,0.037702593952417374,-0.005476365797221661,0.009273073635995388
1772363455270101500,7.1571015625,-0.07796323738545179,-0.030754034703969955,-0.11066226867735385,0.04025763273239136,0.0018073795363307,0.015050801448523998
1772363455280170500,7.16717041015625,-0.08293035827353597,-0.027348025652766225,-0.04291150548756122,0.04385851323604584,0.017716236412525177,0.019132204353809357
1772363455290240500,7.177240478515625,-0.06058057929947972,-0.028341128343343732,0.024924597898125646,0.04063289612531662,0.03164243698120117,0.02168590947985649
1772363455300309800,7.187309814453125,-0.032347002983838316,-0.01482347512245178,0.04884498718976974,0.034299347549676895,0.03543607145547867,0.020527629181742668
1772363455310379500,7.197379638671875,-0.0039908232018351555,-0.0024351181924343107,0.016363105779886245,0.01783541962504387,0.04060047119855881,0.018204819411039352
1772363455320448500,7.207448486328125,0.012971417514979839,0.019246552261710168,-0.010100538253784179,0.004856771789491177,0.03387065976858139,0.009016647934913635
1772363455330518500,7.2175185546875,0.062451341607421634,0.059624155357480044,-0.015360650739073752,-0.00989527627825737,0.021213190630078316,0.0023337113671004772
1772363455340587500,7.22758740234375,0.07109773553013801,0.0649631782978773,-0.029963176587224007,-0.022942278534173965,0.013991102576255798,-0.00043214671313762665
1772363455350657500,7.237657470703125,0.07842676324397325,0.043324177941679955,-0.07777882072925567,-0.030590075999498367,0.007055699359625578,-0.0002880701795220375
1772363455360726500,7.2477265625,0.0975983505733311,0.03413374027013778,-0.08358312309384346,-0.034756746143102646,0.0038506570272147655,0.0008277376182377338
1772363455370796500,7.257796630859375,0.08460442896559835,0.033409517648816105,-0.07233867550194263,-0.03157613053917885,0.0072853355668485165,0.003761475905776024
1772363455380865500,7.267865478515625,0.03766732122376561,0.0194324302226305,-0.016707389172911643,-0.02374645322561264,0.010022222995758057,0.001951785758137703
1772363455390935600,7.277935546875,0.036184096928685905,0.029800094980001447,0.050146717438101764,-0.009405863471329212,0.023179572075605392,-0.0006514540873467922
1772363455401005600,7.288005615234375,0.032754414740949866,0.05002513688504696,0.05115794030725956,0.004568443633615971,0.026846980676054955,-0.0054484773427248
1772363455411074600,7.298074462890625,0.04343786744922399,0.035815994268655775,-0.0027039982616901396,0.01969626173377037,0.018498236313462257,-0.01007811538875103
1772363455421144600,7.30814453125,0.024447481905668974,-0.011245616635680198,-0.07702712557911873,0.02613026276230812,0.008741956204175949,-0.0068429154343903065
1772363455431213600,7.318213623046875,-0.010918576638400554,-0.03841711667776108,-0.10261515582203865,0.03431415557861328,0.00002622930333018303,-0.007881548255681992
1772363455441283600,7.32828369140625,-0.0267011060513556,-0.062278469258546826,-0.016090718579292295,0.031101834028959274,-0.0039242287166416645,-0.009922601282596588
1772363455451352600,7.3383525390625,-0.017309300588816405,-0.06301672040522098,0.057684711727499956,0.02673931047320366,0.000745624303817749,-0.015807921066880226
1772363455461422300,7.34842236328125,0.0028534897349774837,-0.029952655193209648,0.06034370180368423,0.0216717217117548,0.0008285990916192532,-0.01676720567047596
1772363455471491600,7.35849169921875,-0.007043196509778499,-0.005823007065057754,0.028682489126920698,0.024281883612275124,0.0011881254613399506,-0.010023549199104309
1772363455481561600,7.3685615234375,-0.018278876273334025,0.008408931905031204,-0.015359481695294379,0.026135414838790894,0.0003131916746497154,-0.005132266785949469
1772363455491630600,7.378630615234375,-0.0013273030810058116,0.029195114824175833,-0.035438393127918244,0.03085506707429886,-0.0026799349579960108,-0.0038243881426751614
1772363455501700600,7.38870068359375,0.05601911660283804,0.10742109479904174,-0.04250467825233936,0.0315723642706871,-0.0131294634193182,-0.005812797695398331
1772363455511769600,7.39876953125,0.10986147368848323,0.1475730724453926,-0.05259644867777824,0.027731284499168396,-0.025755243375897408,-0.011330867186188698
1772363455521839600,7.408839599609375,0.10247457830756902,0.10167466010153293,-0.06894201880097389,0.017821725457906723,-0.028170941397547722,-0.01158018410205841
1772363455531908600,7.41890869140625,0.04775996843203902,0.04121054678857326,-0.06410802277326584,0.015435264445841312,-0.017293527722358704,-0.011663541197776794
1772363455541978600,7.428978515625,-0.0044195700079202645,0.028626375025510787,-0.022722119417786596,0.015354761853814125,-0.008468974381685257,-0.01061880961060524
1772363455552047600,7.439047607421875,-0.015471563767641782,0.007612228569388389,0.004814122283458709,0.0020008739084005356,-0.0054034097120165825,-0.012285683304071426
1772363455562117600,7.44911767578125,-0.01239171793088317,-0.03582651566267013,-0.011626724907755851,-0.016689663752913475,-0.007129497826099396,-0.004924682434648275
1772363455572186400,7.459186279296875,-0.02987213730290532,-0.08875497277379035,-0.06624620384573936,-0.030127177014946938,-0.0035800368059426546,-0.0040887161158025265
