time,seconds_elapsed,accel_x,accel_y,accel_z,gyro_x,gyro_y,gyro_z
1772376754552905200,0.0709052734375,-0.49668604105170816,-0.38074966789633036,0.38543899475634097,-0.2538538873195648,0.1188160628080368,0.025295089930295944
1772376754562854400,0.0808544921875,-0.5742664896646514,-0.3088688191644847,0.06974865900874137,-0.20659582316875458,0.13692794740200043,-0.023700416088104248
1772376754572803300,0.09080322265625,-0.5139356473425403,-0.18405454488545656,-0.07730068182349205,-0.1378934532403946,0.10577353090047836,-0.06325389444828033
1772376754582752300,0.100752197265625,-0.33360750256907196,-0.11507599346637726,-0.10235153644978999,-0.0717567726969719,0.05953386425971985,-0.08485426008701324
1772376754592701200,0.110701171875,-0.13712183932410552,-0.05465279668569564,-0.09753449155688285,-0.021985361352562904,0.017120443284511566,-0.08720792084932327
1772376754602650000,0.120650146484375,0.0375996491153026,0.02427519407868385,-0.07110124266147613,-0.00896410271525383,0.009057722985744476,-0.0704965814948082
1772376754612599300,0.130599365234375,0.1279614953967277,0.1155954872958362,0.02717617621719837,-0.03443662449717522,0.028482135385274887,-0.03780551627278328
1772376754622548200,0.14054833984375,0.16286277684010564,0.15429785065576435,0.17309329814910887,-0.08703592419624329,0.045202791690826416,-0.0139486538246274
1772376754632497400,0.150497314453125,0.1904792624370195,0.13475684549212455,0.2849818937510252,-0.14193446934223175,0.07547956705093384,0.004454251378774643
1772376754642446300,0.1604462890625,0.14148514910014345,0.10052285971790552,0.2709603826612234,-0.18178920447826385,0.10463558882474899,-0.0034915560390800238
1772376754652396300,0.170396240234375,-0.006813321860216092,0.07176642857193946,0.16814882748425006,-0.199302077293396,0.12437236309051514,-0.014490509405732155
1772376754662345200,0.18034521484375,-0.09212106993971392,-0.004740326394885778,0.05173486341238021,-0.20103819668293,0.140260249376297,-0.03450789302587509
1772376754672294400,0.19029443359375,-0.16506565717924385,-0.023127923739701507,-0.05321428831517696,-0.18506363034248352,0.14565064013004303,-0.05725432187318802
1772376754682243300,0.200243408203125,-0.17405540291322394,-0.06303454832285642,-0.09377893841564655,-0.1671658456325531,0.13785237073898315,-0.06984468549489975
1772376754692192300,0.210192138671875,-0.12305573104075156,-0.0811477126404643,-0.08368950607776642,-0.15170489251613617,0.11762400716543198,-0.07259303331375122
1772376754702141200,0.22014111328125,-0.037614924316247925,-0.10203355654180049,0.013366262051463126,-0.1424863487482071,0.08415313065052032,-0.06481021642684937
1772376754712090400,0.23009033203125,0.06723227400733157,-0.11951587560996413,0.10759762040972709,-0.13817360997200012,0.038542523980140686,-0.05754013732075691
1772376754722039300,0.240039306640625,0.09355752335046418,-0.12560323269963264,0.1416647251844406,-0.10137911885976791,0.005798960104584694,-0.050448939204216
1772376754731988200,0.24998828125,0.07241150327613577,-0.1494444192752242,-0.016454291194677353,-0.028568923473358154,0.033888544887304306,-0.04172956198453903
1772376754741937200,0.259937255859375,0.012534925793856382,-0.18247005217298864,-0.3728834645658731,0.0344553142786026,0.0660153180360794,-0.03395739197731018
1772376754751886300,0.26988623046875,0.09674029070558025,-0.159118548810482,-0.4533592692941427,0.06302239745855331,0.0543530099093914,-0.029911920428276062
1772376754761835300,0.279835205078125,0.15338986896537243,-0.1495699453510344,-0.2861345709174871,0.05787823721766472,0.038911204785108566,-0.017468834295868874
1772376754771784200,0.2897841796875,0.2738303486069664,-0.18537571048662066,-0.11495908908843994,0.04409384727478027,0.05627163499593735,-0.006278185173869133
1772376754781733400,0.2997333984375,0.3257677123215049,-0.20243717379420995,-0.016654197680950163,0.04966331645846367,0.10564051568508148,0.010365772992372513
1772376754791682300,0.309682373046875,0.26919569280995054,-0.2124965032547712,-0.1101636715054512,0.07692558318376541,0.09191380441188812,0.023704124614596367
1772376754801631200,0.31963134765625,0.2211772743711248,-0.20049889920800923,-0.23784371047914027,0.1142340749502182,0.06312236934900284,0.018775146454572678
1772376754811580200,0.329580078125,0.1180355556580238,-0.22105536502450704,-0.4391700004220009,0.16337361931800842,-0.032373297959566116,-0.0018636388704180717
1772376754821529300,0.339529296875,0.06819608667134307,-0.18426935667991637,-0.34710780279636383,0.1955118477344513,-0.34523534774780273,-0.06079326570034027
1772376754831478300,0.349478271484375,0.020961411621887235,-0.14861732080131768,-0.3073930475234985,0.22553914785385132,-0.41587045788764954,-0.11807725578546524
1772376754841427200,0.35942724609375,-0.714337333253771,-0.1705618799753487,0.1628530591636896,0.28259071707725525,-0.36576414108276367,-0.1132071316242218
1772376754851376400,0.36937646484375,0.38910058600381014,-0.15766192026138304,-0.45566637719273567,0.2868642807006836,-0.43502044677734375,-0.10041569918394089
1772376754861325300,0.3793251953125,0.7087766303867101,-0.14081015418171883,-0.287002001401782,0.2672293186187744,-0.4733901917934418,-0.07620996236801147
1772376754871274200,0.389274169921875,0.5255355207759886,-0.09545797754377126,0.15393208608329295,0.222156822681427,-0.47338759899139404,-0.050760820508003235
1772376754881223200,0.39922314453125,0.6615363019146024,0.08371814765036105,0.263495453608036,0.11073470115661621,-0.48399817943573,-0.04604249820113182
1772376754891172000,0.409172119140625,0.7048761158168315,0.18724208888038993,0.5487380441218614,-0.0004720003344118595,-0.43180930614471436,-0.03439480438828468
1772376754901121300,0.419121337890625,0.703175303248316,0.20198606902584432,0.8193874611377716,-0.07004734873771667,-0.3522074222564697,-0.0012064927723258734
1772376754911070500,0.429070556640625,0.7848126991018652,0.24445742953047156,0.7883575321018695,-0.10261252522468567,-0.32314467430114746,0.032901324331760406
1772376754921019400,0.439019287109375,0.7318596920713782,0.3018593787938356,0.811769971871376,-0.09115932881832123,-0.30861949920654297,0.06374658644199371
1772376754930968300,0.44896826171875,0.6246644419174641,0.3343510509453714,0.8308551960915327,-0.05896291136741638,-0.3033252954483032,0.08676040172576904
1772376754940917200,0.458917236328125,0.41776009611394255,0.29981399057134983,0.965437269538641,-0.023547664284706116,-0.3159167170524597,0.0973438024520874
1772376754950866200,0.4688662109375,0.31029150891136376,0.2730228681489825,1.13920159881711,0.009062268771231174,-0.3621944189071655,0.09644124656915665
1772376754960815000,0.478815185546875,0.19550120051857084,0.2627323602810502,1.3067927924185991,0.035568978637456894,-0.41748055815696716,0.07510054111480713
1772376754970764300,0.488764404296875,0.09861947378199547,0.24956395888924598,1.4947311930000782,0.07104732096195221,-0.47248417139053345,0.056417495012283325
1772376754980712700,0.498712646484375,0.0736198378862813,0.2635018833488226,1.6679577621400354,0.11765849590301514,-0.5185688138008118,0.04482395574450493
1772376754990661600,0.50866162109375,0.1350569609498605,0.347209071213752,1.7910802839398383,0.16604149341583252,-0.5597242116928101,0.03593242168426514
1772376755000610600,0.518610595703125,0.15415836911983788,0.506073206871748,1.9451549933642147,0.21132588386535645,-0.5246258974075317,0.03272757679224014
1772376755010559500,0.5285595703125,0.043993747766315934,0.6085108141697942,2.084528392741084,0.24447101354599,-0.382771372795105,0.035443417727947235
1772376755020508400,0.53850830078125,-0.030592341336235403,0.6794063051261008,2.2191525517642496,0.25534680485725403,-0.19241741299629211,0.045731477439403534
1772376755030457600,0.54845751953125,-0.13906250679679213,0.7781409662529826,2.3817197797238827,0.24171431362628937,-0.01706027239561081,0.05796956270933151
1772376755040406800,0.55840673828125,-0.298213569637388,0.9052791534349321,2.58364812721312,0.2197224646806717,0.08567649126052856,0.0767672210931778
1772376755050355700,0.568355712890625,-0.375697572138533,0.9688618371598422,2.7016765407443044,0.19236277043819427,0.12410562485456467,0.08768986910581589
1772376755060304600,0.5783046875,-0.4281508860185742,0.9221779735267162,2.6979350161284206,0.18951557576656342,0.12273915857076645,0.09919925034046173
1772376755070253600,0.588253662109375,-0.40550599655546243,0.8793659828908741,2.555535546928644,0.22645597159862518,0.08815131336450577,0.11395670473575592
1772376755080202500,0.598202392578125,-0.2956781694082543,0.8729331733644008,2.250064407378435,0.3183094561100006,0.0520700104534626,0.13540686666965485
1772376755090151400,0.6081513671875,-0.19955876881368456,0.9060368399344384,1.8890560895234345,0.4320676624774933,0.019657433032989502,0.154305100440979
1772376755100100600,0.6181005859375,-0.21580482408516108,0.9505611874461174,1.5615350307285785,0.5590370893478394,-0.040733739733695984,0.18496553599834442
1772376755110049800,0.6280498046875,-0.19784721565544605,0.9113263246446848,1.126390632560849,0.668346107006073,-0.16799965500831604,0.23742908239364624
1772376755119998700,0.637998779296875,0.042027123868465424,0.7769923807397484,0.5804805053412914,0.7614792585372925,-0.3822035491466522,0.3070281445980072
1772376755129947600,0.64794775390625,0.40579811136983335,0.4820680619060993,-0.15639759941399098,0.8052874207496643,-0.6135709881782532,0.39491432905197144
1772376755139897600,0.657897705078125,0.7185820581514388,0.02977028436362743,-0.9464210189014672,0.8038511872291565,-0.8133408427238464,0.4846908450126648
1772376755149846500,0.667846435546875,0.9744283121805638,-0.528152936732769,-1.811353256639838,0.7292735576629639,-0.8941596150398254,0.5456684231758118
1772376755159795500,0.67779541015625,1.025689420601353,-1.1528279731094837,-2.7063351802051065,0.5456304550170898,-0.8044531941413879,0.5672515034675598
1772376755169744400,0.687744384765625,0.8969596533790231,-1.8143512694120405,-3.4617993274867533,0.24442142248153687,-0.5891984105110168,0.5487604737281799
1772376755179693800,0.69769384765625,0.7837457274574786,-2.4036036947518586,-4.0064761135190725,-0.14909550547599792,-0.3807823061943054,0.5056140422821045
1772376755189642800,0.707642822265625,0.7341464878343045,-2.8382158857390283,-4.423469937968254,-0.5837357044219971,-0.3144635558128357,0.4262641668319702
1772376755199591700,0.717591796875,0.6323657370097935,-2.9465920893058177,-4.871252283912897,-1.015022873878479,-0.5082743167877197,0.3059689402580261
1772376755209540600,0.72754052734375,-0.06450900478959083,-2.554121296216547,-5.535640906518697,-1.3421040773391724,-0.8654984831809998,0.17672038078308105
1772376755219489500,0.737489501953125,-1.1635571646556258,-1.8416519487917422,-6.85607877793014,-1.4439135789871216,-1.0764796733856201,0.07743772864341736
1772376755229438500,0.7474384765625,-1.8038919808484613,-1.276119129474461,-8.568407596716284,-1.2917780876159668,-1.0539288520812988,0.0031468323431909084
1772376755239387400,0.757387451171875,-1.8503491961188614,-0.7195758184291422,-9.716242583844066,-0.9653712511062622,-0.8764041066169739,-0.040545787662267685
1772376755249336800,0.7673369140625,-1.7514610979959369,0.06155366211533546,-9.856729497420787,-0.6027216911315918,-0.5603561997413635,-0.04354941472411156
1772376755259285800,0.77728564453125,-1.5090923113077879,0.8277382331147789,-8.866509668803214,-0.31807878613471985,-0.1920553594827652,0.0197408739477396
1772376755269234700,0.787234619140625,-1.01967330211699,1.282061817396432,-6.862977889794111,-0.18308261036872864,0.12496443837881088,0.131155863404274
1772376755279183600,0.79718359375,-0.45023003135770556,1.4642865165062249,-4.34249787415564,-0.18453963100910187,0.3330222964286804,0.2646723985671997
1772376755289132500,0.807132568359375,0.018104104228317736,1.4937717003181576,-1.8629893358528613,-0.263849675655365,0.441832572221756,0.385405570268631
1772376755299081500,0.81708154296875,0.42557372900694607,1.3585498676627874,0.1917003834635019,-0.358780175447464,0.48243433237075806,0.47319135069847107
1772376755309030700,0.82703076171875,0.7751601968765258,1.1847450602434575,1.7123492770522832,-0.4022892415523529,0.4508250951766968,0.5187049508094788
1772376755318979600,0.8369794921875,1.0771586918801068,1.0453405350759626,2.6102263375371693,-0.3610323369503021,0.39469099044799805,0.5340109467506409
1772376755328928800,0.8469287109375,1.2715043291553854,0.8499600017949939,2.9040216523408886,-0.210161954164505,0.4242279827594757,0.5514699816703796
1772376755338877700,0.856877685546875,1.401544667519629,0.6036348786965012,2.8109944090753793,0.007150119170546532,0.5814439654350281,0.5809927582740784
1772376755348826600,0.86682666015625,1.5237812002651392,0.3909007672935724,2.6923072393745184,0.24682526290416718,0.7959126234054565,0.6193134188652039
1772376755358775600,0.876775634765625,1.574301134929806,0.32679186773747204,2.8059786267399787,0.4651575982570648,0.9876176118850708,0.6534103751182556
1772376755368724500,0.886724365234375,1.3904790836259722,0.3875523336485028,3.2003391790986058,0.6349921822547913,1.141076683998108,0.6776360869407654
1772376755378673700,0.896673583984375,0.9419517645329236,0.44066973746046423,3.763849260416627,0.7489246129989624,1.262562870979309,0.6737223267555237
1772376755388622600,0.90662255859375,0.3858383693374693,0.47618572586923835,4.377141317513585,0.8321935534477234,1.4066884517669678,0.6393464803695679
1772376755398571500,0.916571533203125,-0.03263794875442982,0.44131066571250555,4.9426054555088275,0.8778337240219116,1.454607605934143,0.5642362833023071
1772376755408520700,0.926520751953125,-0.28035211505852636,0.35574382145553823,5.3855637422978875,0.8832500576972961,1.3569411039352417,0.46225854754447937
1772376755418469600,0.9364697265625,-0.859501152600348,0.4324553052142262,6.006565643119812,0.8334034085273743,1.121840238571167,0.3487548828125
1772376755428418600,0.94641845703125,-1.113157495369762,0.5550815679296851,6.477652876806259,0.7441756129264832,0.775945246219635,0.2280408889055252
1772376755438367500,0.956367431640625,-1.111373242301494,0.6996268169865012,6.585277385222912,0.6652048826217651,0.4483013451099396,0.12450677156448364
1772376755448316700,0.966316650390625,-0.9454386568006128,0.7931997114360332,6.117265905719995,0.668764054775238,0.14781267940998077,0.02819179929792881
1772376755458265600,0.976265625,-0.7755926700096577,0.8831368797317146,5.032667419227957,0.7702965140342712,-0.12248031795024872,-0.04136277735233307
1772376755468214500,0.986214599609375,-0.7242006286855787,1.016620344287157,3.5042777022540568,0.9535101652145386,-0.3674824833869934,-0.07061238586902618
1772376755478163700,0.996163818359375,-0.629675475012511,1.2642840225130318,1.7802590301960706,1.1971795558929443,-0.3580482304096222,-0.021640310063958168
1772376755488112600,1.006112548828125,-0.27145697053913026,1.3310627258002756,0.19591770889759064,1.458011507987976,-0.13444113731384277,0.13560116291046143
1772376755498061600,1.0160615234375,0.4014305638100952,1.0477768223121762,-1.1597031195759773,1.666934847831726,0.18860936164855957,0.404163122177124
1772376755508010800,1.0260107421875,1.1846503676973283,0.48472412937283516,-2.090194163417816,1.7695705890655518,0.5093230605125427,0.7512527704238892
1772376755517959700,1.035959716796875,2.1211004660740493,-0.36333734532445666,-2.48036486287117,1.663310170173645,0.6662319302558899,1.0793355703353882
1772376755527908600,1.04590869140625,2.865952910709381,-1.2325763403460384,-1.9654922634720802,1.321942925453186,0.5228052139282227,1.3174526691436768
1772376755537857500,1.055857421875,3.1032290504336357,-2.1938637967288495,-0.7050210772454738,0.6968854665756226,0.014730041846632957,1.4180554151535034
1772376755547806500,1.065806396484375,2.512590139171481,-3.1207673374727367,0.8790905269503593,-0.27614256739616394,-1.0514367818832397,1.3292925357818604
1772376755557755600,1.075755615234375,0.7027499905083328,-3.291405351424217,2.2365146054536105,-1.3460243940353394,-2.331045627593994,1.0506457090377808
1772376755567704600,1.08570458984375,-2.0875547548249362,-2.6921967647373677,1.684650538265705,-1.9977256059646606,-2.9655487537384033,0.5952813625335693
1772376755577653800,1.09565380859375,-4.864358140484988,-2.069817438082397,-2.0474393097966908,-2.1060028076171875,-2.8190083503723145,0.09750667959451675
1772376755587602700,1.105602783203125,-6.403135103699564,-1.644763933557272,-6.8044508820235725,-1.9051350355148315,-2.39087176322937,-0.44536423683166504
1772376755597551600,1.115551513671875,-6.462458814805745,-0.930854324196279,-9.830507845449446,-1.6011090278625488,-1.7298561334609985,-1.017785906791687
1772376755607500500,1.12550048828125,-6.051785425549745,0.6493915444821119,-10.240907678461074,-1.3008543252944946,-0.7971730828285217,-1.4662010669708252
1772376755617449500,1.135449462890625,-5.443997811087965,2.3603283243879676,-8.671114522475003,-1.1002477407455444,0.17321889102458954,-1.6585047245025635
1772376755627398400,1.1453984375,-4.1382685562476516,3.603516075119376,-5.946351120653748,-1.0503268241882324,0.8741862177848816,-1.5631541013717651
1772376755637347600,1.15534765625,-2.476118019081652,4.189607406079769,-2.839159596329927,-1.1192455291748047,1.1939713954925537,-1.226179599761963
1772376755647297500,1.165297607421875,-0.8388482406720519,4.0960672448560596,-0.032850714722275735,-1.243760347366333,1.2015655040740967,-0.7467478513717651
1772376755657246500,1.17524658203125,0.43332711961269377,3.611392215321958,2.0451625970363616,-1.3268486261367798,1.0398576259613037,-0.2561597526073456
1772376755667195600,1.185195556640625,1.2528827769242226,2.903519255776703,3.237810539358854,-1.2977120876312256,0.861442506313324,0.1493183821439743
1772376755677144600,1.19514453125,1.7126196184262632,1.994974378544092,3.691827980300784,-1.1115248203277588,0.7070524096488953,0.41748300194740295
1772376755687093500,1.205093505859375,1.7437717125371097,1.1492993605919182,3.829847626981139,-0.8111116886138916,0.6097172498703003,0.5345052480697632
1772376755697042700,1.215042724609375,1.5615753627389668,0.3902634923033416,3.849487562474608,-0.4698270261287689,0.5238734483718872,0.5449959635734558
1772376755706991600,1.22499169921875,1.3417472014218568,-0.2259928214266896,3.9440532673537727,-0.1415976881980896,0.36607593297958374,0.4894115924835205
1772376755716940500,1.2349404296875,1.1931721123270689,-0.7439156021766364,4.0897517780989405,0.13860467076301575,0.17744846642017365,0.40721818804740906
1772376755726889700,1.2448896484375,1.1604352332428096,-1.1358829757884144,4.245326955214143,0.32681673765182495,0.020287644118070602,0.28887099027633667
1772376755736838700,1.254838623046875,1.0585212844926863,-1.3800992900393902,4.539458370104432,0.4332156181335449,-0.061720408499240875,0.17117789387702942
1772376755746787600,1.26478759765625,0.8095264307282865,-1.4068468655809758,4.913082423904538,0.4926462173461914,-0.03187532722949982,0.0681610256433487
1772376755756736500,1.274736572265625,0.5522472212865949,-1.1674885127551853,5.188879140681028,0.5360981225967407,0.06828083097934723,-0.012510917149484158
1772376755766685700,1.284685791015625,0.25411541164852675,-0.7847443100407719,5.224001891988515,0.562699019908905,0.16023807227611542,-0.06767506152391434
1772376755776634600,1.294634521484375,-0.07503463658764958,-0.4088181167781353,5.174161464020609,0.5252685546875,0.16393880546092987,-0.10859479755163193
1772376755786583600,1.30458349609375,-0.19971987765952945,-0.2643418413043022,5.123945772999525,0.4443896412849426,0.0546458438038826,-0.1388106644153595
1772376755796532700,1.31453271484375,-0.0689792090062052,-0.25779241966083644,4.900371410891413,0.34692859649658203,-0.11669661104679108,-0.16667984426021576
1772376755806481700,1.324481689453125,0.011190890773758292,-0.22361469411849974,4.322813514998555,0.2960793375968933,-0.22198700904846191,-0.2143995612859726
1772376755816430600,1.3344306640625,-0.059109410768374795,-0.21625848613679408,3.257660318210721,0.34022414684295654,-0.33580970764160156,-0.28990018367767334
1772376755826379500,1.344379638671875,-0.1983721893776208,-0.17651508929133414,1.822200229346752,0.5003532767295837,-0.387748658657074,-0.3682139813899994
1772376755836328400,1.354328369140625,-0.3009813538502902,-0.04713949844613671,-0.05898819554150104,0.7388795614242554,-0.13991621136665344,-0.38030099868774414
1772376755846277600,1.364277587890625,-0.03759593648798763,-0.035870062543451785,-1.7003981424957513,0.9818385243415833,0.2631109952926636,-0.29473140835762024
1772376755856226600,1.3742265625,0.6849610166437924,-0.2579562319204211,-2.6044933468431233,1.1025577783584595,0.5289666056632996,-0.10368582606315613
1772376755866175700,1.38417578125,1.5769243230402468,-0.5432049599140882,-2.6901842558711766,1.0302187204360962,0.621314525604248,0.15725553035736084
1772376755876124700,1.394124755859375,2.5022815111249685,-1.0264072865471243,-2.113865546384454,0.7055498361587524,0.2843940556049347,0.4005110561847687
1772376755886073600,1.404073486328125,3.0778982098221777,-1.801793401134014,-1.0189040713101625,0.18535517156124115,-0.5499109029769897,0.4904231131076813
1772376755896022500,1.4140224609375,2.927397267231345,-2.8465415232747793,-0.1916618050187826,-0.4456630051136017,-1.6032582521438599,0.33749958872795105
1772376755905971500,1.423971435546875,1.5496875026769936,-3.3822505744755267,-0.3543471064001322,-1.0506682395935059,-2.5490224361419678,0.015693485736846924
1772376755915920400,1.43392041015625,-0.7088298218786716,-2.865496399113536,-2.1741835292249916,-1.4837672710418701,-3.061025381088257,-0.4109337329864502
1772376755925869800,1.443869873046875,-3.1549551460176706,-1.7687338659666478,-5.78728108716011,-1.538066029548645,-3.018796920776367,-0.9280973076820374
1772376755935818800,1.45381884765625,-5.145789940539002,-0.7068000696167349,-10.294564449846744,-1.2886391878128052,-2.5160000324249268,-1.4317727088928223
1772376755945767700,1.463767578125,-5.775073347494006,0.16418313872367143,-13.925261377358435,-0.9331650733947754,-1.6669336557388306,-1.7875182628631592
1772376755955716600,1.473716552734375,-5.024938286280632,1.068703436615318,-14.655537307369707,-0.6661496758460999,-0.6406619548797607,-1.898932695388794
1772376755965665500,1.48366552734375,-3.571639173865318,1.9791972559586166,-12.566858224689959,-0.5850619673728943,0.2878790497779846,-1.7651152610778809
1772376755975614500,1.493614501953125,-2.1261580417245627,2.681516965290904,-8.898210628968476,-0.7137331366539001,0.9297762513160706,-1.4539365768432617
1772376755985564000,1.50356396484375,-0.8454983462110162,2.9016683672130106,-4.826129532116651,-0.9903649091720581,1.2629871368408203,-1.0471904277801514
1772376755995513000,1.51351318359375,0.07719093783870339,2.802467988270521,-1.2141110015898942,-1.3034285306930542,1.402009129524231,-0.6246722340583801
1772376756005462000,1.5234619140625,0.6672913583099842,2.4825758169189096,1.4215145656198263,-1.567955493927002,1.4457225799560547,-0.2503339946269989
1772376756015411000,1.533410888671875,1.0770243979759513,1.8976247420348227,3.0120448046863078,-1.7164206504821777,1.3998099565505981,0.02430899813771248
1772376756025360000,1.54335986328125,1.383112938772142,1.0541643313921987,3.6242496510684488,-1.7211179733276367,1.2259438037872314,0.1728329211473465
1772376756035309000,1.55330908203125,1.6654038398735225,0.09021467006281017,3.4913761351048946,-1.5755373239517212,0.9962784051895142,0.21996793150901794
1772376756045258000,1.563258056640625,1.8263282690621911,-0.6790617294721305,3.023106296926737,-1.2853013277053833,0.7709509134292603,0.18900056183338165
1772376756055207000,1.57320703125,1.885731913536787,-1.3075079549506305,2.4175556477367874,-0.8675474524497986,0.6032080054283142,0.11543392390012741
1772376756065156000,1.583156005859375,1.8862544761061668,-1.7310609917849302,1.8861872560888528,-0.38673481345176697,0.5070715546607971,0.018336854875087738
1772376756075105000,1.59310498046875,1.8339990959510206,-1.9239035310208796,1.617154042097926,0.09614156931638718,0.45685073733329773,-0.06675726175308228
1772376756085054000,1.603053955078125,1.7350370558090507,-1.8829355608165264,1.7793945223212242,0.5299476981163025,0.4479239583015442,-0.12074621766805649
1772376756095003000,1.6130029296875,1.6539540789678693,-1.6677119706854224,2.2933336402624844,0.8608981966972351,0.5149452686309814,-0.15811489522457123
1772376756104952000,1.6229521484375,1.4459101712077855,-1.3493044849336147,3.060017685216665,1.0551813840866089,0.6193705797195435,-0.17616571485996246
1772376756114901000,1.63290087890625,1.108970492008701,-0.9724069624207913,3.991669005009532,1.1158552169799805,0.6956900954246521,-0.2027326077222824
1772376756124850000,1.642849853515625,0.7407108147859572,-0.6289819397903978,4.855014850339293,1.061751365661621,0.7220390439033508,-0.2399001121520996
1772376756134799000,1.652799072265625,0.38949221566990017,-0.3913737916328013,5.4456707127362485,0.9484457969665527,0.6946545243263245,-0.2908514440059662
1772376756144748000,1.662748046875,0.23554851221404968,-0.24345482835918664,5.728953401353955,0.8316181302070618,0.6159851551055908,-0.35165226459503174
1772376756154697000,1.672697021484375,0.21921302509345114,-0.058607671791315076,5.677794876524806,0.7381986975669861,0.527117908000946,-0.4166075587272644
1772376756164646000,1.68264599609375,0.180548436460644,0.12898323052674532,5.219694550183415,0.6908134818077087,0.455024391412735,-0.49214470386505127
1772376756174594800,1.6925947265625,0.18607428721003233,0.2667769594967365,4.539792132103443,0.6581303477287292,0.3807743787765503,-0.5802750587463379
1772376756184544000,1.7025439453125,0.16995741127617656,0.4246076604537666,3.8523341840773817,0.6560935378074646,0.3131888210773468,-0.6807253360748291
1772376756194493000,1.712492919921875,0.07214961920324713,0.5982889876239001,3.0632880851894617,0.7129725217819214,0.289228618144989,-0.7833510637283325
1772376756204442000,1.722442138671875,-0.14282277264576404,0.7103941485859453,1.8508663518607615,0.853927731513977,0.3850843012332916,-0.8494417667388916
1772376756214391000,1.73239111328125,-0.25488632295578717,0.6944967606216669,0.3963075947731733,1.0545204877853394,0.567621111869812,-0.8505088686943054
1772376756224340000,1.742340087890625,-0.19735115750050172,0.637942952620238,-1.08129301520586,1.2202167510986328,0.7069805264472961,-0.7459256052970886
1772376756234290000,1.7522900390625,0.37687735650762916,0.5672022138342261,-1.994913003745675,1.26607084274292,0.6597336530685425,-0.5281203389167786
1772376756244237800,1.76223779296875,1.5717276311799884,0.2969803745806217,-2.213590241461992,1.1449503898620605,0.3615087866783142,-0.2729872465133667
1772376756254188000,1.77218798828125,2.6372496612802148,-0.2198825218528509,-1.7800135310024021,0.7820611000061035,-0.2221575826406479,-0.1279653161764145
1772376756264137000,1.782136962890625,2.88848389146924,-0.7463955824241042,-1.1204361080706118,0.2261657863855362,-0.86741042137146,-0.17412401735782623
1772376756274086000,1.7920859375,2.20703380555585,-1.318795949423313,-1.0471323869287967,-0.32580283284187317,-1.212301254272461,-0.3866354823112488
1772376756284035000,1.80203515625,0.9228313228689133,-1.7969775252848863,-2.269626016938686,-0.7113350033760071,-1.1626149415969849,-0.6868966817855835
1772376756293984000,1.81198388671875,-0.4249515785206109,-1.8946704222738742,-4.715024195846915,-0.8753852248191833,-0.8921400308609009,-1.0025286674499512
1772376756303933000,1.821932861328125,-1.4771765393480658,-1.4618706875361502,-7.328847096571326,-0.8779909014701843,-0.5350160598754883,-1.2749959230422974
1772376756313881900,1.8318818359375,-2.401710428351164,-0.6774902423717081,-9.08164528838992,-0.8160854578018188,-0.13316793739795685,-1.4076777696609497
1772376756323831000,1.8418310546875,-2.5895371852517126,0.14233151853010056,-9.22847777160108,-0.7518167495727539,0.19687975943088531,-1.360348105430603
1772376756333780000,1.851780029296875,-1.781858574347198,0.764034261097759,-8.000787157469988,-0.7326350212097168,0.3968815505504608,-1.145522952079773
1772376756343729000,1.86172900390625,-0.5902260926775634,1.1425962096914648,-6.033976212614775,-0.7683267593383789,0.5088126063346863,-0.8224262595176697
1772376756353678000,1.871677978515625,0.42695710965674366,1.2746712687537074,-3.7407132995009422,-0.8561927080154419,0.5964410305023193,-0.47821691632270813
1772376756363627000,1.881626953125,0.9053015113972127,1.2428263700731097,-1.6530781729161739,-0.9771050810813904,0.6261687278747559,-0.17693926393985748
1772376756373576000,1.891575927734375,0.9594146482482552,1.0353639154627918,0.08938099571764468,-1.0892143249511719,0.5686503052711487,0.04043726250529289
1772376756383524900,1.90152490234375,0.882900294496864,0.769088329616934,1.3723171117305755,-1.1761505603790283,0.4388192892074585,0.1696033477783203
1772376756393474000,1.91147412109375,0.8238220825843513,0.38875966361165043,2.2377304109841583,-1.201560378074646,0.26865020394325256,0.24599851667881012
1772376756403423000,1.921423095703125,0.9557418780196457,-0.08219049969166517,2.668492648544907,-1.1582220792770386,0.11347147077322006,0.2679339349269867
1772376756413372200,1.9313720703125,1.1350903641059995,-0.5324661237567663,2.792429993858933,-1.0616917610168457,-0.011851832270622253,0.23407182097434998
1772376756423321000,1.941321044921875,1.2294368732765317,-0.8789420583903789,2.7190228123426436,-0.928866446018219,-0.09789306670427322,0.1458379030227661
1772376756433270000,1.95127001953125,1.2414172339275478,-1.1177106286294758,2.6018694280803203,-0.7636526823043823,-0.12116297334432602,0.046615175902843475
1772376756443219000,1.961218994140625,1.1175297191046178,-1.2345355115897954,2.4926222868978978,-0.5666494965553284,-0.06965040415525436,-0.030832666903734207
1772376756453167900,1.97116796875,1.0815270431574433,-1.2721540252357721,2.4251105931609866,-0.3640492856502533,0.04573557898402214,-0.07059712707996368
1772376756463116800,1.98111669921875,1.1235673918336628,-1.165640473735705,2.522782447361946,-0.1897381693124771,0.17161306738853455,-0.06292230635881424
1772376756473066000,1.99106591796875,1.1696765973839909,-0.9090257926173507,2.824443673235178,-0.050950467586517334,0.31181302666664124,-0.006291519850492477
1772376756483015200,2.00101513671875,1.2456598399333656,-0.6172218708265572,3.2809453322082756,0.05099710822105408,0.42939049005508423,0.06868603080511093
1772376756492964000,2.010964111328125,1.2571839812494814,-0.3001444646347314,3.7290976805090903,0.1280261129140854,0.5010616779327393,0.15578098595142365
1772376756502913000,2.0209130859375,1.1063120133891702,-0.034494682537019254,4.110841327878832,0.19232499599456787,0.5051186084747314,0.24922144412994385
1772376756512862000,2.030862060546875,0.8420609191082418,0.15185016524270176,4.258620152029395,0.28457051515579224,0.4554080069065094,0.3437519371509552
1772376756522811000,2.040810791015625,0.5726081645309925,0.25660642474666234,4.135318766531348,0.4339200556278229,0.35375356674194336,0.4147539436817169
1772376756532759800,2.050759765625,0.30672099348083137,0.372566653701663,3.8174300439566373,0.6495881080627441,0.19407787919044495,0.45421507954597473
1772376756542709000,2.060708984375,-0.03726338006537407,0.5390070698328316,3.3426644140183925,0.9050928950309753,0.017494020983576775,0.46669748425483704
1772376756552658200,2.070658203125,-0.3967015990594402,0.7539433674551547,2.7107909905701875,1.1654834747314453,-0.13078573346138,0.45394760370254517
1772376756562607000,2.080607177734375,-0.7073213900770992,0.9720033500559627,2.0686492710858584,1.3611246347427368,-0.2108585089445114,0.41296306252479553
1772376756572556000,2.09055615234375,-1.0184351386241615,1.1509462510161101,1.5287591348081826,1.482083797454834,-0.2836195230484009,0.37417811155319214
1772376756582505000,2.1005048828125,-1.2247647167470306,1.312968704574555,0.9879857859551906,1.531178593635559,-0.25860726833343506,0.35012322664260864
1772376756592454000,2.110453857421875,-1.3286425129160284,1.3329432788498699,0.2889852841734886,1.4888557195663452,-0.11004441976547241,0.35488361120224
1772376756602402800,2.12040283203125,-1.2447741431400179,1.1286357811391352,-0.26349077743291854,1.308978796005249,-0.018954813480377197,0.402181476354599
1772376756612352000,2.13035205078125,-0.9315337578278035,0.7715807309545576,-0.5503127460926771,0.9750695824623108,-0.1434227079153061,0.475070059299469
1772376756622301200,2.14030126953125,-0.5361331948969513,0.39246860113218424,-0.5821306106358766,0.5923471450805664,-0.5058627128601074,0.5293563604354858
1772376756632250000,2.15025,-0.06825736100506037,-0.03763298056274652,-0.7594312973469496,0.18793892860412598,-1.1692876815795898,0.4684618413448334
1772376756642199000,2.160198974609375,-0.1925431361642666,-0.671334057829529,-1.3593512471735476,-0.2614983916282654,-2.010667085647583,0.22711093723773956
1772376756652148000,2.17014794921875,-1.1813638933725654,-1.34008613634184,-2.423126141345501,-0.7814784646034241,-2.705869674682617,-0.1906021535396576
1772376756662097000,2.180096923828125,-2.790371600024402,-1.7750841117762028,-4.059618505641818,-1.2339926958084106,-2.8380987644195557,-0.7434289455413818
1772376756672045800,2.1900458984375,-4.512150676462054,-1.826555209685862,-6.380414737847447,-1.4682248830795288,-2.4362967014312744,-1.3541368246078491
1772376756681995000,2.1999951171875,-5.827502622911334,-1.5342391736544667,-9.308430429238081,-1.5538705587387085,-1.856806755065918,-1.9075485467910767
1772376756691944000,2.20994384765625,-6.305438115057349,-0.7895490799739956,-11.386502777707577,-1.4978063106536865,-1.1705775260925293,-2.2065975666046143
1772376756701893000,2.21989306640625,-5.603299315249919,0.015702011522650716,-11.880656414204836,-1.3094967603683472,-0.46699970960617065,-2.1760435104370117
1772376756711842000,2.229842041015625,-3.9596144091010093,0.6409396502181888,-11.097049876022338,-1.0481773614883423,0.06450305134057999,-1.8320327997207642
1772376756721791000,2.239791015625,-1.9466320801794528,1.1126721960708499,-9.549926232483983,-0.7699288129806519,0.3774413466453552,-1.2852563858032227
1772376756731740000,2.249739990234375,-0.18786540841050445,1.4255647177934645,-7.525346404749155,-0.5176284313201904,0.5630687475204468,-0.6689484119415283
1772376756741689000,2.259689208984375,0.8886761014193296,1.428393219217658,-5.309916672900319,-0.3111399710178375,0.7163906693458557,-0.09477445483207703
1772376756751638000,2.269637939453125,1.2426792166873812,1.0588675406470893,-3.1109406477242705,-0.1817721426486969,0.8538203835487366,0.34631985425949097
1772376756761587000,2.2795869140625,1.121510167042911,0.5264784276492893,-1.1224924560785292,-0.11756618320941925,0.955685019493103,0.6288295388221741
1772376756771536000,2.289535888671875,0.8915694117080419,-0.12728007987067103,0.5355377862870693,-0.11692942678928375,1.0594810247421265,0.7730647325515747
1772376756781485000,2.299485107421875,0.7170101326595991,-0.7991656341031194,1.8745447490900753,-0.14172065258026123,1.1282192468643188,0.8146599531173706
1772376756791434000,2.30943408203125,0.7188931699272245,-1.2809414350643753,2.8464158510684965,-0.1455654501914978,1.095726490020752,0.7928960919380188
1772376756801383000,2.3193828125,0.9236047183942049,-1.650617920282483,3.5238591855585573,-0.0797853022813797,0.9596179127693176,0.6932719945907593
1772376756811332000,2.32933203125,1.1658164148245007,-2.139646322720498,3.97138141926229,0.0540475994348526,0.82994145154953,0.44169169664382935
1772376756821281000,2.339281005859375,1.3168418927460908,-2.684876212590933,4.165301232340932,0.24417705833911896,0.753969132900238,0.09495573490858078
1772376756831230000,2.34922998046875,1.3738970743983983,-3.022986469939351,4.2118122236251825,0.45916125178337097,0.760099470615387,-0.17059817910194397
1772376756841179000,2.359178955078125,1.5366747302383184,-2.8175322864115238,4.375738464978337,0.6178216338157654,0.7156946659088135,-0.26899194717407227
1772376756851128000,2.369128173828125,1.8674634125269949,-2.0615407542549073,4.738308040800691,0.7073469758033752,0.7124306559562683,-0.23426540195941925
1772376756861077000,2.379076904296875,2.0159816568680107,-1.0002148606702685,5.393721914312243,0.778056800365448,0.8017259240150452,-0.14702966809272766
1772376756871026000,2.38902587890625,1.8535668429911136,0.0923711174443364,5.919779924592375,0.8377159237861633,0.8793501257896423,-0.021006477996706963
1772376756880975000,2.39897509765625,1.6491330885522066,0.7509493002057075,6.172503808817267,0.8691700100898743,0.8098737001419067,0.15757328271865845
1772376756890924000,2.408924072265625,1.6312829590849578,1.1741935633517802,6.394667135083675,0.8555309176445007,0.6327767372131348,0.3676990866661072
1772376756900873000,2.418873046875,1.7088123350977897,1.46751702286005,6.578560059666633,0.7893079519271851,0.41944974660873413,0.5746056437492371
1772376756910822000,2.42882177734375,1.7090303617626428,1.660075192196667,6.49212213166356,0.7017014026641846,0.21517491340637207,0.7487375140190125
1772376756920772000,2.438772216796875,1.4346923193618655,1.7808432598248123,6.108897890347242,0.6249921321868896,0.09566883742809296,0.8565210103988647
1772376756930720000,2.448719970703125,0.9704474258508533,1.8037728845134375,5.492302700051665,0.6003328561782837,0.06182458624243736,0.8959975838661194
1772376756940670000,2.458669921875,0.49665652269627897,1.7828236199870704,4.59477810626626,0.653498649597168,0.04967881366610527,0.8748270869255066
1772376756950619000,2.468618896484375,0.06344948579929768,1.7489514532625674,3.563438916274905,0.7477870583534241,0.024678122252225876,0.8202866315841675
1772376756960568000,2.478568115234375,-0.26540274853408335,1.7670580417089163,2.510273678922653,0.8848540782928467,0.0188790000975132,0.7684885263442993
1772376756970517000,2.48851708984375,-0.4006002504657954,1.688614619591087,1.4711492418825625,1.0660570859909058,0.051767975091934204,0.7656493186950684
1772376756980466200,2.498466064453125,-0.1724624346333556,1.4044377586126326,0.4361450996428728,1.248519778251648,0.10267625749111176,0.82091224193573
1772376756990415000,2.5084150390625,0.4178792655142024,0.9568331073224544,-0.5191764340728521,1.3349891901016235,-0.003686931449919939,0.9056921005249023
1772376757000364000,2.518364013671875,1.289205990062654,0.4439356073886156,-0.9076239629954099,1.207334280014038,-0.41673743724823,0.8861223459243774
1772376757010313000,2.52831298828125,1.9337552090801298,-0.1465907834097743,-0.8027157278001308,0.8800904154777527,-0.9699686765670776,0.7274898290634155
1772376757020262000,2.538261962890625,1.971010296241194,-0.8141384545683861,-0.5772311481565237,0.3772171437740326,-1.498710036277771,0.4546332061290741
1772376757030211300,2.54821142578125,1.5366405357077717,-1.6290984546527265,-0.7925999919772148,-0.24939163029193878,-1.878890872001648,0.09253436326980591
1772376757040160300,2.55816015625,0.6990250517010689,-2.0898253301054237,-1.693149486541748,-0.8334931135177612,-1.8589915037155151,-0.3290390372276306
1772376757050109200,2.568109130859375,-0.5522550392668694,-1.8408263116225598,-3.42952144421637,-1.215612530708313,-1.4827622175216675,-0.7745129466056824
1772376757060058000,2.57805810546875,-1.707143086711317,-1.0973162215068937,-5.877348311576247,-1.3682575225830078,-0.9825406074523926,-1.1569535732269287
1772376757070007000,2.588007080078125,-2.255283018809557,-0.2796162750646472,-8.077791486695409,-1.3055890798568726,-0.4857816696166992,-1.3644287586212158
1772376757079956000,2.5979560546875,-1.8964634431704879,0.28690234041959045,-9.423705160146952,-1.071786642074585,-0.03788786008954048,-1.3059053421020508
1772376757089905000,2.60790478515625,-0.6709824679128825,0.7329314129561185,-9.626467620372772,-0.7708073854446411,0.25166699290275574,-1.011720061302185
1772376757099854000,2.61785400390625,0.9069868341356515,1.1379596359319983,-8.70808728556335,-0.5099810361862183,0.31672272086143494,-0.594984233379364
1772376757109803300,2.62780322265625,2.0406313833475114,1.6350803055413066,-6.9659607098847625,-0.33603164553642273,0.22955159842967987,-0.163424551486969
1772376757119752200,2.637752197265625,2.510223117779195,1.9928265528604387,-4.926792384827137,-0.24395087361335754,0.11133745312690735,0.21522842347621918
1772376757129701000,2.647701171875,2.4237828516885638,1.9916354433797299,-3.070328066828847,-0.1819452941417694,0.058291804045438766,0.5172883868217468
1772376757139650000,2.657650146484375,2.093945478775352,1.6816482877098022,-1.6124603313237427,-0.14169178903102875,0.10369954258203506,0.7287237048149109
1772376757149599000,2.667598876953125,1.6553092929691076,1.2339388608708977,-0.4763268879055977,-0.11391341686248779,0.21778936684131622,0.8487824201583862
1772376757159548200,2.677548095703125,1.217653277306631,0.9034431701794267,0.5124368966847658,-0.10960600525140762,0.3644910156726837,0.9054443836212158
1772376757169497000,2.6874970703125,0.8521603613834827,0.670167498268187,1.5670757137209177,-0.12962445616722107,0.5126489996910095,0.9055759310722351
1772376757179446300,2.6974462890625,0.6068316654438153,0.4334354022927582,2.650628490552306,-0.18341201543807983,0.6427935361862183,0.8655300736427307
1772376757189395200,2.707395263671875,0.40623825635276734,0.13463950272276998,3.6947733861029146,-0.2854744791984558,0.7131233215332031,0.7631860971450806
1772376757199344000,2.71734423828125,0.2740972193822265,-0.12395678066685795,4.664931838944554,-0.4234309196472168,0.6775683164596558,0.6031222939491272
1772376757209293000,2.72729296875,0.13204488311968743,-0.36839009866937994,5.529468939885497,-0.5641492009162903,0.5410541296005249,0.4288996160030365
1772376757219242000,2.737241943359375,0.0812772938368842,-0.551016948839277,6.096959030750393,-0.6762959361076355,0.3585958778858185,0.2700686752796173
1772376757229191200,2.747191162109375,0.12115114866159855,-0.6697469347685575,6.320713425600529,-0.7433197498321533,0.14657709002494812,0.14131230115890503
1772376757239140000,2.75714013671875,0.14971771979127077,-0.6704078828953206,6.238494576597214,-0.7599065899848938,-0.045773521065711975,0.05914684385061264
1772376757249089000,2.767089111328125,0.15433471206743268,-0.4853896075442433,5.866120230597257,-0.704749584197998,-0.17188964784145355,0.01935522072017193
1772376757259038200,2.7770380859375,0.16440474558509885,-0.23812968781366942,5.230680054578185,-0.573366105556488,-0.23853351175785065,0.002015126636251807
1772376757268987100,2.786987060546875,0.1832697511833161,-0.13413228385299444,4.4184839662492275,-0.3875690698623657,-0.21658293902873993,-0.009354973211884499
1772376757278936000,2.79693603515625,0.19237904991004615,-0.11138736808151006,3.544041557365656,-0.1618722677230835,-0.10582605004310608,-0.021590426564216614
1772376757288885000,2.806885009765625,0.037690994360297915,-0.021754735690355298,2.764115753522515,0.0729178637266159,0.03869784623384476,-0.031284064054489136
1772376757298834200,2.816834228515625,-0.16667685523554682,0.07811813568621874,2.2377152134150267,0.2851000428199768,0.12801425158977509,-0.04018797352910042
1772376757308783000,2.826783203125,-0.33361769516952333,0.280318724245578,1.906989221099019,0.4985598623752594,0.15261493623256683,-0.046785421669483185
1772376757318732000,2.83673193359375,-0.46709622782152144,0.5341456012763083,1.568068816411495,0.7077986598014832,0.16466374695301056,-0.041038334369659424
1772376757328681000,2.846680908203125,-0.5343876298712567,0.7385099437408149,1.2086328624397515,0.9303845763206482,0.20245400071144104,-0.0288530420511961
1772376757338630100,2.856630126953125,-0.531685896631889,0.8922294099867344,0.81097911375463,1.1275904178619385,0.3284415602684021,-0.0016808155924081802
1772376757348579000,2.8665791015625,-0.5326104275982827,1.003727252705395,0.5453010554105043,1.2432844638824463,0.5018922090530396,0.03621623292565346
1772376757358528300,2.8765283203125,-0.5681005509134381,1.0042650128439068,0.5525099638760089,1.217756986618042,0.541242778301239,0.1014983057975769
1772376757368477200,2.886477294921875,-0.506405945957452,0.8630515385583043,0.9479588959932327,1.03746497631073,0.33509013056755066,0.19963791966438293
1772376757378426000,2.896426025390625,-0.3152606390934437,0.543427370493114,1.2891437384814024,0.7201418876647949,-0.25466299057006836,0.31196916103363037
1772376757388375000,2.906375,0.013147322071157395,0.015457389111816882,1.2290730084002017,0.40807637572288513,-1.040869951248169,0.326413631439209
1772376757398324000,2.916323974609375,0.144782272683084,-0.7163983574368059,0.49782911013960834,0.16783566772937775,-1.7929574251174927,0.14854179322719574
1772376757408273200,2.926273193359375,-0.7258609631132334,-1.3413630244098602,-1.1480144353479147,-0.07221661508083344,-2.3100974559783936,-0.2024306058883667
1772376757418222000,2.93622216796875,-2.2237761199116703,-1.852403498300165,-3.4773698215842246,-0.3375098407268524,-2.292731523513794,-0.6618244051933289
1772376757428171300,2.946171142578125,-3.579574935300648,-2.311793718321621,-5.882282845368981,-0.5262936353683472,-1.694457769393921,-1.163470983505249
1772376757438120200,2.9561201171875,-4.6012166148811575,-2.4123532567881045,-8.25858118456602,-0.6385073661804199,-0.8460379242897034,-1.5957448482513428
1772376757448069000,2.966069091796875,-4.906497784817218,-2.0394135319903492,-9.953584774541854,-0.7206727862358093,-0.0584394708275795,-1.8395910263061523
1772376757458018000,2.97601806640625,-4.197389438258111,-1.4588675601974128,-10.262565383517742,-0.7858917713165283,0.5056071281433105,-1.824576735496521
1772376757467967000,2.985967041015625,-2.634733294545114,-0.8684570508636533,-9.346630688294768,-0.8205623626708984,0.7123435139656067,-1.5661520957946777
1772376757477916000,2.995916015625,-0.7516745457403361,-0.2630598386697471,-7.81858993088901,-0.8154369592666626,0.571356475353241,-1.133899211883545
1772376757487865000,3.005864990234375,0.9028048722758889,0.28474311655908824,-6.291271058017015,-0.7499367594718933,0.3010067343711853,-0.6348100900650024
1772376757497814300,3.015814208984375,1.8232342485696076,0.5972156593039631,-5.1025119398266074,-0.6154003143310547,0.1133526861667633,-0.16295838356018066
1772376757507763200,3.02576318359375,1.9054905069738626,0.6998809378780424,-4.38931047873497,-0.40407314896583557,0.10392136871814728,0.2143673300743103
1772376757517712100,3.035712158203125,1.3949223267704247,0.4937660984843969,-3.9268320834398267,-0.17145298421382904,0.2496814876794815,0.49600949883461
1772376757527661000,3.0456611328125,0.8332502014692872,0.09905877851471304,-3.314779797270894,0.03225861117243767,0.45773959159851074,0.7002214193344116
1772376757537610000,3.05560986328125,0.5575928200982511,-0.3809389068581164,-2.3041467106997966,0.16700035333633423,0.6392109990119934,0.8501855731010437
1772376757547559000,3.065558837890625,0.608762670039013,-0.7985584619902074,-1.0458137055456638,0.21754048764705658,0.7569514513015747,0.9610553979873657
1772376757557508000,3.075508056640625,0.7781217500958592,-1.1633072815477847,0.4019312798738479,0.2045551836490631,0.8264687657356262,1.0324846506118774
1772376757567457300,3.085457275390625,0.9320286286726593,-1.5350110348097978,1.851751318001747,0.1497230976819992,0.8435412049293518,1.037670373916626
1772376757577406200,3.09540625,0.9679092856753617,-1.8885173064716159,3.0799779387056825,0.0995158702135086,0.7879408597946167,0.9694725275039673
1772376757587355100,3.105355224609375,0.854954156820476,-2.135638694514334,4.026037138557434,0.07604196667671204,0.6747503876686096,0.8538188934326172
1772376757597304000,3.115303955078125,0.6472088666807859,-2.232177453032136,4.679242688369751,0.07220229506492615,0.5348445177078247,0.7274027466773987
1772376757607253000,3.1252529296875,0.4673734007950872,-2.1810257963351902,5.105492416942119,0.06511162966489792,0.38162991404533386,0.6118886470794678
1772376757617202000,3.135201904296875,0.3066315616317093,-1.9102523145481942,5.341203207045793,0.05257299169898033,0.2605046331882477,0.5360972285270691
1772376757627151000,3.145151123046875,0.15720968298185617,-1.473594443077594,5.3386570296943185,0.061874616891145706,0.21770016849040985,0.4958012104034424
1772376757637100300,3.155100341796875,-0.05292871283944696,-0.9209178904630243,5.106524098077416,0.11510336399078369,0.2305345982313156,0.47783979773521423
1772376757647049200,3.16504931640625,-0.21290882864901794,-0.40364670548960563,4.7262224662095305,0.22361360490322113,0.28586605191230774,0.48623037338256836
1772376757656998100,3.174998046875,-0.17059052154794335,-0.05928235618248581,4.274354896777868,0.3806273937225342,0.33194559812545776,0.5091345310211182
1772376757666947000,3.184947021484375,-0.1604409930532798,0.23645400968641042,3.8034582172274587,0.5770357251167297,0.325198769569397,0.5409414768218994
1772376757676896000,3.19489599609375,-0.24296068816669283,0.6168745917588472,3.355434463742375,0.7834324836730957,0.2925165593624115,0.5697454214096069
1772376757686845200,3.20484521484375,-0.34734847968444227,0.9884592486858368,2.9559938316404817,0.9793505668640137,0.23578138649463654,0.5790728330612183
1772376757696794000,3.214794189453125,-0.44985794664230194,1.2808875129200517,2.5520605642944574,1.1504590511322021,0.1990751177072525,0.5623990297317505
1772376757706743000,3.224742919921875,-0.5223814041266217,1.5650399701096116,2.1253116540282964,1.3074010610580444,0.20566962659358978,0.529192328453064
1772376757716693200,3.234693359375,-0.5295188182584941,1.7719950597196816,1.69247436375916,1.4416978359222412,0.303423672914505,0.5046314597129822
1772376757726642200,3.24464208984375,-0.5041150585412979,1.9622104653224348,1.2798551011323929,1.5486419200897217,0.44575685262680054,0.5025243163108826
1772376757736591000,3.254591064453125,-0.3898814341831952,2.143146001404524,1.103009172451496,1.5801186561584473,0.48955124616622925,0.5502274632453918
1772376757746540000,3.2645400390625,-0.08150633508609607,2.2495023895815014,1.2991922542870045,1.5020006895065308,0.3248746991157532,0.6544734239578247
1772376757756489000,3.274489013671875,0.6051862728569656,2.175218425230682,1.7746283308327198,1.320433259010315,-0.012626150622963905,0.8137223720550537
1772376757766438000,3.28443798828125,1.6120492663048207,1.702243478101492,2.1296400386214254,1.0739281177520752,-0.4857494831085205,0.9311813712120056
1772376757776387300,3.29438720703125,2.42743041441068,0.8899407145276665,1.9992139158099889,0.7848036885261536,-0.9858096241950989,0.8959512710571289
1772376757786336300,3.304336181640625,2.4771859405741092,-0.1064095796689391,1.321203595086932,0.4451574385166168,-1.3581929206848145,0.6664161086082458
1772376757796285200,3.31428515625,1.6984326876416802,-0.9924135392695664,0.12351648955345153,0.06587374210357666,-1.4669756889343262,0.31089383363723755
1772376757806234000,3.324234130859375,0.5637119605656713,-1.581648136691749,-1.3673311400115489,-0.2951081693172455,-1.2732304334640503,-0.06382996588945389
1772376757816183000,3.33418310546875,-0.3550035975474864,-1.6810668345600366,-2.953139611253142,-0.5735540986061096,-0.8954817652702332,-0.37418797612190247
1772376757826132000,3.344132080078125,-0.7907752607680857,-1.2330272989839315,-4.379076084968448,-0.6991508603096008,-0.48048514127731323,-0.5908644199371338
1772376757836081200,3.3540810546875,-0.7887997959766536,-0.48230537779331206,-5.509260264593363,-0.7102903723716736,-0.21523666381835938,-0.6743981838226318
1772376757846030000,3.364030029296875,-0.38462767837345596,0.1834574557751417,-6.077728260579705,-0.6688622236251831,-0.08571623265743256,-0.6176150441169739
1772376757855979300,3.373979248046875,0.34835904496647413,0.7027402728319168,-5.894716210484504,-0.6191161870956421,-0.06414083391427994,-0.44092175364494324
1772376757865928200,3.38392822265625,1.0694241521053016,1.0775117431014776,-5.258064905110001,-0.5395390391349792,-0.04314953088760376,-0.1872444599866867
1772376757875877000,3.393877197265625,1.6728746141456066,1.1871221646383403,-4.486729819479584,-0.43634021282196045,-0.00904480367898941,0.08059514313936234
1772376757885826000,3.403825927734375,2.0219373504020273,1.0682727901130915,-3.6124329565465447,-0.3645131587982178,-0.03882240504026413,0.3059835433959961
1772376757895775000,3.41377490234375,2.1296216261819003,0.8651274680495261,-2.600530872952938,-0.3477576673030853,-0.07096387445926666,0.4310428202152252
1772376757905724200,3.42372412109375,1.9528785733535885,0.5616802355423569,-1.5564713175982237,-0.38420143723487854,-0.05939536914229393,0.4602004289627075
1772376757915673000,3.433673095703125,1.3196819384776055,0.17089432680010794,-0.7386907071352005,-0.4653131067752838,0.0478450246155262,0.38890141248703003
1772376757925622300,3.443622314453125,0.4641765044499188,-0.1875996701464057,-0.2239788512557745,-0.5661318302154541,0.2354053407907486,0.23409931361675262
1772376757935571200,3.4535712890625,-0.2527997259400785,-0.4937245974302292,0.19090777178108692,-0.6553208231925964,0.4617127776145935,0.040047455579042435
1772376757945520000,3.46352001953125,-0.7106615673504769,-0.6706789549216627,0.5666325972527265,-0.7077419757843018,0.6713044047355652,-0.16309712827205658
1772376757955469000,3.473468994140625,-0.8301113919869065,-0.7284197807505727,0.9607102410167455,-0.7121471166610718,0.8136371970176697,-0.33941584825515747
1772376757965418000,3.48341796875,-0.7238344987869262,-0.6321928646609187,1.4320663547724484,-0.6807191967964172,0.8609373569488525,-0.46808648109436035
1772376757975367200,3.4933671875,-0.5242898315638304,-0.41205373769849535,1.9691034397065639,-0.6105487942695618,0.8146700859069824,-0.5422446131706238
1772376757985315600,3.503315673828125,-0.2891272499274462,-0.11774711237177252,2.442820437374711,-0.512502133846283,0.6980281472206116,-0.5650258660316467
1772376757995264500,3.513264404296875,-0.06098989075273275,0.13000512092038988,2.7869728974968195,-0.39719730615615845,0.5488680005073547,-0.5688906908035278
1772376758005213400,3.52321337890625,0.016242584672756494,0.33429201423451305,2.919771594658494,-0.2942749261856079,0.415431410074234,-0.5703276991844177
1772376758015162400,3.533162353515625,-0.046330995074845845,0.41351518855318425,2.821502359086275,-0.1892264038324356,0.35390400886535645,-0.5685635209083557
1772376758025111600,3.543111572265625,-0.03915797990662977,0.4838467620164156,2.5117455050408837,-0.04470037296414375,0.38167837262153625,-0.5527474880218506
1772376758035060500,3.553060546875,-0.09904807445760816,0.6694850689619779,2.111051073485613,0.14343835413455963,0.5016407370567322,-0.521877646446228
1772376758045009400,3.563009521484375,-0.1981926680922508,0.8844777729466557,1.6963485748440026,0.3455802798271179,0.6539938449859619,-0.48506268858909607
1772376758054958600,3.57295849609375,-0.33041389415953304,1.1241907844290138,1.4336340424805878,0.5254405736923218,0.8095401525497437,-0.44784674048423767
1772376758064907500,3.582907470703125,-0.5716774960847572,1.2889438319951294,1.2893395533144474,0.6767640113830566,0.9499750733375549,-0.41672664880752563
1772376758074856400,3.5928564453125,-0.8436158934652804,1.5003616001024842,1.3074731758981943,0.8048244714736938,1.0388176441192627,-0.3698197305202484
1772376758084805400,3.602805419921875,-1.0443832343511283,1.7194971029803157,1.377480193582177,0.8997067809104919,1.0556591749191284,-0.275339275598526
1772376758094754600,3.612754638671875,-1.0879406365267932,1.8455866578921674,1.505164324209094,0.9585080742835999,1.0276713371276855,-0.13566523790359497
1772376758104703500,3.622703369140625,-0.9570555179014801,1.8314254460707307,1.641110087224841,0.9800754189491272,0.939078152179718,0.023377947509288788
1772376758114652400,3.63265234375,-0.8679289353363215,1.7167404977485536,1.6470605200618504,0.9827522039413452,0.783521831035614,0.17377223074436188
1772376758124601300,3.642601318359375,-0.7517127588588743,1.466556653395295,1.5775854172974824,0.9482197761535645,0.51700758934021,0.30735692381858826
1772376758134550500,3.652550537109375,-0.4673630985967815,1.0813917994052171,1.400557702308893,0.8807435035705566,0.12248808145523071,0.41507261991500854
1772376758144499500,3.66249951171875,-0.026978023296594617,0.5787278164550662,1.146743684759736,0.7848108410835266,-0.35035112500190735,0.4839611351490021
1772376758154448400,3.672448486328125,0.40084487287662923,-0.11136048007458448,0.7919219465851783,0.6734198927879333,-0.8238175511360168,0.4868946075439453
1772376758164397600,3.6823974609375,0.45785848040953275,-0.8952081335365771,0.15991817475557327,0.5293793678283691,-1.1687521934509277,0.39395827054977417
1772376758174346500,3.692346435546875,-0.07387121883146465,-1.4995958764269948,-0.7958113552391528,0.30862531065940857,-1.249666690826416,0.23031938076019287
1772376758184295400,3.70229541015625,-0.7937477007076144,-1.888743370312452,-1.7994991527169941,0.010510510765016079,-1.1157053709030151,0.045151397585868835
1772376758194244400,3.712244384765625,-1.1962228781998157,-2.1104154059305786,-2.5541975763231513,-0.29921120405197144,-0.8320783376693726,-0.09957364201545715
1772376758204193500,3.722193603515625,-1.2133402364131063,-2.191999171900749,-3.30492066655755,-0.5378389358520508,-0.5153800249099731,-0.16788825392723083
1772376758214142500,3.732142578125,-0.8892939410567283,-2.10548847092241,-4.042563910466432,-0.686642587184906,-0.3075946569442749,-0.14362730085849762
1772376758224091600,3.742091552734375,-0.3610386764606461,-1.9436007496595382,-4.6108998045057055,-0.7483150362968445,-0.27845489978790283,-0.06032733619213104
1772376758234040600,3.75204052734375,0.10120235728151164,-1.6533075977578757,-4.8309132592618464,-0.7453113794326782,-0.4437485933303833,0.04863676801323891
1772376758243989500,3.761989501953125,0.2638312431673519,-1.320121937330067,-4.80755693359375,-0.6941901445388794,-0.6971548199653625,0.16028234362602234
1772376758253938400,3.7719384765625,0.018533928746636955,-0.957389572161436,-4.849248541897535,-0.584038496017456,-0.7965009212493896,0.23929646611213684
1772376758263887400,3.781887451171875,-0.44329051441811024,-0.8205079896003007,-5.15289948028326,-0.4304233491420746,-0.674446165561676,0.2709968686103821
1772376758273836300,3.791836181640625,-0.8393554595418274,-0.8788868210718035,-5.260450338941812,-0.2811298072338104,-0.3930893540382385,0.27633199095726013
1772376758283785500,3.801785400390625,-0.9970609997492283,-0.8564712833851575,-4.790851297986507,-0.17377056181430817,-0.028581969439983368,0.2939845025539398
1772376758293734700,3.811734619140625,-0.9134122640732675,-0.7911500854298472,-3.68968979922831,-0.13796910643577576,0.3465552031993866,0.33759427070617676
1772376758303683600,3.82168359375,-0.7023048770893364,-0.7134557281136512,-2.1756331435114142,-0.1610315442085266,0.6758513450622559,0.4058457612991333
1772376758313632500,3.831632568359375,-0.4376622262075543,-0.6318935894533991,-0.4961000943899154,-0.20805534720420837,0.9170364737510681,0.45986080169677734
1772376758323581400,3.84158154296875,-0.28169260641466826,-0.6204308229357004,1.0551765771746635,-0.2584788501262665,1.024271011352539,0.49751415848731995
1772376758333530400,3.8515302734375,-0.1597237298957072,-0.6747317374438047,2.3331325666874645,-0.29510271549224854,1.0328867435455322,0.5077893733978271
1772376758343479300,3.861479248046875,-0.08283701743427664,-0.7768655394896864,3.328138460537791,-0.2963453531265259,0.9271122217178345,0.4827660322189331
1772376758353428500,3.871428466796875,-0.0914078527695965,-0.8924307777777314,3.9981840859919786,-0.26192280650138855,0.701715350151062,0.41084909439086914
1772376758363377700,3.881377685546875,-0.28506973643125966,-0.9766390470325946,4.318712509420513,-0.21570046246051788,0.3869163691997528,0.294373095035553
1772376758373326600,3.89132666015625,-0.4684014652011916,-0.993792718668282,4.3434372008323665,-0.1452702283859253,0.07862814515829086,0.16691209375858307
1772376758383275500,3.901275634765625,-0.4993681928077712,-0.9633937810122967,4.10849622605741,-0.04709652066230774,-0.12421578168869019,0.06692450493574142
1772376758393224400,3.911224365234375,-0.4349839469090104,-0.7823857642158866,3.6388252889096733,0.08701803535223007,-0.19851011037826538,0.01685922220349312
1772376758403173400,3.92117333984375,-0.3492288500709459,-0.3304322700664401,3.062350512078404,0.25451141595840454,-0.157011941075325,-0.002609550952911377
1772376758413122300,3.931122314453125,-0.31001316689401864,0.21853958281129598,2.53560568857789,0.4409060478210449,-0.007837902754545212,0.014421897009015083
1772376758423071500,3.941071533203125,-0.23264639756437389,0.7682774516254663,2.1255869638383387,0.624838650226593,0.2020045518875122,0.07418349385261536
1772376758433020700,3.951020751953125,-0.11493500495995394,1.162493627077341,1.889118633365631,0.7784597277641296,0.3862179219722748,0.1595066338777542
1772376758442969600,3.960969482421875,-0.044637233301624654,1.4695429757297038,1.8841823460072278,0.9034972786903381,0.5159788131713867,0.2602374851703644
1772376758452918500,3.97091845703125,0.027369433766976,1.7511299663454294,1.973001031666994,1.0091291666030884,0.6195348501205444,0.3605383634567261
1772376758462867500,3.980867431640625,0.004532181803230196,1.8943951124638319,1.931428081306815,1.0909953117370605,0.7058069109916687,0.4504850208759308
1772376758472816400,3.99081640625,0.026228447038307786,1.8766180482327937,1.8650521136015652,1.1523844003677368,0.761741578578949,0.5047933459281921
1772376758482765300,4.000765380859375,0.13798505029100924,1.737154047963023,1.8132675658285617,1.19084894657135,0.7564589381217957,0.5307469367980957
1772376758492714500,4.010714599609375,0.3228377963494509,1.512086816948652,1.8362538891404867,1.181333303451538,0.6809741258621216,0.5859264731407166
1772376758502663400,4.020663330078125,0.8512852590493858,1.116884845329821,1.9264730892479418,1.0865302085876465,0.46062174439430237,0.6758835315704346
1772376758512612600,4.030612548828125,1.6435370221108196,0.5579240978792309,2.0466046125382182,0.9205878376960754,0.06629820168018341,0.7552037835121155
1772376758522561500,4.0405615234375,2.3523135063670573,-0.19372458276748655,1.9673527966469526,0.7082635760307312,-0.47766655683517456,0.7583742737770081
1772376758532510500,4.050510498046875,2.6003958483964205,-0.988945570898056,1.4583949742496012,0.48539742827415466,-1.0672526359558105,0.6295696496963501
1772376758542459400,4.06045947265625,2.217894952918589,-1.7648215148285031,0.3428933999717235,0.25418978929519653,-1.5026347637176514,0.36561498045921326
1772376758552408600,4.07040869140625,1.3620919241838156,-2.3756682245999574,-1.3492407720476387,-0.009525654837489128,-1.6607675552368164,0.002542046131566167
1772376758562357500,4.080357421875,0.2708806684885174,-2.686147839961946,-3.2565789527148006,-0.2604833245277405,-1.5199507474899292,-0.39683863520622253
1772376758572306400,4.090306396484375,-0.6396726259570569,-2.558230777361989,-5.130612245151401,-0.4037308692932129,-1.11435067653656,-0.737565815448761
1772376758582255600,4.100255615234375,-1.1044354058623314,-1.9957383486539124,-6.916980698138475,-0.431443452835083,-0.5999932885169983,-0.9698334336280823
1772376758592204500,4.11020458984375,-0.9316038273893296,-1.29567577059865,-8.073439721226691,-0.3864927887916565,-0.15847399830818176,-1.0417064428329468
1772376758602153500,4.120153564453125,-0.11365787029676139,-0.720696200761199,-8.38499339556098,-0.355746865272522,0.051937833428382874,-0.9483337998390198
1772376758612102400,4.130102294921875,0.9302324659708887,-0.12956219945847988,-7.6991645100414745,-0.3786596357822418,0.0687868520617485,-0.7242205739021301
1772376758622051600,4.140051513671875,1.79263905768916,0.42837388111948965,-6.506273991134762,-0.45856964588165283,0.023893149569630623,-0.4294179379940033
1772376758632001300,4.150001220703125,2.2189516223646697,0.7130602990552782,-5.398926497218013,-0.5875056982040405,0.029653718695044518,-0.16833080351352692
1772376758641949400,4.159949462890625,2.0239028052560983,0.6648086015835404,-4.56881715105772,-0.7201878428459167,0.1428612321615219,-0.02802962064743042
1772376758651899600,4.169899658203125,1.2207019242875277,0.4645370813906193,-4.063483364376426,-0.7970853447914124,0.3731004595756531,-0.031506188213825226
1772376758661847600,4.17984765625,0.2628914780992083,0.055175651516020295,-3.8920968701452017,-0.8062815070152283,0.6369280815124512,-0.14374218881130219
1772376758671797500,4.189797607421875,-0.4844038113772869,-0.34219489631354805,-3.6736651316225526,-0.7617561221122742,0.9271479845046997,-0.3034907281398773
1772376758681746400,4.199746337890625,-0.8896933156378567,-0.5395926146358251,-3.183177031895518,-0.6896597743034363,1.2089468240737915,-0.45189937949180603
1772376758691695400,4.2096953125,-1.0264127664398401,-0.504927836228907,-2.3894144258797168,-0.6059314608573914,1.4369282722473145,-0.5469787120819092
1772376758701644500,4.21964453125,-0.9013318040486424,-0.2723597280651331,-1.321856506037712,-0.49981778860092163,1.5848839282989502,-0.5764492154121399
1772376758711593500,4.229593505859375,-0.6493620261266827,0.06052198098003864,-0.17618366537988184,-0.3597783148288727,1.6204686164855957,-0.5438945889472961
1772376758721542700,4.239542724609375,-0.38352183602340517,0.397785266110301,0.9626140288114547,-0.1762354075908661,1.5374847650527954,-0.46765491366386414
1772376758731491600,4.24949169921875,-0.14319544188305736,0.6614157442748546,1.9740321282804012,0.05089598149061203,1.3492460250854492,-0.36672306060791016
1772376758741440500,4.2594404296875,0.018374518667533993,0.8768710973352193,2.8307670310378072,0.2967182397842407,1.0846327543258667,-0.2770578861236572
1772376758751389400,4.269389404296875,0.02373641102686524,1.0081529601931571,3.5295658727675674,0.5325784683227539,0.7831510305404663,-0.2156483232975006
1772376758761338400,4.27933837890625,-0.074668798949942,1.075558270946145,4.04547658304274,0.7309834361076355,0.47013160586357117,-0.18364138901233673
1772376758771287600,4.28928759765625,-0.24635705260671673,1.142709606938064,4.403887870141864,0.8800475001335144,0.20962360501289368,-0.16985854506492615
1772376758781236500,4.299236572265625,-0.45722230139784514,1.2281833660840988,4.657270510536432,0.9764440655708313,0.058487340807914734,-0.16249623894691467
1772376758791185400,4.309185302734375,-0.7435692729569972,1.432134743833542,4.736991112983226,1.0447992086410522,0.03480362892150879,-0.17276480793952942
1772376758801134600,4.319134521484375,-1.0627364910349248,1.7787980177327989,4.6461786231577396,1.0847241878509521,0.12178007513284683,-0.19471190869808197
1772376758811084500,4.32908447265625,-1.6566360115282237,2.286499118067324,4.3747213968902825,1.111495852470398,0.27843981981277466,-0.23455710709095
1772376758821033500,4.339033447265625,-1.8605783291883766,2.5442721023753285,4.273500325775146,1.1302490234375,0.4973149299621582,-0.2723284661769867
1772376758830982400,4.348982421875,-1.9309587102293968,2.7183231396406886,4.205236352366208,1.1441725492477417,0.7302041053771973,-0.2798619568347931
1772376758840931300,4.358931396484375,-1.9059677690967916,2.84388224093765,4.305200701418519,1.108816146850586,0.9511484503746033,-0.25360479950904846
1772376758850880500,4.368880615234375,-1.6670656356059015,2.7950854768037794,4.528478126406669,0.9981518387794495,1.1465601921081543,-0.18022172152996063
1772376758860829700,4.37882958984375,-1.1500422879137098,2.416491525636613,4.708716035613417,0.844717264175415,1.2974170446395874,-0.056038785725831985
1772376758870778600,4.388778564453125,-0.5890684470750391,1.8136229551374912,4.812122049552202,0.6445870995521545,1.3869690895080566,0.08181904256343842
1772376758880727600,4.3987275390625,-0.10969196234047413,1.0690586797937751,4.910402391040325,0.391159325838089,1.2901616096496582,0.21948155760765076
1772376758890676500,4.408676513671875,0.511035067062825,0.13050707909315823,4.845112465006113,0.12342219054698944,0.9363129734992981,0.3184397518634796
1772376758900625400,4.41862548828125,0.9398340417265891,-0.8229314173549414,4.452343565753102,-0.14437676966190338,0.32328739762306213,0.3513532280921936
1772376758910574300,4.42857421875,1.0337174634300172,-1.597780064064264,3.6082051097184418,-0.3680160641670227,-0.4273715615272522,0.3260864019393921
1772376758920523500,4.4385234375,0.7705196775943041,-2.102975026796758,2.2346143247902392,-0.514202892780304,-1.145031452178955,0.2420136034488678
1772376758930472400,4.448472412109375,0.171089118719846,-2.360823122167587,0.5117027371913194,-0.585086464881897,-1.6844086647033691,0.09860241413116455
1772376758940421600,4.458421630859375,-0.4964999073624611,-2.3595994255915285,-1.410740658149123,-0.5771238803863525,-1.9551630020141602,-0.06622648984193802
1772376758950370600,4.46837060546875,-0.7525016442142427,-2.3434423637777564,-3.0971301490366456,-0.512807309627533,-1.987838864326477,-0.21072599291801453
1772376758960319500,4.478319580078125,-0.6425516154594719,-2.3561469470500946,-4.160627395310998,-0.4802834987640381,-1.9351577758789062,-0.3259737491607666
1772376758970268400,4.488268310546875,-0.5224486606765538,-2.308148639817536,-4.56014518430233,-0.5480543375015259,-1.8625315427780151,-0.4270099997520447
1772376758980217900,4.4982177734375,-0.6513342029824852,-2.112796455848217,-4.525931949055194,-0.754337728023529,-1.7954802513122559,-0.5404159426689148
1772376758990166800,4.508166748046875,-0.9378086003135889,-1.7842878473207353,-4.493365311971306,-1.0524194240570068,-1.6531527042388916,-0.6642338037490845
1772376759000116000,4.518115966796875,-1.0687229450333864,-1.6085449114456771,-4.99480384477973,-1.2942349910736084,-1.3378698825836182,-0.7633095383644104
1772376759010065000,4.52806494140625,-1.0190165917739271,-1.5171809252172708,-5.787012791612744,-1.3762359619140625,-0.8658705353736877,-0.8124416470527649
1772376759020013800,4.538013916015625,-0.9446922954127192,-1.1571031662106512,-6.052255965670943,-1.3130955696105957,-0.3923107087612152,-0.7958304286003113
1772376759029962800,4.547962646484375,-0.8291095945332199,-0.5735463221639394,-5.444843614262342,-1.1442890167236328,0.010291170328855515,-0.6905351877212524
1772376759039911700,4.55791162109375,-0.5126446942165493,-0.12334785498827695,-4.199844722455739,-0.9176353216171265,0.302925705909729,-0.4857327938079834
1772376759049860900,4.56786083984375,-0.14281345682814717,0.024320494525134562,-2.605183667194843,-0.6729084253311157,0.4184994697570801,-0.21787838637828827
1772376759059810000,4.57781005859375,0.1406791482131928,0.09428484211117029,-0.9647755907595157,-0.4098467230796814,0.37346142530441284,0.08045211434364319
1772376759069759000,4.587759033203125,0.2623307937428355,0.19248714992702007,0.5469219346106052,-0.12343937903642654,0.2018423080444336,0.36108148097991943
1772376759079708000,4.5977080078125,0.19272556179277597,0.20452216337472198,1.8414608101338148,0.16590695083141327,-0.005882653873413801,0.5788971781730652
1772376759089656800,4.60765673828125,0.02832644223086536,0.15410773491114377,2.998112725445628,0.398416131734848,-0.2049320489168167,0.7059459090232849
1772376759099605800,4.617605712890625,-0.11201916317902505,0.11979396189898252,4.047217873752117,0.5160351991653442,-0.39450275897979736,0.739845871925354
1772376759109554700,4.6275546875,-0.23332506401091813,0.01982756702005863,5.005991009226441,0.5055137872695923,-0.5372551083564758,0.6987408995628357
1772376759119504000,4.63750390625,-0.3508381118984893,-0.13008330072313545,5.804064464178681,0.3471822142601013,-0.6317720413208008,0.5839083194732666
1772376759129453000,4.647453125,-0.5312970069121569,-0.2169181190893054,6.430360964277386,0.08151576668024063,-0.6842373013496399,0.4265594780445099
1772376759139402000,4.657402099609375,-0.5608129146559163,-0.15420622684955596,6.619139907336234,-0.22138604521751404,-0.6623924374580383,0.2761593163013458
1772376759149351000,4.667350830078125,-0.4921775141187012,0.06393325072824954,6.355127151855826,-0.5084303021430969,-0.5619478821754456,0.1582964062690735
1772376759159299800,4.6772998046875,-0.419039103073813,0.4700874089941382,5.616243552497029,-0.7353095412254333,-0.47867077589035034,0.09041562676429749
1772376759169248800,4.687248779296875,-0.24911681790994478,0.8690715295001864,4.720759524628519,-0.8719044327735901,-0.45981669425964355,0.06757573783397675
1772376759179197700,4.69719775390625,-0.07886979430373757,1.1579238349437713,3.6445173630714414,-0.8807461261749268,-0.48765313625335693,0.07992321997880936
1772376759189147000,4.70714697265625,-0.002122088454198092,1.3282888771727681,2.3976409869551656,-0.7383742332458496,-0.5377286672592163,0.12152932584285736
1772376759199096000,4.717095947265625,-0.023211172443209215,1.4365429156646132,1.0873889939934014,-0.4451005160808563,-0.5703606605529785,0.16541847586631775
1772376759209045000,4.727044921875,-0.20756902025733143,1.557692091564834,-0.1641997975975275,-0.029877925291657448,-0.5222063660621643,0.2006874531507492
1772376759218994000,4.736993896484375,-0.4136077256748453,1.6552026177242398,-1.0559908161669969,0.42514631152153015,-0.3816961348056793,0.21902917325496674
1772376759228942800,4.74694287109375,-0.49259939279258247,1.727942859764397,-1.3941115949094294,0.832859456539154,-0.1937212198972702,0.23790451884269714
1772376759238891800,4.756891845703125,-0.26424464627383276,1.7113316244423389,-1.1768331180751324,1.084913730621338,-0.01230562198907137,0.2753579020500183
1772376759248840700,4.7668408203125,0.1763396413928829,1.4818100443676112,-0.6793868697732687,1.1760483980178833,0.14258413016796112,0.3448778986930847
1772376759258790000,4.776789794921875,0.6766609519407153,1.112155478720367,-0.1795803220808506,1.1242475509643555,0.286481648683548,0.4349673092365265
1772376759268738800,4.78673876953125,1.137164832292497,0.6815063461452722,0.28422844503521916,0.9837889075279236,0.41486799716949463,0.5480523109436035
1772376759278688000,4.79668798828125,1.615000078934431,0.15603724166899918,0.4468886119753122,0.7804225087165833,0.4772954285144806,0.6787304282188416
1772376759288637000,4.806636962890625,2.07260429232195,-0.4974298816889524,0.3165221103966236,0.523791491985321,0.3977729082107544,0.7782734632492065
1772376759298585900,4.8165859375,2.264548275282979,-1.415948163664341,-0.01352817461490631,0.24789656698703766,0.14257603883743286,0.7620188593864441
1772376759308534800,4.82653466796875,2.082644478690624,-2.402045943915844,-0.6783721397727728,-0.016035504639148712,-0.291574090719223,0.6011826395988464
1772376759318483700,4.836483642578125,1.5491576335839927,-3.247156167592108,-1.6845809801608322,-0.2873724699020386,-0.8151803016662598,0.27777209877967834
1772376759328433000,4.846432861328125,0.7135106001060456,-3.6409701919838784,-2.839809000149369,-0.613589882850647,-1.2638804912567139,-0.13709762692451477
1772376759338381800,4.8563818359375,-0.14693199806287885,-3.2892019961610433,-4.275455551496147,-0.9654110074043274,-1.4762710332870483,-0.5605796575546265
1772376759348331000,4.8663310546875,-0.9013058658897877,-2.399289630945027,-5.894719133093953,-1.2750370502471924,-1.4837892055511475,-0.9413691163063049
1772376759358280000,4.876280029296875,-1.5304375894144175,-1.2730439598128198,-7.473464826342463,-1.4564117193222046,-1.3744350671768188,-1.3039747476577759
1772376759368228900,4.886228759765625,-1.9156730244226752,-0.3626139994859695,-9.034821577894688,-1.5003691911697388,-1.2498350143432617,-1.5781892538070679
1772376759378177800,4.896177734375,-1.6138042932786048,0.24489216768592595,-10.019119030725955,-1.3569509983062744,-1.010737419128418,-1.710499882698059
1772376759388127000,4.906126953125,-0.7144670240480452,0.6622919425874948,-10.214149435395003,-1.0385218858718872,-0.683478832244873,-1.639275074005127
1772376759398076000,4.916075927734375,0.4566494699459523,0.9946540116727351,-9.461644722440838,-0.6235012412071228,-0.3600030243396759,-1.36117422580719
1772376759408024800,4.92602490234375,1.488659179610014,1.3216603989437221,-7.87032654786706,-0.21142832934856415,-0.08803395926952362,-0.9347781538963318
1772376759417973800,4.935973876953125,2.1366578084290024,1.5453098721146583,-5.741853214937448,0.1403384953737259,0.16935496032238007,-0.4385145902633667
1772376759427923000,4.9459228515625,2.328064469642937,1.6483599122226238,-3.4489340006947518,0.3631921410560608,0.4582746922969818,0.03825114667415619
1772376759437871900,4.955871826171875,2.105724325504899,1.6691387886181472,-1.0902940677851438,0.40290412306785583,0.7100076675415039,0.42454028129577637
1772376759447821800,4.96582177734375,1.6825564885959028,1.5222604204386472,1.0615542955130337,0.268854558467865,0.9259211421012878,0.6939360499382019
1772376759457770800,4.975770751953125,1.2582324673891068,1.2157470783591269,2.786361487600207,0.024890892207622528,1.120604395866394,0.8721422553062439
1772376759467719700,4.9857197265625,0.9015041649408638,0.8167921839475631,3.9739989082843064,-0.23633736371994019,1.2603222131729126,0.9766228795051575
1772376759477668900,4.9956689453125,0.6707958592996001,0.39079643013626336,4.686084517088532,-0.44890767335891724,1.2910521030426025,1.018112301826477
1772376759487618000,5.0056181640625,0.44605453577134757,-0.0396864059612155,4.992050746679306,-0.5725799202919006,1.1995244026184082,0.9639115929603577
1772376759497567000,5.01556689453125,0.20979793008686973,-0.4377101570025086,5.001290284189581,-0.5798125267028809,1.012715220451355,0.847396731376648
1772376759507516000,5.025515869140625,0.03065638529906282,-0.7293079617619515,4.780375496679544,-0.477637380361557,0.7878174185752869,0.7104479074478149
1772376759517464800,5.03546484375,-0.05179004136545118,-0.8590601308345794,4.507175226137042,-0.3107847571372986,0.5259472131729126,0.5876927375793457
1772376759527413800,5.045413818359375,-0.11282288991049863,-0.7339514036536217,4.250830813327432,-0.09580864757299423,0.2551451325416565,0.50015789270401
1772376759537362700,5.05536279296875,-0.2848874934658408,-0.41505584212392566,3.9276048213779924,0.15186426043510437,0.031815916299819946,0.4470842480659485
1772376759547311900,5.065311767578125,-0.5462263535618782,-0.0864937498435378,3.590906768915057,0.415576696395874,-0.11549193412065506,0.396846204996109
1772376759557260800,5.0752607421875,-0.8852952998746186,0.2360541967138648,3.2885154752016064,0.6866992712020874,-0.14867626130580902,0.3322317898273468
1772376759567210000,5.0852099609375,-1.2865357479400932,0.585205195775628,3.0658389387160536,0.9319549202919006,-0.10117655992507935,0.25175175070762634
1772376759577159000,5.095158935546875,-1.7072377792574465,0.9333820891082286,2.9750264488905667,1.113629937171936,0.000874444842338562,0.15025390684604645
1772376759587107800,5.10510791015625,-2.0661564313568173,1.323702718426287,2.976256867468357,1.2201793193817139,0.16726559400558472,0.041813261806964874
1772376759597056800,5.115056884765625,-2.2416383782081306,1.6283353613257407,3.0462995409876106,1.2626670598983765,0.3930228352546692,-0.04388406500220299
1772376759607006000,5.125005859375,-2.1104021080575883,1.7972060733437538,3.1194284900844096,1.2609623670578003,0.653291642665863,-0.08955014497041702
1772376759616955000,5.134954833984375,-1.7237946540437639,1.781093727454543,3.2270091593593357,1.2426263093948364,0.9168841242790222,-0.07372031360864639
1772376759626903800,5.14490380859375,-1.2190296071611344,1.645491078788042,3.364322703596949,1.1995327472686768,1.1573796272277832,-0.0011921545956283808
1772376759636852700,5.154852783203125,-0.6362791841264813,1.340970956352353,3.622932723250985,1.1187995672225952,1.413672924041748,0.12668432295322418
1772376759646802000,5.164802001953125,0.2331107271404937,0.8099605843618511,3.949706178548932,0.9977185726165771,1.6270464658737183,0.3563932180404663
1772376759656750800,5.174750732421875,1.405641873705387,0.05435644408762454,4.437541133418679,0.8303314447402954,1.6324928998947144,0.6584987640380859
1772376759666699800,5.18469970703125,2.4222138488061726,-0.8780804731249808,4.986732766526937,0.5972408652305603,1.3104358911514282,0.9138203859329224
1772376759676649000,5.19464892578125,2.8870994513735173,-1.8354805666804312,5.336712325367331,0.36041978001594543,0.6476121544837952,1.0560550689697266
1772376759686598000,5.204597900390625,2.3250249558165668,-2.6759324431568383,5.1708565772563215,0.10545884817838669,-0.25643378496170044,1.0264695882797241
1772376759696546800,5.214546875,0.8220799881573766,-3.2649192032977936,4.574233330887556,-0.2690220773220062,-1.2347795963287354,0.8014612197875977
1772376759706495700,5.224495849609375,-1.1146431308176368,-3.4690745791867372,3.3363469014346596,-0.7776772379875183,-2.0903730392456055,0.3986362814903259
1772376759716445000,5.23444482421875,-3.2298762392282483,-3.332420667901635,0.9516033899754285,-1.2987170219421387,-2.587785243988037,-0.14972001314163208
1772376759726393900,5.244393798828125,-5.021718739712238,-2.8701071077793836,-2.4014444708913563,-1.6291953325271606,-2.5960001945495605,-0.803734540939331
1772376759736342800,5.2543427734375,-5.830647935199737,-2.3674361105665565,-5.886831010192632,-1.6766784191131592,-2.2749876976013184,-1.446241021156311
1772376759746292000,5.2642919921875,-5.306292052662372,-1.816206249628961,-8.212418568328022,-1.5073480606079102,-1.8540453910827637,-1.9386482238769531
1772376759756241000,5.274240966796875,-3.768796361429989,-1.0180182283863424,-8.865616519355774,-1.222536563873291,-1.4484148025512695,-2.2153260707855225
1772376759766189800,5.28418994140625,-2.1772027309156954,0.08671002294272184,-8.1301377600044,-0.9547133445739746,-1.139946460723877,-2.3033690452575684
1772376759776138800,5.294138671875,-0.7896885615099221,1.126601352702081,-6.708436731901765,-0.7984960079193115,-0.8776341676712036,-2.144498348236084
1772376759786087700,5.304087646484375,0.3075973744565621,1.7076953137665987,-5.038937001016736,-0.8564361929893494,-0.599050760269165,-1.7675788402557373
1772376759796036900,5.314036865234375,0.8871848399482667,2.0176485671669244,-3.507843870303035,-1.1301157474517822,-0.30791768431663513,-1.273257851600647
1772376759805986000,5.323986083984375,0.8738754226505756,2.2160250673934816,-2.445030514639616,-1.522758960723877,0.0031454619020223618,-0.7674780488014221
1772376759815935000,5.33393505859375,0.5670945156760513,2.276528635933995,-2.015533766970038,-1.8887295722961426,0.30424511432647705,-0.3051591217517853
1772376759825884000,5.3438837890625,0.4180473155574873,2.0819247861139476,-2.329739417117834,-2.049740791320801,0.5088186860084534,0.0859123095870018
1772376759835832800,5.353832763671875,0.6559374589942395,1.6366979698710142,-3.0770033068090674,-1.930961012840271,0.5875899195671082,0.3851645290851593
1772376759845781800,5.36378173828125,0.82959204428792,1.147558800534904,-3.663470485344529,-1.553735613822937,0.5500176548957825,0.5948911905288696
1772376759855730700,5.373730712890625,0.8585624104455113,0.776631438472867,-3.856095582437515,-1.004799723625183,0.4937528371810913,0.7438092827796936
1772376759865679600,5.3836796875,0.8036572464339434,0.4693918279454112,-3.4927357330203055,-0.43218478560447693,0.5033615827560425,0.8314793705940247
1772376759875629000,5.393629150390625,0.6757523857284337,0.2847226582929492,-2.533963182067871,0.023964891210198402,0.4942978322505951,0.8736600875854492
1772376759885578000,5.403577880859375,0.5543513539589942,0.1344216221883893,-1.1912702242285012,0.2822275459766388,0.44771692156791687,0.8854999542236328
1772376759895527000,5.41352685546875,0.46210945238489654,0.0014152736254036426,0.09860533565878868,0.39541029930114746,0.42511069774627686,0.8960461020469666
1772376759905475800,5.423475830078125,0.3489545631742105,-0.08237272439077496,1.0300526573121547,0.4454190731048584,0.47345951199531555,0.8976991176605225
1772376759915424800,5.4334248046875,0.1498339300494641,-0.07480112009271979,1.6388520791649817,0.48567700386047363,0.5375431180000305,0.8791880011558533
1772376759925373700,5.443373779296875,-0.025616356721683404,0.05740867126509547,1.9975942056536673,0.5396775007247925,0.5773998498916626,0.8316618204116821
1772376759935323000,5.453322998046875,-0.13562604780839754,0.17071268662288783,2.1806816590726372,0.6105011105537415,0.5778549909591675,0.7614572048187256
1772376759945272000,5.46327197265625,-0.2648331502188928,0.31117110475748777,2.304953350907564,0.6949349641799927,0.5439854264259338,0.6854061484336853
1772376759955221000,5.473220947265625,-0.38263175531588495,0.46722032912522554,2.3773855499118564,0.7626360058784485,0.5056896805763245,0.6044442057609558
1772376759965170000,5.483169921875,-0.467765651515685,0.6535771596036851,2.4698019678026437,0.8029099702835083,0.48523855209350586,0.5288292765617371
1772376759975118800,5.493118896484375,-0.4906856681257486,0.8705404330089688,2.4479928715765475,0.8074628710746765,0.5070341229438782,0.4574719965457916
1772376759985068000,5.503068115234375,-0.49105187108963727,0.9455588491141795,2.2552684057623145,0.7989230155944824,0.5814197659492493,0.399616003036499
1772376759995017000,5.513016845703125,-0.4477675137016922,0.9644355451501906,2.015524999141693,0.7922589778900146,0.6504393219947815,0.343506395816803
1772376760004966100,5.522966064453125,-0.23645243878383188,1.0200276685126126,1.8850667276263235,0.7876899838447571,0.6393095850944519,0.2957956790924072
1772376760014915000,5.5329150390625,0.24427710452750323,1.0197197716072202,1.711633237737417,0.8060735464096069,0.57011479139328,0.2792832553386688
1772376760024864000,5.542864013671875,0.890162686715275,0.7583861722081899,1.416977506712079,0.8363699316978455,0.5621892213821411,0.3165798485279083
1772376760034813000,5.55281298828125,1.675789770939946,0.2750654798924923,1.2071692196279764,0.815706193447113,0.49845176935195923,0.37763044238090515
1772376760044762000,5.56276220703125,2.4091037534728645,-0.18419512239992616,1.260609717914462,0.7008880972862244,0.2591187357902527,0.43203359842300415
1772376760054711000,5.5727109375,2.935920180904865,-0.6477826479807496,1.2849299201786517,0.5152841806411743,-0.15298040211200714,0.4672890603542328
1772376760064660000,5.582659912109375,2.940134583729505,-1.0769012099877,0.9159341107010841,0.26176032423973083,-0.6947991847991943,0.44233259558677673
1772376760074609200,5.592609130859375,2.3913898176059125,-1.250389352673292,0.22876783909797668,-0.05729011073708534,-1.2820464372634888,0.3398166000843048
1772376760084558000,5.60255810546875,1.5677429454579948,-1.2351955829337238,-0.9684253454387187,-0.3827851116657257,-1.7208149433135986,0.15957491099834442
1772376760094507000,5.612507080078125,0.6392752241373062,-1.0767530336886644,-2.721870602989197,-0.6401413083076477,-1.8691346645355225,-0.08346915990114212
1772376760104456000,5.6224560546875,-0.24422935639563947,-0.8509624568358063,-4.605722694128752,-0.784106969833374,-1.7223345041275024,-0.3491922616958618
1772376760114404900,5.63240478515625,-0.8112535467818379,-0.6567381078526378,-6.17796382778883,-0.8180534839630127,-1.4032340049743652,-0.6125067472457886
1772376760124354000,5.64235400390625,-1.1105199864730237,-0.30552871495634315,-6.989309436768293,-0.7663856744766235,-1.041327953338623,-0.8120054602622986
1772376760134303000,5.652302978515625,-1.0879458972238003,0.18303718453645706,-7.011534128057956,-0.6581617593765259,-0.7121050953865051,-0.9097669124603271
1772376760144252200,5.662252197265625,-0.733338094060868,0.5710241102099418,-6.301163506478071,-0.5585170984268188,-0.4518073797225952,-0.876039981842041
1772376760154201000,5.672201171875,-0.14200959309935568,0.8411470191337168,-5.113316826957464,-0.5247186422348022,-0.278594046831131,-0.7460622787475586
1772376760164150000,5.68214990234375,0.36651754626315086,0.9298745193786918,-3.8360470661431547,-0.5768579244613647,-0.1483110785484314,-0.5551823973655701
1772376760174099000,5.692098876953125,0.6140827690832317,0.8858747802630066,-2.723210911682248,-0.6727660894393921,0.011692699044942856,-0.3623596429824829
1772376760184047900,5.7020478515625,0.6163955760702491,0.8195891211897134,-1.7746061190009117,-0.7888083457946777,0.2027510106563568,-0.21971632540225983
1772376760193996800,5.711996826171875,0.39072347449790684,0.7499393925108016,-1.0355097536742686,-0.8839998841285706,0.39867472648620605,-0.14113150537014008
1772376760203946200,5.7219462890625,0.15849913827050477,0.7139389815859496,-0.43558980384767054,-0.9213377237319946,0.562271237373352,-0.10069858282804489
1772376760213895200,5.731895263671875,0.03684128219578415,0.659638651599735,0.06996259402036667,-0.8833884596824646,0.67726731300354,-0.08478805422782898
1772376760223844000,5.741843994140625,-0.008640749633219093,0.589807282743603,0.5267343021064996,-0.765536367893219,0.7501343488693237,-0.0634777694940567
1772376760233793000,5.75179296875,-0.021438016157690434,0.5708857246525585,1.0382067376732826,-0.5690584778785706,0.7634733319282532,-0.031659919768571854
1772376760243742000,5.761741943359375,-0.013064730954775587,0.6119944185018539,1.576698697590828,-0.31207215785980225,0.7381707429885864,0.015306781977415085
1772376760253691000,5.77169091796875,0.04380599294214044,0.6877665755838155,2.1902958751142023,-0.02316177263855934,0.6798408031463623,0.08317025005817413
1772376760263639800,5.781639892578125,0.14746864395653828,0.7150846444897353,2.8958360077977177,0.2636571526527405,0.6099767684936523,0.17297877371311188
1772376760273589200,5.79158935546875,0.2079035859739408,0.6916553997159004,3.6580011140227318,0.5025807619094849,0.5099958181381226,0.2687409520149231
1772376760283538200,5.8015380859375,0.19136165302842853,0.6520087412431835,4.390409379887581,0.6667588353157043,0.38239747285842896,0.3605567216873169
1772376760293487000,5.811487060546875,0.0493393557111267,0.5996238894894719,4.983135618817806,0.765640139579773,0.2702205777168274,0.43710049986839294
1772376760303436000,5.82143603515625,-0.20465963561665265,0.5458068129755557,5.422882542344928,0.8099587559700012,0.19437122344970703,0.48949912190437317
1772376760313385000,5.831385009765625,-0.5436853273095563,0.5557853322848677,5.7017883310526605,0.8153106570243835,0.13498032093048096,0.512277364730835
1772376760323334000,5.841333984375,-0.9446929529998451,0.6271133694395422,5.847423713433742,0.7913646101951599,0.10358389467000961,0.5018879771232605
1772376760333283000,5.851282958984375,-1.3701365528210996,0.7162225624784827,5.877081769594549,0.7523524761199951,0.10680099576711655,0.46104195713996887
1772376760343232000,5.86123193359375,-1.7851633149810133,0.8019840525247156,5.7248003733277315,0.7039750218391418,0.1275874376296997,0.38503071665763855
1772376760353181200,5.87118115234375,-2.197024452716857,0.8590883340157568,5.425231151297688,0.6418235301971436,0.19636598229408264,0.29551762342453003
1772376760363130000,5.881130126953125,-2.522338795247674,0.7804622488074004,4.960735570961237,0.5672149658203125,0.327470064163208,0.2026689201593399
1772376760373079000,5.8910791015625,-2.625042506136,0.535743537992239,4.405960584762692,0.4724825918674469,0.5029788017272949,0.11529485881328583
1772376760383028000,5.901028076171875,-2.382448386259377,0.1327960668131709,3.8058699545443058,0.35993584990501404,0.7165328860282898,0.06654853373765945
1772376760392977000,5.910976806640625,-1.696040239547193,-0.45275428913831706,3.346967664170265,0.2505020201206207,0.8517066836357117,0.07519262284040451
1772376760402926000,5.920926025390625,-0.740951930065453,-1.1225734123602509,2.943004001685977,0.12294865399599075,0.7510135173797607,0.1337386518716812
1772376760412875000,5.930875,0.32976967797186224,-1.8233011763259768,2.4420155507326124,-0.01733201928436756,0.29923880100250244,0.20606158673763275
1772376760422824000,5.940823974609375,1.1654719122357666,-2.6039558789655564,1.6260335141241549,-0.13870909810066223,-0.46803879737854004,0.20168766379356384
1772376760432773000,5.950773193359375,1.1846898229248821,-3.2903450287163256,0.2961217119246721,-0.2521621882915497,-1.340516209602356,0.003210255177691579
1772376760442722000,5.96072216796875,0.33296869320888073,-3.8011961175143716,-1.4507447517573833,-0.4083171784877777,-2.2136597633361816,-0.3472372591495514
1772376760452671000,5.9706708984375,-0.63624199392125,-4.051733013089001,-3.6052211254715916,-0.6070891618728638,-2.7984142303466797,-0.7674164175987244
1772376760462620000,5.980619873046875,-1.7624542011752724,-3.876123640465736,-6.3886903987616295,-0.7341390252113342,-2.8749473094940186,-1.2324179410934448
1772376760472569000,5.990569091796875,-2.7945845415443182,-3.2073028806313872,-9.028377808582782,-0.7780865430831909,-2.592806816101074,-1.691721796989441
1772376760482518000,6.00051806640625,-3.4618455047160386,-2.3764928388558326,-10.797409926843642,-0.7461198568344116,-2.0261731147766113,-2.06593656539917
1772376760492467000,6.010467041015625,-3.4768627488449213,-1.4815002477660775,-11.422427493047714,-0.7047873735427856,-1.3692377805709839,-2.2953948974609375
1772376760502416100,6.020416015625,-2.741700215835869,-0.647237289057672,-10.882482411712408,-0.7323970794677734,-0.8298570513725281,-2.3151681423187256
1772376760512365000,6.030364990234375,-1.4573169697545467,-0.010804741000384092,-9.7966692887336,-0.8000988960266113,-0.4282025396823883,-2.1215507984161377
1772376760522314000,6.04031396484375,-0.2562435827836394,0.40242812348008156,-8.72046979727447,-0.8477983474731445,-0.0651642233133316,-1.7608243227005005
1772376760532263200,6.05026318359375,0.5716205417331308,0.6835577257171273,-7.824599984958767,-0.8265945315361023,0.3230421245098114,-1.3071314096450806
1772376760542212000,6.060212158203125,0.9545129207465797,0.8983839870937168,-6.867972629341483,-0.7269755601882935,0.7353888750076294,-0.8310877084732056
1772376760552161000,6.0701611328125,0.9865417246267199,0.9618718321420252,-5.70606001702249,-0.558086633682251,1.125869870185852,-0.37510499358177185
1772376760562110000,6.08010986328125,0.8423048108667135,0.9343978420220315,-4.298311526426673,-0.35072875022888184,1.4143086671829224,0.021066812798380852
1772376760572059000,6.090058837890625,0.717949970792979,0.828969236214459,-2.7951404218614098,-0.10769718885421753,1.6132481098175049,0.34725743532180786
1772376760582008000,6.100008056640625,0.5746459539689124,0.7130446630947291,-1.2395803738892077,0.15956619381904602,1.7186293601989746,0.606953501701355
1772376760591957000,6.10995703125,0.40987730697486546,0.6567556435093284,0.3210089004218578,0.4441632926464081,1.7583363056182861,0.7956922650337219
1772376760601906200,6.11990625,0.2605854479128495,0.711672205697745,1.8296967225819825,0.7141398191452026,1.7521417140960693,0.9425179958343506
1772376760611855000,6.129855224609375,0.16642311793649567,0.781370449693501,3.3046494484007356,0.9688413143157959,1.686044454574585,1.0434616804122925
1772376760621804000,6.139803955078125,0.02451539604272693,0.7947109927818179,4.733409747365116,1.182155728340149,1.5637052059173584,1.111472487449646
1772376760631753000,6.1497529296875,-0.20171331649906932,0.7682213375240564,6.0711757701963185,1.3185434341430664,1.4052308797836304,1.1237411499023438
1772376760641702000,6.159701904296875,-0.44498712573554366,0.7423486451208591,7.265533439046144,1.3316528797149658,1.1978296041488647,1.0711420774459839
1772376760651650800,6.16965087890625,-0.6392894718583673,0.7795081629529594,8.316662202134728,1.210432529449463,1.0415127277374268,0.9614983797073364
1772376760661600000,6.17960009765625,-0.7075549065720289,0.7660042459964752,8.857446072381734,1.0023235082626343,0.8789643049240112,0.8100202083587646
1772376760671549200,6.189549072265625,-0.5074740135803818,0.7885816962465644,8.900709460046887,0.8285346031188965,0.8048871159553528,0.6897561550140381
1772376760681498000,6.199498046875,-0.39015637866705655,0.9812108849927782,8.5280931219846,0.6592486500740051,0.6072467565536499,0.5721853375434875
1772376760691447000,6.209447021484375,-1.1071603007815778,1.4400553076997398,8.446654025182127,0.489685982465744,0.28806984424591064,0.4855804145336151
1772376760701396000,6.21939599609375,-1.0641787987977265,2.076320536366105,7.997437262520194,0.30198872089385986,0.17095567286014557,0.4642007350921631
1772376760711345000,6.229344970703125,-0.45153621858544646,2.3890546526566148,7.271955581048131,0.1254320591688156,0.16533373296260834,0.5035473704338074
1772376760721293800,6.2392939453125,-0.15874810806289313,2.271743155223131,6.821534118771552,-0.001287966500967741,0.22335483133792877,0.5997175574302673
1772376760731243000,6.249242919921875,0.14189385776519775,2.204634781590104,6.040368544000387,-0.08789556473493576,0.22826702892780304,0.723403811454773
1772376760741192200,6.259192138671875,0.4500485373109579,2.003067084106803,5.108785613268614,-0.135744109749794,0.1159696951508522,0.8514135479927063
1772376760751141000,6.26914111328125,0.9135544490229338,1.5310539677470922,3.9938288133919237,-0.12805449962615967,-0.006750097498297691,0.9857391119003296
1772376760761090000,6.279090087890625,1.626081737180054,0.7851382777944207,2.7195693403095005,-0.06415876746177673,-0.12898778915405273,1.1295857429504395
1772376760771039000,6.2890390625,2.522921855832636,-0.06525163985043764,1.4577309573829174,0.005251996219158173,-0.36922168731689453,1.2579139471054077
1772376760780988000,6.29898779296875,3.545023846401274,-0.9240677327960729,0.19386895967423914,0.07724808901548386,-0.7588702440261841,1.350886344909668
1772376760790936800,6.308936767578125,4.340796915456653,-1.712008208529651,-1.224877894797921,0.12156069278717041,-1.218245506286621,1.3540523052215576
1772376760800886000,6.318885986328125,4.271303692513704,-2.446732934643328,-2.7322400213122364,0.13843518495559692,-1.7799718379974365,1.2331998348236084
1772376760810835200,6.328835205078125,3.282399038147926,-2.912553918364644,-4.328253075703978,0.028372598811984062,-2.2175049781799316,0.9615107178688049
1772376760820784000,6.3387841796875,1.7484728759653865,-3.1222707277730106,-6.0836336852312085,-0.22371932864189148,-2.4408442974090576,0.5625542402267456
1772376760830733000,6.348733154296875,-0.277914549180679,-3.159345782192051,-8.127931774392724,-0.5347610712051392,-2.4499685764312744,0.07168784737586975
1772376760840682000,6.358681884765625,-2.5662156386360526,-2.7362875431373714,-10.355648156362772,-0.8256191611289978,-2.347506046295166,-0.512232780456543
1772376760850631000,6.368630859375,-4.178493891391158,-1.9759870617404578,-12.331209393906592,-0.9982865452766418,-2.0943245887756348,-1.134609580039978
1772376760860579800,6.378579833984375,-4.359924809774756,-1.1697995661765337,-13.827073390328882,-0.9563137292861938,-1.6068497896194458,-1.6547508239746094
1772376760870529000,6.388529052734375,-3.316305399402976,-0.3268488586217165,-14.369135609948634,-0.7067787647247314,-0.9312967658042908,-1.9335038661956787
1772376760880478200,6.398478271484375,-1.7296359274178743,0.5936655656069517,-13.495467108047007,-0.33048248291015625,-0.2369234263896942,-1.8975754976272583
1772376760890427100,6.40842724609375,-0.18333412165641783,1.5427715858086943,-11.270573382282256,0.05745780095458031,0.36857181787490845,-1.5858991146087646
1772376760900376000,6.4183759765625,1.0059453671462832,2.2746496903195976,-8.261483920270203,0.3883197009563446,0.7841088771820068,-1.080060601234436
1772376760910325000,6.428324951171875,1.536560894600302,2.648241595415771,-5.1281549151271575,0.5961471796035767,0.9783044457435608,-0.5021881461143494
1772376760920274000,6.43827392578125,1.6170529198110102,2.6297265722990035,-2.2408891672760247,0.671295702457428,1.061597466468811,0.028322212398052216
1772376760930223900,6.448223876953125,1.2437491840064525,2.3169082848563787,0.27409458903372286,0.6543065905570984,1.1192349195480347,0.4109574854373932
1772376760940172000,6.458172119140625,0.5072056815003976,1.9649954198658466,2.223365201023221,0.5790884494781494,1.1965277194976807,0.6006965041160583
1772376760950122200,6.468122314453125,-0.18227105900216847,1.6622119119644163,3.759159641295671,0.4838620722293854,1.256337285041809,0.6333958506584167
1772376760960071200,6.4780712890625,-0.6674877576649189,1.3682584839895366,4.946631057763099,0.39522990584373474,1.2868897914886475,0.5602110028266907
1772376760970020000,6.48802001953125,-0.8997830402366817,1.188913431969285,5.90981148828566,0.32873424887657166,1.2848151922225952,0.43373987078666687
1772376760979969000,6.497968994140625,-0.9794409527108072,1.1297545560359954,6.702770961225032,0.279850572347641,1.2598493099212646,0.28759679198265076
1772376760989917700,6.507917724609375,-0.9904620398756117,1.1399208530023692,7.30977823896408,0.24070212244987488,1.2180864810943604,0.14605006575584412
1772376760999866600,6.51786669921875,-0.9526752569906413,1.2381573553487657,7.783651303976773,0.20663870871067047,1.146069884300232,0.03405920788645744
1772376761009815800,6.52781591796875,-0.8525133395396173,1.3583797717928885,8.08810420639515,0.17072011530399323,1.0431866645812988,-0.037388876080513
1772376761019764700,6.5377646484375,-0.7482933788694441,1.420832720835507,8.300926872864364,0.13736851513385773,0.8797805905342102,-0.062916599214077
1772376761029713700,6.547713623046875,-0.6457312684088945,1.4856865935400128,8.280670851299167,0.10650752484798431,0.7049366235733032,-0.0497608482837677
1772376761039662600,6.55766259765625,-0.6021217341871932,1.5740423378631472,8.204090884965657,0.079531230032444,0.5353142619132996,-0.015436863526701927
1772376761049611500,6.567611572265625,-0.7365604171082377,1.652520246772468,7.971934572473168,0.05596225708723068,0.3675270974636078,0.03063076362013817
1772376761059560400,6.577560546875,-0.9663987349819392,1.7580322930797934,7.60720927992165,0.03274938091635704,0.2385084331035614,0.0646551251411438
1772376761069509600,6.587509521484375,-1.2764821175679564,1.8087436586633323,7.154606966474652,0.01036418229341507,0.14726774394512177,0.08949816226959229
1772376761079458800,6.597458740234375,-1.4760348219670354,1.8011942661970852,6.594647855636477,-0.014201493933796883,0.06906943768262863,0.09749982506036758
1772376761089407700,6.60740771484375,-1.4477458622023462,1.6950000828444958,5.932386892709135,-0.052909474819898605,0.02338717319071293,0.11774091422557831
1772376761099356700,6.617356689453125,-1.0993454623121768,1.3288982412427663,5.145450917842984,-0.0953611433506012,0.0030858460813760757,0.15923763811588287
1772376761109305600,6.6273056640625,-0.517117747977376,0.7796940409138798,4.394256702965498,-0.1481548398733139,-0.006598739884793758,0.2337464988231659
1772376761119254500,6.637254638671875,0.20490758249573407,0.2154837023720145,3.6581636111080647,-0.19944927096366882,-0.03345520794391632,0.34338971972465515
1772376761129203500,6.647203369140625,0.8312481409318745,-0.47050446536242957,2.754004109352827,-0.2558944523334503,-0.13217805325984955,0.4679902493953705
1772376761139152600,6.657152587890625,1.1645527515642344,-1.1898387301206588,1.7308458877295254,-0.3324580192565918,-0.357271671295166,0.5634495615959167
1772376761149101800,6.667101806640625,1.1770494642395526,-1.8865040669530628,0.6305769538968801,-0.47919952869415283,-0.7015467286109924,0.5606034398078918
1772376761159050800,6.67705078125,0.8087985548451543,-2.5329870305120945,-0.6465004992157221,-0.722274124622345,-1.1357141733169556,0.41414326429367065
1772376761168999700,6.686999755859375,0.08811011726530268,-3.0269845996648073,-2.2171669309049844,-1.0137243270874023,-1.5475722551345825,0.1346607655286789
1772376761178948600,6.696948486328125,-0.9948345558714121,-3.228355605532229,-4.211970629057288,-1.3012598752975464,-1.7960792779922485,-0.2432897984981537
1772376761188897500,6.7068974609375,-2.246955335447192,-3.093247170123458,-6.553176027563214,-1.4988517761230469,-1.8381949663162231,-0.662541925907135
1772376761198846500,6.716846435546875,-3.2519974701434373,-2.6559970318481323,-8.748988035750388,-1.6134201288223267,-1.716429352760315,-1.08076012134552
1772376761208795600,6.726795654296875,-3.5996553080379963,-2.0693280471302566,-10.35412138518691,-1.6978555917739868,-1.4987558126449585,-1.457031488418579
1772376761218744800,6.736744873046875,-3.2161534188240766,-1.3977590115010738,-11.276921290004253,-1.7619004249572754,-1.2344841957092285,-1.7286720275878906
1772376761228693800,6.74669384765625,-2.234210420164466,-0.6144743987493216,-11.662712751460075,-1.7649489641189575,-0.9326979517936707,-1.8304955959320068
1772376761238642700,6.756642578125,-1.008820703386888,0.29173385222926734,-11.676077259945869,-1.6363931894302368,-0.5750764012336731,-1.7196513414382935
1772376761248591600,6.766591552734375,0.15902685193903743,1.148705632482469,-11.230147848391532,-1.360977053642273,-0.1677410900592804,-1.3722467422485352
1772376761258540500,6.77654052734375,1.085718649628386,1.757284251191467,-10.14997711521387,-0.9957678318023682,0.21617162227630615,-0.8256579041481018
1772376761268489500,6.786489501953125,1.6347599875457584,2.0221768582463264,-8.509398942908645,-0.5889859199523926,0.526330828666687,-0.1711229830980301
1772376761278438700,6.796438720703125,1.619708256625384,1.929766577835381,-6.500547430181503,-0.19781461358070374,0.7897260189056396,0.46089982986450195
1772376761288387600,6.8063876953125,1.155770164041221,1.5306062239795923,-4.287261140102148,0.12975819408893585,1.0347751379013062,0.9649201035499573
1772376761298336800,6.816336669921875,0.414847679265961,0.927116891233623,-1.9974322930902242,0.37143218517303467,1.2395238876342773,1.2734196186065674
1772376761308285700,6.82628564453125,-0.3055735770113766,0.35689737540483474,0.1669230850815773,0.5110846161842346,1.3768359422683716,1.4203251600265503
1772376761318234600,6.836234619140625,-0.8290740117631852,-0.09298165055811404,2.1674287942677735,0.5754290223121643,1.4426534175872803,1.4426889419555664
1772376761328183600,6.84618359375,-1.213369973964244,-0.39162352861016986,3.879136266285181,0.6047802567481995,1.443820595741272,1.3737117052078247
1772376761338132700,6.8561328125,-1.447010387534648,-0.5356636046238243,5.310588873073458,0.6081715226173401,1.3940976858139038,1.2469992637634277
1772376761348081700,6.86608154296875,-1.5295206206999719,-0.6056250296004116,6.477920587831735,0.5961787700653076,1.3041377067565918,1.0923423767089844
1772376761358030600,6.876030517578125,-1.486012464493513,-0.5824569199807942,7.390381469464302,0.5800499320030212,1.170928955078125,0.9439350366592407
1772376761367979800,6.885979736328125,-1.3621033223606644,-0.541114709636569,8.097231515702605,0.541579008102417,1.0040209293365479,0.8150753378868103
1772376761377928700,6.8959287109375,-1.2067591775223612,-0.43868908503726123,8.56520909293592,0.48320895433425903,0.785888671875,0.7160356640815735
1772376761387877600,6.905877685546875,-1.0438758693508803,-0.2743244522668421,8.807862249523401,0.40798795223236084,0.5461373329162598,0.6476081609725952
1772376761397826600,6.91582666015625,-0.8936837004482746,-0.10061024574041366,8.811846935245395,0.3465404510498047,0.3063131272792816,0.6066546440124512
1772376761407775700,6.925775634765625,-0.7927071786787361,0.09832768776118755,8.583879891136288,0.28752294182777405,0.0975831001996994,0.5820813775062561
1772376761417724700,6.935724609375,-0.7460852013006806,0.34561464162915945,8.179997477194666,0.2349402904510498,-0.06459897011518478,0.5701225399971008
1772376761427673600,6.945673583984375,-0.6035394554980099,0.5011015559390187,7.599692912942171,0.18985484540462494,-0.18478050827980042,0.5677528977394104
1772376761437622500,6.95562255859375,-0.3701308779221028,0.574182135849446,6.879796338126063,0.1476358324289322,-0.29290449619293213,0.5749382376670837
1772376761447571700,6.96557177734375,-0.14881017649229614,0.5790440427973866,5.927225564423203,0.1020912453532219,-0.40894800424575806,0.5836643576622009
1772376761457520600,6.975520751953125,0.022649967497028408,0.44886561113670465,4.7626779274255036,0.08677927404642105,-0.5062363147735596,0.6035276651382446
1772376761467469600,6.985469482421875,0.30590277243312447,0.14962167553827166,3.4097207652032373,0.13336966931819916,-0.5287501215934753,0.6404811143875122
1772376761477418800,6.995418701171875,0.8204818322457372,-0.33306013435199855,2.0396879650175572,0.2512674033641815,-0.5253062844276428,0.7004510164260864
1772376761487367700,7.00536767578125,1.476502585609257,-0.9365424528352916,0.6972241397589445,0.3850288987159729,-0.5788238644599915,0.7764453887939453
1772376761497316600,7.015316650390625,2.339355094464123,-1.631340242230147,-0.45415947976112364,0.47977715730667114,-0.7504051327705383,0.8610401749610901
1772376761507265500,7.025265625,3.28177652233541,-2.535603935012221,-1.4651602306008338,0.48783695697784424,-1.0320372581481934,0.9267147779464722
1772376761517214500,7.03521435546875,3.717504565609991,-3.433742276781797,-2.4095436061948536,0.39658164978027344,-1.3660621643066406,0.9200109243392944
1772376761527163600,7.04516357421875,3.012708237031102,-3.922476810839772,-3.418580363485217,0.18442277610301971,-1.7675586938858032,0.7347949743270874
1772376761537112800,7.05511279296875,0.9523657526500523,-3.719219260573387,-4.8055835876941675,-0.1505812555551529,-2.1702992916107178,0.3375493288040161
1772376761547061800,7.065061767578125,-1.5453249235533177,-3.1709368512645364,-6.780430539488792,-0.5166357159614563,-2.4282941818237305,-0.21822336316108704
1772376761557010700,7.0750107421875,-3.8125595153108236,-2.579882637199759,-9.349764894667267,-0.8128508925437927,-2.4522182941436768,-0.8782442212104797
1772376761566959600,7.084959716796875,-5.20635166900754,-2.0145690135911107,-12.051901454138756,-0.9353815913200378,-2.140186071395874,-1.542080283164978
1772376761576908500,7.094908447265625,-5.133023397946357,-1.4331201016090809,-14.206091412127018,-0.7908895611763,-1.4799163341522217,-2.0706393718719482
1772376761586857500,7.104857421875,-3.7172257486686107,-0.6572165390193462,-15.027362202793359,-0.45307207107543945,-0.6924508213996887,-2.3365745544433594
1772376761596806700,7.114806640625,-1.5987911408029496,0.42086613583788274,-14.149628935670853,-0.08939412236213684,-0.027000747621059418,-2.2924768924713135
1772376761606755800,7.124755859375,0.47802587384320794,1.6527752444468438,-11.889977200257777,0.20710039138793945,0.4365490674972534,-1.9523146152496338
1772376761616704800,7.134704833984375,2.116989085232466,2.6922698299735783,-9.195768511176109,0.3898552358150482,0.7183232307434082,-1.3792366981506348
1772376761626653700,7.14465380859375,3.090671474416554,3.164480514732003,-6.646287441980839,0.4888172447681427,0.8939065337181091,-0.6939603686332703
1772376761636602600,7.1546025390625,3.189828014217317,3.1182442487359046,-4.460569542306661,0.534460723400116,1.0389227867126465,-0.052755389362573624
1772376761646551600,7.164551513671875,2.5755723727852105,2.751074485641718,-2.714095877334475,0.5617005825042725,1.2151575088500977,0.4187881648540497
1772376761656500500,7.17450048828125,1.6350969644151627,2.227752476196736,-1.276324004396796,0.6047571897506714,1.4211822748184204,0.6934401392936707
1772376761666449700,7.18444970703125,0.6542237138789146,1.6857856797754764,0.10407938315570354,0.6755980849266052,1.6145455837249756,0.8064700365066528
1772376761676398800,7.19439892578125,-0.11245452238898723,1.2022452072292567,1.5157003312706947,0.7543586492538452,1.7229639291763306,0.8109949827194214
1772376761686347800,7.20434765625,-0.6546556024901569,0.9082882721230388,2.892235937479138,0.8336958289146423,1.7176786661148071,0.7429432272911072
1772376761696296700,7.214296630859375,-1.0410301245309412,0.7497861016452312,4.223482203152775,0.8997322916984558,1.615117073059082,0.6178784370422363
1772376761706245600,7.22424560546875,-1.3869941641196608,0.6648804977759718,5.428191170147061,0.940369725227356,1.4576777219772339,0.4463927149772644
1772376761716194600,7.234194580078125,-1.59118125032112,0.6467305085793137,6.4808747614622115,0.9511035084724426,1.2588227987289429,0.2531518042087555
1772376761726143500,7.2441435546875,-1.6710073589690029,0.689604604665935,7.272734164205193,0.9430509209632874,1.0585514307022095,0.06006462872028351
1772376761736092700,7.2540927734375,-1.672483130609989,0.8504749655798077,7.839526920455694,0.9213481545448303,0.8907378315925598,-0.10111164301633835
1772376761746041600,7.26404150390625,-1.5282264892362056,1.0854062957435846,8.24916336787939,0.8883673548698425,0.7570517063140869,-0.21744278073310852
1772376761755990800,7.27399072265625,-1.26885191495046,1.390729551255703,8.436730012539028,0.835964560508728,0.7063919901847839,-0.2816667854785919
1772376761765939700,7.283939697265625,-1.037974682483077,1.621154509910941,8.351127950838208,0.7680808901786804,0.5930910110473633,-0.3037528991699219
1772376761775888600,7.293888671875,-1.263148004220426,1.940357822215557,8.44815916904807,0.6761507391929626,0.37655261158943176,-0.2841583490371704
1772376761785837600,7.303837646484375,-1.3012149922862648,2.318666526700556,8.327146771270035,0.557402491569519,0.17620567977428436,-0.24222128093242645
1772376761795786500,7.313786376953125,-1.1885202679332345,2.4965780387863514,8.015420078456401,0.43493762612342834,-0.0940774604678154,-0.16093318164348602
1772376761805735700,7.323735595703125,-1.0351469847764818,2.5069834052056073,7.590902872765064,0.310526967048645,-0.3888361155986786,-0.031192488968372345
1772376761815684600,7.3336845703125,-0.8369281593296677,2.3005621302112935,6.92851506858766,0.16930684447288513,-0.6161037087440491,0.10576774179935455
1772376761825633800,7.3436337890625,-0.617437340208143,1.7571710000753402,6.123477035319805,0.028863172978162766,-0.7882014513015747,0.22849951684474945
1772376761835582700,7.353582763671875,-0.45368221763819455,1.1422478346452116,5.181907548102736,-0.09525328874588013,-0.9353988170623779,0.34380295872688293
1772376761845531600,7.36353173828125,-0.3089152155894786,0.5530342800110578,4.065219394388794,-0.19229194521903992,-1.1354535818099976,0.4288720488548279
1772376761855480600,7.37348046875,-0.17076304683694615,-0.09417875138819218,2.7190239813864228,-0.2562074065208435,-1.357061505317688,0.4666227102279663
1772376761865429800,7.3834296875,-0.03599414558084681,-0.8626689689815044,1.1700959187746047,-0.2536446452140808,-1.51515793800354,0.46750128269195557
1772376761875378700,7.393378662109375,0.05858521793091204,-1.770894112740457,-0.4490215323507786,-0.19693775475025177,-1.6416913270950317,0.4046384394168854
1772376761885327600,7.40332763671875,-0.05199506698483601,-2.586366738522053,-1.9434025967389343,-0.11235442012548447,-1.7976479530334473,0.2353828251361847
1772376761895276500,7.413276611328125,-0.5650317013947292,-3.136352152356505,-3.1543583491683003,-0.10131034255027771,-1.92983877658844,-0.04781559109687805
1772376761905225700,7.423225830078125,-1.3381611596286296,-3.4300101045161484,-3.958376391738653,-0.26911452412605286,-1.9475566148757935,-0.42083391547203064
1772376761915174700,7.433174560546875,-2.11597011744827,-3.4369118467286226,-4.50411993021965,-0.649361789226532,-1.792601227760315,-0.8269525766372681
1772376761925123600,7.44312353515625,-2.6576547359272835,-3.1587893173530697,-5.028922387480735,-1.1662914752960205,-1.5143351554870605,-1.2172675132751465
1772376761935072800,7.45307275390625,-2.928150715947151,-2.6060391149803994,-5.7885950923681255,-1.6749767065048218,-1.1325972080230713,-1.5577119588851929
1772376761945021700,7.463021728515625,-2.8156512949705124,-1.9892770436853169,-6.714602853316069,-2.0265965461730957,-0.6385220289230347,-1.808349847793579
1772376761954970600,7.472970703125,-2.1715333069771527,-1.2817258634403348,-7.509354470369219,-2.1264734268188477,-0.11241396516561508,-1.9280239343643188
1772376761964919600,7.48291943359375,-1.0524968365713954,-0.4859308748140931,-7.901744599437714,-1.996170997619629,0.313160240650177,-1.872184157371521
1772376761974868500,7.492868408203125,0.14637027252689003,0.2687041281670332,-7.649146387419104,-1.7153908014297485,0.5802128911018372,-1.6327365636825562
1772376761984817700,7.502817626953125,1.203025470886752,0.844623901464045,-6.902548852682113,-1.3555934429168701,0.7276603579521179,-1.213669776916504
1772376761994766600,7.5127666015625,1.890660894371569,1.181657615622133,-5.857224391958117,-0.9974550604820251,0.8622807264328003,-0.6776773929595947
1772376762004715800,7.5227158203125,2.024462046574056,1.3810505994148552,-4.564100643929839,-0.6848995685577393,1.038557529449463,-0.10662345588207245
1772376762014664700,7.532664794921875,1.705356057164073,1.4073710355855524,-3.160153883704543,-0.45762836933135986,1.2125129699707031,0.4124985337257385
1772376762024613600,7.542613525390625,1.2405272993505,1.1418801703765988,-1.772923280480504,-0.32216906547546387,1.355675458908081,0.817353367805481
1772376762034562800,7.552562744140625,0.7365908122465014,0.6698677846692502,-0.4995236390978098,-0.2490803450345993,1.445635199546814,1.0900542736053467
1772376762044511700,7.56251171875,0.32699382005035876,0.29705022494643923,0.5425520489633083,-0.18938666582107544,1.4664450883865356,1.2633192539215088
1772376762054460700,7.572460693359375,-0.08330520120160653,0.07389014272764324,1.4641390708595514,-0.1123703122138977,1.418976902961731,1.3540642261505127
1772376762064409900,7.582409912109375,-0.4166385082054883,-0.15351152258366346,2.281978133511543,-0.005790607072412968,1.330212950706482,1.3819392919540405
1772376762074358800,7.59235888671875,-0.6535255755469203,-0.3813333130031824,2.973047257772088,0.11753816157579422,1.2100673913955688,1.349004864692688
1772376762084307700,7.6023076171875,-0.8590298818267882,-0.5498712859354913,3.6278368619054553,0.2418404072523117,1.0496091842651367,1.262039065361023
1772376762094256600,7.612256591796875,-0.9910211350630969,-0.6746405520290136,4.222547552651167,0.3421877920627594,0.8447154760360718,1.1305714845657349
1772376762104205800,7.622205810546875,-1.0639974508814514,-0.7239008420214057,4.766438156741858,0.41165047883987427,0.576392650604248,0.9692662954330444
1772376762114154800,7.63215478515625,-1.007125370711088,-0.5903101176992058,5.17063621250391,0.4524996280670166,0.22734671831130981,0.7994481921195984
1772376762124103700,7.642103759765625,-0.8897272179074585,-0.3435997946754098,5.319134583100676,0.4833962917327881,-0.12591227889060974,0.6480725407600403
1772376762134052900,7.652052978515625,-0.6542878651563078,-0.0014398235447704792,5.211929176878929,0.5215364098548889,-0.4040757715702057,0.5472005605697632
1772376762144001800,7.662001708984375,-0.43426001654863355,0.4165978108689189,4.8628597186207765,0.5825155973434448,-0.554266095161438,0.5082286596298218
1772376762153950700,7.67195068359375,-0.292710369111225,0.866019156192243,4.443147867384552,0.6606282591819763,-0.6028456091880798,0.53312748670578
1772376762163899600,7.681899658203125,-0.1747569935776293,1.2453119032785296,4.060583551281691,0.7288027405738831,-0.5801528096199036,0.5787383317947388
1772376762173848600,7.6918486328125,-0.05892327707912773,1.5186217716753483,3.7220010002464052,0.7776748538017273,-0.5536133050918579,0.6420188546180725
1772376762183797800,7.7017978515625,0.10495745376502164,1.6126719282478092,3.3402082530379293,0.8168805837631226,-0.5485676527023315,0.7141969203948975
1772376762193746700,7.71174658203125,0.2669471284318715,1.56592449785918,2.8564550145238634,0.851542592048645,-0.5226833820343018,0.7865065932273865
1772376762203695900,7.72169580078125,0.5022762622741982,1.3149725917428732,2.2417431537568566,0.9007053375244141,-0.44433286786079407,0.8500106930732727
1772376762213644800,7.731644775390625,1.076762239908427,0.7631079400330781,1.5885679990828037,0.9901458621025085,-0.2589687407016754,0.945831835269928
1772376762223593700,7.74159375,1.9950396988652646,-0.0033361586853861806,1.1118097340226172,1.1460462808609009,-0.006999077741056681,1.1173665523529053
1772376762233542700,7.751542724609375,3.3032746529161927,-0.935830066782236,0.9599877719610929,1.2944281101226807,0.2262113392353058,1.3790045976638794
1772376762243491600,7.76149169921875,4.9112867726594205,-2.1326316216528416,1.4703917015135288,1.3517144918441772,0.3360467851161957,1.739400029182434
