time,seconds_elapsed,accel_x,accel_y,accel_z,gyro_x,gyro_y,gyro_z
1772376846887761000,0.065760986328125,-0.2096374605618417,0.42379196015670895,3.319071356984973,-0.6421019434928894,0.22362905740737915,0.45521125197410583
1772376846897709800,0.075709716796875,0.129376832954213,0.6714357646383344,3.340583516091108,-0.600508451461792,-0.004945527762174606,0.4600156545639038
1772376846907658000,0.085657958984375,0.259820053030923,0.67742156104967,3.3759447523295876,-0.5232226848602295,-0.2672636806964874,0.4376682937145233
1772376846917607000,0.09560693359375,0.24757877642139792,0.46035351209565994,3.4894875448793172,-0.44724512100219727,-0.4807598292827606,0.411602258682251
1772376846927555800,0.105555908203125,0.1782382963547483,0.31787074852660296,3.649432607641816,-0.40776029229164124,-0.6188133358955383,0.3966059982776642
1772376846937503700,0.115503662109375,-0.07960815504826604,0.4039794445753097,3.8417595985710618,-0.397695928812027,-0.7147402763366699,0.3845014274120331
1772376846947452700,0.12545263671875,-0.5626746168745681,0.6491971909537911,3.9150340936183925,-0.44677719473838806,-0.7874123454093933,0.3467748165130615
1772376846957401900,0.13540185546875,-0.9898735724631696,0.8493862935602664,3.7070138589948414,-0.5414560437202454,-0.7886835336685181,0.29989394545555115
1772376846967351000,0.14535107421875,-1.1679710355751216,1.0009772233448921,3.1892782713800667,-0.6512248516082764,-0.7462455630302429,0.27241891622543335
1772376846977298700,0.155298583984375,-1.167490850842744,1.1489110919266938,2.356968784826994,-0.7374300956726074,-0.719009518623352,0.2646915912628174
1772376846987247900,0.165247802734375,-0.9407787021655589,1.1278889813598245,1.0582388873547315,-0.7380399107933044,-0.6843791007995605,0.2840658128261566
1772376846997196800,0.17519677734375,-0.4260504796732217,1.0703793339382857,-0.4803121581494808,-0.5722605586051941,-0.5953720211982727,0.3675101101398468
1772376847007146000,0.18514599609375,0.11610248696990311,1.1009618114676325,-1.6131623421132564,-0.296152263879776,-0.5753724575042725,0.4934440851211548
1772376847017094000,0.195093994140625,0.5177948435213416,0.9891707579560577,-2.1478438038319347,-0.0766686499118805,-0.6575936675071716,0.6350257396697998
1772376847027042800,0.205042724609375,0.9051636372964829,0.6361871219288557,-2.3754063587933776,-0.03507832810282707,-0.7571743130683899,0.7468097805976868
1772376847036991700,0.21499169921875,1.4201130282588301,-0.17822328144870697,-2.7793799581497907,-0.11317579448223114,-0.8248108625411987,0.8386889696121216
1772376847046940000,0.22493994140625,2.0116855671092866,-1.330146195477247,-3.901788243076205,-0.2806214988231659,-0.8291009068489075,0.9188395142555237
1772376847056888800,0.234888916015625,2.1269662893675267,-1.5179586315914988,-5.66159835948348,-0.47054246068000793,-0.8222551941871643,0.9519522190093994
1772376847066838500,0.244838623046875,2.3337189882732927,-1.4898852142736314,-8.07353616733849,-0.48008906841278076,-0.5029083490371704,1.0123094320297241
1772376847076787500,0.254787353515625,2.5581910298734902,-1.1916736904628573,-10.359217247021197,-0.27831414341926575,-0.08120179176330566,1.1149412393569946
1772376847086735400,0.2647353515625,2.4334780240118503,-1.20528099472858,-11.783774249076842,0.1017887070775032,0.08762398362159729,1.1925281286239624
1772376847096684500,0.2746845703125,1.4206360292196274,-1.8550130962766707,-11.914774956905841,0.19693945348262787,0.01134191919118166,1.0974832773208618
1772376847106633500,0.284633544921875,-0.6256500188887119,-2.149692938829958,-10.444343507903813,-0.17811191082000732,-0.11657024174928665,0.7689964175224304
1772376847116582400,0.29458251953125,-2.5777842036157845,-1.2620260144531725,-9.249462691962718,-0.8194119930267334,-0.15887008607387543,0.34138691425323486
1772376847126530300,0.3045302734375,-3.8100349652692675,0.2475509385664016,-9.617082536911964,-1.379211664199829,0.05111004412174225,-0.07581698149442673
1772376847136479500,0.3144794921875,-3.740547295284271,1.0107635810829698,-11.820373502677679,-1.5238271951675415,0.5110869407653809,-0.3892998695373535
1772376847146428700,0.3244287109375,-2.293842612697929,1.0915981361210345,-14.533318456411362,-1.0919266939163208,0.972395122051239,-0.49499034881591797
1772376847156376300,0.334376220703125,-0.6832626882933079,1.379640732616931,-15.6083103256464,-0.2665134072303772,1.2784323692321777,-0.4225863218307495
1772376847166325500,0.344325439453125,0.28768782824147493,1.720585482738912,-14.02892867258191,0.5868150591850281,1.3707327842712402,-0.2864052951335907
1772376847176274400,0.3542744140625,0.45443109977673735,1.5514548046104608,-10.476479352355003,1.2604219913482666,1.2864314317703247,-0.18871042132377625
1772376847186223600,0.3642236328125,0.1560399816153571,1.0852419720273465,-6.231332429882884,1.7013375759124756,1.0471570491790771,-0.16454249620437622
1772376847196171500,0.374171630859375,-0.31521676341909916,0.7087173744801432,-2.2458944282174107,1.9825841188430786,0.708557665348053,-0.2128051221370697
1772376847206120400,0.384120361328125,-0.8705659327764064,0.5664481805965305,1.1065168883115053,2.150634765625,0.3142748475074768,-0.33370065689086914
1772376847216069400,0.3940693359375,-1.285404844214022,0.727396136791259,3.8465269591033455,2.2357072830200195,-0.01935993693768978,-0.49512597918510437
1772376847226018300,0.404018310546875,-1.349428695835173,1.159932106026262,5.952316166538,2.26902174949646,-0.26444798707962036,-0.6246682405471802
1772376847235966500,0.413966552734375,-1.088765104652196,1.8575120734855533,7.442842893585563,2.2861719131469727,-0.4044119119644165,-0.6930718421936035
1772376847245915400,0.423915283203125,-0.5118178514709696,2.316610617084056,8.498063894423842,2.321474552154541,-0.43682846426963806,-0.6675845980644226
1772376847255864300,0.4338642578125,0.17993501727003602,2.638244809797406,9.409060548722744,2.3362975120544434,-0.4283018112182617,-0.5609731674194336
1772376847265812500,0.4438125,0.7077411498591304,2.8957226105511187,10.187176088273524,2.3399288654327393,-0.3729107081890106,-0.4203018546104431
1772376847275761400,0.453761474609375,1.143867837062478,2.947695958894491,10.83846440628767,2.319350242614746,-0.2877578139305115,-0.298007607460022
1772376847285710600,0.463710693359375,1.4542799401462077,2.9934643151178952,11.402452041989564,2.2565560340881348,-0.08340120315551758,-0.1540728211402893
1772376847295659500,0.473659423828125,1.5403428973570465,3.2820930409386753,11.987657822287082,2.1038641929626465,0.22361595928668976,-0.006171480752527714
1772376847305607700,0.483607666015625,1.3874350397549569,3.898630948089063,12.581157968199252,1.8867952823638916,0.5192055106163025,0.1281474381685257
1772376847315556600,0.493556640625,1.290230803065747,4.487044876778126,13.08659872238636,1.6371148824691772,0.7606224417686462,0.2578449845314026
1772376847325505500,0.503505615234375,1.178656680240482,4.631544240866601,13.521003700363636,1.3590507507324219,0.8787554502487183,0.3645429313182831
1772376847335453400,0.513453369140625,0.9273682356461882,4.530474560920894,13.845696257734298,1.02906334400177,0.9135883450508118,0.4488331079483032
1772376847345402400,0.52340234375,0.7169122983083128,4.567725848689675,14.081910905706883,0.6150320172309875,0.9855619072914124,0.5361051559448242
1772376847355351600,0.5333515625,0.5302082618273795,4.468758109459281,13.957469702523946,0.23243753612041473,0.965723991394043,0.5957455635070801
1772376847365300500,0.543300537109375,0.0737878513969481,4.045276676556468,13.33992232607007,-0.1614871323108673,0.847902774810791,0.6136683821678162
1772376847375248400,0.553248291015625,-0.4804277108205482,3.490388877633214,12.309645212352276,-0.5528647303581238,0.7819284796714783,0.5598191618919373
1772376847385197300,0.563197265625,-1.1352585602797567,2.8952868494823574,10.953933198463917,-0.9835610389709473,0.712543249130249,0.45568740367889404
1772376847395146500,0.573146484375,-1.7520815679818391,2.0750997623994945,9.296802535286545,-1.435409665107727,0.6050280332565308,0.27076318860054016
1772376847405094400,0.583094482421875,-2.1740330148383973,0.9443521036729216,7.403062087339163,-1.8803343772888184,0.3983811140060425,-0.0042212484404444695
1772376847415043300,0.593043212890625,-2.1756685070857404,-0.5831915178656578,5.254657142493128,-2.3060061931610107,0.01984352245926857,-0.32806485891342163
1772376847424992500,0.602992431640625,-1.4695650414310395,-2.2201672817647458,2.622722831016779,-2.6474452018737793,-0.48753872513771057,-0.6079103350639343
1772376847434941400,0.61294140625,-0.0678937518570572,-3.5276445493161677,-0.7042810725331307,-2.8140900135040283,-1.1140958070755005,-0.7349289655685425
1772376847444889600,0.6228896484375,0.9874958835463971,-4.184314560368657,-4.424836550146341,-2.8274059295654297,-1.6114370822906494,-0.7354708909988403
1772376847454838500,0.632838623046875,0.8798287780970334,-3.7606437423735857,-7.693404046818613,-2.8412442207336426,-1.7426435947418213,-0.7064764499664307
1772376847464787500,0.642787353515625,0.2802571667840704,-2.9768229769185184,-11.287615702497959,-2.9755213260650635,-1.7424405813217163,-0.7825350165367126
1772376847474736400,0.652736328125,-1.1522075761888175,-1.6651077795363962,-13.90360133421421,-3.0973916053771973,-1.6948198080062866,-0.8192077279090881
1772376847484684500,0.6626845703125,-1.8355131537757814,0.40457689901180566,-17.56800413197279,-3.0782480239868164,-1.3032197952270508,-0.8458321690559387
1772376847494633500,0.672633544921875,-2.4336579106234013,1.6999465993359684,-20.527101774847505,-2.8414132595062256,-0.624605119228363,-0.8395206928253174
1772376847504582400,0.68258251953125,-2.304933623293787,2.2318672180391848,-22.382488819003104,-2.371446132659912,0.05055787414312363,-0.7831722497940063
1772376847514530300,0.6925302734375,-1.6595092288769782,2.1783770353920757,-22.357775233507155,-1.8064987659454346,0.48627769947052,-0.6804206967353821
1772376847524479500,0.7024794921875,-0.7980307117890566,1.8598026686407625,-20.355843875432015,-1.3351805210113525,0.6819838285446167,-0.5160565376281738
1772376847534428400,0.712428466796875,-0.3366164020614698,1.6097167317040264,-17.281988218998908,-0.9864912629127502,0.7500419616699219,-0.32664012908935547
1772376847544377600,0.722377685546875,-0.3450526238322258,1.2667385760582983,-14.359690905255079,-0.7080061435699463,0.7954847812652588,-0.16085702180862427
1772376847554325500,0.732325439453125,-0.7420915285546332,0.778786424549669,-11.89116377969384,-0.40153488516807556,0.8555116057395935,-0.06532638520002365
1772376847564274400,0.7422744140625,-1.2322864174887538,0.3103208811363205,-9.764323600924014,-0.018022118136286736,0.9318724274635315,0.004832464270293713
1772376847574223600,0.7522236328125,-1.3626635865919292,0.1921827418866567,-7.599439230442047,0.39674100279808044,1.0530542135238647,0.08250699192285538
1772376847584172500,0.762172607421875,-1.1275745816484093,0.300947341982834,-5.2761739777743815,0.8231130838394165,1.1490603685379028,0.19474618136882782
1772376847594120400,0.772120361328125,-0.7531326355941593,0.24660403137141837,-2.753125572952628,1.2030590772628784,1.1223894357681274,0.3159414827823639
1772376847604069400,0.7820693359375,-0.5297581434397026,0.10035057189092039,-0.13252514091730117,1.5104491710662842,0.9243554472923279,0.4212910830974579
1772376847614018600,0.7920185546875,-0.5143710796177386,-0.015500862927362321,2.289514958757162,1.7584158182144165,0.6552035808563232,0.47299274802207947
1772376847623966500,0.801966552734375,-0.7980267662663012,0.07265490184426307,4.292781364828348,1.9354743957519531,0.37420594692230225,0.45476391911506653
1772376847633915400,0.811915283203125,-1.1337012478351591,0.3520380257401615,5.8894999371409416,2.0574517250061035,0.17898066341876984,0.37256407737731934
1772376847643864300,0.8218642578125,-1.3377049402937293,0.6410282783497124,7.101054239985347,2.129905939102173,0.11144715547561646,0.24606819450855255
1772376847653813200,0.831813232421875,-1.4293196864128113,0.8438476563945412,7.885286801111698,2.1848249435424805,0.17369109392166138,0.12309060990810394
1772376847663761400,0.841761474609375,-0.7724526914834976,1.0554143314532936,8.927127511373161,2.163055658340454,0.3088747560977936,0.08295810222625732
1772376847673710600,0.851710693359375,-0.4252037997160107,1.5979581971101462,10.329383249771594,2.029045343399048,0.3890044689178467,0.06569789350032806
1772376847683659500,0.861659423828125,-0.2741647316604853,2.1538167407616973,11.708896995007992,1.81398606300354,0.46585771441459656,0.03690673038363457
1772376847693607700,0.871607666015625,0.03899937354512512,2.558187522742152,12.89895784344673,1.528635025024414,0.46689414978027344,0.011495031416416168
1772376847703556600,0.881556640625,0.45726782104000446,2.8786861355543136,13.75233174533844,1.2374199628829956,0.36336615681648254,0.009829491376876831
1772376847713505500,0.891505615234375,0.8198564668890088,3.131735013949871,14.043918151921034,0.9815647602081299,0.21468494832515717,0.03399311378598213
1772376847723454500,0.901454345703125,1.0564555110692977,3.279084799033403,13.907790018075703,0.7746930718421936,0.08258096873760223,0.0749858170747757
1772376847733402400,0.91140234375,1.2042992902148515,3.307170199050009,13.491929581570625,0.6195282340049744,0.009173653088510036,0.1470114141702652
1772376847743351600,0.9213515625,1.1882302720107139,3.2629280294805763,13.053954343891142,0.47721025347709656,-0.013624602928757668,0.21964247524738312
1772376847753300500,0.931300537109375,0.9988647612355649,3.088558427785337,12.842753725665807,0.2933288514614105,-0.01810857094824314,0.27013248205184937
1772376847763248400,0.941248291015625,0.7620517820436506,2.685444660128653,12.715214556467533,0.057631365954875946,-0.09911420941352844,0.2941339612007141
1772376847773197300,0.951197265625,0.6995767672996968,2.1184259861677885,12.27183132226467,-0.20084519684314728,-0.2574717104434967,0.31604239344596863
1772376847783146500,0.961146484375,0.6340772171027959,1.4766627446070313,11.304372776031494,-0.46408775448799133,-0.5080664157867432,0.3308221399784088
1772376847793095400,0.971095458984375,0.5328906327791512,0.6657134414687752,9.787754160872101,-0.7228878736495972,-0.7934208512306213,0.30968591570854187
1772376847803043300,0.981043212890625,0.35845512624084946,-0.4897378658816218,7.674264462062716,-1.0193363428115845,-1.097701072692871,0.25809624791145325
1772376847812992500,0.990992431640625,0.15406181341018527,-1.746234887780249,5.0387183898299925,-1.3623615503311157,-1.3445687294006348,0.1549709439277649
1772376847822941400,1.00094140625,-0.04226053076554089,-2.621767722249031,2.0192109941780565,-1.7217804193496704,-1.5423859357833862,0.0490889847278595
1772376847832890600,1.010890625,0.6589031769320368,-2.90935307649672,-2.966519317308068,-2.0127310752868652,-1.5657685995101929,0.0205356627702713
1772376847842838500,1.020838623046875,-0.3781343708314001,-2.740429757508635,-6.310730376246571,-2.3924500942230225,-1.6405038833618164,-0.03181888535618782
1772376847852787500,1.030787353515625,-1.4644820390783249,-1.7488351334065197,-11.105504400634764,-2.5710654258728027,-1.4673727750778198,-0.1702185571193695
1772376847862736400,1.040736328125,-2.714423501853645,-1.1119149479627608,-16.468777985191345,-2.426053762435913,-1.0307011604309082,-0.38418516516685486
1772376847872684500,1.0506845703125,-2.87699569824934,-0.8715608620978892,-21.073996821451185,-1.9701743125915527,-0.6533408164978027,-0.6358391046524048
1772376847882633500,1.060633544921875,-1.7863218373663723,-0.8627305629756301,-24.259318464159964,-1.310181736946106,-0.44756215810775757,-0.7425189018249512
1772376847892582400,1.07058251953125,-0.17485512018986046,-0.5545421272907406,-25.176900926589965,-0.6872177720069885,-0.3678588569164276,-0.6692532300949097
1772376847902531300,1.08053125,0.5323429357685149,0.4917551239881664,-23.902201308524607,-0.2778904438018799,-0.34664517641067505,-0.4794846475124359
1772376847912479500,1.0904794921875,0.20186879932172594,1.3428110312610864,-21.589133624744413,-0.07301106303930283,-0.17810507118701935,-0.2635090947151184
1772376847922428400,1.100428466796875,-0.47155189205612985,1.4908309706911445,-18.971427160584927,-0.01665245182812214,0.17960326373577118,-0.042146626859903336
1772376847932377600,1.110377685546875,-0.8448133596215397,1.1301943356927484,-16.509671136593816,0.05531921237707138,0.7024716138839722,0.1922614872455597
1772376847942326500,1.120326416015625,-1.101093694218993,0.582016044345498,-14.149331998550892,0.25311270356178284,1.2303303480148315,0.4190448522567749
1772376847952274700,1.130274658203125,-1.400616592889279,-0.013083134261146188,-11.39461126536131,0.5904550552368164,1.598321557044983,0.5850428938865662
1772376847962223600,1.1402236328125,-1.7322623303987086,-0.5985710194356739,-8.240476788076759,0.9755833148956299,1.7823412418365479,0.6881836652755737
1772376847972172500,1.150172607421875,-2.2438526932567355,-0.9978476931475102,-5.022385094666481,1.356248140335083,1.8621361255645752,0.7077860236167908
1772376847982120400,1.160120361328125,-2.730246801668405,-1.0333561558369546,-1.7074042218655348,1.659608244895935,1.8035160303115845,0.6473418474197388
1772376847992069400,1.1700693359375,-2.96919262817055,-0.7656121779389679,1.3887509446591138,1.89811110496521,1.605971097946167,0.5383582711219788
1772376848002018600,1.1800185546875,-3.002586655989289,-0.3898997735574841,4.104716122996807,2.1087706089019775,1.3024895191192627,0.4147287607192993
1772376848011967500,1.189967529296875,-2.7682702428534625,0.06380319460779428,6.494127041745186,2.287156105041504,0.867914617061615,0.30196526646614075
1772376848021915400,1.199915283203125,-2.3774092230483888,0.3951622241303325,8.409415304633974,2.384760618209839,0.46097591519355774,0.18912631273269653
1772376848031864300,1.2098642578125,-1.778401565761119,0.6128197634100914,9.89376480435133,2.408550977706909,0.2067575603723526,0.11995629221200943
1772376848041813200,1.219813232421875,-1.2001700083903968,0.8100618527792394,10.66679032728672,2.37467622756958,0.21390655636787415,0.06855887919664383
1772376848051761400,1.229761474609375,-0.5907824113860726,1.6197195086717604,12.421791582107543,2.0473616123199463,0.46520793437957764,0.08618085831403732
1772376848061710300,1.23971044921875,0.04237476826235652,2.8610315286591645,15.182461579090356,1.3399386405944824,0.5289126038551331,0.1939118504524231
1772376848071659300,1.2496591796875,0.19798070584200322,2.870199754498899,16.138672755122183,0.6724892258644104,0.5613013505935669,0.2775341868400574
1772376848081608200,1.259608154296875,-0.18954291316866873,2.1877038127943873,14.977286212503909,0.26867756247520447,0.572732150554657,0.29178526997566223
1772376848091556400,1.269556396484375,-0.7661072679795324,1.8970763143718241,13.658053040707111,0.06468554586172104,0.5785481929779053,0.20879125595092773
1772376848101505300,1.27950537109375,-1.5222102976866065,2.5787282064676282,13.024197503530978,-0.10414421558380127,0.6148470640182495,0.04983276501297951
1772376848111454200,1.2894541015625,-1.8518083088859916,3.128023592211306,12.714724727123976,-0.25528526306152344,0.7063374519348145,-0.11432480067014694
1772376848121402400,1.29940234375,-1.7097860024355351,3.287099178662896,12.211265502142906,-0.36465170979499817,0.7827645540237427,-0.25201714038848877
1772376848131351300,1.309351318359375,-1.2994602575734258,3.246738818962872,11.52098255982399,-0.4409949481487274,0.8739690184593201,-0.3344612419605255
1772376848141300200,1.31930029296875,-0.7941910605609417,3.272924815098941,10.93315227624178,-0.5220077633857727,0.9294005632400513,-0.33574995398521423
1772376848151249200,1.329249267578125,-0.27383929909840227,3.355951181092858,10.723529867118597,-0.6625792384147644,0.8218026161193848,-0.25911521911621094
1772376848161197300,1.339197265625,-0.008097235607355832,3.284018163782358,10.66863507837057,-0.8762001991271973,0.4919291138648987,-0.1770174205303192
1772376848171146200,1.349146240234375,-0.06241071733608842,2.8008672750756145,10.245534753739832,-1.1455368995666504,0.0015582861378788948,-0.1374068707227707
1772376848181095200,1.35909521484375,-0.5246899367973208,1.9066941836751996,9.230515999430418,-1.5085477828979492,-0.5748792290687561,-0.2113412767648697
1772376848191043000,1.36904296875,-1.4461559626623988,0.8290941777683793,7.5808543569594615,-1.8981666564941406,-1.063076376914978,-0.4233286380767822
1772376848200992000,1.378991943359375,-1.0565957963228225,-0.6016637247540056,2.965120556426048,-2.095374345779419,-1.4665799140930176,-0.6619896292686462
1772376848210941400,1.38894140625,-1.4725367507182061,-1.334681354688853,-0.10652385369837283,-2.1916351318359375,-1.9435597658157349,-0.9828183054924011
1772376848220890400,1.398890380859375,-0.8901852638732641,-1.1844427162960172,-4.0805514035552735,-2.1702587604522705,-2.54653263092041,-1.2495018243789673
1772376848230838300,1.40883837890625,0.23989574763812124,-1.06140261208266,-8.408571255025267,-1.9609214067459106,-2.997802257537842,-1.3738396167755127
1772376848240787200,1.418787109375,1.2145641521848738,-0.7090086855769157,-12.589811230254172,-1.6654727458953857,-3.162698984146118,-1.3489856719970703
1772376848250736000,1.428736083984375,1.168452535481751,-0.17741218426153063,-15.981428183490037,-1.2454954385757446,-3.1306114196777344,-1.2300267219543457
1772376848260684300,1.438684326171875,0.7265315558511763,0.28635493566989895,-18.23944208856821,-0.888476550579071,-2.9657180309295654,-1.0620733499526978
1772376848270633200,1.44863330078125,0.03950562430052087,0.2905982723280787,-19.117286414849758,-0.7852175831794739,-2.640322685241699,-0.9488358497619629
1772376848280582100,1.45858203125,-0.7513790699250996,0.0940264103706926,-19.34013187816143,-0.9045833945274353,-2.1428329944610596,-0.9347048997879028
1772376848290531000,1.468531005859375,-1.5265841288566588,0.3205532656088471,-19.709526331567762,-0.9975125193595886,-1.4265738725662231,-0.9158378839492798
1772376848300479200,1.478479248046875,-1.7450712508283555,0.728431325057894,-20.098413420951367,-0.915671706199646,-0.6211720108985901,-0.7733126878738403
1772376848310428200,1.48842822265625,-1.4887830982506274,1.2059732878416776,-19.62978819346428,-0.6059402227401733,0.13663555681705475,-0.5204708576202393
1772376848320377000,1.498377197265625,-1.1841458522412924,1.7659505188584326,-18.225436944091317,-0.10417484492063522,0.8056130409240723,-0.10772456973791122
1772376848330326300,1.508326171875,-0.45541788232438263,1.6692478019505739,-15.942818174588679,0.5033843517303467,1.2975797653198242,0.3921882212162018
1772376848340274400,1.5182744140625,-0.15648947894852608,1.154299287771061,-12.886551950860023,1.0396888256072998,1.7105103731155396,0.7956166863441467
1772376848350223400,1.528223388671875,-0.5995199907235801,0.770071203174442,-9.271976721587777,1.4034510850906372,1.9947819709777832,1.0143191814422607
1772376848360172300,1.53817236328125,-1.169867589911446,0.20212189729996025,-5.4589855368614195,1.5221118927001953,2.209049701690674,1.0280495882034302
1772376848370120200,1.5481201171875,-1.5524451308220624,-0.3274141643542796,-1.970917795652151,1.485284686088562,2.2981059551239014,0.9125002026557922
1772376848380069400,1.5580693359375,-1.8823912248067556,-0.38791656385101375,0.9968301866680384,1.4237743616104126,2.2336554527282715,0.7606789469718933
1772376848390018300,1.568018310546875,-2.071600375976413,-0.046049218991398806,3.3385259990394114,1.3883546590805054,2.1072661876678467,0.6590678095817566
1772376848399967200,1.57796728515625,-1.9391282804206011,0.5061667303740978,5.138215121370553,1.3783416748046875,1.937745451927185,0.6249774694442749
1772376848409915100,1.5879150390625,-1.7023370016038417,1.1117311158284544,6.757395700860023,1.4129856824874878,1.6563900709152222,0.6633754372596741
1772376848419864000,1.597864013671875,-1.4070952873840927,1.636021385783702,8.160147698342799,1.4717518091201782,1.3099812269210815,0.7657870054244995
1772376848429813200,1.607813232421875,-1.2517008736632764,2.089945741614699,9.167775173357128,1.5129010677337646,1.0629665851593018,0.9014229774475098
1772376848439761200,1.61776123046875,-1.1786577762190251,2.466947747415304,9.945752181220055,1.5082882642745972,0.9326662421226501,1.046806812286377
1772376848449710000,1.6277099609375,-0.7906509037360548,2.5597686544537543,10.593245783126354,1.4566229581832886,1.0094008445739746,1.2229570150375366
1772376848459659000,1.637658935546875,-0.19344035899862647,2.844842610402405,10.878361532390118,1.354975938796997,1.209763765335083,1.3040026426315308
1772376848469608200,1.647608154296875,-2.131267055301368,2.647103531296551,10.993487794739007,1.243371605873108,1.347481369972229,1.2128878831863403
1772376848479556400,1.657556396484375,-2.772510656902194,2.1686989603340625,11.339354073041676,1.1310874223709106,1.4492242336273193,1.0417113304138184
1772376848489505300,1.66750537109375,-3.0116552208468317,2.310295004196465,12.211221078479289,0.9750767946243286,1.4137942790985107,0.8177626132965088
1772376848499454200,1.6774541015625,-3.2802275393277407,2.5120856967806815,13.06022626376748,0.7538461089134216,1.2126953601837158,0.5559189915657043
1772376848509402400,1.68740234375,-3.148178783750534,2.402108780018985,13.633844482123852,0.5075564384460449,0.8949278593063354,0.27726027369499207
1772376848519351300,1.697351318359375,-3.044215720450878,2.4047972884505984,13.844116879588364,0.25892773270606995,0.5079410076141357,0.0031504202634096146
1772376848529300200,1.70730029296875,-2.880419242957234,2.540922791947424,13.673714720219373,-0.023430727422237396,0.13328303396701813,-0.24173560738563538
1772376848539249200,1.717249267578125,-2.377013501729071,2.4567840807974335,13.211639645028114,-0.38135823607444763,-0.18365657329559326,-0.4184086322784424
1772376848549197300,1.727197265625,-1.6526242916688323,2.1074822750881315,12.34240415713787,-0.7652731537818909,-0.4499392807483673,-0.5257983207702637
1772376848559146200,1.737146240234375,-0.8236470182783902,1.5148203335657715,11.164814667737483,-1.169196605682373,-0.6585865020751953,-0.5797252058982849
1772376848569095200,1.74709521484375,-0.3666590370930731,0.9390449371755123,9.756975576248765,-1.6476540565490723,-0.9334734082221985,-0.6383442282676697
1772376848579043000,1.75704296875,-0.26072145885005593,0.2325721998170018,7.71524938340187,-2.1305415630340576,-1.3346972465515137,-0.7415958046913147
1772376848588992000,1.766991943359375,0.06832549433782696,-0.7559490081891417,4.6548558506101365,-2.464336633682251,-1.8480747938156128,-0.8445568680763245
1772376848598941400,1.77694140625,0.35714974273070693,-1.4982796792618929,0.6747825908482075,-2.5882184505462646,-2.4867846965789795,-0.9326348304748535
1772376848608890400,1.786890380859375,0.9821271961200981,-1.811442980749905,-5.06585949473381,-2.094545364379883,-2.3022189140319824,-0.9028864502906799
1772376848618838300,1.79683837890625,1.6139663519725203,-2.322381309439987,-10.849098028504848,-1.5520236492156982,-2.2045843601226807,-0.9564545750617981
1772376848628787200,1.806787109375,1.2529160946719349,-1.8427597639031708,-12.989193994688987,-1.1851407289505005,-2.2205891609191895,-0.9031200408935547
1772376848638736100,1.816736083984375,1.8157364401601255,-1.7775639458931982,-14.43031634709835,-1.099841594696045,-2.2032268047332764,-0.8153286576271057
1772376848648684300,1.826684326171875,1.206676686870679,-1.6475477190569041,-15.212659148955344,-1.282975435256958,-2.145859479904175,-0.8201724290847778
1772376848658633200,1.83663330078125,-0.16447353650499133,-0.9121024966489523,-16.267397334712744,-1.6091910600662231,-1.8713107109069824,-0.8535455465316772
1772376848668582100,1.84658203125,-0.7359611360408366,-0.10316592157259583,-17.995801674509046,-1.837448000907898,-1.2754086256027222,-0.796654999256134
1772376848678531000,1.856531005859375,-0.9901770123891532,0.8544993257250636,-19.650403111469746,-1.8321453332901,-0.39803093671798706,-0.647307276725769
1772376848688479200,1.866479248046875,-0.9057298198118805,1.3912538673907517,-19.935988816332816,-1.6750257015228271,0.48970234394073486,-0.47733816504478455
1772376848698428200,1.87642822265625,-0.5160113576380536,1.735841211798787,-18.577840515208244,-1.412908911705017,1.1826845407485962,-0.25832483172416687
1772376848708377000,1.886377197265625,0.36451249005105346,1.4704882937557995,-16.191719285655022,-1.0864837169647217,1.5685018301010132,0.014127149246633053
1772376848718325200,1.8963251953125,0.6720852415230125,1.0496250805273653,-13.38880121552944,-0.7167189121246338,1.683066487312317,0.22780027985572815
1772376848728274200,1.906274169921875,0.31082064735200254,0.6021788346692919,-10.436900206160544,-0.31463807821273804,1.5711231231689453,0.35898515582084656
1772376848738223400,1.916223388671875,-0.2844390190459788,0.21811156665757298,-7.341440036162734,0.06054353341460228,1.3171260356903076,0.40986377000808716
1772376848748172300,1.92617236328125,-0.7737512799266726,0.015378204662073403,-4.22793041473329,0.34469351172447205,1.0237746238708496,0.4011906087398529
1772376848758120200,1.9361201171875,-1.3387275613397358,-0.12306192331952043,-1.4114602045953273,0.5311355590820312,0.8140611052513123,0.33156999945640564
1772376848768069400,1.9460693359375,-1.691232985395938,-0.15697963708564638,0.8461047876715659,0.6541003584861755,0.6651073694229126,0.24845758080482483
1772376848778018300,1.956018310546875,-1.765338962831348,-0.0596525229354389,2.675498727914691,0.7586517930030823,0.5842037200927734,0.1987379640340805
1772376848787966200,1.96596630859375,-1.6208746700562535,0.20543745158873497,4.201604133343697,0.8512115478515625,0.5677165389060974,0.1872367113828659
1772376848797915100,1.9759150390625,-1.3271598731428385,0.49102019730973984,5.535347476530075,0.9264522194862366,0.6010667681694031,0.21996696293354034
1772376848807864000,1.985864013671875,-1.1094112945787609,0.6341343541175126,6.674385993739962,1.003535270690918,0.6757009029388428,0.25158360600471497
1772376848817813200,1.995813232421875,-1.080715288383141,0.6943874550282955,7.732247864475846,1.0804429054260254,0.7909143567085266,0.26465943455696106
1772376848827761200,2.00576123046875,-1.2920425286628305,0.5948260607536882,8.697404563507437,1.1596412658691406,0.9020847678184509,0.23822492361068726
1772376848837710000,2.0157099609375,-1.4026818548560143,1.0590673010028897,10.044837993872164,1.144061803817749,0.952883780002594,0.2385181337594986
1772376848847659000,2.025658935546875,-1.0011256919048725,1.5470985090970992,11.407239276266097,1.0823886394500732,0.9369912147521973,0.27130773663520813
1772376848857607200,2.035607177734375,-1.0430002555601299,1.5689961603894829,12.240027486246824,1.0268528461456299,0.8669415712356567,0.27036336064338684
1772376848867556400,2.045556396484375,-1.2648176909983158,1.5489493976607918,12.908045989787578,0.9511900544166565,0.7483000159263611,0.23481057584285736
1772376848877505300,2.05550537109375,-1.3866829062134027,1.6056285856075585,13.638711211377382,0.8079754114151001,0.626811683177948,0.17516615986824036
1772376848887454200,2.0654541015625,-1.5278858591049909,1.6338203686080872,14.282714048558473,0.5985076427459717,0.4203987419605255,0.10818900167942047
1772376848897402400,2.07540234375,-1.5142163763232528,1.588866835898906,14.571621006798743,0.351085364818573,0.20630696415901184,0.040207020938396454
1772376848907351300,2.085351318359375,-1.3632460626550018,1.5874090383060275,14.646687645959853,0.04760962724685669,-0.016125762835144997,-0.02271506004035473
1772376848917300200,2.09530029296875,-1.2824455560170114,1.6096622250378132,14.393044893324374,-0.3172072172164917,-0.285855770111084,-0.0932994857430458
1772376848927248100,2.105248046875,-1.0299006816208363,1.5569726912491022,13.404161281746624,-0.6663548350334167,-0.48884257674217224,-0.12608873844146729
1772376848937197300,2.115197265625,-0.6272312967307865,1.4581979903727769,11.829784305101633,-0.9778773188591003,-0.6685335040092468,-0.1373259425163269
1772376848947146200,2.125146240234375,-0.38204862166568637,1.3284744628727436,10.015104534387588,-1.2485271692276,-0.950728714466095,-0.14720465242862701
1772376848957095200,2.13509521484375,-0.13590660004913807,0.9709135089926421,7.680170471236109,-1.4438146352767944,-1.2526280879974365,-0.13455943763256073
1772376848967043000,2.14504296875,-0.004874035777151584,0.46561508588567374,4.911648007187247,-1.5832148790359497,-1.5526832342147827,-0.1195657029747963
1772376848976992300,2.1549921875,0.962065162757039,0.0442473572012037,0.08432780398130417,-1.4753917455673218,-1.454932689666748,-0.03514429181814194
1772376848986941400,2.16494140625,0.8703292014110833,-0.4835048897761851,-3.0451749208718537,-1.381103277206421,-1.365193247795105,0.0023458488285541534
1772376848996889000,2.17488916015625,0.8072124546974897,-0.5190269060669467,-6.555091505795716,-1.273931622505188,-1.2333707809448242,0.012936174869537354
1772376849006838300,2.18483837890625,0.5021194277446717,-0.6640007923319935,-9.455517179471254,-1.1304234266281128,-1.0999889373779297,-0.04637225344777107
1772376849016787200,2.194787109375,0.39284656759910286,-1.1309780334163457,-11.695410905969142,-1.0013285875320435,-1.0303459167480469,-0.1774575561285019
1772376849026736400,2.204736328125,0.29915925298966467,-1.440988350766152,-13.257391342377662,-0.9272063970565796,-1.0355572700500488,-0.3511187434196472
1772376849036684300,2.214684326171875,0.52968858533483,-1.2580962737888097,-14.239134434551,-0.9909736514091492,-1.0711495876312256,-0.47926846146583557
1772376849046633200,2.22463330078125,1.0328944566093385,-0.731484648213908,-14.893521887624264,-1.228577733039856,-1.1074434518814087,-0.5341774225234985
1772376849056582100,2.23458203125,1.270342445769161,0.17464206196106968,-15.934779829561709,-1.4970426559448242,-1.0297590494155884,-0.5243421196937561
1772376849066529500,2.244529541015625,1.3989062818400562,0.878165082668513,-17.847389228630064,-1.6067878007888794,-0.846118152141571,-0.4404374957084656
1772376849076478500,2.254478515625,1.6603921491913496,1.557014922955632,-19.973594616627693,-1.4530235528945923,-0.5530372858047485,-0.26995766162872314
1772376849086427600,2.264427734375,1.4049563756592571,2.8577810024306176,-21.54565221041441,-0.9863458871841431,-0.14652922749519348,-0.06679379194974899
1772376849096376600,2.27437646484375,0.8847508177343756,3.7482501247465607,-21.574174540543556,-0.3023718297481537,0.22861641645431519,0.18410873413085938
1772376849106324700,2.28432470703125,0.4538857043210417,3.6589430710479616,-19.985378577923772,0.44183629751205444,0.5741749405860901,0.42389681935310364
1772376849116273700,2.294273681640625,-0.12958280385509133,2.6288915827795862,-16.834246789586544,1.0583218336105347,0.7876216769218445,0.5751199126243591
1772376849126222600,2.30422265625,-0.8879332471627741,1.493934343533963,-12.344132003843784,1.4739185571670532,0.8730416297912598,0.609180748462677
1772376849136170800,2.314170654296875,-1.7064686945810914,0.8553270087208599,-7.910822224384546,1.7422187328338623,0.921657919883728,0.5646441578865051
1772376849146119700,2.32411962890625,-2.1236256006374954,0.3193273040104657,-4.017758555033803,1.902302622795105,0.9219632744789124,0.4813980162143707
1772376849156068600,2.334068603515625,-2.1763183492965994,-0.0878185504402034,-0.7278706224352121,2.0040526390075684,0.8730762004852295,0.3918282091617584
1772376849166017500,2.344017578125,-2.0988154228992757,-0.2611053436011076,2.0524843182265755,2.079542875289917,0.7980920672416687,0.3224709928035736
1772376849175965400,2.35396533203125,-1.8900035995066164,-0.22195205813590435,4.609584630253911,2.1041810512542725,0.6936429142951965,0.2812633514404297
1772376849185914600,2.36391455078125,-1.5901438700973987,-0.024237127090618014,6.978508641290664,2.059262990951538,0.5686068534851074,0.27020320296287537
1772376849195863600,2.373863525390625,-1.2979226727426052,0.13370857854820786,8.995791882276535,1.9466248750686646,0.47346216440200806,0.2807101905345917
1772376849205811500,2.3838115234375,-1.1157651936501265,0.22514387644715605,10.528644423878193,1.795240879058838,0.43104779720306396,0.2921459376811981
1772376849215760600,2.3937607421875,-1.0732198911264539,0.2978649753954261,11.612259160029888,1.6278055906295776,0.44547760486602783,0.29612016677856445
1772376849225709600,2.40370947265625,-0.994655692173168,0.47747050498276944,12.46750820814371,1.4583745002746582,0.46850913763046265,0.2864144444465637
1772376849235658800,2.41365869140625,-1.041601860004291,0.7063783370733261,13.219418462336062,1.2912789583206177,0.46615809202194214,0.2373473197221756
1772376849245606700,2.423606689453125,-1.1522948160808533,0.8654711669206618,13.934384595012665,1.1143592596054077,0.436247318983078,0.15763837099075317
1772376849255555600,2.4335556640625,-1.3580612073630094,0.9625551382310688,14.609893162047863,0.9046018123626709,0.3830924928188324,0.031995490193367004
1772376849265504500,2.44350439453125,-1.4925696310520171,0.9985290995404124,15.132593678593635,0.7086722254753113,0.22687970101833344,-0.14072692394256592
1772376849275452700,2.45345263671875,-1.8108090667605399,1.0945460261411963,15.35425606960058,0.508518397808075,-0.019162829965353012,-0.2946416437625885
1772376849285401600,2.463401611328125,-1.1284514375481753,1.9986017752610146,15.512126079654692,0.25752824544906616,-0.35296759009361267,-0.40303775668144226
1772376849295350500,2.4733505859375,-0.600702478506416,2.2703139992028474,15.104286452519892,0.0484466627240181,-0.6543356776237488,-0.46548542380332947
1772376849305299500,2.483299560546875,-0.5160510685939341,2.308207676528394,13.98444772582054,-0.11411482095718384,-0.8840031623840332,-0.49890464544296265
1772376849315247600,2.49324755859375,-0.21594167527258396,2.613548175436258,12.803182762777805,-0.3056347072124481,-1.1103748083114624,-0.47594767808914185
1772376849325196500,2.503196533203125,0.17221936485879122,2.833255340722203,11.643210763132572,-0.5624478459358215,-1.2778475284576416,-0.4111208915710449
1772376849335145700,2.513145751953125,0.28696064647808667,2.6495143918305635,10.035307948982714,-0.8451514840126038,-1.3057457208633423,-0.3267277181148529
1772376849345093400,2.52309326171875,0.17172752622123807,2.2671255784250794,8.20388396421671,-1.1762902736663818,-1.2917742729187012,-0.24834801256656647
1772376849355042800,2.533042724609375,0.10507310690078883,1.8851935688763857,6.220757259854674,-1.5393060445785522,-1.286267876625061,-0.17948932945728302
1772376849364991700,2.54299169921875,0.07511073403116315,1.3534171809494495,3.773378720784187,-1.9030927419662476,-1.3060362339019775,-0.15672118961811066
1772376849374940700,2.552940673828125,-0.22399249618863687,0.6790854026086628,0.6269470729619264,-2.166647434234619,-1.3069283962249756,-0.18743915855884552
1772376849384888600,2.562888671875,-0.587329640583694,0.09516403609849512,-3.136632722863555,-2.2541847229003906,-1.314333438873291,-0.2553696930408478
1772376849394837500,2.57283740234375,-0.7611958958666771,-0.28457784299477934,-7.202648236066103,-2.115126609802246,-1.3203494548797607,-0.34139886498451233
1772376849404786700,2.58278662109375,-0.8114262730002403,-0.6971478596523404,-10.939944420599938,-1.8037378787994385,-1.2876970767974854,-0.4261469841003418
1772376849414734600,2.592734619140625,-0.6302220029793679,-1.0696240585915744,-13.766539134389161,-1.4280385971069336,-1.1920406818389893,-0.4819420874118805
1772376849424683500,2.60268359375,-0.3825836418578401,-1.3409632114373147,-15.267225436401366,-1.1900936365127563,-1.065693736076355,-0.4884082078933716
1772376849434632400,2.612632568359375,-0.33396734885741025,-1.1725257032047955,-15.631539225542545,-1.125622034072876,-0.9640794992446899,-0.5237369537353516
1772376849444581600,2.62258154296875,-0.5690405717099085,-0.7786802607614547,-15.97858857614994,-1.1866419315338135,-0.8459746241569519,-0.5155150294303894
1772376849454529500,2.632529541015625,-0.5830525477863848,-0.4937478687079623,-16.452329539215565,-1.2834055423736572,-0.7097211480140686,-0.48367536067962646
1772376849464478500,2.642478515625,-0.7168086187381297,-0.19320251338845118,-17.060371420699358,-1.2816063165664673,-0.5096718668937683,-0.4616495370864868
1772376849474427600,2.652427734375,-0.9057323040299117,0.012430844364874065,-17.563344323468208,-1.1044880151748657,-0.279376357793808,-0.4435344636440277
1772376849484375600,2.66237548828125,-0.9376979795459658,0.33300186482612043,-17.563026343560217,-0.7032904624938965,-0.024723190814256668,-0.4005885124206543
1772376849494324700,2.67232470703125,-0.9167377552341669,0.6316865225739777,-16.61679412522912,-0.16714341938495636,0.21496422588825226,-0.31743744015693665
1772376849504273700,2.682273681640625,-0.7052087087720632,0.806845521081239,-14.59779355893135,0.40803173184394836,0.3765231966972351,-0.17364731431007385
1772376849514222600,2.69222265625,-0.42792423765584825,0.8743938935667276,-11.839006891477107,0.9623159766197205,0.4280513525009155,0.01328076608479023
1772376849524170800,2.702170654296875,-0.25425745046772064,0.8334063418790697,-8.836089396098256,1.4278255701065063,0.4330596625804901,0.16840273141860962
1772376849534119700,2.71211962890625,-0.7144638822428881,0.45256643841601907,-5.792621863666176,1.8063007593154907,0.36819198727607727,0.1840120404958725
1772376849544068600,2.722068603515625,-1.0980609023943544,0.3053152548687532,-3.0302240199774504,2.1021175384521484,0.32941707968711853,0.16464902460575104
1772376849554016500,2.7320166015625,-0.9563778378356248,0.5965346547698601,-0.108446346193552,2.281134843826294,0.2149599939584732,0.1479419469833374
1772376849563965400,2.74196533203125,-1.0816231239430605,0.8497210784725845,2.4206664732336995,2.382718563079834,0.0837487131357193,0.10718104243278503
1772376849573914600,2.75191455078125,-1.1821363390497863,1.108401825275272,4.366974728286266,2.421511173248291,-0.008427286520600319,0.02966947853565216
1772376849583863600,2.761863525390625,-1.0585350938223301,1.4386907413482666,5.868847025212645,2.433116912841797,-0.03388824686408043,-0.035157881677150726
1772376849593811500,2.7718115234375,-0.6413849097676575,1.805228636279702,7.056794242498278,2.4247310161590576,0.000644163228571415,-0.06423161178827286
1772376849603760400,2.781760498046875,-0.15450480793733148,2.039303495744616,8.11637460758984,2.371126890182495,0.08814863115549088,-0.06940717250108719
1772376849613709600,2.79170947265625,0.25292437523305417,2.177211937135458,9.043457304292916,2.2738254070281982,0.2459680736064911,-0.045478664338588715
1772376849623657700,2.80165771484375,0.4015187900828197,2.3314590805172917,9.802719090291857,2.1180901527404785,0.36393266916275024,-0.018519539386034012
1772376849633606700,2.811606689453125,-0.03131725807730108,2.709130363881588,10.29335916571021,1.975377082824707,0.4984944462776184,-0.08041539788246155
1772376849643555600,2.8215556640625,-0.3241976134605706,2.9811499002069235,10.377709181523322,1.8943603038787842,0.8049623966217041,-0.19675980508327484
1772376849653503700,2.831503662109375,-0.44149223282448946,3.348935457111895,10.723014318811893,1.7845903635025024,1.009552001953125,-0.3081904351711273
1772376849663452700,2.84145263671875,-0.5587227739762515,3.988962668660283,11.253477286052703,1.6395602226257324,1.0408798456192017,-0.4171750247478485
1772376849673401600,2.851401611328125,-0.5672286634497344,4.623089131732285,11.754882501113414,1.3894907236099243,1.0407663583755493,-0.5336273312568665
1772376849683350500,2.8613505859375,-0.24158499763300642,5.077583834797144,12.182027717220782,1.1535860300064087,1.0481253862380981,-0.6077733039855957
1772376849693298700,2.871298583984375,0.6075154464568943,5.310469046086072,12.718421243554353,0.8052733540534973,0.9680757522583008,-0.5800378322601318
1772376849703247600,2.88124755859375,1.8968691013619303,5.219695134705304,13.276463122594356,0.2666058838367462,0.6753391623497009,-0.45463457703590393
1772376849713196500,2.891196533203125,2.414912439751625,5.2486780680835246,12.843013253384829,-0.30547279119491577,0.5560010671615601,-0.2852383553981781
1772376849723144400,2.90114453125,2.2133928191937504,5.1437657412350175,11.795442475038767,-0.8800032138824463,0.5073578953742981,-0.05716294050216675
1772376849733093400,2.91109326171875,2.1266820655986667,4.34368299228698,10.390554634571075,-1.4387396574020386,0.39971742033958435,0.17863361537456512
1772376849743042800,2.921042724609375,1.9968384188503026,3.13392843234092,8.827496924319863,-1.9462039470672607,0.4294480085372925,0.37393906712532043
1772376849752991700,2.93099169921875,1.4421727382451295,2.0354741467148063,7.256115037837624,-2.4185845851898193,0.41067034006118774,0.4689111113548279
1772376849762939600,2.940939697265625,0.7746037320375442,0.9812558931782841,5.326921583715081,-2.7362985610961914,0.6953028440475464,0.5113911628723145
1772376849772888600,2.950888671875,2.4575454205587506,-0.42919016593843695,-0.6410632765978574,-2.705641746520996,0.3360144793987274,0.5005578994750977
1772376849782837500,2.96083740234375,0.5879563941799104,-1.76973208322376,-2.2670406766206024,-2.27652907371521,0.11957162618637085,0.36221545934677124
1772376849792785700,2.97078564453125,1.343101684770733,-2.142133755622059,-5.612562233635783,-1.6329139471054077,-0.41761964559555054,0.31746208667755127
1772376849802734600,2.980734619140625,1.4861460277453065,-2.3632868819326163,-7.967602096226811,-0.9211034774780273,-1.0879645347595215,0.31882330775260925
1772376849812683500,2.99068359375,1.646343311703205,-2.829585712298751,-9.197757054644823,-0.3232842981815338,-1.6635546684265137,0.3288104236125946
1772376849822632400,3.000632568359375,1.2220578689411281,-3.6877298973321913,-9.571613748157024,-0.06777528673410416,-2.236257791519165,0.25563138723373413
1772376849832580600,3.01058056640625,-0.15699404920348897,-3.971106986235082,-9.2253482414037,-0.2687440812587738,-2.7225894927978516,0.00989991333335638
1772376849842529500,3.020529541015625,-2.124335940863937,-3.511338142159581,-9.00141498285532,-0.8768401741981506,-3.0557515621185303,-0.3733637034893036
1772376849852478500,3.030478515625,-3.9734091256976125,-2.6272119591295717,-9.613971126893162,-1.7498313188552856,-3.174351215362549,-0.7388561964035034
1772376849862426600,3.040426513671875,-4.579309318977594,-2.0429427290298046,-11.387816782915591,-2.646929979324341,-2.973717451095581,-0.9939885139465332
1772376849872375600,3.05037548828125,-4.82373503819555,-1.1101293797202407,-14.388234278172254,-3.2622463703155518,-2.4072768688201904,-1.2063223123550415
1772376849882324700,3.06032470703125,-4.742851529449224,0.186705278589949,-16.976238847029208,-3.5237913131713867,-1.5528817176818848,-1.3470076322555542
1772376849892273700,3.070273681640625,-4.291721626642346,1.6044142413817346,-18.07856997408867,-3.225628614425659,-0.5634164810180664,-1.3682060241699219
1772376849902221600,3.0802216796875,-3.4411960999190807,2.2834037824004887,-18.006043667060137,-2.5828216075897217,0.2883777916431427,-1.1518385410308838
1772376849912170800,3.090170654296875,-2.2800170625716447,2.8765912091016768,-15.971581327736377,-1.8325122594833374,1.0837428569793701,-0.6314920783042908
1772376849922119700,3.10011962890625,-0.9273470467276871,2.9331019086137413,-13.40558751515746,-0.9281803369522095,1.7739931344985962,0.06527149677276611
1772376849932067600,3.110067626953125,-0.05301284745894372,2.364416324353963,-10.89957967698574,0.07268621772527695,2.25022292137146,0.7436332106590271
1772376849942016500,3.1200166015625,-0.2300973341360688,1.6925196642056106,-7.893641372480988,0.9663357734680176,2.5430352687835693,1.1996690034866333
1772376849951965700,3.129965576171875,-0.8388642419587821,1.1313771888017654,-4.237396746736764,1.591459035873413,2.6306400299072266,1.3510286808013916
1772376849961914600,3.13991455078125,-1.3615858743578195,0.6161813487976789,-0.310870368245244,1.968294382095337,2.4763405323028564,1.2555961608886719
1772376849971862500,3.149862548828125,-1.8602920595929024,0.14685738932355305,3.0726509568184612,2.1920664310455322,2.1305103302001953,1.08343505859375
1772376849981811500,3.1598115234375,-1.9697692101389168,-0.1243412499397993,5.809547279503941,2.3249740600585938,1.680678367614746,0.9237017631530762
1772376849991760400,3.169760498046875,-1.7561850577779112,-0.06775726599581539,7.9131024442762135,2.3718485832214355,1.3100528717041016,0.7791967988014221
1772376850001708500,3.17970849609375,-1.6937940680555998,-0.030016295013949274,9.533628593155742,2.335667848587036,0.991125226020813,0.6433459520339966
1772376850011657500,3.189657470703125,-1.4506591193005443,-0.03932144510634243,10.723902792084216,2.225945234298706,0.7891913056373596,0.5553236603736877
1772376850021606700,3.199606689453125,-0.946829891963303,0.21575397068075836,11.827006657081842,2.0659408569335938,0.7714210152626038,0.5458899140357971
1772376850031555600,3.2095556640625,-0.8105845614790916,0.9498965860575437,12.74334408788681,1.8988513946533203,0.8250938057899475,0.5767282247543335
1772376850041503700,3.219503662109375,-0.9970638492934405,1.4989713147878645,13.74833712274432,1.5574523210525513,0.8082236647605896,0.5930368304252625
1772376850051452700,3.22945263671875,-1.148073179797828,1.2531003651976584,14.697940863335132,1.1714524030685425,0.8651426434516907,0.4959488809108734
1772376850061401600,3.239401611328125,-1.6027552221283317,0.9855265562348067,14.801314728569984,0.8186999559402466,0.8242560029029846,0.29508155584335327
1772376850071350500,3.2493505859375,-1.442479612237215,0.6415402464598416,14.933096357643603,0.48968905210494995,0.5990524888038635,0.07467193156480789
1772376850081299500,3.259299560546875,-1.0676675176963208,0.8783036143563687,14.791471379947662,0.2427721917629242,0.19199931621551514,-0.09218428283929825
1772376850091248600,3.26924853515625,-0.6989828930597752,1.3857016400910913,14.050404006808995,0.0780562162399292,-0.2752554714679718,-0.1752900779247284
1772376850101196500,3.279196533203125,-0.2795216555837542,1.5299394306339322,12.90046824800968,-0.04210507497191429,-0.6896262168884277,-0.19034123420715332
1772376850111145500,3.2891455078125,-0.11861695400886237,1.458170663974434,11.785347782003878,-0.1940019279718399,-1.0753147602081299,-0.19593706727027893
1772376850121094400,3.299094482421875,-0.220853303113766,1.3448244169101118,10.707190142214298,-0.43250158429145813,-1.4393523931503296,-0.21068891882896423
1772376850131043300,3.309043212890625,-0.48793969388585534,1.2377182332791388,9.498481876450777,-0.7706932425498962,-1.7875354290008545,-0.2434292882680893
1772376850140991500,3.318991455078125,-0.7435645237166434,1.0532444400683045,7.8058736571788785,-1.1848464012145996,-2.0812597274780273,-0.3032856583595276
1772376850150940400,3.3289404296875,-0.34130554625838994,0.8843268201686442,5.133237917479873,-1.479357123374939,-1.861104130744934,-0.24319808185100555
1772376850160889600,3.3388896484375,0.6418683824356645,0.6037446226812899,0.14480302321016789,-1.6244882345199585,-1.7191691398620605,-0.19537238776683807
1772376850170837500,3.34883740234375,-0.1480712677584961,-0.3620593612778932,-2.562809337323904,-1.6221654415130615,-1.6529123783111572,-0.05887259170413017
1772376850180786700,3.35878662109375,0.5643891291748732,-1.3712711098089814,-6.531178715288639,-1.3917242288589478,-1.3210790157318115,0.033245351165533066
1772376850190735600,3.368735595703125,-0.051456119536235925,-1.620908426195383,-9.430259988617896,-1.0960332155227661,-1.0018850564956665,0.028842613101005554
1772376850200684500,3.3786845703125,-0.38673893490638583,-1.4184281439118087,-11.36961710935831,-0.8416131734848022,-0.7821201086044312,-0.02393089048564434
1772376850210632400,3.388632568359375,-0.6554928570318966,-1.4102891149893402,-12.712469641673565,-0.6535785794258118,-0.5884774327278137,-0.09470199793577194
1772376850220581600,3.39858154296875,-0.546034630382061,-1.6274200000464916,-13.500767552542685,-0.5517305135726929,-0.46947136521339417,-0.16689960658550262
1772376850230530600,3.408530517578125,-0.14639394566342234,-2.018766757541895,-13.696551990449429,-0.5658860206604004,-0.48886770009994507,-0.25309839844703674
1772376850240478500,3.418478515625,0.07550196183845401,-2.1858312969207763,-13.599659303927421,-0.7235968112945557,-0.6116480827331543,-0.35654416680336
1772376850250427400,3.428427490234375,-0.029460853088274598,-1.848796413718909,-13.674529543733597,-0.9827455282211304,-0.7300530672073364,-0.4674379229545593
1772376850260376600,3.43837646484375,-0.4332200059764087,-0.9030976446773856,-14.257667285585402,-1.221781849861145,-0.6911117434501648,-0.5611197352409363
1772376850270325500,3.448325439453125,-0.8398927082236856,0.2264511596534401,-15.249424406772851,-1.3252837657928467,-0.37382543087005615,-0.5816588401794434
1772376850280273400,3.4582734375,-0.827228091635555,1.2636550769597292,-15.923540642666815,-1.2033932209014893,0.13491438329219818,-0.47129014134407043
1772376850290222300,3.468222412109375,-0.528077387278527,1.8763503372073171,-15.856332315790652,-0.848646879196167,0.6907733082771301,-0.210505411028862
1772376850300171500,3.478171630859375,0.025161694589629767,2.10141464561224,-14.709455944561958,-0.32981249690055847,1.1268417835235596,0.1722419559955597
1772376850310119700,3.48811962890625,0.39973669243901966,1.844431058116257,-12.540754646140336,0.2269226610660553,1.4380888938903809,0.542176365852356
1772376850320068600,3.498068603515625,0.2667120775669813,1.2126392485368995,-9.711156074360012,0.7098608016967773,1.641318678855896,0.7968537211418152
1772376850330017500,3.508017578125,-0.25347879424542186,0.6003166209939866,-6.479456711357831,1.0868717432022095,1.7344722747802734,0.913420557975769
1772376850339965700,3.517965576171875,-0.8196150593485683,0.28887305597066876,-3.120561878028512,1.357082724571228,1.662660002708435,0.9390774965286255
1772376850349914600,3.52791455078125,-1.1811676401481033,0.23828191923331468,-0.0022509937971830368,1.5459251403808594,1.440678596496582,0.9187676906585693
1772376850359863600,3.537863525390625,-1.4614070155471564,0.27010478874519467,2.5894459998369217,1.6757099628448486,1.092089295387268,0.8607744574546814
1772376850369812500,3.5478125,-1.6869440560303628,0.3962307301446795,4.726918047258257,1.7667559385299683,0.6863582730293274,0.7581647038459778
1772376850379760400,3.557760498046875,-1.7656173413813112,0.6534467381570488,6.424478335979581,1.8288191556930542,0.32529157400131226,0.6118732690811157
1772376850389709600,3.56770947265625,-1.8129774968408048,0.9063213559642433,7.591513113617896,1.854565978050232,0.055267009884119034,0.44401347637176514
1772376850399658500,3.577658447265625,-1.5538599660560488,1.2487079754576087,8.457609134438634,1.8549854755401611,-0.06889563053846359,0.3138611316680908
1772376850409606400,3.5876064453125,-0.4723459650432691,1.6891371821604668,8.804608800685406,1.9035942554473877,-0.06328941136598587,0.2653564512729645
1772376850419555300,3.597555419921875,-0.29995317984633146,1.9645032524347303,8.988725012630224,1.9591611623764038,-0.029981812462210655,0.21327078342437744
1772376850429504500,3.60750439453125,-0.24668175451643765,2.1249068726196882,9.425126132860779,2.022911310195923,-0.04919039458036423,0.157789945602417
1772376850439453700,3.61745361328125,0.027729188723769036,2.3591443753004073,9.905282223665713,2.0662055015563965,-0.10967432707548141,0.12490811944007874
1772376850449401600,3.627401611328125,0.4662514110278338,2.724113413479924,10.401833568954467,2.1118199825286865,-0.16771765053272247,0.09420719742774963
1772376850459350500,3.6373505859375,0.9252983705695718,3.067166387927532,10.87175175886154,2.112088680267334,-0.25881949067115784,0.10829909145832062
1772376850469299500,3.647299560546875,1.4653699278287589,3.534744152188301,11.381015286207198,1.9715386629104614,-0.2830963134765625,0.18468226492404938
1772376850479247600,3.65724755859375,1.9496609264813363,4.0662297404751175,12.079350602078437,1.693537950515747,-0.17088614404201508,0.31570693850517273
1772376850489196500,3.667196533203125,2.3026319222226737,4.23489645435363,12.619483899462223,1.3082022666931152,0.04428182169795036,0.5154789090156555
1772376850499145500,3.6771455078125,2.473423080909252,4.180527443045378,13.272605278122425,0.8081448078155518,0.31499868631362915,0.7440260648727417
1772376850509094400,3.687094482421875,2.2952622702375054,3.8400650696128604,13.843086952018737,0.14325545728206635,0.5289468765258789,0.9524112343788147
1772376850519042600,3.69704248046875,1.8759788735464213,3.198704855895042,14.097442821359634,-0.6803708076477051,0.6525436639785767,1.1061168909072876
1772376850528991500,3.706991455078125,0.8209012267015874,2.46263719073981,13.55644793871045,-1.5472885370254517,0.7825799584388733,1.1074223518371582
1772376850538940400,3.7169404296875,-0.42293936191536485,1.7656041896387933,12.230982594525813,-2.3938233852386475,0.9362677335739136,0.9374307990074158
1772376850548888300,3.726888427734375,-1.5864501301459968,1.0051125695839525,10.377941821235417,-3.186826705932617,1.0863494873046875,0.6385865807533264
1772376850558837500,3.73683740234375,-2.5948344148769973,0.3300701587557792,8.039722160542011,-3.901578664779663,1.119131088256836,0.22916223108768463
1772376850568786700,3.74678662109375,-3.4608737370744347,-0.23669717079252003,5.089530293178558,-4.458987712860107,0.8122268915176392,-0.29079440236091614
1772376850578734300,3.756734375,-3.509648289376497,-0.6710398971885443,0.3375105378895998,-4.255509376525879,-0.5549357533454895,-0.6323589086532593
1772376850588683500,3.76668359375,0.38890078911539167,-1.8072779700249433,-13.128183947706221,-2.9415407180786133,-1.2583199739456177,-0.7450955510139465
1772376850598632400,3.776632568359375,-0.5792078550569713,-2.728014512571692,-15.330921955764293,-1.3383947610855103,-1.0535235404968262,-0.5002449154853821
1772376850608581600,3.78658154296875,0.7270229926299303,-1.1885960365831851,-16.466797625029088,-0.467630535364151,-0.9329982399940491,-0.4227903485298157
1772376850618529500,3.796529541015625,-0.5320694525893778,0.6715790455665439,-14.12100606777668,-0.21693548560142517,-0.7699461579322815,-0.4303986430168152
1772376850628478500,3.806478515625,-0.7383660782907158,0.758748721910268,-12.448742717397213,-0.3363516330718994,-0.5832380652427673,-0.41403430700302124
1772376850638427400,3.816427490234375,-0.25074816370513286,-0.0456333316668868,-12.136187172544002,-0.6703375577926636,-0.31708386540412903,-0.3866954743862152
1772376850648375600,3.82637548828125,-0.17055387933198363,-0.24375249613150954,-12.84023092918992,-0.9567315578460693,-0.10027701407670975,-0.3984610438346863
1772376850658324500,3.836324462890625,-0.4638158179113641,0.16589341324027626,-14.249593869245052,-1.1040467023849487,0.11135280877351761,-0.43692484498023987
1772376850668273400,3.8462734375,-0.6517750786177814,0.6206789524778723,-15.563839900279044,-1.0947836637496948,0.3782380223274231,-0.4453364312648773
1772376850678222300,3.856222412109375,-0.47745359038058666,1.259221332295984,-16.02983594830632,-0.9469598531723022,0.6461895704269409,-0.3953458070755005
1772376850688170500,3.86617041015625,-0.07325547068645245,1.8565185324035585,-15.75303560744524,-0.6545019149780273,0.8550564646720886,-0.24391312897205353
1772376850698119400,3.876119384765625,0.4137689441185444,2.1303480407603086,-14.816561397540568,-0.22326847910881042,0.9291311502456665,-0.01388373039662838
1772376850708068600,3.886068603515625,0.6344893050350249,1.9025583990447221,-13.116837208783625,0.23976415395736694,0.9448933601379395,0.23685981333255768
1772376850718016500,3.8960166015625,0.4579727544389665,1.2637328183710574,-10.73342699175477,0.6398327350616455,1.0081093311309814,0.44083714485168457
1772376850727965700,3.905965576171875,-0.07964625856895,0.6460253559846431,-7.905625824785232,0.9262333512306213,1.1335722208023071,0.5741102695465088
1772376850737914600,3.91591455078125,-0.7090737136371433,0.15036854838281868,-4.909784551402926,1.1166731119155884,1.2617924213409424,0.6368175745010376
1772376850747863600,3.925863525390625,-1.181627147418633,-0.22094028727747497,-2.039130331134796,1.2482566833496094,1.2748397588729858,0.6265854239463806
1772376850757811500,3.9358115234375,-1.4088307328745722,-0.516640887713246,0.6236380945444107,1.3543779850006104,1.0874613523483276,0.5573931336402893
1772376850767760600,3.9457607421875,-1.3452034793555736,-0.7510043183285743,2.958509029331803,1.450105905532837,0.7239051461219788,0.44855424761772156
1772376850777709600,3.95570947265625,-1.1238968429837375,-0.8070751651186495,4.8947079783022405,1.5078895092010498,0.3232657015323639,0.33892014622688293
1772376850787657500,3.965657470703125,-0.8387394465353339,-0.541187847938016,6.382035032525658,1.5420401096343994,0.021689344197511673,0.27062949538230896
1772376850797606400,3.9756064453125,-0.7171162964478135,-0.026096418156474826,7.503444369542598,1.5475972890853882,-0.1467319130897522,0.238668754696846
1772376850807555300,3.985555419921875,-0.5085788330171257,0.37898309661522506,8.438706865569948,1.5118606090545654,-0.2003813087940216,0.24436205625534058
1772376850817503500,3.99550341796875,-0.4869155019372701,0.5252426022440195,8.420712359195948,1.4892053604125977,-0.17660297453403473,0.23905020952224731
1772376850827452400,4.005452392578125,-0.2761350818853825,0.7767211625829339,9.08310133241713,1.4723222255706787,-0.17923711240291595,0.2210616171360016
1772376850837400300,4.015400390625,-0.5525148592468351,0.8022356891982257,9.22539967932999,1.471100926399231,-0.15587270259857178,0.2754119336605072
1772376850847349500,4.025349609375,0.21314079250767826,0.7323787475094199,9.65644073383212,1.4586585760116577,-0.11334149539470673,0.36396631598472595
1772376850857298700,4.035298583984375,0.7434213889189064,0.8697953137300908,10.223400078821182,1.3943909406661987,-0.1262471228837967,0.44057732820510864
1772376850867246600,4.04524658203125,0.860871856431663,1.1400092619381845,10.832172612667083,1.251517415046692,-0.20351874828338623,0.458139032125473
1772376850877195500,4.055195556640625,0.6224400438662618,1.5304704687707125,11.500533646035194,1.018912672996521,-0.2749706506729126,0.4277953505516052
1772376850887144400,4.06514453125,0.24375680698044597,1.897080406025052,12.075560562145709,0.674763560295105,-0.3020179867744446,0.374752402305603
1772376850897092600,4.075092529296875,-0.045402810846641654,2.122176717003435,12.571004822975397,0.24386142194271088,-0.23148700594902039,0.2840743958950043
1772376850907041500,4.08504150390625,-0.41655981694608923,2.225253645118326,12.842899856138228,-0.2381262481212616,-0.1376928687095642,0.17193134129047394
1772376850916990500,4.094990478515625,-0.7147403610967099,2.2350432177267967,12.816570652139186,-0.76779705286026,-0.11012735217809677,0.048952616751194
1772376850926939400,4.104939453125,-0.8556323483429848,2.1070031132690605,12.54449792432189,-1.2975341081619263,-0.1288946568965912,-0.08560997992753983
1772376850936887600,4.114887451171875,-0.8413336277469993,1.9249039402350783,11.938091535085439,-1.794776439666748,-0.20387038588523865,-0.21577242016792297
1772376850946836500,4.12483642578125,-0.7202854280032217,1.7417529200606048,10.947778182965516,-2.260908603668213,-0.37799692153930664,-0.3423932194709778
1772376850956785400,4.134785400390625,-0.5463886679841206,1.4938333673775195,9.689304892557859,-2.6670186519622803,-0.6338467597961426,-0.5014376044273376
1772376850966733600,4.144733642578125,-0.5973406373905018,1.2180522865615784,8.068989756080509,-2.972292184829712,-1.0844078063964844,-0.6981285214424133
1772376850976682500,4.1546826171875,-0.8125619990319013,0.8036478210184723,5.833119878271222,-2.997812509536743,-2.0249814987182617,-0.9031592607498169
1772376850986631400,4.16463134765625,-0.6891049115154891,0.16741211070753634,2.3546412186622616,-2.3583598136901855,-2.6302454471588135,-0.9974859952926636
1772376850996580600,4.17458056640625,0.19393866390958428,-0.6946595499679445,-3.7818501965314146,-1.3655216693878174,-2.5405919551849365,-0.842546820640564
1772376851006528500,4.184528564453125,1.3456525382973252,-1.6402271669104693,-9.995969625806808,-0.9379432201385498,-2.6717753410339355,-0.6856288313865662
1772376851016477700,4.194477783203125,2.5971710411310194,-1.594401673672348,-11.514596073657273,-0.5784055590629578,-2.443826675415039,-0.6154085993766785
1772376851026426600,4.204426513671875,1.1491956079564989,-0.523640573874861,-10.503124198174476,-0.5074485540390015,-2.1763031482696533,-0.48224762082099915
1772376851036374500,4.21437451171875,0.6293304609671234,-0.14839301052615045,-11.779703638637065,-0.6797870397567749,-1.8087176084518433,-0.33358320593833923
1772376851046323500,4.224323486328125,0.10952230486199259,-0.5736589156929404,-12.073318336176872,-1.0248701572418213,-1.436129093170166,-0.2917361557483673
1772376851056272400,4.2342724609375,-0.6005449498571455,-0.8869277233820408,-12.672051122045517,-1.5559803247451782,-1.3009110689163208,-0.32179561257362366
1772376851066220500,4.244220458984375,-1.5575545827902852,-0.8401536972474306,-13.325492818701267,-2.0048065185546875,-1.0849214792251587,-0.4188675880432129
1772376851076169200,4.254169189453125,-2.179836878811568,-0.43755098438542334,-13.961611624634266,-2.2924373149871826,-0.7173894643783569,-0.47636017203330994
1772376851086118100,4.2641181640625,-2.665098914453387,0.37479024803526695,-14.864298131227493,-2.376932144165039,-0.19682912528514862,-0.47027647495269775
1772376851096067000,4.274067138671875,-2.769492478124797,1.3131469837509095,-15.03698226405382,-2.2484593391418457,0.3941865861415863,-0.4194696843624115
1772376851106015200,4.28401513671875,-2.7639769295737144,2.23190857296288,-14.55538065061569,-2.0131289958953857,0.913078784942627,-0.3085192143917084
1772376851115964200,4.293964111328125,-2.591440973046422,2.742232423016429,-13.388617675656079,-1.6324926614761353,1.3212263584136963,-0.03570660948753357
1772376851125913000,4.3039130859375,-1.9639450340300797,2.6416768300727007,-11.63619883854389,-1.1179214715957642,1.6512022018432617,0.26681914925575256
1772376851135861200,4.313861328125,-1.2545730680987237,2.151272463106364,-9.762162038975953,-0.5096304416656494,1.9166597127914429,0.5017359852790833
1772376851145810200,4.32381005859375,-0.9383118005953729,1.6388228530704974,-7.925835084599256,0.08755811303853989,2.0531222820281982,0.6589231491088867
1772376851155759400,4.33375927734375,-0.9523279779229312,0.9584051789447665,-5.950684765943884,0.4783008396625519,2.0858383178710938,0.7100119590759277
1772376851165708300,4.343708251953125,-1.0079197359591723,0.21178104846179485,-3.303080007126927,0.6609057784080505,2.0880842208862305,0.6361987590789795
1772376851175656200,4.35365625,-1.0987798643186688,-0.16053243419639765,-0.39878947471678255,0.7086083292961121,2.082648515701294,0.4518209993839264
1772376851185607200,4.363607177734375,-1.1668008958172051,-0.7555157313384115,4.031446888646483,0.7149717211723328,2.0141360759735107,0.26353392004966736
1772376851195555300,4.373555419921875,-0.9460127303615212,-0.7629817563701421,5.552630035242438,0.7573425769805908,1.8735710382461548,0.07466979324817657
1772376851205504300,4.383504150390625,-0.9707043232213706,-1.0121872572105377,6.626308483791351,0.8739064931869507,1.6749842166900635,-0.06566228717565536
1772376851215453200,4.393453125,-0.5552239355424419,-0.6908928909108042,7.436144272729754,1.0195139646530151,1.3599820137023926,-0.12034852057695389
1772376851225402000,4.403402099609375,-0.12563322597909718,-0.4225583267085254,8.299639171141386,1.1832464933395386,1.0429552793502808,-0.11276889592409134
1772376851235350000,4.41335009765625,0.22889044256433844,-0.18721454328633844,8.891327883717418,1.3696544170379639,0.6963704228401184,-0.026453956961631775
1772376851245299200,4.42329931640625,0.5488014647468924,0.0638788901925087,9.343793419042228,1.5612547397613525,0.3356556296348572,0.07565031200647354
1772376851255248400,4.433248291015625,0.6534544830720871,0.08205616925489156,9.636548284882306,1.718422770500183,0.02343827486038208,0.13505469262599945
1772376851265196300,4.4431962890625,0.6062125471647829,-0.00824809705382213,9.8128050154984,1.839388132095337,-0.20501621067523956,0.13408289849758148
1772376851275145200,4.453145263671875,0.41096199693903324,-0.0009040772668318822,9.881026903331279,1.9092832803726196,-0.32969439029693604,0.08938252925872803
1772376851285094100,4.46309423828125,0.012691358464583753,0.33967743359990415,9.93345150257349,1.9268561601638794,-0.3165804445743561,0.025285571813583374
1772376851295043300,4.473043212890625,-0.4078299825236201,0.9526211887158453,10.033057539707421,1.8744148015975952,-0.27209270000457764,-0.03597642481327057
1772376851304991200,4.4829912109375,-0.6163198804855347,1.5293139922119676,10.256904873538017,1.7370069026947021,-0.3035837709903717,-0.08761724829673767
1772376851314940200,4.492940185546875,-0.6020418738840148,1.9139242810592054,10.479793591469525,1.5120723247528076,-0.4389670789241791,-0.09964457154273987
1772376851324889000,4.50288916015625,-0.45644726190473883,2.016098561245948,10.53513729302883,1.1519184112548828,-0.5915171504020691,-0.06850636005401611
1772376851334837200,4.512837158203125,-0.30732129746153947,1.8067350953198968,10.276308662188052,0.627324104309082,-0.6171873211860657,-0.03294920176267624
1772376851344786200,4.5227861328125,-0.3054998541880399,1.427042973652482,9.668388361257314,-0.09303110092878342,-0.496728777885437,0.007740437518805265
1772376851354735000,4.532735107421875,-0.5373162672016769,1.083312830595672,8.738052215716243,-0.9309569001197815,-0.2749083638191223,0.005154737271368504
1772376851364683300,4.542683349609375,0.24194285289365797,0.5440544894155115,4.815493571811914,-1.4514544010162354,-0.08896645903587341,0.03970472514629364
1772376851374632200,4.552632080078125,-0.13298461165521294,-0.61375711732544,0.11315116288363933,-1.5062450170516968,-0.18853284418582916,0.06243367865681648
1772376851384581400,4.562581298828125,-0.30378293073493984,-1.0533924702368676,-3.6177193725168704,-1.029921293258667,-0.19136270880699158,0.15796872973442078
1772376851394530300,4.5725302734375,0.15201547533962875,-1.0854952892012895,-6.483610908427834,-0.4665708839893341,-0.38241708278656006,0.2227342277765274
1772376851404478200,4.582478271484375,-0.18048994773905724,-0.8306557279966771,-8.029958306896686,-0.05739428475499153,-0.7098846435546875,0.13213509321212769
1772376851414427400,4.592427490234375,-0.5521779189100489,-0.6704040835030377,-8.97698138334453,0.19803908467292786,-0.9981344938278198,-0.07194510847330093
1772376851424376300,4.602376220703125,-0.6230406401079148,-1.0227886576585472,-9.84471406545639,0.3233027160167694,-1.1784945726394653,-0.26375532150268555
1772376851434324200,4.61232421875,-0.38991873398628085,-1.5515464284166693,-10.454745659452676,0.3281712532043457,-1.1860929727554321,-0.40614911913871765
1772376851444273200,4.622273193359375,-0.10323874934678896,-1.8573535219229758,-10.804574996167421,0.2138470709323883,-1.0747346878051758,-0.5018335580825806
1772376851454222000,4.63222216796875,0.024441910681407896,-1.851859746812284,-10.67603980166912,-0.045085154473781586,-0.9354214072227478,-0.5540567636489868
1772376851464170200,4.642170166015625,-0.333950288124755,-1.338120096965879,-10.08748120381236,-0.48540741205215454,-0.8503783941268921,-0.5745532512664795
1772376851474119200,4.652119140625,-1.204300532323867,-0.32138047368060796,-9.575709493038058,-1.0741145610809326,-0.7693756222724915,-0.6054864525794983
1772376851484068000,4.662068115234375,-1.940079151404649,0.8189215971916913,-9.72947499038279,-1.6464577913284302,-0.5505713820457458,-0.6478980779647827
1772376851494017000,4.67201708984375,-2.0813775274947286,1.7295881427533923,-10.620319668012856,-1.9413666725158691,-0.15133877098560333,-0.6311144828796387
1772376851503965200,4.681965087890625,-1.6119643645003436,2.03987822689265,-11.710441301840543,-1.840277075767517,0.3220828175544739,-0.44326335191726685
1772376851513914000,4.6919140625,-0.755138130197674,1.927261609277129,-11.679073519152402,-1.4862478971481323,0.774408221244812,-0.09055083990097046
1772376851523863300,4.70186328125,-0.14951923807710407,1.834322628816962,-10.064452210402488,-0.9655721783638,1.208156943321228,0.2520083785057068
1772376851533811500,4.7118115234375,0.047217166792228815,1.6283803695112467,-7.721108046302199,-0.42084360122680664,1.4220422506332397,0.5406255125999451
1772376851543760400,4.721760498046875,0.32607433058526364,0.8642265736870467,-4.6789808225631715,-0.04950999468564987,1.4578913450241089,0.7730203866958618
1772376851553709300,4.731709228515625,0.3233035872302949,0.16081987283565102,-1.4604028069406747,0.1264067143201828,1.405613899230957,0.8780703544616699
1772376851563658200,4.741658203125,0.0068391070387326175,-0.24050682874117046,1.3564526031225919,0.17755776643753052,1.2208806276321411,0.8777673244476318
1772376851573606100,4.751606201171875,-0.3448461049420759,-0.6270322670273483,3.5979128482848406,0.1482856422662735,0.9855903387069702,0.7958779335021973
1772376851583555300,4.761555419921875,-0.9061856007553637,-1.2678868693105876,5.1361061663925645,0.05082859471440315,0.8938915729522705,0.6471582651138306
1772376851593504300,4.771504150390625,-0.8909536178972571,-1.138702855514735,6.207389244237541,0.021276026964187622,0.7906668782234192,0.595315158367157
1772376851603452200,4.7814521484375,-0.6525470859035849,-0.8947109976693988,6.907924115979671,0.05173540115356445,0.6640447974205017,0.5732173323631287
1772376851613401000,4.791401123046875,-0.6632583034016192,-1.0548490987859667,7.430542799460888,0.0988355278968811,0.5584259629249573,0.5986918807029724
1772376851623350000,4.80135009765625,-0.8047251679264008,-1.2547985474176704,7.7466580826222895,0.18615978956222534,0.47945156693458557,0.5777876973152161
1772376851633298200,4.811298095703125,-0.8024630682133138,-1.5491687394998968,7.993473035064339,0.2949933111667633,0.37592557072639465,0.5001985430717468
1772376851643247000,4.8212470703125,-0.7671294506341219,-1.7062191037341952,8.20843329808414,0.4191480278968811,0.24147775769233704,0.3828652799129486
1772376851653196300,4.8311962890625,-0.7648924853622913,-1.6817644614353775,8.31990220696926,0.5564206838607788,0.13424713909626007,0.26675519347190857
1772376851663145200,4.841145263671875,-0.622437340452522,-1.1649839095231145,8.431031508636474,0.6821775436401367,0.1050327941775322,0.22934415936470032
1772376851673093400,4.85109326171875,-0.29640798152014614,-0.8403574761912226,8.604912157770991,0.7826199531555176,0.11766134202480316,0.241996631026268
1772376851683042300,4.861042236328125,-0.2721856136072427,-0.7326596102774143,8.87000394065976,0.8518163561820984,0.16273294389247894,0.2996889650821686
1772376851692991200,4.8709912109375,-0.3609786533690989,-0.5049752190345898,9.138988054811954,0.9027674198150635,0.19046223163604736,0.36913812160491943
1772376851702939400,4.880939453125,-0.3406480321977287,-0.30568845382900905,9.318923766201735,0.9286328554153442,0.2026808112859726,0.41468214988708496
1772376851712888300,4.890888427734375,-0.31276984519101675,-0.21100524178370833,9.496446571230887,0.9065925478935242,0.16392163932323456,0.444854199886322
1772376851722837200,4.900837158203125,-0.2889306313768029,-0.13094693181514738,9.61042950876355,0.8692166805267334,0.11264487355947495,0.45796895027160645
1772376851732786200,4.9107861328125,-0.38086160383820533,-0.0420330786852166,9.563555529385805,0.7966532111167908,0.07202043384313583,0.46466830372810364
1772376851742734000,4.920734130859375,-0.531976002152264,-0.047539055690355596,9.335694868260621,0.6655833721160889,0.060230351984500885,0.48623138666152954
1772376851752683300,4.930683349609375,-0.706194285743311,-0.06632321460470557,8.883836651179195,0.4912094473838806,0.10167475044727325,0.49994754791259766
1772376851762632200,4.940632080078125,-1.2419792517244814,-0.0959342167533934,8.153913187867403,0.1949322372674942,0.035256050527095795,0.4926299750804901
1772376851772580000,4.950580078125,-1.7656278627753257,-0.41906646600477393,6.910218948918581,-0.3356592059135437,-0.5445330739021301,0.5239166021347046
1772376851782529000,4.960529052734375,-1.7659889511726796,-0.5307112794460729,5.154758259892463,-0.9703554511070251,-1.2051008939743042,0.5510664582252502
1772376851792478200,4.970478271484375,-1.7946026128470896,-0.20972667321525512,2.776497680711746,-1.4243594408035278,-1.4544676542282104,0.4479735791683197
1772376851802426000,4.980426025390625,-0.5873049445338547,-0.2357902485480532,-3.767006263142824,-1.2211240530014038,-0.7848777770996094,0.26309800148010254
1772376851812375300,4.990375244140625,-0.9072798987980931,-0.5708513109263033,-8.096319661554693,-0.7237352728843689,-0.5663482546806335,-0.12477140128612518
1772376851822324200,5.00032421875,-0.4716286470867693,0.2742314036885276,-11.588808141815662,-0.041473906487226486,-0.4815795421600342,-0.33933109045028687
1772376851832273200,5.010273193359375,0.5910605342077091,1.14581071475856,-12.503587237262725,0.4290059804916382,-0.42324143648147583,-0.22345755994319916
1772376851842221300,5.02022119140625,1.6810804246939717,1.700672575522959,-10.828305415844916,0.4603143632411957,-0.48300623893737793,0.011475855484604836
1772376851852170200,5.030170166015625,2.209144367969036,1.6990489198438823,-9.058862963217496,0.12859955430030823,-0.5948289036750793,0.14703543484210968
1772376851862119200,5.040119140625,1.9069554649598894,0.6760024149667472,-8.383233984673023,-0.4063626527786255,-0.717018723487854,0.09407156705856323
1772376851872067300,5.0500673828125,0.8104406960289925,-0.010436985400225966,-8.705392055130005,-1.0473636388778687,-0.7888367772102356,-0.11959365010261536
1772376851882016300,5.060016357421875,-0.5645998493161052,0.29057702861065043,-9.91640684427023,-1.6570065021514893,-0.6436193585395813,-0.40575191378593445
1772376851891965200,5.069965087890625,-1.4037914235331117,1.201562266466394,-11.74743101606369,-2.0947582721710205,-0.3455379009246826,-0.6489962935447693
1772376851901913000,5.0799130859375,-1.515568083193153,2.4205219501964748,-13.644700222659111,-2.252877712249756,0.01819610595703125,-0.7906607389450073
1772376851911862000,5.089862060546875,-1.0999907744783908,3.5719942709133026,-14.859790298414229,-2.126432180404663,0.32536566257476807,-0.7796152830123901
1772376851921811200,5.099811279296875,-0.4453643615501001,4.316186205813288,-14.843451742553711,-1.7968355417251587,0.5213229656219482,-0.5765787959098816
1772376851931760400,5.109760498046875,0.07970150502067991,4.563780618195236,-13.734513180053233,-1.3678463697433472,0.6505123972892761,-0.2697635591030121
1772376851941708300,5.119708251953125,0.21984975209441035,4.270321403478086,-11.924262916219234,-0.9214843511581421,0.7756229043006897,0.04511024057865143
1772376851951657200,5.1296572265625,0.03413399599846452,3.464017295797169,-9.715794255554675,-0.49756208062171936,0.9309813976287842,0.30206531286239624
1772376851961606100,5.139606201171875,-0.16895703859459607,2.3866930380918085,-7.19142600030601,-0.12102252244949341,1.047995924949646,0.4780890643596649
1772376851971554300,5.14955419921875,-0.39009639210812747,1.3519646440535782,-4.4360482645124195,0.1992979496717453,1.0646523237228394,0.5617496967315674
1772376851981503200,5.159503173828125,-0.5376356718817725,0.37808863199353215,-1.7406383829474448,0.465179443359375,0.9632708430290222,0.5744641423225403
1772376851991452200,5.1694521484375,-0.609371961043775,-0.40352899739407,0.6353016443312167,0.7043771147727966,0.7637459635734558,0.5566713213920593
1772376852001400300,5.179400390625,-0.7051704225882888,-0.980519030271098,2.6315993804335593,0.927386462688446,0.4719090759754181,0.5057277083396912
1772376852011349200,5.189349365234375,-0.8655534383766352,-1.4038959068208932,4.305170306280255,1.1254867315292358,0.15515930950641632,0.4375600814819336
1772376852021298200,5.199298095703125,-1.1357733779340982,-1.7389853550434111,5.620226484653354,1.2886850833892822,-0.09365876019001007,0.3351050615310669
1772376852031247000,5.2092470703125,-1.3416853882320225,-1.9386077636778354,6.619925504755973,1.421929955482483,-0.19946208596229553,0.22266031801700592
1772376852041195300,5.2191953125,-1.4755413393616676,-1.80868257612586,7.2938091009378425,1.5269553661346436,-0.20328478515148163,0.10037993639707565
1772376852051144200,5.229144287109375,-1.4077588658593594,-1.5600228725999592,7.953830175983906,1.5640678405761719,-0.2538389563560486,0.04767933860421181
1772376852061093400,5.23909326171875,-1.017230658205226,-1.4581797240637242,8.628050456774234,1.5571130514144897,-0.2295415997505188,0.06256161630153656
1772376852071041000,5.249041015625,-0.6328421954151242,-1.2876562764026225,9.283819135072827,1.5087015628814697,-0.15909558534622192,0.09473374485969543
1772376852080990000,5.258989990234375,-0.47879503158479925,-1.1367884732607751,9.868896905076504,1.4219725131988525,-0.09546761214733124,0.09848028421401978
1772376852090939100,5.268939208984375,-0.45706294611766934,-1.0461932063825428,10.176300473994017,1.324113368988037,-0.023026004433631897,0.04449695721268654
1772376852100888000,5.27888818359375,-0.7710081917636096,-0.9614948885884136,10.131499209237099,1.1918903589248657,-0.010906225070357323,-0.05478861555457115
1772376852110836000,5.2888359375,-0.8819988886777311,-0.26590477977208793,10.401392839449644,0.9982734322547913,-0.014235097914934158,-0.15183085203170776
1772376852120785000,5.298784912109375,-0.826788311978802,0.4534320422694087,10.52784596697688,0.7481797337532043,0.020401176065206528,-0.2211848944425583
1772376852130734000,5.308734130859375,-0.7327430507771671,1.0007669415950775,10.471219824391603,0.4150523543357849,0.20120227336883545,-0.21445594727993011
1772376852140682000,5.318681884765625,-0.11264525918811559,1.9078700955867767,9.99704748417139,0.0005622269818559289,0.40831416845321655,-0.07839850336313248
1772376852150631200,5.328631103515625,0.026056597602739928,1.9646967291802166,9.747922501221298,-0.3689713478088379,0.49949267506599426,0.05741522088646889
1772376852160580000,5.338580078125,0.042143882115930315,1.3373125799752772,9.390262324750422,-0.6191833019256592,0.638616144657135,0.21251213550567627
1772376852170528300,5.3485283203125,1.3889011667847633,-0.1325657651886344,6.571289191880822,-0.7511290907859802,0.6271496415138245,0.4609794616699219
1772376852180477200,5.358477294921875,1.3639245464384555,-1.0919655081287025,4.760671848300099,-0.7938291430473328,0.5885870456695557,0.6099036931991577
1772376852190426000,5.368426025390625,0.513313460323587,-1.0135207708366214,3.0288416257083415,-0.7536556720733643,0.40337780117988586,0.6874072551727295
1772376852200375000,5.378375,0.015992226640880108,-0.6210534118134527,1.8907453577846287,-0.6916884183883667,0.1273920238018036,0.6182609796524048
1772376852210323200,5.3883232421875,-0.039912250606343146,-0.3491456652995199,0.43966099880933757,-0.5439708828926086,-0.3797193169593811,0.43399274349212646
1772376852220272000,5.398272216796875,0.3179588652014732,-0.7855292498733848,-1.5287486134141683,-0.23196609318256378,-0.9447036385536194,0.23638834059238434
1772376852230221000,5.408220947265625,0.5875241402424871,-1.421883252801746,-3.5997044078767297,0.24161691963672638,-1.3478729724884033,0.056441500782966614
1772376852240169000,5.4181689453125,0.7063619704604148,-1.876320380460471,-5.84623304234445,0.7826895117759705,-1.5334514379501343,-0.09092797338962555
1772376852250118100,5.4281181640625,1.1098774507857858,-2.240126220079511,-7.225640404596924,0.9930592179298401,-1.53109872341156,-0.09360701590776443
1772376852260067000,5.438067138671875,1.7438246117681264,-2.8247727590590714,-7.158983866384625,0.9511700868606567,-1.3970427513122559,-0.0820062905550003
1772376852270015000,5.448014892578125,2.0731186715848744,-3.473687041418254,-6.641980684697628,0.6016896367073059,-1.1873022317886353,-0.07764676958322525
1772376852279964200,5.457964111328125,2.2146339052960275,-4.211059651692211,-6.009795711082219,-0.01905222050845623,-1.0178687572479248,-0.10330765694379807
1772376852289913000,5.4679130859375,1.8606546092949807,-4.6694390872359275,-5.531908734253048,-0.9065080285072327,-0.9388728737831116,-0.20532825589179993
1772376852299862300,5.4778623046875,0.24162699187751857,-3.9548713062271474,-5.685237009224295,-1.9734430313110352,-0.9549530148506165,-0.5064244866371155
1772376852309810200,5.48781005859375,-2.3433375882290304,-1.9095399284951389,-7.779106061762571,-2.8586766719818115,-0.8617871999740601,-1.0299369096755981
1772376852319759000,5.497759033203125,-3.8303555765032766,0.5756996277403086,-11.668593041670322,-3.2301011085510254,-0.5314716100692749,-1.4995927810668945
1772376852329708000,5.5077080078125,-3.5068387849137186,2.7243267639696596,-14.823505517590045,-3.089064121246338,-0.1076040044426918,-1.643794059753418
1772376852339656200,5.51765625,-2.143303822314739,4.345801007354259,-15.471992806708812,-2.753683567047119,0.11842140555381775,-1.3368409872055054
1772376852349605000,5.527605224609375,-0.8129177536670118,5.117653979378939,-14.12404324351549,-2.209332227706909,0.5093993544578552,-0.9430497884750366
1772376852359554000,5.537553955078125,-0.2513234428424388,5.762523078000545,-12.430165442699193,-1.532090425491333,0.8930330276489258,-0.516017735004425
1772376852369502000,5.547501953125,0.5602801229534671,5.025438052496313,-10.599133087599277,-0.815536618232727,1.0899266004562378,0.01328284665942192
1772376852379451100,5.557451171875,1.1343845539242028,3.492527643227577,-7.983973969835042,-0.1772405356168747,1.213210105895996,0.47864094376564026
1772376852389400000,5.567400146484375,0.629226343005523,2.4029344171881672,-4.94159540168345,0.3112868070602417,1.2623399496078491,0.7036963105201721
1772376852399349200,5.577349365234375,-0.16204283875934777,1.3141666821874678,-1.7551824566066263,0.6351357102394104,1.202270269393921,0.7406703233718872
1772376852409297000,5.587296875,-0.7168893558241427,0.3183350050374865,1.153690727418661,0.8650352358818054,1.015986442565918,0.677971363067627
1772376852419246000,5.59724609375,-1.023187886109203,-0.29792108949683604,3.5711277172118425,1.0530283451080322,0.6967751383781433,0.5643816590309143
1772376852429195300,5.6071953125,-1.2151327458530663,-0.5813455246727913,5.609868172246218,1.18501615524292,0.24832434952259064,0.41229385137557983
1772376852439143200,5.61714306640625,-1.079614560599625,-1.113132872385159,7.124267942312359,1.2440142631530762,-0.17857611179351807,0.2985007166862488
1772376852449092000,5.627092041015625,-0.8941381662175059,-1.7277978983357547,8.145944985467194,1.186790108680725,-0.3283146917819977,0.1896483600139618
1772376852459041000,5.637041015625,-0.7773039309069514,-1.7750480175495147,8.874550351917744,1.048447608947754,-0.22139997780323029,0.09645262360572815
1772376852468989200,5.6469892578125,-0.47016273925267155,-1.6351070474177598,9.344092694249749,0.869931697845459,-0.014095732942223549,0.04710226505994797
1772376852478938000,5.656938232421875,-0.19784663113355636,-1.2793087192960082,9.674135964998602,0.6831807494163513,0.20015105605125427,0.023988958448171616
1772376852488887000,5.666886962890625,-0.05132200829517096,-0.8871022762313484,9.829977099573611,0.5138484239578247,0.3821280598640442,0.033000122755765915
1772376852498836000,5.6768359375,0.11746928181108086,-0.5334919596731662,9.89322470612526,0.39666590094566345,0.4975782036781311,0.0656353011727333
1772376852508784000,5.6867841796875,0.2972751197434962,-0.2110867825873196,9.839970085799694,0.3373165428638458,0.5068477392196655,0.10518576949834824
1772376852518733000,5.696733154296875,0.37409532457366584,-0.0027469606205821036,9.72539210498333,0.31339123845100403,0.44527357816696167,0.1398089975118637
1772376852528682000,5.706681884765625,0.37894955967180427,0.11148540336219594,9.45576677031815,0.33288371562957764,0.3751128613948822,0.15754762291908264
1772376852538630000,5.7166298828125,0.35972222356721756,0.14290195709550751,8.985161182668804,0.39140695333480835,0.3032096326351166,0.1451636552810669
1772376852548579000,5.7265791015625,0.2638794114243239,0.167897884930484,8.580058871543407,0.45377230644226074,0.17047961056232452,0.11131493747234344
1772376852558528300,5.7365283203125,0.24304354414455592,0.3892144216418266,8.22639448671043,0.4876312017440796,-0.019438406452536583,0.06465955078601837
1772376852568476200,5.74647607421875,0.1404387635860592,0.7610692738123238,7.839426967212558,0.468844473361969,-0.22664301097393036,0.028813431039452553
1772376852578425000,5.756425048828125,0.0020924422346055506,1.0922485628537832,7.246786068478226,0.39614763855934143,-0.3914934992790222,0.00430435873568058
1772376852588374000,5.7663740234375,-0.024466624997556207,1.098648200763017,6.083423841872811,0.3130785822868347,-0.4786526560783386,-0.00007842574268579483
1772376852598323200,5.7763232421875,-0.07866122958697379,0.7093727696489542,4.247878977784514,0.22520944476127625,-0.5096486210823059,-0.0016094769816845655
1772376852608271000,5.78627099609375,0.10037395276650786,0.12617793644820338,2.1029367406129835,0.1768517643213272,-0.46613433957099915,-0.013336111791431904
1772376852618220000,5.796219970703125,0.7003530123692006,-0.5804973834108561,0.1166296526491642,0.13576078414916992,-0.44397178292274475,-0.01256565935909748
1772376852628169000,5.8061689453125,1.7142784915491938,-1.3839695556014775,-1.6462345906317233,0.09587756544351578,-0.4834059774875641,0.036436501890420914
1772376852638117000,5.8161171875,2.7083827603846786,-2.114153569545597,-3.389404537883401,0.06776203960180283,-0.5733912587165833,0.10684328526258469
1772376852648066000,5.826066162109375,3.2329733284607527,-2.595050980237126,-5.240117745009065,0.0747256726026535,-0.7165775299072266,0.14253604412078857
1772376852658015000,5.836014892578125,3.159102328824997,-2.9495988699063656,-7.102547693413496,0.10392989218235016,-0.8510919213294983,0.12832701206207275
1772376852667963100,5.845963134765625,2.9594691065356136,-3.3658775318235157,-8.243615086102485,0.07754728943109512,-1.0027453899383545,0.1095140352845192
1772376852677912000,5.855912109375,2.580722010633349,-3.6696935976430773,-8.304007887744904,-0.1489311307668686,-1.2424914836883545,0.047223228961229324
1772376852687861200,5.865861328125,1.1756390129197387,-3.3837983884394167,-7.423577636623382,-0.7299426198005676,-1.5802220106124878,-0.1387372612953186
1772376852697810200,5.87581005859375,-1.0753564647637306,-2.3590176801808176,-6.964797511324286,-1.5478265285491943,-1.7493979930877686,-0.4970538914203644
1772376852707758000,5.885758056640625,-3.094666389271617,-1.0074336329426616,-8.493676473119855,-2.2443971633911133,-1.596668004989624,-0.9218695163726807
1772376852717707300,5.895707275390625,-3.964424731992185,0.36399336154777556,-11.21564235317707,-2.5351297855377197,-1.1342934370040894,-1.2253869771957397
1772376852727656200,5.90565625,-3.5425860978603363,1.8980194404408335,-13.280414490568637,-2.3846678733825684,-0.5663895010948181,-1.2937960624694824
1772376852737604000,5.91560400390625,-2.1827416603423653,3.2969957187771795,-13.534017495715617,-1.9177970886230469,-0.12525415420532227,-1.0583562850952148
1772376852747553000,5.925552978515625,-0.27066446845456954,3.780607502993941,-11.65477728228569,-1.3911969661712646,0.06617087870836258,-0.5542150735855103
1772376852757502000,5.935501953125,1.0119071250949054,3.4669220773279665,-8.624052327048778,-0.7874990701675415,0.15341682732105255,-0.07040686160326004
1772376852767451100,5.945451171875,1.2360823026403784,2.68635446844995,-5.376672579833865,-0.39438244700431824,-0.026814669370651245,0.35530009865760803
1772376852777399000,5.95539892578125,0.6136660049758851,1.6028095826640725,-1.73057642313838,-0.2949461340904236,-0.23927368223667145,0.5744902491569519
1772376852787348000,5.965347900390625,-0.8323939499661326,0.9286665318284183,1.4326035303890705,-0.4980049729347229,-0.42933353781700134,0.5835797786712646
1772376852797297000,5.975296875,-2.1453823821544646,0.5004125507615507,3.4661206978172063,-0.8605016469955444,-0.4542487561702728,0.4567374289035797
1772376852807245000,5.9852451171875,-2.987030482678115,0.3285566854529083,4.126763704153895,-1.1929928064346313,-0.23461249470710754,0.2767009139060974
1772376852817194000,5.995194091796875,-3.1204362058222292,0.38441608144938944,3.7899002319961785,-1.3675843477249146,0.1366417407989502,0.128701850771904
1772376852827143200,6.00514306640625,-2.387373567701876,0.4222863778993487,2.745262584492564,-1.329907774925232,0.4566873610019684,0.08770504593849182
1772376852837091300,6.01509130859375,-1.1388548312060534,0.42027284611985083,1.7063292861104011,-1.058296799659729,0.650412380695343,0.1545434594154358
1772376852847040300,6.025040283203125,-0.09836491449903696,0.24092136435881256,1.076634375745058,-0.6163417100906372,0.7137839198112488,0.2450786530971527
1772376852856989200,6.0349892578125,0.575876847470738,-0.008373129939287901,1.020303416714072,-0.06426817178726196,0.6455329656600952,0.4042912423610687
1772376852866938000,6.044938232421875,0.734990902769193,0.0005088263049721717,1.523898250773549,0.49921196699142456,0.5763769149780273,0.5580849051475525
1772376852876886000,6.054885986328125,0.4268992419896647,-0.02642418880611658,2.7106284934848546,0.9370300769805908,0.4656980633735657,0.6407648921012878
1772376852886835200,6.064835205078125,-0.15474983220696448,-0.32679069869369265,4.149854072362184,1.271019458770752,0.3162934184074402,0.6108303666114807
1772376852896784100,6.0747841796875,-0.6823731921076774,-0.7114084401950239,5.553443105190992,1.480808138847351,0.13292039930820465,0.5049697160720825
1772376852906732000,6.08473193359375,-0.9574388181306421,-1.0213520489841699,6.665950173828006,1.608001470565796,-0.014135494828224182,0.31986504793167114
1772376852916681000,6.094680908203125,-1.066321509914845,-1.2652223262764513,7.414958276838064,1.6516685485839844,-0.09606125205755234,0.10510880500078201
1772376852926630100,6.104630126953125,-0.9423458784170449,-1.3896893945530056,7.965912243443727,1.6366363763809204,-0.1157737597823143,-0.07779861986637115
1772376852936578000,6.114578125,-0.6669188717357813,-1.3101456099778412,8.296457618495822,1.568915843963623,-0.06766854971647263,-0.20782053470611572
1772376852946527000,6.12452685546875,-0.23164945894889533,-0.964577803165093,8.43118757598102,1.471570372581482,0.013647855259478092,-0.2699996531009674
1772376852956476200,6.13447607421875,0.19059669653791933,-0.6081185999818146,8.555459267815946,1.3556441068649292,0.09097886085510254,-0.24896414577960968
1772376852966424000,6.144424072265625,0.5954412700425833,-0.35666849855240434,8.552125739479065,1.227220892906189,0.14435777068138123,-0.15811513364315033
1772376852976373200,6.154373291015625,0.8770952614799141,-0.14929562192168086,8.289957735082506,1.0778385400772095,0.19424569606781006,-0.02988312765955925
1772376852986322200,6.164322265625,0.8573127026453614,0.057327970711700614,7.772777443262934,0.9157857298851013,0.22202414274215698,0.08936253190040588
1772376852996271000,6.17427099609375,0.6091265349153429,0.027538031799532472,6.920549788796901,0.7493664026260376,0.19689348340034485,0.18758417665958405
1772376853006219300,6.18421923828125,0.3186289099501446,-0.13343425511885434,5.520629215347767,0.6055186986923218,0.1412704735994339,0.2495962381362915
1772376853016168200,6.194168212890625,-0.06867396071562543,-0.367417636908032,3.560955282765627,0.5226746797561646,0.08505753427743912,0.26206812262535095
1772376853026117000,6.2041171875,-0.4003211047308519,-0.6910857831344008,1.444113350918889,0.492382287979126,-0.004851420409977436,0.22586901485919952
1772376853036065000,6.21406494140625,-0.3231912128970027,-1.1810850764311849,-0.7050964805692433,0.48747649788856506,-0.1285797506570816,0.128384530544281
1772376853046014000,6.224013916015625,-0.04665326756546274,-1.7001830384403467,-2.9207027380287647,0.4850655198097229,-0.2757449746131897,-0.017504924908280373
1772376853055963100,6.233963134765625,0.24362757284389808,-2.104335209234059,-5.011764916452766,0.4733779728412628,-0.4406343400478363,-0.1944597214460373
1772376853065912000,6.243912109375,0.40664669102318585,-2.266215331712365,-7.002075979360938,0.42402639985084534,-0.6107258200645447,-0.38318154215812683
1772376853075860200,6.253860107421875,0.4722956230955198,-2.156284592179954,-8.594623403468727,0.3021809160709381,-0.7846965789794922,-0.5441089272499084
1772376853085809200,6.26380908203125,0.6495263498429209,-1.894734427420795,-9.804024912193418,0.07550065219402313,-0.9017016887664795,-0.6627678275108337
1772376853095758000,6.273758056640625,0.5851536847840995,-1.6456152896896004,-10.749673193156719,-0.26114049553871155,-0.94292151927948,-0.7437223196029663
1772376853105706200,6.283706298828125,-0.030054800393432377,-1.278234952584654,-11.415855128920077,-0.7238972187042236,-0.9048899412155151,-0.8117308616638184
1772376853115655200,6.2936552734375,-1.2023786243505776,-0.357416650038585,-11.73109246020317,-1.3237172365188599,-0.8831737637519836,-0.9127123355865479
1772376853125604000,6.30360400390625,-2.6245044537365434,1.2648356650464236,-12.277491832244396,-1.9570848941802979,-0.7691444158554077,-1.0799479484558105
1772376853135552300,6.31355224609375,-3.499009698723256,3.1290517662152646,-13.611810344970225,-2.385415554046631,-0.33904197812080383,-1.2004855871200562
1772376853145501200,6.323501220703125,-3.289532543289661,4.7016415671825404,-14.976879385268687,-2.4670403003692627,0.2975623309612274,-1.0926196575164795
1772376853155450000,6.3334501953125,-2.271363654386252,5.488605599099397,-15.315855319535732,-2.20829176902771,0.9436098337173462,-0.7010944485664368
1772376853165398000,6.34339794921875,-1.1401287966646254,5.624724965116381,-14.312862518584728,-1.741594910621643,1.4984278678894043,-0.14613917469978333
1772376853175347500,6.353347412109375,-0.41807997571807354,5.141456879770756,-12.184258252751826,-1.247060775756836,1.9573560953140259,0.39096930623054504
1772376853185296400,6.36329638671875,-0.11036160523034631,4.086214543883502,-9.185530610278247,-0.8350980281829834,2.262209892272949,0.7579244375228882
1772376853195245300,6.373245361328125,-0.22089120570505036,2.8244074328780173,-5.771328900268673,-0.5346367359161377,2.3393430709838867,0.925298273563385
1772376853205193200,6.383193115234375,-0.6129957775641233,1.6424202930405736,-2.5669056667268273,-0.27182960510253906,2.190958023071289,0.9483299851417542
1772376853215142100,6.39314208984375,-1.129998740055412,0.7943301767706871,-0.011713234147429466,0.03559610992670059,1.8454099893569946,0.8573036789894104
1772376853225091300,6.40309130859375,-1.621635863687098,0.1046717960909009,1.9539356811910866,0.39727041125297546,1.3856642246246338,0.7072165608406067
1772376853235039200,6.413039306640625,-1.8406158837422728,-0.43401758609488605,3.6529338937610385,0.7769178748130798,0.8950271010398865,0.5349558591842651
1772376853244988200,6.42298828125,-1.8583251434341073,-0.9271469941109418,5.003824771103263,1.1419233083724976,0.4316646456718445,0.38777005672454834
1772376853254937000,6.43293701171875,-1.5809285902455448,-1.3037152846693991,6.05474193726778,1.4819031953811646,0.05541618540883064,0.285917192697525
1772376853264885200,6.44288525390625,-1.1295183361273258,-1.354471950699389,6.963368355304002,1.7720506191253662,-0.1910313218832016,0.23745393753051758
1772376853274834200,6.452834228515625,-0.7563208371762186,-1.2018977820310741,7.734376693198084,2.017725706100464,-0.31767237186431885,0.23025088012218475
1772376853284783000,6.462783203125,-0.5887674183018505,-0.9100816583458333,8.45578717970848,2.2096822261810303,-0.3687514066696167,0.24756163358688354
1772376853294732300,6.472732177734375,-0.5241879055593163,-0.6031120238661766,9.314493674799799,2.332710027694702,-0.3707916736602783,0.25472524762153625
1772376853304680200,6.48268017578125,-0.6211477390334009,-0.3291056611051783,10.16488008531332,2.3766138553619385,-0.42681607604026794,0.23382754623889923
1772376853314629400,6.49262939453125,-0.7422203425660729,-0.19632848165556788,10.936654731404781,2.382934331893921,-0.37775054574012756,0.2071290910243988
1772376853324578300,6.502578369140625,-0.5072874780323356,-0.2788623514248058,11.832558445990085,2.3058061599731445,-0.29666242003440857,0.16816049814224243
1772376853334526200,6.512526123046875,-0.4380244105834514,-0.14386376959867775,12.700552409386635,2.120645046234131,-0.2474762350320816,0.09882402420043945
1772376853344475400,6.522475341796875,-0.4464877760894596,-0.22995390707738697,13.099211535722016,1.8693673610687256,-0.16808927059173584,-0.014646950177848339
1772376853354424300,6.53242431640625,-0.6456221089459955,0.20766995988115666,13.378410754418372,1.5372782945632935,-0.25590941309928894,-0.13027821481227875
1772376853364372200,6.542372314453125,-0.5124756943251937,1.0313257459878922,13.649156617546081,1.1441137790679932,-0.3693702518939972,-0.21121777594089508
1772376853374321200,6.552321044921875,-0.176682774008438,1.467633050455153,13.332023097252845,0.673127293586731,-0.4589070677757263,-0.23789997398853302
1772376853384270000,6.56227001953125,-0.1688944216871634,1.5446787346042692,12.210163093858956,0.1822017878293991,-0.4225509464740753,-0.24850423634052277
1772376853394219300,6.57221923828125,-0.3108458913911134,1.219464053055644,10.068015455842017,-0.26461485028266907,-0.26466596126556396,-0.2521197497844696
1772376853404167200,6.582167236328125,-0.4533270840575918,0.6469796610347927,7.339085581991076,-0.6112154126167297,0.04438333958387375,-0.19946330785751343
1772376853414116000,6.5921162109375,-0.4437643424749374,-0.040068829407542944,4.231369741532206,-0.84513920545578,0.4478341341018677,-0.13576290011405945
1772376853424065000,6.60206494140625,-0.17245653461553156,-0.79371847461313,1.046876366341114,-0.9279435873031616,0.7879762649536133,-0.09582605957984924
1772376853434013200,6.61201318359375,0.6128516929183155,-1.827657617969811,-1.9627537784188984,-0.8413023948669434,0.8251052498817444,-0.07048474997282028
1772376853443962400,6.62196240234375,2.040659732659161,-3.2175854974538085,-4.535307680165768,-0.5860685110092163,0.40421298146247864,-0.029011180624365807
1772376853453911300,6.631911376953125,3.3722377145051956,-4.366994602030515,-6.784080294167995,-0.18657676875591278,-0.20170970261096954,-0.024622024968266487
1772376853463859200,6.641859130859375,3.7114617783144115,-4.879076401667296,-8.003888630616665,0.05034869164228439,-0.8813771605491638,-0.12094203382730484
1772376853473808400,6.651808349609375,3.4285327254399656,-5.1096939602851865,-8.137108183538913,-0.043997250497341156,-1.4690414667129517,-0.3308963179588318
1772376853483757300,6.66175732421875,2.3439358463831246,-4.863700845620036,-7.888698070859909,-0.538195013999939,-1.9331486225128174,-0.6111801862716675
1772376853493706200,6.671706298828125,-0.00327582335411862,-3.501819203186035,-7.825396103772521,-1.359131932258606,-2.2074546813964844,-0.9872965812683105
1772376853503654100,6.681654052734375,-2.549569624261558,-1.461724703194201,-9.081285222905874,-2.280219316482544,-1.9201210737228394,-1.3832944631576538
1772376853513603300,6.691603271484375,-3.7134631812646983,0.7242322659328579,-11.903602405506371,-2.9489028453826904,-1.106378197669983,-1.6519334316253662
1772376853523552300,6.70155224609375,-2.9057965530589223,2.901933740150928,-15.260116481178999,-3.0444133281707764,-0.0712416023015976,-1.5968823432922363
1772376853533500200,6.711500244140625,-0.7653408136516809,4.423390735252202,-17.229493477129935,-2.5270280838012695,0.7954559326171875,-1.1548569202423096
1772376853543449000,6.721448974609375,1.5496034776553511,4.910883452555537,-16.615219423258303,-1.6565008163452148,1.2309852838516235,-0.4730113744735718
1772376853553398000,6.73139794921875,2.770956413197517,4.457183991521597,-13.667971208131313,-0.7848047614097595,1.2817049026489258,0.18702247738838196
1772376853563346200,6.74134619140625,2.496079149353504,3.3300106841504573,-9.40278103006184,-0.16809523105621338,1.1676841974258423,0.6397735476493835
1772376853573295000,6.751295166015625,1.1167125575028358,2.239515102443844,-5.076065246927738,0.15999369323253632,1.0248985290527344,0.833334743976593
1772376853583244300,6.761244384765625,-0.4667973544728011,1.3892267454773186,-1.531332200166583,0.29451262950897217,0.8873220682144165,0.8462154865264893
1772376853593193200,6.771193115234375,-1.534719942908734,0.7666505810759962,1.1729840414315462,0.3205364942550659,0.760198712348938,0.7578965425491333
1772376853603141400,6.781141357421875,-1.8454855356052517,0.4156346649251878,3.216542125880718,0.30181607604026794,0.6907052397727966,0.6397997140884399
1772376853613090300,6.79109033203125,-1.5711472009435294,0.20712503934949636,4.787276946631073,0.2544293701648712,0.6643833518028259,0.5456153750419617
1772376853623039200,6.801039306640625,-0.850875363074243,-0.0635778614193201,5.9802060439825055,0.19298413395881653,0.6629239320755005,0.50615394115448
1772376853632987100,6.810987060546875,-0.048744632087834174,-0.36937987689170987,6.624968175098299,0.16102540493011475,0.6959372758865356,0.5172915458679199
1772376853642936300,6.820936279296875,0.633171354304254,-0.5429589492637664,6.821814689278602,0.20821581780910492,0.7098560333251953,0.5952636003494263
1772376853652885200,6.83088525390625,0.8958584141388535,-0.5017137695532292,6.85848467002809,0.3424566984176636,0.6543104648590088,0.7009487152099609
1772376853662833200,6.840833251953125,0.7116277820341289,-0.37545901414230465,6.992254842570424,0.5326356887817383,0.5578127503395081,0.8136116862297058
1772376853672782000,6.850781982421875,0.21419059382155536,-0.3596083148639649,7.422431973719596,0.7511246204376221,0.4620169997215271,0.8802588582038879
1772376853682731300,6.860731201171875,-0.3717039724577218,-0.40501916288658973,8.110558030265569,0.9153737425804138,0.3721765875816345,0.8761350512504578
1772376853692680200,6.87068017578125,-0.9185434894818812,-0.4891857484241947,8.900737517097593,0.9963626265525818,0.31260085105895996,0.7967361211776733
1772376853702628000,6.880628173828125,-1.3462315072290598,-0.4170232332067564,9.769664961951971,0.9833541512489319,0.2510712444782257,0.6551311612129211
1772376853712577000,6.890576904296875,-1.491983940118551,-0.2614061166459694,10.622422777771948,0.8666866421699524,0.17004618048667908,0.4778517186641693
1772376853722526200,6.900526123046875,-1.410528184442222,-0.05289831770118326,11.030961493086814,0.6984574198722839,0.12336335331201553,0.3214842677116394
1772376853732474400,6.910474365234375,-1.1432593497753143,0.34625754264257846,10.883628074616194,0.5278087258338928,0.09272927790880203,0.21938319504261017
1772376853742423300,6.92042333984375,-0.9115037270382046,0.6928139221012591,10.359264008772373,0.3855871260166168,0.020624084398150444,0.18389050662517548
1772376853752372200,6.930372314453125,-0.617221797761321,0.7723314031913876,9.552041617202757,0.27036839723587036,-0.09240952134132385,0.1968987137079239
1772376853762320400,6.9403203125,-0.4412616389390081,0.6793512139379978,8.559125973629952,0.14731465280056,-0.2547362446784973,0.2459714114665985
1772376853772269300,6.950269287109375,-0.4437826087839901,0.4121796656331047,7.40681471787095,-0.022811539471149445,-0.4077915847301483,0.27585503458976746
1772376853782218200,6.96021826171875,-0.4700988071709871,0.2429374168889597,5.61838640974462,-0.1881011724472046,-0.4303910732269287,0.25170472264289856
1772376853792167200,6.970167236328125,-0.42922925583980975,-0.11776786289885639,3.004806085604429,-0.28557631373405457,-0.45482850074768066,0.21227821707725525
1772376853802115300,6.980115234375,-0.4182675707120448,-0.40562337585743513,-0.07376257082521916,-0.23178526759147644,-0.6018600463867188,0.16468684375286102
1772376853812064300,6.990064208984375,-0.18717348062358796,-0.6700147919245064,-3.332577904289961,0.004900782369077206,-0.7638772130012512,0.12160354852676392
1772376853822013200,7.00001318359375,0.524317084896937,-1.4984009675540029,-6.197182322999835,0.3117579221725464,-0.8868973255157471,0.09576401114463806
1772376853831961000,7.009961181640625,1.379401517033577,-2.406942337655276,-7.8578814923137426,0.5069791078567505,-0.9636781215667725,0.05010038614273071
1772376853841910000,7.019909912109375,1.9422076878659427,-2.8565260339334606,-8.143144541093706,0.45535850524902344,-1.0887019634246826,-0.014507233165204525
1772376853851859500,7.029859375,2.088076148350537,-3.0410537492886185,-7.756837531331181,0.1090487539768219,-1.337558627128601,-0.09375225752592087
1772376853861807000,7.03980712890625,1.4937727232314646,-2.745850321252644,-7.398902629572152,-0.5745205283164978,-1.6915912628173828,-0.19010286033153534
1772376853871756300,7.04975634765625,-0.22025818676482886,-1.7166925669535993,-7.841950932732224,-1.4898191690444946,-1.874926209449768,-0.3930184245109558
1772376853881705200,7.059705322265625,-2.7090640206471086,-0.0929229609071277,-10.006743533277511,-2.383574962615967,-1.6495589017868042,-0.7396363615989685
1772376853891653400,7.0696533203125,-4.496683935000002,1.671456856302172,-13.689720098602772,-2.9136087894439697,-1.1051722764968872,-1.0806206464767456
1772376853901602300,7.079602294921875,-4.401185040923953,3.438610759600997,-17.65017388113737,-2.8288469314575195,-0.4159451127052307,-1.20164155960083
1772376853911551200,7.08955126953125,-3.114612614235282,5.045202491152287,-20.334695873463154,-2.1771345138549805,0.25013411045074463,-1.0234122276306152
1772376853921500200,7.099500244140625,-1.4243461357839404,6.152164785143733,-20.298773496210575,-1.284027338027954,0.7173357009887695,-0.6004056334495544
1772376853931448300,7.1094482421875,0.04632947897119447,6.364121190172433,-17.7024102643311,-0.4699477553367615,0.9633857011795044,-0.10117105394601822
1772376853941397200,7.119397216796875,0.6772968386914581,5.378821282300353,-13.661480677068234,0.079749196767807,1.1128675937652588,0.32676962018013
1772376853951346200,7.12934619140625,0.4491210472024977,3.897224296161532,-9.43700361765921,0.36396199464797974,1.257434606552124,0.5966335535049438
1772376853961294000,7.139294189453125,-0.2873976496558636,2.5416408770889043,-5.6834764292925595,0.4647732973098755,1.382125735282898,0.7220929861068726
1772376853971243300,7.1492431640625,-0.9704001526430248,1.3755214607298374,-2.613186940908432,0.5194863677024841,1.4806864261627197,0.7718203067779541
1772376853981192200,7.159192138671875,-1.3475411285229026,0.5816132356982678,-0.1309726507782936,0.6302086114883423,1.4717479944229126,0.7996910810470581
1772376853991140000,7.16914013671875,-1.4163871396034955,0.10012436191961169,1.837308951151371,0.8225628733634949,1.3118566274642944,0.8111988306045532
1772376854001089300,7.17908935546875,-1.3595660589680074,-0.28699809241164476,3.6592601741731166,1.0735630989074707,0.976876437664032,0.8200036883354187
1772376854011038200,7.1890380859375,-1.2337110434643923,-0.6293626096710563,5.469065032327175,1.3477590084075928,0.5032351016998291,0.82857346534729
1772376854020987400,7.1989873046875,-1.1514713708687574,-0.9617244595605879,6.898641908371448,1.6160639524459839,0.0335286445915699,0.8183432817459106
1772376854030935300,7.208935302734375,-1.1892486552730201,-1.1553783151794224,7.901011024466157,1.863759994506836,-0.34397709369659424,0.7905545234680176
1772376854040884200,7.21888427734375,-1.2359537078246474,-1.0830744917951525,8.597729552790522,2.0578949451446533,-0.5719707012176514,0.7451151609420776
1772376854050833200,7.228833251953125,-1.3284332540795207,-0.8699930282592773,9.282730170792341,2.18293833732605,-0.6217230558395386,0.6735008955001831
1772376854060781300,7.23878125,-1.4089189956799149,-0.5317027747014537,10.02664650362134,2.2139179706573486,-0.5132678151130676,0.5575853586196899
1772376854070730200,7.248730224609375,-1.2831537042863665,0.047160979625582695,10.985032101082801,2.1487720012664795,-0.3715178370475769,0.42290982604026794
1772376854080679200,7.25867919921875,-0.8698141645610332,0.7326052497416734,12.023292614769934,1.9927161931991577,-0.22331202030181885,0.2933318018913269
1772376854090627000,7.268626953125,-0.1027302335690707,1.466059663658589,12.86020287311673,1.7812275886535645,-0.12604618072509766,0.20291776955127716
1772376854100576300,7.278576171875,0.7916960288748145,2.1472389698065815,13.403558055156468,1.5366828441619873,-0.12158096581697464,0.2061864733695984
1772376854110525400,7.288525390625,1.6906674604676664,2.597940856459737,13.619769195020199,1.2817126512527466,-0.19212943315505981,0.30255454778671265
1772376854120473000,7.29847314453125,2.403524784296751,2.7043589116960765,13.509701385104655,0.958616316318512,-0.2175167351961136,0.459928423166275
1772376854130422300,7.30842236328125,2.5930758807718752,2.668517782986164,12.871826675415038,0.6509575843811035,-0.1959581822156906,0.6526437997817993
1772376854140371200,7.31837109375,2.308124528289586,2.47275555691123,11.741286521959305,0.38042566180229187,-0.19958777725696564,0.8656222224235535
1772376854150320400,7.3283203125,1.6947202429898083,1.9506154507271944,10.159553921854496,0.15943069756031036,-0.11717651784420013,1.0450173616409302
1772376854160268300,7.338268310546875,0.9689918932802974,0.9098109516456723,8.099304230323433,-0.011664879508316517,0.0563301220536232,1.126915454864502
1772376854170217200,7.34821728515625,0.17678223406122998,-0.5006709094367922,5.827706621050834,-0.13684436678886414,0.17104604840278625,1.077224850654602
1772376854180166100,7.358166259765625,-0.06633514250451698,-2.272967290190607,3.532261687722802,-0.21025919914245605,0.08690254390239716,0.9202384352684021
1772376854190114300,7.3681142578125,0.5996667787831277,-4.384915166385472,1.2604904754489659,-0.26683592796325684,-0.17116761207580566,0.7334485650062561
1772376854200063200,7.378063232421875,1.513454305909574,-6.39333442517519,-0.8063368409067392,-0.3330133557319641,-0.6101017594337463,0.5188790559768677
1772376854210012200,7.38801220703125,1.6838268007926642,-7.61008103596568,-2.5610399895638225,-0.5089290142059326,-1.181780457496643,0.2612363398075104
1772376854219960300,7.397960205078125,0.8625151666592806,-7.7946356393277645,-3.8875475362777707,-0.9584735035896301,-1.6229333877563477,-0.04647066071629524
1772376854229909200,7.4079091796875,-0.9547072742749005,-6.790504189735651,-4.876836221525073,-1.7459968328475952,-1.8775861263275146,-0.434945672750473
1772376854239858200,7.417858154296875,-3.446227079823613,-4.391376179093122,-6.64971624738574,-2.707026720046997,-1.7892367839813232,-0.849399209022522
1772376854249806000,7.42780615234375,-5.638782716563344,-1.184933422422409,-10.73111228507161,-3.4414947032928467,-1.2927489280700684,-1.2113842964172363
1772376854259755300,7.43775537109375,-5.983360708621144,1.9845292646363377,-17.02206302509308,-3.4468612670898438,-0.5158337950706482,-1.4087045192718506
1772376854269704400,7.447704345703125,-3.9435157994762062,4.25456298559308,-22.830103991687295,-2.5951497554779053,0.3611241579055786,-1.27036452293396
1772376854279653400,7.4576533203125,-0.7766707475699484,5.246544563186168,-25.080581071519852,-1.3877308368682861,0.9177107214927673,-0.8365955948829651
1772376854289601300,7.467601318359375,1.5104730981416998,5.23242368337512,-22.531275358891484,-0.3607483208179474,0.9368876218795776,-0.3958677053451538
1772376854299550200,7.47755029296875,1.9943164991572497,3.889052387882769,-17.382853316283224,0.3221479654312134,0.5905296206474304,-0.142795130610466
1772376854309499100,7.4874990234375,0.8898839428391307,2.0152330304577943,-12.327800462245941,0.676414430141449,0.1922837197780609,-0.12707741558551788
1772376854319447300,7.497447265625,-0.6459389198102057,0.6689389793865382,-8.171490345612169,0.8227828145027161,-0.10377224534749985,-0.22568705677986145
1772376854329396200,7.507396240234375,-1.5150477125808595,0.03824225330119952,-4.894052729263901,0.8900271058082581,-0.2299823760986328,-0.30728256702423096
1772376854339345200,7.51734521484375,-1.5884652693606913,-0.1469755449436605,-2.2352572988688943,0.9113616943359375,-0.23536987602710724,-0.3352726399898529
1772376854349293300,7.527293212890625,-1.2485735354229808,-0.060352688827738164,0.21097031660079954,0.8841149210929871,-0.13879379630088806,-0.3091837763786316
1772376854359242200,7.5372421875,-0.8292861932091414,0.165635127630271,2.4722125360757112,0.815384030342102,-0.013387277722358704,-0.26409175992012024
1772376854369191200,7.547191162109375,-0.4687244500778615,0.42099721487164493,4.497171133995056,0.7229238748550415,0.08936174213886261,-0.20902743935585022
1772376854379140400,7.557140380859375,-0.19181893180925397,0.5847029453419148,5.942948034211993,0.6410287618637085,0.2050829827785492,-0.18614760041236877
1772376854389088300,7.567088134765625,0.03246303057894111,0.794447300344333,6.660615827062726,0.6241549849510193,0.2835831046104431,-0.19621941447257996
1772376854399037400,7.577037353515625,0.22520625589257104,1.138731277891621,6.964993910679221,0.6896325349807739,0.3568088710308075,-0.18953469395637512
1772376854408986400,7.586986328125,0.5845237163174897,1.7081908421985803,7.26675275170803,0.8122329711914062,0.42284542322158813,-0.1563439965248108
1772376854418934300,7.596934326171875,1.1124530734274536,2.32830178553015,7.887179482990502,0.9530228972434998,0.3969461917877197,-0.11331343650817871
1772376854428883200,7.60688330078125,1.3812816316917538,2.548538235387206,8.629993407535553,1.0548368692398071,0.3212554156780243,-0.07404912263154984
1772376854438832400,7.616832275390625,1.4725732833363114,2.511203653249144,9.545710660615562,1.072845458984375,0.21905852854251862,-0.041990723460912704
1772376854448780300,7.6267802734375,1.4450425945930183,2.351964692929387,10.487344445240497,1.002867341041565,0.10117317736148834,-0.04871440306305885
1772376854458729200,7.636729248046875,1.1439139412265271,2.0576440390773114,11.292616871786118,0.856255829334259,-0.03797201067209244,-0.12302448600530624
1772376854468678100,7.64667822265625,0.5887074682755395,1.7680780324064194,11.707232276666163,0.6560993194580078,-0.14361535012722015,-0.2876264750957489
1772376854478626300,7.656626220703125,0.1913046986768022,1.7399138680651782,11.561429136502742,0.4433462917804718,-0.18029823899269104,-0.45094233751296997
1772376854488575200,7.6665751953125,0.008188055695965885,1.8928902608588336,10.85905360532999,0.29793450236320496,-0.21224604547023773,-0.562408447265625
1772376854498524200,7.676524169921875,0.046184882868733255,1.9312245215587316,9.797728442397712,0.23061992228031158,-0.2574217617511749,-0.5994174480438232
1772376854508473000,7.68647314453125,0.1304243327131495,1.721254029650241,8.395814649304747,0.23640671372413635,-0.24924984574317932,-0.55826735496521
1772376854518421200,7.696421142578125,0.2940197894756682,1.3874990449018776,7.090392560717463,0.2867244780063629,-0.2287331521511078,-0.43982231616973877
1772376854528370200,7.7063701171875,0.39480025895014403,1.146235296846181,6.112317927923798,0.3212249279022217,-0.1563875824213028,-0.25488710403442383
1772376854538319400,7.7163193359375,0.49211847740784287,1.0252896806940435,5.432844548910856,0.3190041184425354,0.011967851780354977,-0.02762812003493309
1772376854548267300,7.726267333984375,0.4183912701569497,0.5644396172530949,4.80121662465632,0.27565956115722656,0.1931285858154297,0.19417299330234528
1772376854558216400,7.736216552734375,-0.1764375853420235,-0.254037158780545,3.952043097063899,0.2137669026851654,0.5247964859008789,0.2885037064552307
1772376854568165400,7.746165283203125,-1.4293668865554034,-0.9326498293109238,2.530314596432447,0.23848743736743927,1.6386829614639282,0.10691393911838531
1772376854578113300,7.75611328125,-1.7997751931793986,-1.8661133130922913,1.5505536179870365,-0.01652461476624012,2.8192834854125977,-0.12084219604730606
