time,seconds_elapsed,accel_x,accel_y,accel_z,gyro_x,gyro_y,gyro_z
1772376793572401200,0.069401123046875,-0.7433777689728885,-0.7070195575863123,1.1027198341161013,0.030439000576734543,-0.2837776243686676,-0.9391229152679443
1772376793582350000,0.07935009765625,-0.21106137415142728,-0.44292949908599255,1.2593921588182448,-0.13968399167060852,-0.3323752284049988,-0.9508083462715149
1772376793592299300,0.08929931640625,0.20771383555550127,-0.14161328725814817,0.9636205755054951,-0.23543024063110352,-0.3895464539527893,-0.8990288376808167
1772376793602248200,0.099248291015625,0.3745531513437629,0.041523412130028005,0.38953590868115423,-0.24808000028133392,-0.4291559159755707,-0.7907354235649109
1772376793612197000,0.109197021484375,0.25637040576739234,0.26280761747434733,0.3107832744836807,-0.24331915378570557,-0.4547748565673828,-0.5713929533958435
1772376793622146000,0.11914599609375,0.3925384880306199,0.842851192703098,0.3892530000865459,-0.24655328691005707,-0.3140057623386383,-0.30216845870018005
1772376793632095000,0.129094970703125,0.9364669764462857,0.7094877012655139,-0.05201309583187103,-0.2712700664997101,0.028971871361136436,-0.04663591831922531
1772376793642044200,0.139044189453125,0.6991544502343982,0.6834345377288759,-0.1901362028867006,-0.2628030776977539,0.20789581537246704,0.16321611404418945
1772376793651993000,0.1489931640625,0.24560389615185557,0.642585956120491,0.10187690467536449,-0.2437693327665329,0.26989874243736267,0.31787052750587463
1772376793661942300,0.1589423828125,0.1395994997503236,0.6693425917513668,0.43387189401388165,-0.2130870521068573,0.14206676185131073,0.4237285256385803
1772376793671891200,0.16889111328125,0.2662923543175682,0.5034801216386259,0.6349678823322057,-0.15624107420444489,-0.1733010709285736,0.5060163140296936
1772376793681840000,0.178840087890625,0.4604477662503719,0.43609936080500483,0.6549819118350744,-0.09419155865907669,-0.4275221824645996,0.5415745973587036
1772376793691788300,0.188788330078125,0.3347323418805376,0.311594006344676,0.7700234185099601,0.00431019626557827,-0.6662485599517822,0.5481878519058228
1772376793701737200,0.1987373046875,0.18703997217072174,0.26579890824481844,0.8869540999323129,0.08196717500686646,-0.700340211391449,0.4983885884284973
1772376793711686100,0.20868603515625,0.3027762927093543,0.27617870183140036,1.095819553208351,0.12357072532176971,-0.6142422556877136,0.4388362467288971
1772376793721635000,0.218635009765625,0.4834797553349286,0.36407165094837546,1.6219126348018644,0.12327325344085693,-0.4846813380718231,0.40041348338127136
1772376793731584000,0.228583984375,0.8451781743459403,0.4981082193419337,2.4385744703680277,0.05613794922828674,-0.431638240814209,0.43169814348220825
1772376793741533000,0.238532958984375,1.4304305702641607,0.5899173189893364,3.1508553094834086,-0.09787052869796753,-0.4979429543018341,0.5440102815628052
1772376793751482400,0.248482421875,1.7164372770182788,0.5774091350719333,3.3073820882350202,-0.297892302274704,-0.5375422835350037,0.6580253839492798
1772376793761431300,0.258431396484375,1.4185944403894244,0.46972646672725676,2.882503063493967,-0.4787997603416443,-0.40105050802230835,0.7114963531494141
1772376793771380200,0.268380126953125,0.8262249790076166,0.3868313258975744,2.216084396365285,-0.5868923664093018,-0.05392729863524437,0.7101985216140747
1772376793781329200,0.2783291015625,0.23655692207161336,0.3182451347969472,1.768348227649927,-0.624836266040802,0.3087025582790375,0.671101450920105
1772376793791278000,0.288278076171875,-0.09121507927700877,0.37455300521329044,1.5251093801289797,-0.5862860679626465,0.530366063117981,0.6394314169883728
1772376793801227000,0.29822705078125,-0.1749621972935274,0.5736807621985673,1.653382124298811,-0.500698447227478,0.639223039150238,0.6531427502632141
1772376793811176000,0.308176025390625,-0.05540584354270249,0.7609567533485591,2.050194161462784,-0.4032418727874756,0.6588261723518372,0.7241848707199097
1772376793821125000,0.318125,0.13620326317446305,0.9124214264050126,2.543890701842308,-0.29563283920288086,0.6285848617553711,0.8627608418464661
1772376793831074300,0.32807421875,0.36946583814211187,1.13816188050583,3.117221919950843,-0.25858137011528015,0.508593738079071,1.0446233749389648
1772376793841023200,0.338023193359375,0.6088210491627455,1.1996142742037772,3.634735973769426,-0.3151210844516754,0.3068951964378357,1.0321965217590332
1772376793850972200,0.34797216796875,0.7324167414322496,0.7333397014960646,3.858199861240387,-0.3340176045894623,0.2285323590040207,0.842860758304596
1772376793860920000,0.357920166015625,0.673611355111748,-0.2758561918787658,3.7318928641855713,-0.2769303619861603,0.06774108111858368,0.7090326547622681
1772376793870869200,0.367869140625,0.369108220343478,-0.6331111485496163,3.6034500241458414,-0.20893976092338562,-0.14303088188171387,0.6292060613632202
1772376793880818200,0.377818115234375,-0.2571273616145365,0.06900938494876027,3.6337989851802583,-0.1953669637441635,-0.3956865668296814,0.5538884401321411
1772376793890767000,0.38776708984375,-0.7546176134549081,0.9234760505132377,3.451674823835492,-0.2260703146457672,-0.5268792510032654,0.5496906638145447
1772376793900716000,0.397716064453125,-0.6916717663288116,1.5732691615335643,2.3573849644124505,-0.3014204502105713,-0.2769083082675934,0.6023443341255188
1772376793910665000,0.4076650390625,-0.724008394049108,1.7791117598570882,1.0093085599690674,-0.39696675539016724,-0.10560537874698639,0.6527959704399109
1772376793920614100,0.4176142578125,-0.6869071822755038,1.6942312904290855,0.006423895567655563,-0.42994600534439087,0.29203012585639954,0.7607932686805725
1772376793930563300,0.427563232421875,0.08612360135689377,1.6253125063732266,-2.061952403795719,-0.3486969470977783,0.7316399216651917,0.876004695892334
1772376793940512300,0.43751220703125,0.28603260838035494,1.2363152346134185,-3.4455227309465406,-0.09387453645467758,1.078660488128662,1.000089406967163
1772376793950461200,0.447461181640625,0.6859902866262942,0.6706378922589122,-4.2796588484048845,0.16081231832504272,1.2984857559204102,1.121565818786621
1772376793960410000,0.45741015625,0.84304320814386,0.3403817094117403,-4.1205356234192845,0.2702450752258301,1.294245958328247,1.1923295259475708
1772376793970359000,0.467359130859375,0.9318206119451671,-0.6275356865048408,-3.7405221608430144,0.24731223285198212,1.1094692945480347,1.1778885126113892
1772376793980308000,0.477307861328125,1.2536531767748296,-2.0872737459264696,-3.5760160737752913,0.14261272549629211,0.7317060232162476,1.0996888875961304
1772376793990257200,0.487257080078125,1.582889953446388,-3.5411361913129684,-3.824908417013287,-0.0405258946120739,0.14511078596115112,0.9518888592720032
1772376794000206300,0.497206298828125,1.953825937206298,-4.457909967708587,-5.020381938150525,-0.21962295472621918,-0.4685954749584198,0.8173882961273193
1772376794010155300,0.5071552734375,1.8251989727713167,-4.4700271064817905,-6.901298560360074,-0.3672470152378082,-1.0053741931915283,0.6837303042411804
1772376794020104700,0.517104736328125,0.47830213350132106,-3.5320594431489702,-9.16553586999774,-0.46598586440086365,-1.348645567893982,0.48852241039276123
1772376794030052600,0.527052490234375,-1.8466611552558838,-2.430145956979692,-11.7019423535645,-0.570967972278595,-1.4225189685821533,0.17970283329486847
1772376794040001500,0.53700146484375,-4.010363476346433,-1.5993673332557081,-13.76221484144926,-0.7463693618774414,-1.2595864534378052,-0.22145631909370422
1772376794049950700,0.54695068359375,-4.660469306577742,-0.8671886383630335,-15.237736307066678,-0.8775891065597534,-0.9321892261505127,-0.5403391718864441
1772376794059899600,0.556899658203125,-3.6888910500660534,-0.12397015160508452,-16.30639663519263,-0.8226851224899292,-0.46311628818511963,-0.6817343831062317
1772376794069848800,0.566848876953125,-2.235041902552545,0.49343723185621197,-16.786957799667118,-0.5000360608100891,-0.0431504063308239,-0.6393203139305115
1772376794079797800,0.5767978515625,-0.8507011755511165,0.9085038145698606,-16.17885278981924,0.031048841774463654,0.27035877108573914,-0.4418807327747345
1772376794089746700,0.58674658203125,-0.003563428102619946,1.1117908101264387,-13.91425015400052,0.5889478921890259,0.40294769406318665,-0.2514674961566925
1772376794099695600,0.596695556640625,0.431298719057627,0.5471282708376646,-10.44162781920433,1.0788545608520508,0.38894373178482056,-0.07046043872833252
1772376794109644500,0.60664453125,0.41392420774549243,-0.2636546627577394,-6.407163628563285,1.4255677461624146,0.24747243523597717,0.055969659239053726
1772376794119593700,0.61659375,0.10256433895025402,-0.6856051597662269,-2.465028762051463,1.6429877281188965,0.028532087802886963,0.08924772590398788
1772376794129542700,0.626542724609375,-0.3445202705211937,-0.5723888226918876,0.9830705413848161,1.7608004808425903,-0.19080597162246704,0.06648135185241699
1772376794139491600,0.63649169921875,-1.2050570497795938,-0.09084609983414411,4.153358281090855,1.72247314453125,-0.40934285521507263,-0.12360204011201859
1772376794149440800,0.646440673828125,-1.284315879933536,0.19544979912489652,6.517067187827825,1.6264253854751587,-0.43224719166755676,-0.2429790198802948
1772376794159389700,0.6563896484375,-0.3507554020510986,-0.10110139025822282,8.300213756158948,1.4705740213394165,-0.36427292227745056,-0.2812720537185669
1772376794169338600,0.666338623046875,0.7496870251849294,-0.3956470850378275,9.049094433397054,1.3659149408340454,-0.2525150775909424,-0.23345793783664703
1772376794179287600,0.67628759765625,1.3093662961684167,-0.509719162158668,9.19410554639995,1.35107421875,-0.12153442203998566,-0.19587886333465576
1772376794189236700,0.68623681640625,1.0078203672379256,0.16250599929168819,9.305572117197514,1.4060026407241821,-0.03882760927081108,-0.20553214848041534
1772376794199185700,0.696185546875,0.5977609086291864,1.2335336410708724,9.377862861904502,1.4903254508972168,-0.03715834021568298,-0.24160119891166687
1772376794209133600,0.706133544921875,0.2863727635875344,1.9618153285250066,9.515069438636303,1.616188883781433,-0.0971088781952858,-0.31368982791900635
1772376794219082500,0.71608251953125,0.06232501181401312,2.312068151348829,9.609770168071984,1.778962254524231,-0.23670539259910583,-0.42828404903411865
1772376794229031700,0.72603173828125,0.05285243273284286,2.5174586219906807,9.66824632243812,1.9384609460830688,-0.46061232686042786,-0.5733094215393066
1772376794238980900,0.73598095703125,0.2046180614972487,2.658485926054418,9.659553312894701,2.0864946842193604,-0.7430427074432373,-0.742524266242981
1772376794248929800,0.7459296875,0.4052795673884451,2.7003894235432147,9.541030393844842,2.227487325668335,-1.0141315460205078,-0.9064183831214905
1772376794258878700,0.755878662109375,0.6838951409779489,3.031693215747177,9.338245721787214,2.359072208404541,-1.3533169031143188,-0.9950374364852905
1772376794268827600,0.76582763671875,1.1451213442549109,3.8899838235139845,9.15384134055078,2.399487018585205,-1.5560643672943115,-0.9973803162574768
1772376794278776600,0.775776611328125,1.657386099243164,4.619863739944994,8.991127982118725,2.335521936416626,-1.7039672136306763,-0.9471991658210754
1772376794288725500,0.7857255859375,2.031416688017547,4.922208564168215,8.76118291593492,2.179502248764038,-1.6657379865646362,-0.8385485410690308
1772376794298674700,0.7956748046875,2.2542072062715888,5.050871184438467,8.40468652254641,1.9689762592315674,-1.3483126163482666,-0.684609055519104
1772376794308624000,0.805623779296875,2.2963312146432697,5.196843251428008,8.033964619928598,1.567484974861145,-0.7901751399040222,-0.4957650303840637
1772376794318572800,0.81557275390625,2.4197882290944457,5.016237677952647,8.039260388249158,0.9040970802307129,-0.18647779524326324,-0.19001950323581696
1772376794328521700,0.825521728515625,2.5745301702558994,4.4046755133882165,8.052048558151721,0.048638563603162766,0.26919272541999817,0.24455860257148743
1772376794338470700,0.835470703125,2.199119671430439,3.530389756371081,7.870632837337255,-0.9244919419288635,0.574234127998352,0.5809260010719299
1772376794348419600,0.845419677734375,1.3158148877859115,2.384857785488665,7.155107317212224,-1.933044672012329,0.8635887503623962,0.693376898765564
1772376794358368500,0.855368408203125,0.303428089415282,1.03039694070518,6.097166536021232,-2.996673345565796,1.2374894618988037,0.6300147175788879
1772376794368316700,0.865316650390625,-0.517172181578353,-0.31697423807829617,5.11587937092185,-4.166704177856445,1.4324239492416382,0.4677257537841797
1772376794378265600,0.875265625,-0.6661476681675762,-1.0751505669280885,3.6866292426139116,-5.252914905548096,0.5709360837936401,0.3698418140411377
1772376794388214500,0.885214599609375,2.0432719609841703,-2.2381837077096103,-6.102770931899547,-4.876470565795898,1.463898777961731,0.6210011839866638
1772376794398163500,0.89516357421875,1.2039592446055263,-5.294608629131317,-8.991318536254763,-4.082217693328857,1.5845175981521606,0.4948163330554962
1772376794408112600,0.905112548828125,-1.6698606731519101,-4.655128237810731,-12.547682399576901,-2.913811683654785,1.091277837753296,0.04006218537688255
1772376794418061800,0.915061767578125,-4.0695673604652285,-2.5514035616904494,-14.929231498908996,-1.8823567628860474,0.2109675109386444,-0.6225048303604126
1772376794428010800,0.9250107421875,-5.3164077884852885,-1.3590524103574455,-14.443804774224757,-1.5233020782470703,-0.6713942885398865,-1.1744418144226074
1772376794437959700,0.934959716796875,-3.8960049834996457,-1.0205893940486013,-13.798927492296695,-1.5557814836502075,-1.2351360321044922,-1.439853549003601
1772376794447908600,0.94490869140625,-2.1828622179821133,-0.2882558008551597,-14.076046982109546,-1.6678966283798218,-1.189004898071289,-1.4051177501678467
1772376794457857500,0.954857421875,-1.4196591470114885,0.6480412989169358,-14.510117613565921,-1.738716721534729,-0.5951162576675415,-1.2267608642578125
1772376794467806500,0.964806396484375,-1.1818875519204883,1.408603646120429,-14.098311420887708,-1.7528343200683594,0.24204562604427338,-0.9837736487388611
1772376794477756000,0.974755859375,-0.7066233978755772,1.6631187976762651,-12.610510319411754,-1.7264440059661865,1.0014923810958862,-0.6924323439598083
1772376794487704800,0.984704833984375,-0.03795859578792005,1.411241008886695,-10.430314982551335,-1.6430565118789673,1.487671971321106,-0.4211823344230652
1772376794497653800,0.99465380859375,0.37147403615936636,1.0019546170096845,-7.939074505400657,-1.5178942680358887,1.6664752960205078,-0.22528497874736786
1772376794507602700,1.004602783203125,0.43289303904436527,0.6506290503878146,-5.3108033926069735,-1.3166141510009766,1.4998517036437988,-0.0998130664229393
1772376794517551600,1.014551513671875,0.36563272625263776,0.3282255903350189,-2.9698721348673103,-1.0969367027282715,1.1235294342041016,-0.020589618012309074
1772376794527500500,1.02450048828125,0.011348478788533248,0.13614782492648808,-0.7575351083368063,-0.8953956365585327,0.6733493208885193,-0.0035117107909172773
1772376794537449500,1.034449462890625,-0.6125520158519968,0.026250476207025347,1.171561315152049,-0.7454325556755066,0.28974494338035583,-0.04523944854736328
1772376794547397600,1.044397705078125,-1.0034041582308708,-0.18389000197350977,2.6532407188773153,-0.6443445682525635,0.03148245811462402,-0.11910036206245422
1772376794557346600,1.0543466796875,-1.0666972113594413,-0.27336179951345546,3.79560399659574,-0.5760049223899841,-0.13253657519817352,-0.20897485315799713
1772376794567295700,1.064295654296875,-0.8749416636426002,-0.1716294909405522,4.416546276184916,-0.49518606066703796,-0.10955207049846649,-0.25981900095939636
1772376794577244700,1.07424462890625,-0.10762572312620468,0.12890824732808395,4.849242112156748,-0.41011324524879456,0.11092278361320496,-0.1943979263305664
1772376794587193600,1.084193603515625,0.9633293374739587,0.4978786483697593,5.44757099339962,-0.3695966899394989,0.25884538888931274,0.003463760484009981
1772376794597142800,1.094142822265625,1.2372050230599938,0.2134778424423188,5.7735331323146815,-0.2779749035835266,0.45123374462127686,0.16141770780086517
1772376794607091700,1.104091796875,0.8971041033510119,-0.09428275975193828,6.080986970114708,-0.1731611043214798,0.7247026562690735,0.34217485785484314
1772376794617040600,1.11404052734375,0.7712046641837805,0.23542030099080874,6.514116521328687,-0.03402851149439812,0.9302965402603149,0.47342023253440857
1772376794626989600,1.123989501953125,0.1752048652092926,0.14140135240736418,6.951795990931988,0.0906805470585823,1.0432777404785156,0.5367180705070496
1772376794636938500,1.1339384765625,-0.5754124448293819,-0.009339134560385718,7.482482830056548,0.21919457614421844,1.1204601526260376,0.5255820751190186
1772376794646887700,1.1438876953125,-0.8479756961099802,-0.2892774720530957,7.648418657666444,0.35108235478401184,1.1434823274612427,0.46924299001693726
1772376794656836900,1.1538369140625,-0.9086419078662991,-0.5804955202473328,7.842207537841796,0.5210921764373779,1.1027425527572632,0.34957972168922424
1772376794666785800,1.163785888671875,-1.0152775513760746,-0.8974544511586428,8.643143981009722,0.7409262657165527,0.8950576782226562,0.16203247010707855
1772376794676734700,1.173734619140625,-0.8226072999671101,-1.3495116979435084,9.564994037756323,0.9666184782981873,0.41353341937065125,0.0011857994832098484
1772376794686683600,1.18368359375,-1.0141958936192095,-1.5244512084811925,10.231036272788048,1.1445595026016235,-0.133316308259964,-0.17109055817127228
1772376794696632600,1.193632568359375,-0.7969939891524612,-1.259755439172685,10.265359398150444,1.2730062007904053,-0.24741891026496887,-0.2982860505580902
1772376794706581500,1.20358154296875,-0.4101566719055176,-1.0000257678389548,9.933947177135943,1.343549370765686,-0.3961915671825409,-0.3431697189807892
1772376794716529700,1.21352978515625,-0.9951320044480264,-0.8700620749074965,9.718646137854456,1.380098581314087,-0.6822561025619507,-0.3202598989009857
1772376794726478600,1.223478515625,-1.3272516430795191,-0.97103406663239,8.544984051030873,1.3070485591888428,-0.8575029373168945,-0.21750536561012268
1772376794736427800,1.233427734375,-0.7494936215046792,-0.9038998279057443,6.33447540897131,0.9447944164276123,-0.6542015075683594,-0.05076379328966141
1772376794746376700,1.243376708984375,-0.4037347125666216,-0.861497075657919,4.346823336139321,0.5195768475532532,-0.3915542662143707,0.07500986009836197
1772376794756325600,1.25332568359375,0.8519390467830001,-0.9555524929273873,2.189618414244056,-0.020341012626886368,-0.14817117154598236,0.6144757866859436
1772376794766274800,1.26327490234375,2.9851214341863987,-0.9833451936077326,0.06514321103990077,-0.3781108260154724,-0.38842976093292236,1.2964352369308472
1772376794776223700,1.2732236328125,3.4959225463628765,-1.795752951925993,-2.3689333633869887,-0.7250841856002808,-0.6368619203567505,1.4514524936676025
1772376794786172700,1.283172607421875,0.37876346251517534,-3.2759231201320884,-4.8527282007068395,-1.2120766639709473,-1.4042435884475708,0.8529264330863953
1772376794796121600,1.29312158203125,-3.141375533476472,-4.451356600542367,-7.883602209025621,-1.872514247894287,-2.495530605316162,-0.06287900358438492
1772376794806070500,1.303070556640625,-5.749015946173667,-3.056411477418244,-12.844964387452602,-2.3983447551727295,-3.193110466003418,-0.8308080434799194
1772376794816019700,1.313019775390625,-7.413457809147238,0.3329537513680756,-19.502692091858385,-2.4553420543670654,-3.0879037380218506,-1.3464809656143188
1772376794825968600,1.32296875,-7.152538343507051,3.722481184978783,-25.626975767385957,-1.9144787788391113,-2.279959201812744,-1.4869890213012695
1772376794835917800,1.332917724609375,-4.7417932525679465,6.190822724840045,-29.65641482334137,-0.9124080538749695,-0.8857740163803101,-1.1359326839447021
1772376794845866800,1.34286669921875,-2.123811478598416,6.9703247503131625,-29.987156013226507,0.0820235013961792,0.5707154870033264,-0.445616215467453
1772376794855815700,1.352815673828125,-0.17726809961572287,5.722537689092755,-25.546973425388334,0.7480965852737427,1.5696804523468018,0.17545877397060394
1772376794865764600,1.3627646484375,-0.20018026171289383,4.630785531453788,-18.87089056460261,1.1311204433441162,2.009350299835205,0.5120018720626831
1772376794875713500,1.372713623046875,-0.7480588394612073,3.2776708405822514,-12.858197963035106,1.396474838256836,1.9279743432998657,0.5780482888221741
1772376794885661700,1.38266162109375,-1.6586274776063858,2.2362138689413666,-8.41522369865179,1.701904058456421,1.6711658239364624,0.5196044445037842
1772376794895610600,1.392610595703125,-1.3967502728499472,0.7053256862152367,-4.38884461478889,1.9136905670166016,1.156082272529602,0.45696157217025757
1772376794905559800,1.402559814453125,-0.9421960946828126,-0.10934702136032283,-0.7047089425563812,2.020718812942505,0.6340399980545044,0.39060327410697937
1772376794915508700,1.4125087890625,-0.4763732112653553,-0.43875330937989054,2.144375835460424,2.0732839107513428,0.2781814932823181,0.3981775641441345
1772376794925457700,1.422457763671875,0.06141819003424607,-0.5470235683541744,4.408269446226954,2.0723774433135986,0.09831443428993225,0.4927600026130676
1772376794935406600,1.432406494140625,0.22676051786355672,-0.448523665831238,6.445928535765409,2.0060410499572754,0.05265720561146736,0.5960161089897156
1772376794945355800,1.442355712890625,-0.030882677468762266,-0.4061250783018768,8.322782730841636,1.8675833940505981,0.05797256529331207,0.6582594513893127
1772376794955304700,1.4523046875,0.015427434648259077,-0.4381529323339462,9.822097744500637,1.7018423080444336,0.22021420300006866,0.7231582999229431
1772376794965253600,1.462253662109375,0.6345183849990368,0.033667437932640314,11.627545576488972,1.421642541885376,0.19033856689929962,0.7845804691314697
1772376794975202600,1.47220263671875,0.7043886976260691,0.3694309860244393,12.711699241822958,1.1284668445587158,0.1389898806810379,0.8535614013671875
1772376794985151700,1.48215185546875,0.3544122805908322,-0.11402122371643782,12.39835342337489,0.9256762266159058,0.30285242199897766,0.8643351197242737
1772376794995100700,1.4921005859375,-0.5418559929905459,0.1598489089116454,11.843918044394254,0.8304871320724487,0.5487825274467468,0.7236112952232361
1772376795005049600,1.502049560546875,-1.4900655392765998,0.6977047628827393,11.507295395255088,0.777029275894165,0.768346905708313,0.49092161655426025
1772376795014999000,1.5119990234375,-1.6372135181777179,1.1762215620480476,11.352401770663262,0.7587916254997253,1.0014245510101318,0.2651236653327942
1772376795024948000,1.521947998046875,-1.0809585225544869,1.579022172102332,11.283238802587986,0.7644985914230347,1.1489624977111816,0.12785276770591736
1772376795034897000,1.53189697265625,-0.14900533373821526,1.6387451116591691,11.347415798944235,0.7849937677383423,1.155287504196167,0.12081988900899887
1772376795044845800,1.541845703125,0.9550989770062267,1.495680748809874,11.452047555285692,0.8295143842697144,1.1067358255386353,0.2173343449831009
1772376795054793700,1.551793701171875,1.664091588231176,1.6251596538990736,11.717675344747304,0.8722315430641174,1.0139355659484863,0.35478460788726807
1772376795064743000,1.561742919921875,1.9962845843598245,1.8943883904621004,12.210934662753344,0.8644518852233887,0.9081322550773621,0.5252256989479065
1772376795074691800,1.57169189453125,1.4698844826437532,2.5208976565286516,12.77905720630288,0.7568620443344116,0.6249614953994751,0.6799218058586121
1772376795084640800,1.581640869140625,0.3879155409377068,2.768341846784949,13.100237956160306,0.48344457149505615,0.04620267078280449,0.7594277858734131
1772376795094589700,1.591589599609375,0.296369110814482,1.762904575291276,13.081202416300773,0.1215212345123291,-0.5042551159858704,0.7252594232559204
1772376795104539000,1.601538818359375,-0.28641948880609125,1.2826929549068211,12.676662999755143,-0.35827940702438354,-1.1591689586639404,0.5806466341018677
1772376795114487800,1.61148779296875,-0.4401155741764232,0.6817649970814585,11.901938856208323,-1.0064046382904053,-1.9027892351150513,0.5034253001213074
1772376795124436700,1.621436767578125,-0.02275436858641915,-0.10289221919775009,10.584195046186446,-1.8071367740631104,-2.7138712406158447,0.5120881795883179
1772376795134386000,1.631385986328125,0.38813101031929254,-0.6683660018041729,8.528820267215371,-2.6993229389190674,-3.047022819519043,0.5716772079467773
1772376795144334800,1.6413349609375,2.1151453570619223,-1.5853924377866089,-1.4376280805528163,-2.7425479888916016,-1.84598708152771,0.7748473286628723
1772376795154283800,1.65128369140625,3.41283100617826,-3.1340608265489336,-10.979044258844851,-2.315983533859253,-1.28022301197052,0.7168799042701721
1772376795164232700,1.661232666015625,-1.4450246205449104,-1.435067874675989,-14.532072255742548,-1.5259816646575928,-1.320009469985962,0.4882652163505554
1772376795174181600,1.671181640625,-2.6501743170440197,-1.1438850804582237,-20.607199978435037,-0.9423890709877014,-1.5195188522338867,0.1101488247513771
1772376795184130800,1.681130859375,-3.483555816742778,-1.024202323848754,-22.45450659198761,-0.5043662786483765,-1.66860032081604,-0.14940088987350464
1772376795194080000,1.691080078125,-3.8959614366188644,0.02887348165437579,-24.192589445233345,-0.18984131515026093,-1.484421968460083,-0.3498804569244385
1772376795204029000,1.70102880859375,-3.3268396528989075,0.5876192711800337,-25.206966394507884,0.07108714431524277,-0.9106554985046387,-0.3495020866394043
1772376795213976800,1.710976806640625,-2.462996671701968,0.9732052731916307,-24.71804422892332,0.2515738308429718,-0.14734908938407898,-0.2331131547689438
1772376795223925800,1.72092578125,-1.9160291443839668,0.9016866819009184,-22.673309501910207,0.3780309855937958,0.6037406921386719,-0.09959786385297775
1772376795233874700,1.730874755859375,-1.5957397904083133,0.3925378669761121,-19.46631612561941,0.47632452845573425,1.1172758340835571,-0.0320931151509285
1772376795243823900,1.740823974609375,-1.2937981401585041,-0.2267313648343086,-15.710546711283921,0.5693628191947937,1.2661521434783936,-0.05273126810789108
1772376795253772800,1.750772705078125,-0.728060518984124,-0.8368538519844412,-11.808607077038287,0.6204944252967834,1.061699390411377,-0.12698125839233398
1772376795263721700,1.7607216796875,-0.004877908234670758,-1.161646216467768,-8.26746007207036,0.6388076543807983,0.7051438093185425,-0.19460174441337585
1772376795273671000,1.7706708984375,0.6085134445182979,-1.1513258979834615,-5.4607186442643405,0.6328006386756897,0.363454133272171,-0.20739397406578064
1772376795283619800,1.780619873046875,0.7050134784609079,-0.9168481568060814,-3.2727345532238483,0.6000245809555054,0.15703287720680237,-0.1971486210823059
1772376795293568800,1.79056884765625,0.26432927408367396,-0.6960526117615401,-1.300970369875431,0.5283359885215759,0.1705114096403122,-0.1980823278427124
1772376795303517700,1.800517578125,-0.2231182889036834,-0.4232487931907177,0.6932441302120685,0.3784455955028534,0.38364681601524353,-0.1895533800125122
1772376795313467000,1.810466796875,-0.3911565686855465,-0.054392099922895426,2.80058582778573,0.16109248995780945,0.6710114479064941,-0.17785410583019257
1772376795323415800,1.820415771484375,-0.5271799269821494,0.16649273084029553,4.786826280254125,-0.06762940436601639,0.9313806295394897,-0.18765656650066376
1772376795333364700,1.83036474609375,-0.6639750733688473,0.3323566622577607,6.385963604146242,-0.24185900390148163,1.1068811416625977,-0.22644737362861633
1772376795343313700,1.840313720703125,-0.718381128751859,0.49562034804895516,7.418183084103465,-0.3079127073287964,1.2298113107681274,-0.26679307222366333
1772376795353262800,1.850262939453125,-0.5868089046452194,0.6556792464494705,8.157098247644305,-0.24921266734600067,1.2689133882522583,-0.2876378893852234
1772376795363211800,1.860211669921875,-0.5291997423719614,0.8569201961964368,8.87177738007307,-0.11942484229803085,1.2014230489730835,-0.29987937211990356
1772376795373160000,1.870159912109375,-0.5612214589241892,0.9852478854238986,9.697192430937289,0.03543131798505783,1.0738904476165771,-0.31151339411735535
1772376795383108900,1.88010888671875,-0.46275301098544147,1.1672944514878094,10.595310314440727,0.1765141636133194,0.8882648944854736,-0.30032193660736084
1772376795393057800,1.890057861328125,-0.3762870989969,1.2212934604398906,11.291710862857103,0.3140445947647095,0.7143109440803528,-0.28036126494407654
1772376795403006700,1.9000068359375,-0.21464772647190838,1.1939257071733473,11.712457902359962,0.4438022971153259,0.5435633659362793,-0.26613864302635193
1772376795412955600,1.90995556640625,-0.2785417411683127,1.4360717910215257,12.166853528964518,0.5392928719520569,0.34638237953186035,-0.24834418296813965
1772376795422904800,1.91990478515625,-0.389521624427475,1.795285480544716,12.653605949294567,0.577376127243042,0.16158521175384521,-0.22855791449546814
1772376795432853800,1.929853759765625,-0.32126901266276836,1.9347098794564603,13.176594050610065,0.5517913699150085,0.0161297507584095,-0.21066492795944214
1772376795442803000,1.939802978515625,-0.3302096037590876,1.97068179493919,13.514399772053956,0.4648863971233368,-0.12615293264389038,-0.20710395276546478
1772376795452752000,1.949751953125,-0.3549931492187083,1.9557976756706832,13.612780651307105,0.3418257236480713,-0.22164882719516754,-0.21329019963741302
1772376795462700800,1.95970068359375,-0.33993729011248797,1.9501150999896226,13.418451672905682,0.22107544541358948,-0.2881307303905487,-0.21434450149536133
1772376795472649700,1.969649658203125,-0.4569239029731601,1.8846930720083415,12.891120573949813,0.11246693879365921,-0.3626750111579895,-0.2309865951538086
1772376795482598700,1.9795986328125,-0.5421915816204622,1.6334205556355417,12.209151870989798,-0.038731712847948074,-0.5411341190338135,-0.2752159833908081
1772376795492547800,1.9895478515625,-0.567551867522113,1.4890828118495643,11.449205609858035,-0.2083204835653305,-0.7698826193809509,-0.3210388720035553
1772376795502496800,1.999496826171875,-0.5307894592488184,1.2635242901869117,9.892892697691916,-0.3746720850467682,-1.0333987474441528,-0.3382481634616852
1772376795512445700,2.00944580078125,-0.3693284024327993,0.8865618857443333,8.169358009758591,-0.6177156567573547,-1.3369112014770508,-0.3294181823730469
1772376795522395000,2.019394775390625,-0.0946079548520036,0.4527691944465041,5.905348079136013,-0.894997775554657,-1.5897443294525146,-0.2964334487915039
1772376795532342800,2.0293427734375,0.2153448601569049,-0.1819189941614866,2.4140911864966155,-1.075888991355896,-1.7267889976501465,-0.25692519545555115
1772376795542292000,2.0392919921875,0.4791229483649134,-0.9503915299676358,-2.095000686916709,-1.0769919157028198,-1.8086769580841064,-0.2107522338628769
1772376795552241000,2.049240966796875,0.6356804875809698,-1.5936824194870889,-6.850796453613042,-0.8925765156745911,-1.9147543907165527,-0.14373032748699188
1772376795562189800,2.05918994140625,0.32345702422633765,-2.0941477233491836,-10.94379758889675,-0.6622939705848694,-2.012552261352539,-0.10328695178031921
1772376795572138800,2.069138671875,-0.5615994253911077,-2.2617976614005864,-13.83970607740879,-0.5703675150871277,-2.108339548110962,-0.08868563175201416
1772376795582087700,2.079087646484375,-2.3419177845589814,-1.9138842413097619,-15.772198573076723,-0.7297524213790894,-2.175828218460083,-0.14322426915168762
1772376795592036600,2.08903662109375,-4.586253439027071,-1.2427340156145392,-17.748361868166924,-1.0066035985946655,-2.056870937347412,-0.2547371983528137
1772376795601985800,2.09898583984375,-6.06537263687551,-0.9715604285940528,-20.339126549386975,-1.1862326860427856,-1.6612259149551392,-0.38900861144065857
1772376795611935000,2.10893505859375,-6.6653101223587985,-0.6440595358043909,-23.017627966248988,-1.1452460289001465,-0.9809912443161011,-0.48957306146621704
1772376795621884000,2.1188837890625,-6.2596127679497,0.07114566632509231,-24.889386299490926,-0.8421303629875183,-0.10721036791801453,-0.4352942705154419
1772376795631832800,2.128832763671875,-5.031960732263326,0.7621427482627332,-24.883178677022457,-0.3752898871898651,0.6699104309082031,-0.28359290957450867
1772376795641781800,2.13878173828125,-4.261332333597541,1.5706052030213176,-22.80762795598507,0.16336096823215485,1.2564895153045654,-0.09854907542467117
1772376795651730700,2.148730712890625,-2.8759315761491653,1.0818358899109064,-18.672390437996388,0.5590028762817383,1.4194321632385254,0.07170388102531433
1772376795661679900,2.158679931640625,-2.0211611053325234,0.7236917293153703,-13.668508968269824,0.8295950293540955,1.3005155324935913,0.1920211911201477
1772376795671628800,2.16862890625,-1.380214586982131,0.3456894604310393,-9.154787096968292,1.01252281665802,1.094015121459961,0.31190523505210876
1772376795681577700,2.17857763671875,-0.9429922134965658,-0.08824030124992131,-5.328550061699747,1.116719365119934,0.9672248363494873,0.4186149537563324
1772376795691525600,2.188525634765625,-0.9109078069716692,-0.4998324127860367,-1.914012836125493,1.1399089097976685,0.9185997247695923,0.4836338758468628
1772376795701474800,2.198474853515625,-1.0985728705044835,-0.7590906672157347,1.1550807204723357,1.097923755645752,0.9650897979736328,0.5024853348731995
1772376795711424000,2.208424072265625,-1.1906710892915724,-0.765576522103697,3.8583909998983144,1.010429859161377,1.0249344110488892,0.502303957939148
1772376795721373000,2.218373046875,-1.176025162693113,-0.6544644638322293,6.1151014211624855,0.928543746471405,1.0476714372634888,0.4944661855697632
1772376795731321900,2.22832177734375,-0.9582309914216398,-0.4126093257546425,7.933503427270054,0.8700916171073914,1.0212023258209229,0.4790608584880829
1772376795741270800,2.238270751953125,-0.6097700935158878,-0.17515271489694714,9.427702120828627,0.8447710871696472,0.9845541715621948,0.461459755897522
1772376795751219700,2.2482197265625,-0.5836137983983383,0.12221782804504036,10.763328793543577,0.788305401802063,0.8968440294265747,0.37365081906318665
1772376795761168600,2.258168701171875,-0.6610388737864792,0.4301347533121705,12.009488545823096,0.7186998128890991,0.8271781802177429,0.27869948744773865
1772376795771117600,2.26811767578125,-0.2788033147139475,0.8617068459510803,12.768884187334775,0.62380051612854,0.7785531282424927,0.17256000638008118
1772376795781067000,2.27806689453125,-0.3232872571500018,1.5252794759988784,13.529483943939209,0.4865434467792511,0.7347920536994934,0.0681554302573204
1772376795791016000,2.288015869140625,0.3278244987208396,1.9172043256431817,14.137143548107147,0.32500994205474854,0.7364171147346497,0.017911436036229134
1772376795800964900,2.29796484375,0.9823441268064081,2.159480465611815,14.446767131161689,0.17625971138477325,0.7159908413887024,0.0043355864472687244
1772376795810913800,2.307913818359375,1.485333542318642,2.381319382229447,14.422495444214343,0.06631137430667877,0.6567408442497253,0.03877425193786621
1772376795820862700,2.31786279296875,1.9397287305317819,2.5392659646511078,14.197891739058493,0.018042728304862976,0.5573713183403015,0.11786628514528275
1772376795830811600,2.327811767578125,2.3214406675890085,2.633245101813972,14.011811533564329,0.028093498200178146,0.33340078592300415,0.22934702038764954
1772376795840760800,2.3377607421875,2.371217674931884,2.5930843563392756,13.984570475417375,0.06195267289876938,-0.011183461174368858,0.32153090834617615
1772376795850708700,2.347708740234375,2.230993357814103,2.480549279527366,13.819909490048884,0.07972794026136398,-0.3311348259449005,0.39453959465026855
1772376795860657700,2.35765771484375,1.9338485864520072,2.3476143887653946,13.491139307975768,0.03997672721743584,-0.5833413600921631,0.40740084648132324
1772376795870606800,2.36760693359375,1.081886962511018,2.185850878404081,12.812339882701634,-0.06387244164943695,-0.7626411318778992,0.3545975387096405
1772376795880555800,2.3775556640625,0.786147600967437,1.8401158252656458,11.80427693887949,-0.19636760652065277,-0.7866776585578918,0.2941073775291443
1772376795890505000,2.3875048828125,0.7085786235965787,1.4413476855978369,10.676335569745302,-0.4493071734905243,-0.7542172074317932,0.2312951385974884
1772376795900454000,2.397453857421875,0.5413471301529557,1.0923977620661258,9.71375135155022,-0.8409270644187927,-0.6938442587852478,0.15729650855064392
1772376795910402800,2.40740283203125,0.6751726130791008,0.5481820176742971,7.765777209112048,-1.287634015083313,-0.6838382482528687,0.08322706818580627
1772376795920351700,2.417351806640625,1.0964843007273972,-0.1323943541444838,4.630301839590072,-1.6385798454284668,-0.7258427739143372,0.05249270051717758
1772376795930300700,2.42730078125,1.6607774952471255,-0.6550427021116018,0.18282909474372863,-1.7944304943084717,-0.7897834181785583,0.08265779167413712
1772376795940249600,2.43724951171875,2.352843521590531,-0.9663375793792307,-4.84259960540235,-1.7422140836715698,-0.8497288227081299,0.18928243219852448
1772376795950198800,2.44719873046875,2.5938644008010625,-1.409897777584195,-9.696313894537091,-1.5699504613876343,-1.0105869770050049,0.3034771680831909
1772376795960148000,2.45714794921875,1.5690069740444421,-1.5966617275588213,-13.608708871823548,-1.4577018022537231,-1.2352406978607178,0.31297600269317627
1772376795970097000,2.467096923828125,-0.7416613204438239,-1.594784535510093,-16.644225737512112,-1.5002371072769165,-1.3671680688858032,0.1252945363521576
1772376795980045800,2.4770458984375,-3.474409218212962,-1.3457780643731354,-19.84759507808685,-1.5444053411483765,-1.2313523292541504,-0.20271432399749756
1772376795989994800,2.486994873046875,-4.755125612349808,-0.7341757139287889,-23.400445380330083,-1.3975013494491577,-0.7783772349357605,-0.4684394896030426
1772376795999943700,2.496943603515625,-4.213326427580416,0.259236773250252,-25.997712283051012,-1.0227065086364746,-0.11811293661594391,-0.5343823432922363
1772376796009892600,2.506892578125,-2.841626863226294,1.2585549773417413,-26.439699678981302,-0.5401806831359863,0.5828078985214233,-0.41893723607063293
1772376796019840500,2.516840576171875,-1.580264573378861,1.638873998735845,-24.41924832935333,-0.10941170156002045,1.1304993629455566,-0.2252391129732132
1772376796029789400,2.52678955078125,-0.7937032770439982,1.3210074879929423,-20.518672969198224,0.2022407203912735,1.3694307804107666,-0.08558986335992813
1772376796039738400,2.53673828125,-0.5021250537678599,0.648180342061445,-16.02754462249875,0.3992501497268677,1.3393808603286743,-0.04573823884129524
1772376796049687600,2.5466875,-0.24752112795002756,-0.10156250496394932,-11.718291430819034,0.4853679835796356,1.1376816034317017,-0.07497043162584305
1772376796059636500,2.556636474609375,0.05968034252412617,-0.5701459391359239,-7.828765287944674,0.4589363932609558,0.8975121974945068,-0.12807774543762207
1772376796069585700,2.566585693359375,0.25201653967313464,-0.846523816801235,-4.5779117271393535,0.34284707903862,0.7663216590881348,-0.1808464229106903
1772376796079534600,2.57653466796875,0.2101091331942007,-0.8685645298261195,-1.9814573098450898,0.1629304587841034,0.8163893818855286,-0.22338178753852844
1772376796089483500,2.5864833984375,0.12995901675634086,-0.7762856937751174,0.0991489410161972,-0.04207141697406769,1.0167063474655151,-0.23989205062389374
1772376796099432400,2.596432373046875,0.23575298527758567,-0.5814608946807682,1.8668734838098286,-0.2261306792497635,1.2436414957046509,-0.231314554810524
1772376796109381400,2.60638134765625,0.4342292560841888,-0.2862033253047615,3.235541425383091,-0.31733250617980957,1.3694311380386353,-0.1966700255870819
1772376796119330300,2.616330322265625,0.5448019467819482,0.12693871908709406,4.182407849964499,-0.267147958278656,1.3585764169692993,-0.12987889349460602
1772376796129279500,2.626279541015625,0.5508532096449286,0.5245579079154878,4.959085465666652,-0.09439002722501755,1.1935968399047852,-0.05803187936544418
1772376796139228700,2.636228759765625,0.44162923014238475,0.7281285427190363,5.959277822244167,0.137809619307518,0.9164218902587891,0.0035537336952984333
1772376796149177600,2.646177490234375,0.26370652080914003,0.7482417217474431,7.1345455906987185,0.37997937202453613,0.6345321536064148,0.03862250596284866
1772376796159126500,2.65612646484375,-0.021019187957420943,0.79124046712704,8.276240759897231,0.5741487741470337,0.4388253092765808,0.05410135164856911
1772376796169074400,2.666074462890625,-0.3513265530025586,0.8650465848330408,9.368759517994523,0.7076402306556702,0.3380339741706848,0.04855877906084061
1772376796179023600,2.676023681640625,-0.614022928654775,0.9781003517568111,10.457418093532324,0.7629187703132629,0.3243928849697113,0.032892901450395584
1772376796188972500,2.68597265625,-0.7489794614374637,1.1484708008132873,11.46006953369975,0.7394933104515076,0.34320172667503357,0.01982077583670616
1772376796198921500,2.69592138671875,-0.747388465918973,1.233645430882275,12.31976445530653,0.6575568318367004,0.3834989070892334,0.014105119742453098
1772376796208870400,2.705870361328125,-0.8427491205681115,1.2898608007095753,13.013733392661809,0.5349164009094238,0.4078234136104584,0.0004470987478271127
1772376796218819600,2.715819580078125,-0.8815494644097983,1.361106420277804,13.466789295095204,0.39785444736480713,0.3778493404388428,-0.01608455926179886
1772376796228768500,2.7257685546875,-0.9174321672391146,1.4122471171893178,13.524842840135097,0.2942444384098053,0.3122274577617645,-0.021717412397265434
1772376796238717400,2.735717529296875,-0.9711507518146186,1.3849632428139447,13.284749304902553,0.23401561379432678,0.21886780858039856,-0.0276377834379673
1772376796248666600,2.74566650390625,-1.0499360461726783,1.2416171404138208,12.999797221767901,0.1873043030500412,0.09938055276870728,-0.046206407248973846
1772376796258615600,2.755615478515625,-1.2089243927322328,1.1368328238591552,12.705886756151914,0.11125216633081436,-0.05559302866458893,-0.07978717237710953
1772376796268564500,2.765564453125,-1.3852125413998961,1.0840348612599073,12.121772862744331,0.02952321618795395,-0.20365466177463531,-0.12052048742771149
1772376796278513400,2.775513427734375,-1.4807738331876694,0.8419749943904579,11.259046610617636,-0.07377268373966217,-0.32860565185546875,-0.1603783816099167
1772376796288462300,2.78546240234375,-1.5124869221821426,0.47844914075657724,10.350462278157472,-0.2602432370185852,-0.48454543948173523,-0.2040925770998001
1772376796298411500,2.79541162109375,-1.4102292014956475,0.12955313936918972,9.11478943310082,-0.5240727663040161,-0.6297119855880737,-0.24240879714488983
1772376796308360700,2.805360595703125,-1.2100426561724393,-0.40560412316769356,7.024934876900911,-0.7952882647514343,-0.7509436011314392,-0.29011958837509155
1772376796318309600,2.8153095703125,-1.097052967460826,-0.8650846518211066,4.050721497958898,-1.017933964729309,-0.9469947814941406,-0.35076045989990234
1772376796328257500,2.825257568359375,-0.8739194079227744,-1.1747187562696635,0.3088257106751203,-1.1399059295654297,-1.1960163116455078,-0.4146842956542969
1772376796338206500,2.83520654296875,-0.664789750752598,-1.4710785147339105,-4.047798303988576,-1.123823642730713,-1.3837385177612305,-0.4759679138660431
1772376796348155400,2.8451552734375,-0.6718281249567866,-1.6655816806584596,-8.410027299052476,-1.0349570512771606,-1.5075446367263794,-0.517703652381897
1772376796358104600,2.8551044921875,-0.9503061167065053,-1.6496666109070182,-11.752158629107475,-1.0575600862503052,-1.6276334524154663,-0.5566807389259338
1772376796368053500,2.865053466796875,-1.5794374749049542,-1.1430229837361723,-14.137702351033687,-1.2866384983062744,-1.6683743000030518,-0.6092128753662109
1772376796378002400,2.87500244140625,-2.529434890988469,-0.36628808488883075,-16.555426341074703,-1.5892924070358276,-1.4808857440948486,-0.6533613204956055
1772376796387951600,2.88495166015625,-3.2285309620991347,0.3396946404630318,-19.343125799280404,-1.7990844249725342,-1.0103169679641724,-0.6729009747505188
1772376796397900500,2.894900634765625,-3.42262174783051,0.9932447293967008,-22.194155866146087,-1.7360475063323975,-0.3680896759033203,-0.6501843333244324
1772376796407849500,2.904849365234375,-2.730118206852674,1.5450215566925705,-24.50159109699726,-1.3382878303527832,0.29554662108421326,-0.5176188349723816
1772376796417798400,2.91479833984375,-1.302075262377411,1.9573621485084294,-25.32355513062477,-0.6755921840667725,0.8158061504364014,-0.24726644158363342
1772376796427747600,2.92474755859375,-0.017485095547139645,2.2067093959070743,-23.6964285605669,0.02268708311021328,1.0317734479904175,0.08706546574831009
1772376796437696500,2.934696533203125,0.40994839944969863,1.9275065239489078,-19.83150903568268,0.5599278211593628,0.9535729289054871,0.37129366397857666
1772376796447645400,2.9446455078125,0.1380143859833479,1.2260359787918627,-15.135326902949808,0.9135391712188721,0.7534709572792053,0.5746526718139648
1772376796457594400,2.954594482421875,-0.3054682900059968,0.4623316437682137,-10.737169100892544,1.1200873851776123,0.5728195905685425,0.7142331600189209
1772376796467543600,2.96454345703125,-0.6995305900704115,-0.23868867340330033,-6.73395871117115,1.2144572734832764,0.4796675145626068,0.8074398040771484
1772376796477492500,2.974492431640625,-1.0381951933659612,-0.7510835210446268,-3.0135914496064182,1.1894357204437256,0.47285422682762146,0.86069655418396
1772376796487440600,2.984440673828125,-1.3488590792536734,-1.0343633601181208,0.3814244984179735,1.0682928562164307,0.5408247113227844,0.8686788082122803
1772376796497389600,2.9943896484375,-1.5753111887551843,-1.1816598806444554,3.2437890292465683,0.8829641342163086,0.6664205193519592,0.8394764065742493
1772376796507338500,3.00433837890625,-1.6842285134613513,-1.080610293638706,5.451338821500539,0.6988835334777832,0.8031437397003174,0.7958181500434875
1772376796517287400,3.014287353515625,-1.4861138790413737,-0.8318133005339652,7.097419098353385,0.556326150894165,0.887749969959259,0.7580560445785522
1772376796527236400,3.024236328125,-1.2338264865376054,-0.5581279498882591,8.276795471170544,0.49126484990119934,0.8661008477210999,0.721307635307312
1772376796537185500,3.034185546875,-0.9536287583231925,-0.23372093146070835,9.07051423804462,0.5124504566192627,0.7518933415412903,0.6920750141143799
1772376796547134500,3.044134521484375,-0.6970017291799188,0.0971999258402735,9.594687165230512,0.6082116365432739,0.6102651357650757,0.6691026091575623
1772376796557083600,3.054083740234375,-0.4479764072120189,0.3961968278750777,10.229840341001749,0.7231984734535217,0.45249810814857483,0.6402089595794678
1772376796567032600,3.064032470703125,-0.32934644759111104,0.5941445812955498,11.032567759239672,0.8137965798377991,0.30568256974220276,0.6094401478767395
1772376796576981500,3.0739814453125,-0.17808811076171696,0.7488639452990145,11.832323468190431,0.8495967388153076,0.20802924036979675,0.5664522051811218
1772376796586930400,3.083930419921875,0.031295448104292155,0.874847336422652,12.453899369508028,0.8439748287200928,0.18024714291095734,0.5405391454696655
1772376796596879400,3.09387939453125,0.2367948224807158,0.9857017666712403,13.00442312800288,0.7845615744590759,0.1729688048362732,0.5202128887176514
1772376796606828500,3.10382861328125,0.17454028208702801,1.0825301557853817,13.550738328891992,0.673376739025116,0.16194571554660797,0.4768528938293457
1772376796616777500,3.113777587890625,0.08229100092407315,1.1206830685690046,13.919465258300304,0.5304762125015259,0.12100938707590103,0.42221465706825256
1772376796626726400,3.123726318359375,0.12768394796382634,1.208577917382121,14.032137697756289,0.37493449449539185,0.009340381249785423,0.35739651322364807
1772376796636674300,3.13367431640625,0.06850161808971315,1.2870008812338114,13.817743251925705,0.20736944675445557,-0.14802344143390656,0.28128814697265625
1772376796646623500,3.14362353515625,0.1849716231977567,1.376133747409284,13.167777122426033,0.06345196068286896,-0.3125668466091156,0.22945132851600647
1772376796656572700,3.15357275390625,0.6078931937281042,1.602353363329172,12.037704586482047,-0.046082984656095505,-0.4279838800430298,0.23016157746315002
1772376796666521600,3.163521484375,0.9187441996857524,1.6853788525402544,10.75692594076395,-0.1487576961517334,-0.526812732219696,0.26598218083381653
1772376796676470500,3.173470458984375,1.1045144624479115,1.5448881395712495,9.431642967408894,-0.2585848569869995,-0.5846012234687805,0.31492841243743896
1772376796686419500,3.18341943359375,1.0436262785039843,1.3426960265792907,7.757057896083593,-0.3905854821205139,-0.5935361385345459,0.3566790521144867
1772376796696368400,3.193368408203125,0.5356633123628795,1.0353395116738975,5.944367837882042,-0.5794199705123901,-0.6424095034599304,0.33995112776756287
1772376796706317300,3.2033173828125,0.03777933936403133,0.5175011943370104,3.6186733122408388,-0.7648937106132507,-0.6759112477302551,0.26689183712005615
1772376796716266500,3.2132666015625,-0.05619650986320339,-0.03709302846714854,0.40330841344594953,-0.8466953039169312,-0.6541612148284912,0.19335876405239105
1772376796726215700,3.223215576171875,0.2643511936545372,-0.47344870212078094,-3.059226827099919,-0.82801753282547,-0.6511774063110352,0.16066952049732208
1772376796736164600,3.23316455078125,0.7649277758713812,-0.8143471288830041,-6.25329057919085,-0.7479154467582703,-0.705803394317627,0.1525120735168457
1772376796746113500,3.243113525390625,0.9443350064076482,-1.2227739082559943,-8.935216709804534,-0.707655668258667,-0.8254794478416443,0.13369470834732056
1772376796756062500,3.2530625,0.7761876402281225,-1.6122905277147888,-11.249687246119976,-0.7249972820281982,-0.9603940844535828,0.07493947446346283
1772376796766011400,3.263011474609375,0.29255696864780034,-1.6541266590557993,-13.601139313352107,-0.7706467509269714,-1.0130285024642944,-0.004054146818816662
1772376796775960300,3.272960205078125,-0.4069340931298211,-1.3339523097619415,-16.06016562011838,-0.7843099236488342,-0.8915949463844299,-0.0899345800280571
1772376796785909500,3.282909423828125,-0.978660396792367,-0.836443809878826,-18.43563802988529,-0.7049293518066406,-0.5639156699180603,-0.16739633679389954
1772376796795858700,3.292858642578125,-1.0835812722735105,-0.4749564032699912,-20.213241577136515,-0.49721717834472656,-0.17110131680965424,-0.20816053450107574
1772376796805806300,3.302806396484375,-0.7479281988188624,-0.060247547952830785,-20.937576426661014,-0.1802522838115692,0.17057745158672333,-0.18395718932151794
1772376796815755500,3.312755615234375,-0.1808751111317426,0.28292474202550943,-20.4866014221549,0.18606841564178467,0.42605283856391907,-0.10633465647697449
1772376796825704400,3.322704345703125,0.2881575281124562,0.3600708178091794,-18.66759618945718,0.48743173480033875,0.5680928230285645,-0.015932321548461914
1772376796835653600,3.332653564453125,0.37126766339968886,0.20394480187818406,-15.80605875710249,0.6837972402572632,0.5999404788017273,0.032742712646722794
1772376796845602600,3.3426025390625,0.3040809638334438,-0.03169248459786177,-12.805658797502517,0.8024466633796692,0.5645319223403931,0.06459944695234299
1772376796855551500,3.352551513671875,0.15848898220267146,-0.12664908849075435,-9.917074368268251,0.8481721878051758,0.5269514918327332,0.08004529774188995
1772376796865500400,3.36250048828125,-0.12677950993739068,-0.2101653568934649,-7.114594689559936,0.8352401256561279,0.5595669150352478,0.07626893371343613
1772376796875449300,3.372449462890625,-0.39719219558797775,-0.3047445788413286,-4.577660382726788,0.7907636761665344,0.6828944087028503,0.0634918063879013
1772376796885398300,3.382398193359375,-0.5289136919721961,-0.3307845175702125,-2.1358786407500503,0.7033358812332153,0.8421884775161743,0.045621201395988464
1772376796895347700,3.39234765625,-0.5982624649431556,-0.2525796534486115,0.2434627194046974,0.5899171829223633,0.9624848365783691,0.027663927525281906
1772376796905296600,3.402296630859375,-0.6083815982995554,-0.11634192174896597,2.283244792446494,0.4993135333061218,1.01058828830719,0.0056939153000712395
1772376796915245600,3.41224560546875,-0.553677217557095,0.06484276678860187,3.809619077944755,0.4570859968662262,0.9780545830726624,-0.014925717376172543
1772376796925194500,3.422194580078125,-0.5111814897961914,0.35958559157550335,5.089774623328447,0.4551392197608948,0.888719916343689,-0.03503711149096489
1772376796935143400,3.432143310546875,-0.47476245160046965,0.5934310261987149,6.213455996930599,0.4640718400478363,0.7675881385803223,-0.05086599290370941
1772376796945092400,3.44209228515625,-0.5541009228618815,0.8379556757465004,7.140243510079383,0.5023353099822998,0.6279005408287048,-0.06658902764320374
1772376796955040500,3.45204052734375,-0.7223720980841666,1.0338063107572495,8.01036922480762,0.5456146001815796,0.48358485102653503,-0.08737640827894211
1772376796964989400,3.461989501953125,-0.8725875747971236,1.153136162275821,8.841652290922402,0.5775299072265625,0.36786171793937683,-0.11320214718580246
1772376796974938400,3.4719384765625,-1.002415074128285,1.2524110677592455,9.64832932356894,0.5736010074615479,0.3050474524497986,-0.14101825654506683
1772376796984887600,3.481887451171875,-1.1005941471990197,1.3220942603163421,10.414040724098681,0.5251885056495667,0.2937820255756378,-0.16461306810379028
1772376796994836500,3.49183642578125,-1.1493082014854996,1.351931326305866,10.98868887002468,0.4718276858329773,0.28373610973358154,-0.19523292779922485
1772376797004785700,3.50178564453125,-1.1073328808695078,1.3222336687870322,11.161825422793626,0.4587552845478058,0.25975221395492554,-0.2106211930513382
1772376797014733800,3.51173388671875,-1.202636983025819,1.4099929085217415,11.248705249345303,0.47952890396118164,0.21304678916931152,-0.23996199667453766
1772376797024683000,3.52168310546875,-1.3157634498596191,1.52604110802114,11.485548842871188,0.5001148581504822,0.14206023514270782,-0.2774108350276947
1772376797034632000,3.5316318359375,-1.2728569128081202,1.6236974723920226,11.897611056137084,0.48971179127693176,0.01758381351828575,-0.315757691860199
1772376797044580900,3.541580810546875,-1.1568367703594267,1.7986495501503348,12.344980729627608,0.41782745718955994,-0.1514241099357605,-0.34631267189979553
1772376797054529800,3.55152978515625,-0.9703156892299651,1.8898501625105737,12.543888852512836,0.29819607734680176,-0.2991955578327179,-0.35751354694366455
1772376797064479000,3.56147900390625,-0.7945831286184489,1.8990652962319552,12.514969047498703,0.11065361648797989,-0.4209553003311157,-0.3609815239906311
1772376797074428000,3.571427978515625,-0.7632263057157397,1.82285664742887,12.25127953262329,-0.14347289502620697,-0.5198361873626709,-0.3768455684185028
1772376797084376800,3.581376953125,-0.714965986546129,1.6873400696106253,11.449570351517199,-0.42430293560028076,-0.5745660066604614,-0.3839905560016632
1772376797094325800,3.59132568359375,-0.6674601390056312,1.5747751821823417,10.014501307797431,-0.6787899136543274,-0.6128779053688049,-0.3851509690284729
1772376797104274000,3.60127392578125,-0.7597323261201381,1.3873361094251275,8.097036869913339,-0.8728355765342712,-0.6393705010414124,-0.38499942421913147
1772376797114222800,3.611222900390625,-0.8984902970124036,0.9586794658415019,5.838516184356808,-1.009119987487793,-0.6605848670005798,-0.3994752764701843
1772376797124172000,3.621172119140625,-0.9042872928533703,0.32569208980202674,3.5973680738836524,-1.1201037168502808,-0.7305424213409424,-0.43263375759124756
1772376797134121000,3.631120849609375,-0.7323390000209212,-0.4424681651845574,1.4775626160562036,-1.249164342880249,-0.8724003434181213,-0.4890057444572449
1772376797144070000,3.64106982421875,-0.44871769056599586,-1.0885896019548178,-0.8744891706347465,-1.3604317903518677,-0.9963249564170837,-0.5385003089904785
1772376797154018800,3.651018798828125,0.08299857380469329,-1.552368412324041,-3.7523388553649184,-1.3905781507492065,-1.0314761400222778,-0.5526292324066162
1772376797163967700,3.6609677734375,0.6939044207517058,-1.82509960405007,-6.7618152708679435,-1.3735816478729248,-1.05522882938385,-0.5136192440986633
1772376797173917000,3.6709169921875,0.9203478354901075,-1.7528364780023693,-9.20790786178112,-1.3915749788284302,-1.1837446689605713,-0.4675745666027069
1772376797183865900,3.680865966796875,0.5953185569783672,-1.3400953425616025,-11.32131222039461,-1.4716639518737793,-1.386206865310669,-0.4208717942237854
1772376797193815000,3.69081494140625,-0.3765247071450576,-0.6517630228538066,-13.462802855807542,-1.633496642112732,-1.5485939979553223,-0.4238568842411041
1772376797203764000,3.700763916015625,-1.458757377821207,0.14988997108563779,-16.442309664982556,-1.66181218624115,-1.4946081638336182,-0.4476136267185211
1772376797213713000,3.710712890625,-2.0554051741093398,0.7316632927164435,-20.322495732581615,-1.3681203126907349,-1.1397488117218018,-0.4314253628253937
1772376797223661800,3.720661865234375,-1.9008242687284946,1.3534221493855119,-23.328460340571404,-0.8180031180381775,-0.6089741587638855,-0.2927854657173157
1772376797233610800,3.73061083984375,-1.2023727060664444,1.8429891887448726,-23.895659339535236,-0.19447734951972961,-0.12432648241519928,-0.058078963309526443
1772376797243560000,3.740559814453125,-0.7648170089732855,1.8282592371247708,-21.837288885879516,0.2709454596042633,0.23114852607250214,0.1811613142490387
1772376797253508900,3.7505087890625,-0.765033428202942,1.4654106982305646,-17.99150660766363,0.5095367431640625,0.4588068723678589,0.35297226905822754
1772376797263456800,3.760456787109375,-1.1282403520807622,0.8010426800213754,-13.982621679437159,0.575767993927002,0.6347243785858154,0.43658968806266785
1772376797273405700,3.77040576171875,-1.64415193913877,0.1176409485835582,-10.46512793725729,0.5780786275863647,0.7397352457046509,0.4408802092075348
1772376797283355000,3.78035498046875,-1.8715581344947219,-0.4232556247903034,-7.339363814410567,0.5832992196083069,0.7319276928901672,0.4108133912086487
1772376797293304000,3.790303955078125,-1.6918991942197084,-0.7548183236587792,-4.400670661661029,0.584771990776062,0.6155761480331421,0.3721998333930969
1772376797303253000,3.8002529296875,-1.3510963367864488,-0.8909221998456865,-2.0171961472243067,0.6316604018211365,0.47792959213256836,0.34767210483551025
1772376797313202000,3.810201904296875,-0.913811711719632,-0.6812662537790835,-0.5293401006907225,0.789212703704834,0.38018909096717834,0.3540923297405243
1772376797323150800,3.82015087890625,-0.5344915286371484,-0.30788477656319735,0.6690612905919552,1.0461534261703491,0.31256771087646484,0.3918311893939972
1772376797333099800,3.830099853515625,-0.4193936886651441,0.10926306940391659,2.2727976327121255,1.2939082384109497,0.29864880442619324,0.41705843806266785
1772376797343048700,3.840048583984375,-0.37356344618666915,0.4157764114834368,4.448865075987577,1.4422894716262817,0.34914445877075195,0.4267454147338867
1772376797352998000,3.849997802734375,-0.20934399404060094,0.7323820354450493,6.877505012318491,1.4631984233856201,0.4596644639968872,0.44564393162727356
1772376797362947000,3.859947021484375,0.04167206335309893,1.1087880481138825,9.187404002934693,1.342839002609253,0.5804572105407715,0.46968212723731995
1772376797372896000,3.86989599609375,0.3041380277829245,1.3531583838827907,11.255051988023519,1.1237282752990723,0.6569352149963379,0.47662341594696045
1772376797382845000,3.879844970703125,0.44547881824262436,1.5392076097168028,12.675171299892662,0.8921482563018799,0.700927197933197,0.4592987596988678
1772376797392793900,3.8897939453125,0.6076543800035491,1.6513886123940347,13.265333825814723,0.6880689263343811,0.7327248454093933,0.43519696593284607
1772376797402742800,3.89974267578125,0.90712492743209,1.812874328727275,13.353192142009734,0.5498588681221008,0.7411553263664246,0.4357365369796753
1772376797412691000,3.90969091796875,1.1678707900710403,1.9978809136405586,13.130247309976815,0.49839848279953003,0.6830247044563293,0.44715866446495056
1772376797422639900,3.919639892578125,1.2421151530638337,2.011519709023088,13.004683824765682,0.47930973768234253,0.545202374458313,0.4440121352672577
1772376797432588800,3.9295888671875,1.136909396226704,2.0415388535812498,12.946146295601128,0.4372009336948395,0.39201611280441284,0.4305020272731781
1772376797442537700,3.939537841796875,0.9002797377124429,2.084984173684567,12.740019327378272,0.3568227291107178,0.2897978723049164,0.40071776509284973
1772376797452487000,3.94948681640625,0.756011478966102,1.9287813661903142,12.4344780452013,0.2323162853717804,0.2146851271390915,0.374721884727478
1772376797462435800,3.959435791015625,0.6178565885335207,1.7101567354440688,12.031319269359111,0.05165037140250206,0.126985102891922,0.33267563581466675
1772376797472385000,3.969385009765625,0.555068379654549,1.5739526137530804,11.420030953299998,-0.15877287089824677,0.02987675368785858,0.29440775513648987
1772376797482332000,3.979331787109375,0.5618641407418996,1.5489805234514176,11.424884823071956,-0.3678746819496155,-0.06515336036682129,0.2634091079235077
1772376797492281000,3.989281005859375,0.5308396185334772,1.3682698821663857,10.231679246866703,-0.5669687986373901,-0.14436332881450653,0.22820618748664856
1772376797502230000,3.99922998046875,0.4551901014504954,1.1812921433106065,8.687169000697136,-0.7348315715789795,-0.22400915622711182,0.1956154853105545
1772376797512179000,4.009178955078125,0.3512774166312069,1.011926048991084,6.831753314968943,-0.8364761471748352,-0.336773157119751,0.1681467443704605
1772376797522128000,4.0191279296875,0.28102150222007183,0.8361145779244601,4.56678535296917,-0.8537967801094055,-0.44705384969711304,0.13183534145355225
1772376797532076800,4.029076904296875,0.2381812536041252,0.6172725050352513,1.98673495798707,-0.7646780610084534,-0.4990415871143341,0.11728931218385696
1772376797542025700,4.039025634765625,0.4107552953857928,0.18079452017620204,-0.8647048587232827,-0.6386141180992126,-0.5140876770019531,0.13799884915351868
1772376797551974700,4.048974609375,0.79734148741588,-0.3023758038833737,-3.4950387492656705,-0.5847289562225342,-0.532245397567749,0.16746236383914948
1772376797561924000,4.058924072265625,1.1768798798263072,-0.7277939039371907,-5.427730566897988,-0.610822319984436,-0.5483580231666565,0.1980983018875122
1772376797571873000,4.068873046875,1.3545429701089857,-1.2213687176331878,-6.952700246295333,-0.6999176740646362,-0.5492706298828125,0.20274686813354492
1772376797581821000,4.078821044921875,1.1707613969460129,-1.5759776898398994,-8.497386433553695,-0.7666642069816589,-0.4750438332557678,0.15371647477149963
1772376797591769900,4.088769775390625,0.5996466493105516,-1.7710048796385525,-10.307526807272433,-0.7797489166259766,-0.3548020124435425,0.08921482414007187
1772376797601718800,4.09871875,0.03317410145774483,-1.8255282047256827,-12.285331439828871,-0.7072803378105164,-0.21254578232765198,0.05145173519849777
1772376797611668000,4.10866796875,-0.06460311281383037,-1.7036106748014688,-13.9890748010993,-0.5588014125823975,-0.06810562312602997,0.04275715723633766
1772376797621617000,4.118616943359375,0.203450223294273,-1.6757143676161765,-15.265481223082542,-0.3832370638847351,0.05121171474456787,0.06369040161371231
1772376797631565800,4.12856591796875,0.4909368298752233,-1.6237053634375334,-15.861859554779528,-0.2380518615245819,0.11790189892053604,0.08157049119472504
1772376797641514800,4.1385146484375,0.5285629788383841,-1.464455735593289,-15.530123508638143,-0.13920198380947113,0.1382167637348175,0.09262287616729736
1772376797651464000,4.1484638671875,0.3958455302193761,-1.2994514897450804,-14.674838220167159,-0.07690827548503876,0.12939202785491943,0.09287908673286438
1772376797661412900,4.158412841796875,0.2494588545469567,-1.1824847871612756,-13.508449339216947,-0.01776665821671486,0.14781124889850616,0.08538122475147247
1772376797671362000,4.168362060546875,0.01389919988438487,-1.0066340800628066,-12.142200733745097,0.048996683210134506,0.24573306739330292,0.08211786299943924
1772376797681311000,4.17831103515625,-0.2009163026361726,-0.8644624282695352,-10.699834518754482,0.08375998586416245,0.43564680218696594,0.08211014419794083
1772376797691260000,4.188260009765625,-0.3735110218796879,-0.8735493325013667,-8.926119211113452,0.0641280934214592,0.6510182619094849,0.0795530155301094
1772376797701208800,4.198208740234375,-0.5432605260262265,-0.8586917359136045,-6.637619566878676,0.023493314161896706,0.8169542551040649,0.07237659394741058
1772376797711157800,4.20815771484375,-0.6947946475896984,-0.8232442096311599,-4.275999741375446,-0.017113445326685905,0.888423502445221,0.04150955006480217
1772376797721106700,4.218106689453125,-0.869045737471804,-0.7493461027927696,-2.0672031639307735,-0.025011582300066948,0.8312366008758545,-0.004242757335305214
1772376797731054800,4.228054931640625,-1.0336229900795966,-0.6024558980450033,-0.06246610078513622,-0.002539285458624363,0.6525843143463135,-0.0472574308514595
1772376797741004000,4.238004150390625,-1.1027089473959057,-0.3526004088632762,1.6223936963170766,0.03096168301999569,0.4689599275588989,-0.0993504598736763
1772376797750953000,4.247952880859375,-1.1068332607842981,-0.07011975734345614,3.066799308180809,0.0974644348025322,0.3463871479034424,-0.1345445215702057
1772376797760902000,4.25790185546875,-1.1108460035569965,0.12502251020222901,4.067767909827828,0.21459265053272247,0.28765004873275757,-0.14171189069747925
1772376797770850800,4.267850830078125,-0.9585490443948655,0.3447818440668285,4.669043950438499,0.35012662410736084,0.2764360010623932,-0.13826757669448853
1772376797780799700,4.2777998046875,-0.9409365961410104,0.6345519219424575,5.315780596497655,0.4747103750705719,0.2748982906341553,-0.13977278769016266
1772376797790749000,4.2877490234375,-0.9759458771366626,0.8031514158036559,6.19791823605895,0.5736982226371765,0.26269540190696716,-0.16160272061824799
1772376797800697900,4.29769775390625,-1.0688967672303318,0.8824931750006973,7.2032953017979855,0.6308587193489075,0.23579350113868713,-0.2010795623064041
1772376797810646800,4.307646728515625,-1.1303367398381232,1.0046322387211024,8.242659392812847,0.659070611000061,0.16852492094039917,-0.22543451189994812
1772376797820596000,4.317595947265625,-1.0265965985741465,1.1364416325844824,9.240817613214254,0.6554484367370605,0.09769389778375626,-0.2545569837093353
1772376797830547000,4.327546875,-0.8001585906632244,1.218873832077533,10.870811847662925,0.6166889667510986,0.03200926259160042,-0.29232147336006165
1772376797840495900,4.337495849609375,-0.6635194385558366,1.3107926757097244,11.376579934108257,0.5704663395881653,-0.03049219772219658,-0.31780391931533813
1772376797850444800,4.34744482421875,-0.637659094177559,1.4673301219858228,11.664089885032176,0.515792727470398,-0.0991453230381012,-0.34084799885749817
1772376797860392700,4.357392822265625,-0.5952655481494963,1.5752422151722012,11.88857200963497,0.436889111995697,-0.14789555966854095,-0.35907599329948425
1772376797870342000,4.367341796875,-0.4384464353878051,1.7225757797732948,11.918819848382473,0.3468775451183319,-0.2105206847190857,-0.3642282485961914
1772376797880291000,4.377291015625,-0.35351821782793846,1.808170973341912,11.785894894492625,0.26181137561798096,-0.2571758031845093,-0.3640942871570587
1772376797890240000,4.387239990234375,-0.2685640073102899,1.6993747907973824,11.65486963674426,0.14986850321292877,-0.31430959701538086,-0.37517860531806946
1772376797900189000,4.39718896484375,-0.2960188178057782,1.5633580083720384,11.436523822939396,0.003823415841907263,-0.4004199802875519,-0.38765019178390503
1772376797910137900,4.407137939453125,-0.24016681966446338,1.4888292754799126,10.939576171809435,-0.181390181183815,-0.5025907158851624,-0.3899974822998047
1772376797920086800,4.417086669921875,-0.22143479279614983,1.3406428934417665,10.00450832157135,-0.3623535931110382,-0.5806916356086731,-0.38514015078544617
1772376797930035700,4.42703564453125,-0.26971666621044277,1.0236462974011897,8.615982417839765,-0.55450439453125,-0.6373893022537231,-0.38268858194351196
1772376797939985000,4.43698486328125,-0.5225999787807464,0.7188068798832595,7.070876543864608,-0.7852257490158081,-0.6603431105613708,-0.3958781659603119
1772376797949933800,4.446933837890625,-0.6371216262999921,0.42202202787473797,5.008108147510886,-0.9855774641036987,-0.6668797135353088,-0.41758614778518677
1772376797959883000,4.456883056640625,-0.46645698006991293,0.02279350415356457,1.9841788437634704,-1.0185625553131104,-0.6935552954673767,-0.4133559763431549
1772376797969832000,4.46683203125,-0.08293222143705933,-0.4130112576190382,-1.4283528872072695,-0.8750624060630798,-0.7696031332015991,-0.37081509828567505
1772376797979780900,4.47678076171875,0.21807476004483178,-0.8894536616630851,-4.249469461846352,-0.6649581789970398,-0.9356828927993774,-0.32242491841316223
1772376797989729800,4.486729736328125,0.24426026299055664,-1.2363178649619222,-6.114521575447917,-0.5681800246238708,-1.1238682270050049,-0.2688511610031128
1772376797999679000,4.496678955078125,-0.09978512002788484,-1.5285237186171114,-7.435409528714418,-0.6608710885047913,-1.2603379487991333,-0.2784087061882019
1772376798009627000,4.506626953125,-1.1237633527971804,-1.7436496935926378,-9.006769787886737,-0.892103374004364,-1.3316447734832764,-0.3854356110095978
1772376798019576300,4.516576416015625,-2.2566373560279605,-1.5984212845772503,-11.39699611467123,-1.136568307876587,-1.279672622680664,-0.5348626375198364
1772376798029525200,4.526525146484375,-2.893968460360169,-1.0024847052983938,-14.364227964162826,-1.3062156438827515,-1.102526307106018,-0.6408290863037109
1772376798039474400,4.536474365234375,-2.9700235260367394,0.030309505806863306,-17.495408851361272,-1.3405587673187256,-0.7727422714233398,-0.6392689943313599
1772376798049423400,4.54642333984375,-2.6048645182430743,1.0803262160003184,-20.217761100387573,-1.20400071144104,-0.30924126505851746,-0.5243826508522034
1772376798059372500,4.55637255859375,-1.9851123252213,1.7987325522586701,-22.084368626737593,-0.8715530633926392,0.12547050416469574,-0.3331008553504944
1772376798069321500,4.566321533203125,-1.5461501223310827,2.1775687877491117,-22.772816170322894,-0.362417995929718,0.4310922920703888,-0.11290472000837326
1772376798079270400,4.5762705078125,-1.4590512462012468,2.1420586445592344,-21.897733125448227,0.1983925700187683,0.6058065891265869,0.08719668537378311
1772376798089219300,4.58621923828125,-1.6712568036854265,1.6905286365188656,-19.317625447320935,0.6847124695777893,0.6902017593383789,0.22319737076759338
1772376798099168300,4.596168212890625,-1.88872875726521,1.027511740657687,-15.763779119777679,1.0595905780792236,0.7591973543167114,0.30460938811302185
1772376798109117200,4.6061171875,-1.8807462340787051,0.34498774190247056,-11.969511924743651,1.3386183977127075,0.7687873840332031,0.36148613691329956
1772376798119066400,4.61606640625,-1.6886803783036768,-0.2893860104614869,-8.061887815120816,1.5242091417312622,0.7118591070175171,0.3944113254547119
1772376798129015600,4.626015625,-1.5004156683772802,-0.8467536069691181,-4.274148560550809,1.6026123762130737,0.6337926983833313,0.39675772190093994
1772376798138964500,4.635964599609375,-1.4108144540376961,-1.1475565355125814,-0.8416887247949838,1.576053261756897,0.5549982786178589,0.37626922130584717
1772376798148913400,4.645913330078125,-1.2426296784572302,-1.2725456549018621,2.089922360739112,1.4816330671310425,0.4748227298259735,0.3429059386253357
1772376798158862300,4.6558623046875,-1.0351631321936845,-1.2305077173784373,4.267321929401159,1.3820720911026,0.4339275062084198,0.3069162666797638
1772376798168810200,4.665810302734375,-0.8288396184854209,-1.0131441926091909,6.038723114880919,1.2745893001556396,0.3961680233478546,0.27557721734046936
1772376798178759400,4.675759521484375,-0.5546185535278171,-0.6430031586192548,7.597969157889485,1.1670608520507812,0.3795783817768097,0.25248971581459045
1772376798188708400,4.685708251953125,-0.2295197351775132,-0.2971006399594247,8.87813931632042,1.063481330871582,0.37787818908691406,0.22838406264781952
1772376798198657300,4.6956572265625,-0.01478471401464194,-0.009280161781609057,9.895996508926153,0.9736183285713196,0.4283496141433716,0.20555785298347473
1772376798208606500,4.7056064453125,0.16910262107774615,0.2645395558334887,10.84528928387165,0.8758854866027832,0.5011039972305298,0.17555567622184753
1772376798218555400,4.715555419921875,0.3790380416728556,0.5110463191092014,11.811523841267823,0.757542073726654,0.5592503547668457,0.1409905105829239
1772376798228504300,4.72550439453125,0.6445143668998032,0.711988578170538,12.748031953442096,0.6282513737678528,0.5619211196899414,0.10939373075962067
1772376798238453500,4.73545361328125,0.9513155129447579,0.8953592324450611,13.565540761226416,0.491462379693985,0.5048069953918457,0.09284671396017075
1772376798248402400,4.74540234375,1.2709557553619146,1.0423996593184768,14.093651612383127,0.3532927334308624,0.416161447763443,0.09382250159978867
1772376798258351400,4.755351318359375,1.5898871188573538,1.2092039403259753,14.384676877951621,0.22965018451213837,0.24840787053108215,0.12728086113929749
1772376798268300300,4.76530029296875,1.822650749593228,1.3800532589405774,14.5250018789649,0.09765110164880753,0.01414686068892479,0.1729699671268463
1772376798278249200,4.775249267578125,1.9023101233720778,1.5987152990877627,14.527468561339377,-0.056683070957660675,-0.25360628962516785,0.2377076894044876
1772376798288198400,4.785198486328125,1.8629430124931037,1.736301084395498,14.131908570063114,-0.22887086868286133,-0.48319485783576965,0.3020747900009155
1772376798298147300,4.795147216796875,1.6109570871539414,1.6293137048386037,13.17895318095684,-0.3726613223552704,-0.6016314625740051,0.35830238461494446
1772376798308096500,4.805096435546875,1.2790513835340738,1.3633658896423875,12.117508191037178,-0.5238268375396729,-0.6853925585746765,0.3945140838623047
1772376798318044400,4.81504443359375,0.9180792329709976,1.1648865135632456,11.198810460841655,-0.7249511480331421,-0.7640668749809265,0.4192540645599365
1772376798327993300,4.824993408203125,0.6658385291531682,0.9561284661844373,9.768345111525058,-0.8958452343940735,-0.7963265180587769,0.4388897716999054
1772376798337942300,4.8349423828125,0.3723208257144317,0.5220886682577431,7.887671650421619,-1.0330896377563477,-0.8223536014556885,0.4341440200805664
1772376798347891500,4.844891357421875,0.01428407101612538,0.2637646259382367,5.924085512831807,-1.172845721244812,-0.8585351705551147,0.4007938802242279
1772376798357840400,4.85484033203125,-0.09640621817931533,0.034335984843969346,3.597033727362752,-1.2489184141159058,-0.9281662106513977,0.36159056425094604
1772376798367789300,4.864789306640625,-0.23013145560137926,-0.3097207598187029,0.9853203661382198,-1.2898701429367065,-1.0926315784454346,0.2844342291355133
1772376798377738500,4.874738525390625,-0.4526834889244288,-0.34720476036481557,-1.750632538217306,-1.3004543781280518,-1.289263129234314,0.18467195332050323
1772376798387687400,4.8846875,-0.40659883329346774,-0.4436988760232925,-4.983816002297401,-1.2659146785736084,-1.4592829942703247,0.09750678390264511
1772376798397636400,4.89463623046875,-0.4534847223047167,-0.5046846020575613,-8.493286597019434,-1.1763968467712402,-1.5508595705032349,0.014831350184977055
1772376798407585300,4.904585205078125,-0.6799599934861064,-0.025494141414389014,-12.16884791765213,-0.9856406450271606,-1.4309890270233154,-0.021424492821097374
1772376798417534500,4.914534423828125,-0.8887363071739673,0.5958082767240703,-15.629177757108211,-0.6957371830940247,-1.1210894584655762,-0.028158828616142273
1772376798427483400,4.9244833984375,-1.0769286825165152,1.103131191395968,-18.20754823617935,-0.33550935983657837,-0.7071449756622314,-0.01787543296813965
1772376798437432300,4.934432373046875,-1.0277375122375785,1.5267457491591572,-19.38106360800862,0.0013853033306077123,-0.2876039147377014,0.028162099421024323
1772376798447381500,4.944381591796875,-0.7533711205251514,1.8443258441761134,-19.27138742775917,0.26733118295669556,0.057540811598300934,0.11586028337478638
1772376798457330400,4.954330322265625,-0.5720221813365817,1.9501365811690687,-18.38576896034479,0.48030683398246765,0.32769879698753357,0.22064583003520966
1772376798467278600,4.964278564453125,-0.5032555191025138,1.6895317344360052,-16.99747803441286,0.6479814052581787,0.507923424243927,0.2852920591831207
1772376798477227500,4.9742275390625,-0.46367783421277997,1.0610021415229887,-15.338936919915675,0.8020836710929871,0.64360511302948,0.31593918800354004
1772376798487176400,4.984176513671875,-0.4835802200347185,0.41954628541097044,-13.383110310411453,0.9055966734886169,0.7147717475891113,0.3064109683036804
1772376798497125400,4.99412548828125,-0.4763089138574898,-0.04415558726452291,-11.02145950524807,0.9307273030281067,0.7131330966949463,0.272818386554718
1772376798507074300,5.00407421875,-0.4540234322912991,-0.39878209512792523,-8.811658719196915,0.9070778489112854,0.7123196721076965,0.23157569766044617
1772376798517023200,5.014023193359375,-0.46033261543810367,-0.621760829430446,-7.050216617673635,0.8792847990989685,0.7677339315414429,0.1977042853832245
1772376798526972400,5.023972412109375,-0.5074830006044357,-0.6908755013845861,-5.538336721473932,0.8627437353134155,0.8704641461372375,0.17175115644931793
1772376798536921300,5.03392138671875,-0.45042095081992445,-0.6775833274826407,-4.076037141001224,0.8901985287666321,0.9579703211784363,0.16511881351470947
1772376798546870500,5.04387060546875,-0.41000148134380576,-0.5812522203661501,-2.551426942566037,0.943811297416687,0.9797582626342773,0.16104935109615326
1772376798556819500,5.0538193359375,-0.4254969374436885,-0.40005131134614347,-0.9005255291670561,1.0078425407409668,0.930256724357605,0.1598844826221466
1772376798566768400,5.063768310546875,-0.454266008875519,-0.21604615856036544,0.6892407397896051,1.0842669010162354,0.8362390995025635,0.15273231267929077
1772376798576717300,5.07371728515625,-0.5858630751624703,0.0011180442444980144,2.145064402246475,1.1606322526931763,0.7458101511001587,0.12983764708042145
1772376798586666200,5.083666259765625,-0.6876475523140281,0.23352190175727008,3.5897622750550506,1.208177924156189,0.6819887757301331,0.11174618452787399
1772376798596615400,5.093615478515625,-0.6505015515506267,0.4602598424628377,4.999673496642709,1.2385894060134888,0.6773899793624878,0.10738366097211838
1772376798606564400,5.103564453125,-0.5715724648077041,0.7337741473905742,6.437447707667946,1.219871163368225,0.7050485014915466,0.11622664332389832
1772376798616512300,5.11351220703125,-0.5328669596426189,0.9382587552338838,7.946073570507765,1.1418932676315308,0.7344726920127869,0.1251564919948578
1772376798626461200,5.123461181640625,-0.5476465956233442,1.0562696331083774,9.363415234357118,1.016173005104065,0.7290570139884949,0.12162508815526962
1772376798636410400,5.133410400390625,-0.6607616642802954,1.132232052065432,10.578962406229973,0.8573024272918701,0.6820865273475647,0.09024292975664139
1772376798646359600,5.143359619140625,-0.767131934852153,1.1900666936576365,11.550884361612797,0.6846661567687988,0.5944558382034302,0.03340230509638786
1772376798656308500,5.15330859375,-0.8820558795619755,1.2506427429124711,12.111378894501923,0.5226184129714966,0.5214077234268188,-0.040221311151981354
1772376798666257400,5.16325732421875,-0.964052391051501,1.34853905351907,12.343471494108437,0.38207006454467773,0.491449773311615,-0.10857195407152176
1772376798676206300,5.173206298828125,-0.950329205321148,1.5738105749338864,12.430603834116457,0.2593518793582916,0.4853780269622803,-0.16817989945411682
1772376798686155300,5.1831552734375,-0.7936964089117944,1.8102508483558892,12.484210336619615,0.1666019707918167,0.44461706280708313,-0.19779309630393982
1772376798696104200,5.193104248046875,-0.5679023979928344,1.9962486362636087,12.502660185545682,0.1197308674454689,0.310659259557724,-0.20712295174598694
1772376798706053400,5.203053466796875,-0.36660109636075794,2.212954281646013,12.618932110798358,0.062076520174741745,0.050329193472862244,-0.1919570118188858
1772376798716002600,5.21300244140625,-0.2915775656890124,2.348445578892529,12.748082222324609,-0.05919131636619568,-0.27432024478912354,-0.17839857935905457
1772376798725951500,5.222951416015625,-0.2846239836914465,2.359504440784454,12.364066538369656,-0.19489991664886475,-0.5441871881484985,-0.16289284825325012
1772376798735900400,5.232900390625,-0.37333661516085265,2.193565982826054,11.27677866666317,-0.32662996649742126,-0.7727077603340149,-0.1487506628036499
1772376798745849300,5.242849365234375,-0.6688719054996967,2.0383555473700166,10.060372247612476,-0.5097965598106384,-0.9477643966674805,-0.1488613784313202
1772376798755798300,5.25279833984375,-0.8777781291775405,1.6926225400581956,8.649890532660484,-0.7192075252532959,-1.0059845447540283,-0.1566455364227295
1772376798765746400,5.262746337890625,-1.2696094553194939,0.9260929550133645,7.016359940779209,-0.9903327822685242,-0.9730831384658813,-0.21869176626205444
1772376798775695400,5.2726953125,-1.8875331177398562,0.18728870450109242,5.437020957812667,-1.3381786346435547,-0.9185538291931152,-0.3437136113643646
1772376798785644300,5.282644287109375,-2.0994041825726626,-0.5750422598101198,3.58995049110353,-1.7332301139831543,-0.9061545729637146,-0.5041450262069702
1772376798795593500,5.292593505859375,-2.005115687199682,-1.2181427413240073,1.0278244598686694,-2.0658223628997803,-0.9579588770866394,-0.6696135997772217
1772376798805542400,5.30254248046875,-1.880250267255306,-1.3845022011734545,-2.4090689744204283,-2.255244255065918,-1.1128818988800049,-0.8250053524971008
1772376798815491300,5.3124912109375,-1.9011004553213715,-0.9032483782596885,-6.54794338760674,-2.254990577697754,-1.3793116807937622,-0.9423841238021851
1772376798825440500,5.3224404296875,-1.9768053923860192,-0.1214768004193902,-11.073196706748009,-2.041670560836792,-1.5934500694274902,-1.0070242881774902
1772376798835389400,5.332389404296875,-2.0801889022320506,0.5917275832816958,-15.483775598961113,-1.6524441242218018,-1.588510513305664,-0.9984852075576782
1772376798845338400,5.34233837890625,-2.099275003235042,1.3092699961870908,-18.89181995538473,-1.2114406824111938,-1.3509072065353394,-0.9148510694503784
1772376798855287300,5.352287353515625,-1.9654203672796486,1.7872656940877436,-20.72877351722717,-0.8026613593101501,-0.9613624215126038,-0.7869908213615417
1772376798865236200,5.362236328125,-1.7222449403837323,1.9010029862962663,-21.287857014274596,-0.4469231963157654,-0.4526883661746979,-0.6192663908004761
1772376798875185400,5.372185302734375,-1.3583062681652605,1.7015762463644146,-20.728637908148766,-0.14897564053535461,0.03300485014915466,-0.43436872959136963
1772376798885134300,5.38213427734375,-0.9621629240430891,1.2729390381336212,-18.987980820500848,0.0705825462937355,0.3451875150203705,-0.2691102623939514
1772376798895083500,5.39208349609375,-0.8203950307451188,0.794871151779592,-16.64752711714506,0.2334098070859909,0.4865848422050476,-0.16014622151851654
1772376798905032400,5.402032470703125,-0.8224842581093311,0.43636422228626903,-14.25392400740385,0.35366517305374146,0.5435664653778076,-0.08347772806882858
1772376798914980400,5.41198046875,-0.7994713390514254,0.19193411915414035,-12.034722355800866,0.4659770727157593,0.616001546382904,-0.007785632275044918
1772376798924929300,5.42192919921875,-0.8127204775292426,0.06139606040082871,-10.121253709554672,0.6108887195587158,0.7433858513832092,0.07546476274728775
1772376798934878500,5.43187841796875,-0.8353316108532249,-0.07497837635576725,-8.111534766343235,0.8009254932403564,0.8402149081230164,0.16556376218795776
1772376798944827400,5.441827392578125,-0.9222502350453287,-0.2737014980629086,-5.684525646084547,0.9804542660713196,0.8748637437820435,0.21790295839309692
1772376798954776300,5.4517763671875,-1.0136299302995204,-0.49056803309544916,-2.9746757357567546,1.0968945026397705,0.8732373118400574,0.2438485324382782
1772376798964725500,5.4617255859375,-1.0382556913815437,-0.5288016098998487,-0.25126374854445455,1.1324901580810547,0.8422991037368774,0.24598410725593567
1772376798974674400,5.47167431640625,-0.9645295070439577,-0.3797787770375609,2.2813678926587104,1.0987838506698608,0.7474740743637085,0.24246899783611298
1772376798984623400,5.481623291015625,-0.9329996656619012,-0.15402677862942218,4.340418729794025,1.037893533706665,0.6520775556564331,0.23467479646205902
1772376798994572300,5.491572265625,-0.9012057665161788,0.09414689494520426,5.852680903309583,0.9703961610794067,0.6045337319374084,0.2169964611530304
1772376799004521500,5.501521484375,-0.7893321492876857,0.36255335533991456,7.028375957265496,0.9046353101730347,0.6327095627784729,0.20717355608940125
1772376799014470400,5.511470458984375,-0.597024666776508,0.7474689107440412,8.115081060647965,0.8295288681983948,0.7045542001724243,0.20843961834907532
1772376799024419800,5.521419921875,-0.3226805599611252,1.1373885580457745,9.23920082566738,0.7440323829650879,0.7557612657546997,0.22229327261447906
1772376799034368800,5.53136865234375,-0.05576888643512502,1.4793034683741628,10.305078829598425,0.6472211480140686,0.771514892578125,0.24380283057689667
1772376799044317700,5.541317626953125,0.17145965079898012,1.7540531603157519,11.304253533565998,0.5322875380516052,0.761465311050415,0.2602039575576782
1772376799054265900,5.551265869140625,0.2953854700719937,1.941768711926788,12.127227621018886,0.4023931920528412,0.7167567014694214,0.2778937518596649
1772376799064214800,5.56121484375,0.3981904493777081,2.010300104100257,12.675926502174137,0.2843880355358124,0.6439909934997559,0.27962449193000793
1772376799074164000,5.5711640625,0.5041249954134226,2.0665183965370058,12.968351113146543,0.17889916896820068,0.5771517753601074,0.28970667719841003
1772376799084113000,5.58111279296875,0.6731408880557864,2.1020058895036575,13.039551724529266,0.1006598025560379,0.5228974223136902,0.30492377281188965
1772376799094061800,5.591061767578125,0.7629187010712921,2.03373767831102,13.074959722518921,0.016570493578910828,0.4755648374557495,0.31309887766838074
1772376799104010800,5.6010107421875,0.7514269276548177,2.0055060016915203,13.353732240235805,-0.11027569323778152,0.39058688282966614,0.32111042737960815
1772376799113959700,5.610959716796875,0.8765965912427752,2.029738233411312,13.617216003406048,-0.2799946665763855,0.23909616470336914,0.33845505118370056
1772376799123908900,5.620908935546875,0.9628757484875619,1.9913043117292224,13.631368447399138,-0.5123388171195984,0.025053784251213074,0.36477822065353394
1772376799133857800,5.63085791015625,0.9538655627537518,1.9437762523569166,13.265067283833027,-0.7941462397575378,-0.21081998944282532,0.3883274793624878
1772376799143806700,5.640806640625,0.9242582138668746,1.7729330712221563,11.982118892860411,-1.0361554622650146,-0.43434613943099976,0.41291043162345886
1772376799153756000,5.650755859375,0.8583020790088921,1.3348873986549674,9.83001684706211,-1.2149959802627563,-0.6229053735733032,0.43266016244888306
1772376799163704800,5.660704833984375,0.7289475309517234,1.1421548956647514,7.32725544346571,-1.3405170440673828,-0.7897968888282776,0.4522711932659149
1772376799173653800,5.67065380859375,0.539693408129178,0.7884270902067423,4.382161191502213,-1.3868299722671509,-0.9533472061157227,0.4519686698913574
1772376799183602700,5.680602783203125,0.1190538841214031,0.24721403476223347,1.2326964595943688,-1.4166547060012817,-1.1381453275680542,0.405750036239624
1772376799193552000,5.6905517578125,-0.3727759490707889,-0.1996418439872563,-1.6966028418660164,-1.4934192895889282,-1.303053379058838,0.3097912669181824
1772376799203499800,5.700499755859375,-0.9218347861122339,-0.6219308522351086,-4.900281394520402,-1.6034222841262817,-1.3721624612808228,0.16293564438819885
1772376799213448700,5.71044873046875,-1.1775977457720785,-0.80572923040241,-8.790586705073714,-1.6134501695632935,-1.3475569486618042,0.04107018560171127
1772376799223397600,5.720397705078125,-0.9789855370935052,-0.747115348066017,-13.386781107878685,-1.4102165699005127,-1.1331186294555664,-0.0008446639403700829
1772376799233346800,5.730346923828125,-0.5620137783456594,-0.5428465749304742,-17.873206391453742,-0.9828471541404724,-0.7966694831848145,0.04432787746191025
1772376799243296000,5.7402958984375,-0.2874228571623564,-0.2676735430102795,-20.942984423184395,-0.4710792601108551,-0.4209009110927582,0.14861033856868744
1772376799253245000,5.750244873046875,-0.29382278733253475,-0.05636478823535144,-21.89282314157486,-0.04188581928610802,-0.0708632543683052,0.242746964097023
1772376799263193900,5.76019384765625,-0.4092993244238198,-0.09233283126056194,-21.207085441470145,0.24243026971817017,0.20886527001857758,0.30171796679496765
1772376799273142800,5.770142822265625,-0.40496078376285727,-0.32431714818701146,-19.700779546010494,0.42163756489753723,0.41562190651893616,0.32128340005874634
1772376799283091700,5.780091796875,-0.42286476230919356,-0.6640996495965867,-17.942210369575022,0.5376549959182739,0.5829602479934692,0.3190214931964874
1772376799293040600,5.79004052734375,-0.4310725456189364,-0.9689843675609677,-16.244005937731266,0.6710865497589111,0.7160341143608093,0.29996258020401
1772376799302989800,5.79998974609375,-0.4407029821429401,-1.312169809281826,-14.452600659620762,0.8168777823448181,0.8219292759895325,0.2559375464916229
1772376799312938800,5.809938720703125,-0.4586830216001719,-1.5882900589242577,-12.359771471524239,0.972070038318634,0.8715226650238037,0.19357216358184814
1772376799322888000,5.819887939453125,-0.5108631445620209,-1.6708654662802815,-10.127570053094624,1.1143652200698853,0.8452513813972473,0.11815441399812698
1772376799332836900,5.8298369140625,-0.42781895065046843,-1.5392279218524694,-7.7843375326752655,1.2333403825759888,0.7402514219284058,0.048326604068279266
1772376799342785800,5.839785888671875,-0.2851249920161441,-1.3516164151377976,-5.532238989120722,1.324876070022583,0.6314321756362915,-0.004180173389613628
1772376799352734000,5.84973388671875,-0.1606414109962061,-1.0452931888028978,-3.375435633763671,1.3840967416763306,0.5411826968193054,-0.039459869265556335
1772376799362683000,5.859682861328125,-0.04987686925446614,-0.5673527282208204,-1.4090402839720249,1.4187705516815186,0.47137895226478577,-0.04718060791492462
1772376799372631800,5.8696318359375,0.01946998575404286,-0.012096826637536287,0.4185901537299156,1.423593282699585,0.44320058822631836,-0.04307348281145096
1772376799382580700,5.879580810546875,0.017941004354786128,0.5256868388801813,2.0396289283066986,1.4373410940170288,0.43199795484542847,-0.020856404677033424
1772376799392529700,5.88952978515625,-0.08087506971154361,1.1127046370357274,3.5555414410233497,1.4439704418182373,0.4348185062408447,0.0027426646556705236
1772376799402478600,5.899478515625,-0.22921861507277935,1.6180150428414344,5.177758027207851,1.4202865362167358,0.44717833399772644,0.017658526077866554
1772376799412427800,5.909427734375,-0.40303043675478545,2.0245253210686145,6.878194748148322,1.3510226011276245,0.4594957232475281,0.031220940873026848
1772376799422377000,5.919376953125,-0.6286823723219335,2.3181398724779485,8.526827047571539,1.2256879806518555,0.5215534567832947,0.028654802590608597
1772376799432326000,5.929325927734375,-0.8015488029126078,2.497927407568693,10.146762244820595,1.0363229513168335,0.5738877654075623,0.014948843978345394
1772376799442274800,5.93927490234375,-0.9290379954893141,2.5693723491013047,11.60661969283819,0.8170840740203857,0.6120231747627258,-0.00793213490396738
1772376799452223700,5.9492236328125,-1.0372983175914734,2.586352417735755,12.639960870301723,0.5880482196807861,0.6350704431533813,-0.04582838714122772
1772376799462172700,5.959172607421875,-1.150636746675521,2.6872528785943985,13.325620244473217,0.37905970215797424,0.6416879296302795,-0.09199239313602448
1772376799472121600,5.96912158203125,-1.209622896390408,2.728029710140824,13.756584726607798,0.20100660622119904,0.6177056431770325,-0.14660583436489105
1772376799482070800,5.97907080078125,-1.2665874771498142,2.7830595234453677,14.012192641836403,0.05690022557973862,0.5498100519180298,-0.20092514157295227
1772376799492020000,5.98902001953125,-1.2239606338225304,2.898719162018597,14.17093125141859,-0.05031384527683258,0.41328227519989014,-0.25335294008255005
1772376799501968000,5.9989677734375,-1.044361314780265,2.9950211891710756,14.184391621494292,-0.12733909487724304,0.1790917068719864,-0.287912517786026
1772376799511916800,6.008916748046875,-0.7077350123792886,3.0665581929013133,13.888575614517926,-0.15817689895629883,-0.10678186267614365,-0.2702387273311615
1772376799521865700,6.01886572265625,-0.26147030445598063,3.1436922859862446,13.270212245506048,-0.17897863686084747,-0.3920550048351288,-0.20981645584106445
1772376799531815000,6.02881494140625,0.009270845963992178,3.0879663071110843,12.576896803623438,-0.23697403073310852,-0.5732903480529785,-0.10298854112625122
1772376799541763800,6.038763916015625,0.005411211393773555,2.7981200221940874,11.838064642190933,-0.3745262026786804,-0.6661289930343628,-0.016494521871209145
1772376799551712800,6.048712646484375,-0.3276133401881903,2.3198539829194544,10.91780273141861,-0.6040627360343933,-0.7078314423561096,0.021408652886748314
1772376799561661700,6.05866162109375,-0.7845889002833515,1.6568834104180334,9.483562539738417,-0.8549578189849854,-0.6657061576843262,-0.010499025695025921
1772376799571610600,6.068610595703125,-1.2185554137781263,0.6463963081888854,7.553376567447185,-1.1130934953689575,-0.6757878065109253,-0.13902424275875092
1772376799581559800,6.078559814453125,-1.6418315333671867,-0.03464198205322027,5.303304561284184,-1.4186221361160278,-0.7803575992584229,-0.329401433467865
1772376799591509000,6.088509033203125,-1.8471281882457433,-0.011517711575329303,2.4312737919658423,-1.719046711921692,-0.8077066540718079,-0.4806697964668274
1772376799601458000,6.0984580078125,-1.6203262423932552,-0.1912431412152946,-1.1924041966944932,-1.9789512157440186,-0.7402065396308899,-0.5653565526008606
1772376799611406800,6.10840673828125,-1.7308352202050388,-0.30378201741948724,-5.076208454790711,-2.1754026412963867,-0.5425025224685669,-0.6875237226486206
1772376799621355800,6.118355712890625,-1.7741290030084549,-0.25128917524665595,-8.948923163595795,-2.2909841537475586,-0.2538340091705322,-0.8064743876457214
1772376799631304700,6.1283046875,-1.4095437034495175,-0.1798179302290082,-12.628052990365028,-2.284104585647583,-0.031964175403118134,-0.8908081650733948
1772376799641252900,6.1382529296875,-0.8426803661808371,0.38860250028856097,-15.648395667797326,-2.110944986343384,0.12216944247484207,-0.9109140634536743
1772376799651201800,6.148201904296875,-0.032083584540989245,1.2668873368792235,-18.118248489004372,-1.7648789882659912,0.15384775400161743,-0.8162181973457336
1772376799661150700,6.158150634765625,1.0196117081228644,1.950108231857419,-19.99227126004696,-1.231489896774292,0.13321876525878906,-0.6191359758377075
1772376799671100000,6.168099853515625,1.774008445368707,2.1382053301319477,-21.181604963254927,-0.5614545345306396,0.1853719800710678,-0.3397807776927948
1772376799681048800,6.178048828125,1.950303754429519,1.8203759365290402,-20.892867516362667,0.1031249389052391,0.2441674768924713,-0.09241188317537308
1772376799690997800,6.187997802734375,1.2129532098568976,1.5645321667179464,-19.022992512649296,0.5876045227050781,0.26329004764556885,0.08358285576105118
1772376799700946700,6.19794677734375,0.6809987619493156,0.6444680435400456,-15.99597225714922,0.8387789130210876,0.25921767950057983,0.2050463706254959
1772376799710895900,6.207895751953125,-0.056818002762412646,0.013406082605198025,-12.877732684588432,0.9288864135742188,0.2897351086139679,0.27781644463539124
1772376799720844800,6.2178447265625,-0.6774407041415572,-0.5952371988378465,-10.155648146587609,0.9314799904823303,0.35080358386039734,0.32208335399627686
1772376799730793700,6.227793701171875,-1.2217135124828666,-1.1177500838570296,-7.817420887109637,0.9030222296714783,0.41127943992614746,0.33457252383232117
1772376799740742700,6.23774267578125,-1.802379822719842,-1.5199398685365915,-5.853709661835432,0.8817001581192017,0.46725723147392273,0.2987087070941925
1772376799750691800,6.24769189453125,-2.1997930406473576,-1.8057729722894726,-3.9623330204099414,0.8685470819473267,0.48635634779930115,0.22948943078517914
1772376799760640800,6.257640869140625,-2.3576687497898936,-1.7886267533078788,-1.9698697479039429,0.83514803647995,0.48191916942596436,0.1582276076078415
1772376799770590000,6.26758984375,-2.324795530974865,-1.6537594331786036,-0.0009083470165729522,0.7599697113037109,0.48579832911491394,0.09217773377895355
1772376799780539000,6.277538818359375,-2.217913803749531,-1.4257112866573034,1.7629513370424508,0.6552797555923462,0.49060240387916565,0.03231174126267433
1772376799790486800,6.28748681640625,-2.0704168652802704,-1.0895005793198942,3.147835669401288,0.570341169834137,0.4536433219909668,-0.03134340047836304
1772376799800435700,6.297435791015625,-1.8071195645928382,-0.7014034712702035,4.090813269850612,0.5819236040115356,0.37880197167396545,-0.06417994201183319
1772376799810384600,6.307384521484375,-1.5358447091549634,-0.21369170438870785,4.799558336055279,0.677013635635376,0.3068212568759918,-0.06122595816850662
1772376799820333800,6.317333740234375,-1.3754372895777225,0.23274244181737302,5.7500663320094345,0.7911913990974426,0.23873688280582428,-0.05329606682062149
1772376799830282800,6.32728271484375,-1.3754105477012692,0.5546363083802164,6.997146706265211,0.8684872388839722,0.1949971318244934,-0.06367120891809464
1772376799840232000,6.33723193359375,-1.4076070362985134,0.7916916449606418,8.379842004147172,0.8656429052352905,0.18724951148033142,-0.08382623642683029
1772376799850180900,6.347180908203125,-1.2692318541787564,1.0643977022454143,9.760684952160716,0.773334264755249,0.1630040854215622,-0.10962986946105957
1772376799860129800,6.3571298828125,-0.9644958970353007,1.3151451718308032,10.951560039591788,0.6192836165428162,0.1258426308631897,-0.12534044682979584
1772376799870078700,6.36707861328125,-0.563056857657805,1.5519588086098433,11.725990753149986,0.43715986609458923,0.0990954339504242,-0.1295921802520752
1772376799880027600,6.377027587890625,-0.27537246348243205,1.752829025348276,12.18236557087302,0.25366970896720886,0.08540873974561691,-0.12242446094751358
1772376799889976800,6.386976806640625,-0.03367755746785551,1.8782849585317074,12.398997566497325,0.08136318624019623,0.058339037001132965,-0.1104799211025238
1772376799899925800,6.39692578125,0.26957747693546114,1.8611920771725474,12.463316017150879,-0.07136053591966629,-0.011710012331604958,-0.09520085155963898
1772376799909875000,6.406875,0.5313401519341394,1.8155049694918095,12.396478277152776,-0.2031896710395813,-0.10162205994129181,-0.08179210126399994
1772376799919822600,6.416822509765625,0.7189701806861907,1.8570425562776625,12.236245629620552,-0.3438718616962433,-0.2126016616821289,-0.0647120401263237
1772376799929771800,6.426771728515625,0.9191003927122801,1.8751136350192128,11.896335629373787,-0.48898938298225403,-0.2848186194896698,-0.025577686727046967
1772376799939721000,6.436720947265625,0.9697969260528683,1.8434050760693848,11.298815141904353,-0.6522420644760132,-0.3408641815185547,0.002026274334639311
1772376799949670000,6.446669921875,0.9029426733113824,1.7717986603647469,10.45742393875122,-0.8598817586898804,-0.37622538208961487,0.026144126430153847
1772376799959618800,6.456618896484375,0.8366494154535233,1.7073729499444366,9.262208776289224,-1.0999120473861694,-0.37942007184028625,0.05879255756735802
1772376799969567700,6.466567626953125,0.829243084719777,1.5263110110037028,7.5446788817286485,-1.3293870687484741,-0.36815330386161804,0.11150210350751877
1772376799979516700,6.4765166015625,0.6168644356910139,1.1090355931341647,5.437407911303639,-1.5811666250228882,-0.37914133071899414,0.11772878468036652
1772376799989465600,6.486465576171875,0.18207146304314956,0.7402825063712895,2.7995664216101166,-1.7973226308822632,-0.38337600231170654,0.07650305330753326
1772376799999414800,6.496414794921875,0.1244117761590518,0.28908677178658543,-0.6159697518736124,-1.88025963306427,-0.3286876082420349,0.04264861345291138
1772376800009364000,6.506364013671875,0.2866692623160779,-0.05656411019973456,-4.491767229124903,-1.8180044889450073,-0.15769803524017334,0.05278300493955612
1772376800019312000,6.51631201171875,0.4766942599132657,-0.14548691382110118,-8.03571234037876,-1.6593940258026123,0.05762195587158203,0.07178515195846558
1772376800029261000,6.526260986328125,0.5068000598415732,-0.2517237672716379,-10.727229890680313,-1.4945275783538818,0.238214373588562,0.04181899502873421
1772376800039210000,6.5362099609375,0.3762405199088156,-0.36338735847864295,-12.687385469299555,-1.3227709531784058,0.27354225516319275,-0.031175054609775543
1772376800049159200,6.5461591796875,0.353151393809542,-0.2098142419008538,-14.188565107786655,-1.1173869371414185,0.12249016016721725,-0.11097028106451035
1772376800059108400,6.5561083984375,0.5181739424994215,0.17261431899312882,-15.354568204289674,-0.8824526071548462,-0.11031253635883331,-0.17790672183036804
1772376800069056300,6.56605615234375,0.6641975570131093,0.3650238371066749,-16.45047192865014,-0.6249384880065918,-0.22927621006965637,-0.23221257328987122
1772376800079005200,6.576005126953125,0.6719241326771677,0.4217540245883167,-17.42312921257019,-0.31538519263267517,-0.18788555264472961,-0.27378588914871216
1772376800088954000,6.5859541015625,0.737357266574353,0.5852357370443642,-17.875352755832672,0.05359632149338722,-0.038224153220653534,-0.2529415786266327
1772376800098903300,6.5959033203125,0.8827925963386892,0.6921846842870116,-17.410217124027014,0.44315582513809204,0.11639823019504547,-0.19266483187675476
1772376800108852200,6.605852294921875,0.8949545241016894,0.5242174239147455,-15.750799226695298,0.7565856575965881,0.15159723162651062,-0.1418575793504715
1772376800118801200,6.61580126953125,0.6882296630509197,0.19864589175246655,-13.140960427170992,0.9455836415290833,0.10758283734321594,-0.12613822519779205
1772376800128750000,6.62575,0.3107111225629225,-0.22729915478490292,-10.518555576062202,1.0354933738708496,0.030853701755404472,-0.145907923579216
1772376800138699000,6.635698974609375,-0.10716425222745164,-0.5057320652838796,-8.264253969505429,1.0956205129623413,-0.026677966117858887,-0.18797048926353455
1772376800148648200,6.645648193359375,-0.41371838297508656,-0.686217227249965,-6.3056871213823555,1.1472588777542114,-0.018424298614263535,-0.22310742735862732
1772376800158597000,6.65559716796875,-0.7053911526668817,-0.7338497699100524,-4.329304046061635,1.160969853401184,0.08276279270648956,-0.24162155389785767
1772376800168546300,6.66554638671875,-0.9485776854787021,-0.6956871394500136,-2.1756799052625895,1.1176499128341675,0.25046125054359436,-0.24828079342842102
1772376800178495200,6.6754951171875,-0.9612120530590414,-0.5237828318897635,0.09859013808965682,1.0101399421691895,0.4018568992614746,-0.23598265647888184
1772376800188444200,6.685444091796875,-0.7934572663936763,-0.2952301699124276,2.08130884617269,0.9117630124092102,0.512322723865509,-0.20796620845794678
1772376800198393000,6.69539306640625,-0.682885963935405,-0.08398585867583751,3.537591358312964,0.8757700324058533,0.5629625916481018,-0.18173858523368835
1772376800208342000,6.705342041015625,-0.676650138285756,0.11220438355281949,4.749346736687421,0.9024243354797363,0.5419712662696838,-0.1676217019557953
1772376800218290200,6.715290283203125,-0.5584705527808517,0.38507454535812136,6.07773761292994,0.9675441980361938,0.3912097215652466,-0.15494787693023682
1772376800228239000,6.725239013671875,-0.3490111521996557,0.6813672299355268,7.464651989811658,1.0228108167648315,0.17014442384243011,-0.1577892005443573
1772376800238188300,6.735188232421875,-0.30664880502745506,0.9057308427251874,8.786633583533764,1.0426859855651855,-0.04670759290456772,-0.17351187765598297
1772376800248137200,6.74513720703125,-0.29548684808723624,1.1891164071954785,10.026119264876842,0.9763506650924683,-0.16514796018600464,-0.19851389527320862
1772376800258086100,6.755086181640625,-0.2569826376479119,1.5183213274240492,11.188102019822598,0.8072906732559204,-0.1539757251739502,-0.217678040266037
1772376800268035000,6.76503515625,-0.11396825142018496,1.9138377718195319,12.171097157883644,0.5684738159179688,-0.11171083897352219,-0.21222655475139618
1772376800277984300,6.774984375,0.12454539420977234,2.2183223845504223,12.794110983049869,0.3351122736930847,-0.09054196625947952,-0.1780104786157608
1772376800287933200,6.78493310546875,0.2695963642990216,2.410650252262503,13.037080365979671,0.1255502551794052,-0.10034479945898056,-0.13753148913383484
1772376800297882000,6.794882080078125,0.2496464860735461,2.4056601888902485,13.022878822147845,-0.05078670755028725,-0.11128109693527222,-0.1351768970489502
1772376800307831300,6.804831298828125,0.1727788253724575,2.2655846325933933,12.767670719891786,-0.18806788325309753,-0.1229633241891861,-0.12513145804405212
1772376800317780200,6.8147802734375,0.1532208690740168,2.229208374093473,12.500299886155128,-0.28754758834838867,-0.17052042484283447,-0.11275903135538101
1772376800327729200,6.824729248046875,0.06386226785127073,2.159584948899597,12.380741778838633,-0.41158750653266907,-0.24293789267539978,-0.11693034321069717
1772376800337678000,6.834677978515625,-0.026446364105306566,1.8928690719403325,12.342203081607819,-0.5661776661872864,-0.3140289783477783,-0.1279154121875763
1772376800347626200,6.844626220703125,-0.06371043829042464,1.5571432255104183,12.262752528274058,-0.7865971326828003,-0.41980788111686707,-0.14852562546730042
1772376800357575200,6.8545751953125,-0.28689620293974877,1.241160774948448,12.088473819732664,-1.08845853805542,-0.5373975038528442,-0.20053213834762573
1772376800367524000,6.864524169921875,-0.6783213594336063,0.9114027508817613,11.308914511114358,-1.4329328536987305,-0.6182931065559387,-0.2718789875507355
1772376800377473000,6.87447314453125,-1.0107210571154952,0.5930795824125409,9.722674078196286,-1.789812445640564,-0.653671383857727,-0.354696124792099
1772376800387422200,6.884422119140625,-1.2785633077561855,0.39193529797308146,7.55571582404971,-2.1496341228485107,-0.6957969665527344,-0.44893312454223633
1772376800397371400,6.894371337890625,-1.4826929646819829,0.19390629600994289,4.579994378632307,-2.4515581130981445,-0.7555963397026062,-0.5397420525550842
1772376800407320300,6.9043203125,-1.7520587716281413,0.16101641832105815,0.8643658360272646,-2.6525490283966064,-0.8963329195976257,-0.6470011472702026
1772376800417269200,6.914269287109375,-2.070069805408269,0.41210031678657977,-3.4947342133611436,-2.6937782764434814,-1.0992510318756104,-0.769891083240509
1772376800427218200,6.92421826171875,-2.098595496538281,0.6279099997099489,-8.497875093853473,-2.486786365509033,-1.206133246421814,-0.8916547894477844
1772376800437167000,6.9341669921875,-1.9102765722066164,0.8446743895422667,-13.676736698389053,-2.0182061195373535,-1.200598955154419,-0.9903518557548523
1772376800447116000,6.944115966796875,-1.304620124554634,1.2836853269450366,-17.94406096587777,-1.4208083152770996,-1.0817618370056152,-1.0006884336471558
1772376800457065200,6.954065185546875,-0.5482243589786813,1.8444792811721562,-20.461995388686656,-0.8782863616943359,-0.8868036270141602,-0.9244396090507507
1772376800467014100,6.96401416015625,0.09735044022686778,2.4029434772774576,-21.436896067619323,-0.4728600084781647,-0.5810335874557495,-0.7749038934707642
1772376800476963300,6.97396337890625,0.5082246858172118,2.7492008007243274,-21.513192540836332,-0.1556435376405716,-0.19118957221508026,-0.5833094120025635
1772376800486912300,6.983912353515625,0.6285667100530118,2.852606522402167,-21.05358531706333,0.14427633583545685,0.15882755815982819,-0.38994842767715454
1772376800496860200,6.993860107421875,0.5945308771993965,2.605230136685073,-19.92918965771198,0.4304797351360321,0.3639148473739624,-0.2433006763458252
1772376800506809300,7.003809326171875,0.44976723615154623,2.2792099839724598,-18.341109149885177,0.7319727540016174,0.44994375109672546,-0.12277692556381226
1772376800516758300,7.01375830078125,0.4674815008120611,1.996100313834101,-16.597234853756426,1.0595866441726685,0.48317810893058777,0.012220701202750206
1772376800526707200,7.023707275390625,0.5402487769896164,1.6605287811830638,-14.481892220556736,1.3758599758148193,0.5072365403175354,0.17843471467494965
1772376800536656100,7.03365625,0.417461515026167,1.2840132437251508,-11.84105271809101,1.618259072303772,0.5589054822921753,0.32256579399108887
1772376800546605000,7.04360498046875,-0.017756642497517166,0.7068984154246747,-8.886763352280855,1.7771879434585571,0.6212537884712219,0.42258399724960327
1772376800556554000,7.053553955078125,-0.6757013131283224,0.12685684948991982,-5.815832058861852,1.8456602096557617,0.6874672770500183,0.4539286196231842
1772376800566503200,7.063503173828125,-1.2672453565366566,-0.26458774235676974,-2.7883161287993192,1.8274515867233276,0.7198669910430908,0.43148934841156006
1772376800576452400,7.073452392578125,-1.549203810813278,-0.4028302014749497,-0.05470131200253963,1.7740379571914673,0.702246367931366,0.38813909888267517
1772376800586401300,7.0834013671875,-1.5668185240894554,-0.2494481504898518,2.2391443694353104,1.7130126953125,0.6268286108970642,0.3562892973423004
1772376800596350200,7.09335009765625,-1.46840768808946,-0.015672273971512912,4.2987616082817315,1.654715657234192,0.49260827898979187,0.33441802859306335
1772376800606299100,7.103299072265625,-1.3589230848893523,0.18463095653392372,6.170723939663171,1.593780755996704,0.38233423233032227,0.31702864170074463
1772376800616248000,7.113248046875,-1.162492969490215,0.46262657159417864,7.875385584822297,1.5046786069869995,0.3385615348815918,0.31138476729393005
1772376800626197000,7.123197021484375,-0.9180405814610421,0.8177341409727931,9.446333756062387,1.3799314498901367,0.33683261275291443,0.31978118419647217
1772376800636145200,7.133145263671875,-0.7063702268321067,1.133498711000383,10.94342583297491,1.2095025777816772,0.37188223004341125,0.3366377055644989
1772376800646094000,7.143093994140625,-0.5601948923554271,1.4092806685991583,12.321859381759166,0.9831253290176392,0.3948061764240265,0.3458802103996277
1772376800656043300,7.153043212890625,-0.49086833121627566,1.6483213337779044,13.431652515262364,0.7245013117790222,0.39472484588623047,0.34156426787376404
1772376800665992200,7.1629921875,-0.3947444736422971,1.7958453063845634,14.154766883081196,0.48850661516189575,0.34651124477386475,0.3350275456905365
1772376800675941000,7.172941162109375,-0.37412561011407525,1.8409825250975786,14.520470665276049,0.26965615153312683,0.26932695508003235,0.3058895170688629
1772376800685890300,7.182890380859375,-0.3942396293926984,1.7834044886149465,14.579266553115843,0.08117145299911499,0.1925639808177948,0.2585779130458832
1772376800695839200,7.192839111328125,-0.3555502351121977,1.6890132635198531,14.444529581367968,-0.08991988003253937,0.12455540150403976,0.2207130640745163
1772376800705788200,7.2027880859375,-0.23733846437074244,1.7241937363639472,14.221632680130003,-0.2556678354740143,0.03607561066746712,0.19926317036151886
1772376800715737000,7.212737060546875,-0.1895423834457062,1.7533252844326197,13.764604366934298,-0.4226635992527008,-0.06544380635023117,0.16245415806770325
1772376800725686000,7.22268603515625,-0.3635448140626773,1.6312870507381856,12.976389458173513,-0.581916868686676,-0.13741013407707214,0.10699570178985596
1772376800735635200,7.23263525390625,-0.3841762082789093,1.5553671557486057,11.902081479549407,-0.7316067814826965,-0.19873957335948944,0.052746664732694626
1772376800745584000,7.242584228515625,-0.3526400102213025,1.4313319030180573,10.769546937406062,-0.9296780824661255,-0.26991039514541626,0.0008597654523327947
1772376800755533300,7.252533203125,-0.36394480969831344,1.3451321676850319,9.433492979189753,-1.1673047542572021,-0.3452247381210327,-0.05211607366800308
1772376800765482200,7.262482177734375,-0.10902416434781625,1.0795444179728626,7.352051446548104,-1.3767727613449097,-0.4010550081729889,-0.07915087789297104
1772376800775430100,7.27243017578125,0.13542415942759253,0.8241000227428972,4.805297756490111,-1.562329649925232,-0.4399021863937378,-0.07182545214891434
1772376800785379000,7.282379150390625,0.5800470092948525,0.6176992790799588,1.9392226807057857,-1.7076042890548706,-0.47708630561828613,-0.03143754601478577
1772376800795328300,7.292328369140625,1.1011481278199702,0.30861637877337633,-1.3826245707333087,-1.7573301792144775,-0.5678831338882446,0.02561497688293457
1772376800805277200,7.302277099609375,1.5883851898618042,-0.03457439670972526,-5.235261537149548,-1.6414586305618286,-0.7025573253631592,0.08916465938091278
1772376800815226000,7.31222607421875,1.502044877014309,-0.19572393989115952,-9.277941182950139,-1.373248815536499,-0.8128963112831116,0.11330372840166092
1772376800825175300,7.32217529296875,0.9527796672131865,-0.30627818161677567,-12.861197729372977,-1.0231916904449463,-0.8173754811286926,0.08613788336515427
1772376800835124200,7.332124267578125,0.2206536158232018,-0.34936434955149887,-15.36470498290062,-0.7203708291053772,-0.7846372723579407,-0.0020834968890994787
1772376800845073200,7.3420732421875,-0.3711129842946306,-0.12400964336525648,-16.738568739551305,-0.538966953754425,-0.7700921893119812,-0.08628812432289124
1772376800855022000,7.35202197265625,-0.4662752302948385,0.14289178276136516,-17.632483910667894,-0.43905115127563477,-0.7039808034896851,-0.11226898431777954
1772376800864971300,7.36197119140625,-0.33504001959022134,0.2847775302853435,-18.424505225974322,-0.3535713851451874,-0.5377169847488403,-0.09832893311977386
1772376800874920200,7.371920166015625,-0.4290675259394571,0.21329317005779594,-19.163325696969032,-0.19185739755630493,-0.2965067923069,-0.07236143201589584
1772376800884869000,7.381869140625,-0.6986639633037149,0.06528886658828705,-19.155023148047924,0.011980419047176838,-0.1253097504377365,-0.08307240158319473
1772376800894818000,7.391818115234375,-1.0429948487326501,-0.025363263310026377,-18.261793036586045,0.23033301532268524,-0.07113656401634216,-0.14048905670642853
1772376800904767200,7.401767333984375,-1.2516275161661208,0.04074391565751284,-16.729948210722206,0.4477854371070862,-0.09124822169542313,-0.22046750783920288
1772376800914715400,7.41171533203125,-1.2596221681818365,0.2055367837773636,-14.820141009593009,0.68011873960495,-0.0994143858551979,-0.2739349901676178
1772376800924664300,7.421664306640625,-1.054382796448469,0.14267185640037058,-12.628761430895327,0.9159336090087891,-0.030816413462162018,-0.31639403104782104
1772376800934613200,7.43161328125,-0.788639125522226,-0.09762450792789458,-9.929929173666238,1.1128491163253784,0.1339818388223648,-0.3347540497779846
1772376800944562200,7.441562255859375,-0.49138592534959313,-0.19865619395077228,-6.7893252090841525,1.23976731300354,0.3740958869457245,-0.32395094633102417
1772376800954511000,7.451510986328125,-0.2849996851360425,-0.05668262201286852,-3.3269811071962114,1.2729865312576294,0.5993742346763611,-0.2953975796699524
1772376800964460000,7.4614599609375,-0.14728314958810806,0.1794696282479912,0.11696633725762366,1.2351582050323486,0.7791271805763245,-0.25403282046318054
1772376800974409200,7.4714091796875,-0.09758322606943547,0.40506855498626826,3.317086320647597,1.1457926034927368,0.8939034342765808,-0.22550810873508453
1772376800984358100,7.481358154296875,-0.19245109223295,0.6011889468491077,6.23891017166078,1.0015259981155396,0.9207049012184143,-0.23087385296821594
1772376800994307300,7.491307373046875,-0.31889271198548375,0.7566765918113291,8.871620143684744,0.8080865740776062,0.8840317726135254,-0.2788328528404236
1772376801004256300,7.50125634765625,-0.33768030496593565,0.8927528493389487,11.08917753521204,0.5777985453605652,0.7945668697357178,-0.353034645318985
1772376801014205200,7.511205078125,-0.11086586495805531,1.082923246756196,12.83663144339323,0.3192737400531769,0.6786012649536133,-0.42541933059692383
1772376801024154600,7.521154541015625,0.2984416975711472,1.2504764464348554,13.884280547672509,0.06548592448234558,0.5461854338645935,-0.47782233357429504
1772376801034103600,7.531103515625,0.8429244771350175,1.530823081600666,14.135939433014393,-0.08926881104707718,0.3743099272251129,-0.49020835757255554
1772376801044052500,7.541052490234375,1.4549012869149445,1.7936907586991786,13.62896021721363,-0.10191216319799423,0.1920700967311859,-0.42950639128685
1772376801054000600,7.551000732421875,1.8311783394418655,2.087896115608513,13.01399175133705,-0.004889747593551874,-0.016132907941937447,-0.33142775297164917
1772376801063949600,7.560949462890625,1.9592136215940117,2.2428327025592325,12.800401607626675,0.10630574822425842,-0.2405516356229782,-0.2263881415128708
1772376801073898500,7.5708984375,1.8916621803686022,2.2081449816681444,12.99470954324007,0.15778471529483795,-0.43386003375053406,-0.14156104624271393
1772376801083847400,7.580847412109375,1.5450746020540593,2.1574849078804252,13.543119670581817,0.056612562388181686,-0.5665597915649414,-0.10024929791688919
1772376801093796600,7.590796630859375,1.1340053453482686,2.0934951046593486,13.919268858945369,-0.16696736216545105,-0.5934655666351318,-0.08846443891525269
1772376801103745800,7.600745849609375,0.7244094491306692,1.952434775108844,13.633056546616553,-0.43778395652770996,-0.5285264849662781,-0.09876900911331177
1772376801113694700,7.61069482421875,0.619534093291685,1.8260304551593958,12.772872964709997,-0.6729096174240112,-0.45058655738830566,-0.10291069746017456
1772376801123643600,7.6206435546875,0.7638635807059705,1.7992139060348271,11.37379527182579,-0.8162321448326111,-0.36960384249687195,-0.07000228017568588
1772376801133592600,7.630592529296875,0.996397932730615,1.7236688357070087,9.70147989899814,-0.8571582436561584,-0.2982332408428192,0.0030460967682302
1772376801143541500,7.64054150390625,0.9990580918505787,1.639619848667085,8.11921129232049,-0.8435755968093872,-0.2946038842201233,0.07629527896642685
1772376801153490400,7.650490478515625,0.6553480417337268,1.4979256051272154,6.6321577943414445,-0.8145505785942078,-0.28969401121139526,0.1285143494606018
1772376801163439900,7.66043994140625,0.3061040671588853,1.1759694139178842,5.012395031049848,-0.8001484274864197,-0.21903051435947418,0.15478722751140594
1772376801173388800,7.670388916015625,-0.340336920421943,0.7529566214401274,3.3970120902776717,-0.8398020267486572,-0.13245970010757446,0.14012010395526886
1772376801183337700,7.680337646484375,-0.9095463824253529,0.32834399255029856,1.760688652807474,-0.9228000044822693,-0.051414646208286285,0.09159702807664871
1772376801193285600,7.69028564453125,-1.0263023648679255,-0.1652894925303757,-0.16321254012584685,-1.0360881090164185,-0.01103878766298294,0.041830163449048996
1772376801203234600,7.700234619140625,-0.8775722313418984,-0.5858561704976484,-2.553797178828716,-1.142022728919983,-0.010062206536531448,-0.0015575222205370665
1772376801213183700,7.710183837890625,-0.5863145817896351,-1.12148897812441,-5.537417268541455,-1.1667736768722534,-0.053867023438215256,-0.06009165570139885
1772376801223132700,7.720132568359375,-0.2954892775063403,-1.6510186100378632,-9.121365888881682,-1.023886799812317,-0.12007267028093338,-0.1284177303314209
1772376801233081600,7.73008154296875,-0.02970282688429579,-1.6919839498937128,-12.642605247330664,-0.7361538410186768,-0.24806052446365356,-0.15905426442623138
1772376801243030500,7.740030517578125,0.13401705997548996,-1.288803985133022,-15.506753154444693,-0.40127041935920715,-0.33060598373413086,-0.13917642831802368
