time,seconds_elapsed,accel_x,accel_y,accel_z,gyro_x,gyro_y,gyro_z
1772376939593260000,0.071260009765625,-0.10984759129360318,1.1290484535932541,2.0132073698490855,-1.046803593635559,-1.5046511888504028,0.38612881302833557
1772376939603209000,0.081208984375,0.25513036084473134,1.0371008222579956,-1.3771148674011229,-0.5458835959434509,-1.3227273225784302,0.4782523810863495
1772376939613158000,0.091157958984375,0.9470954840969293,-0.3299740049049258,-5.084973360526561,0.3187244236469269,-0.7977758646011353,0.572916567325592
1772376939623106000,0.10110595703125,1.8590052346527575,-3.2534871241793035,-8.81561943952143,0.96499103307724,-0.6821877360343933,0.5258657336235046
1772376939633055000,0.111054931640625,1.88888745495826,-5.298701451402902,-9.143999160972237,1.181414008140564,-0.8268266320228577,0.35694119334220886
1772376939643003000,0.1210029296875,1.9346596105739473,-6.144419285583496,-8.139805167537927,1.0051686763763428,-1.1020879745483398,0.17825168371200562
1772376939652952000,0.1309521484375,2.269808533898741,-6.950133610677718,-7.23074094260633,0.5626747608184814,-1.4285610914230347,0.08085963129997253
1772376939662900000,0.14089990234375,2.7461265078455206,-7.408685187917947,-6.617766280895471,-0.2586249113082886,-1.731208324432373,0.0307445228099823
1772376939672849200,0.15084912109375,2.483659520502388,-7.052523725572228,-6.045558513858914,-1.4692299365997314,-1.8480215072631836,-0.0032368802931159735
1772376939682798000,0.160798095703125,0.9977849301096051,-5.939993276059627,-6.283592778474092,-2.6592040061950684,-1.6046558618545532,-0.09341073036193848
1772376939692746200,0.170746337890625,-1.0091551229730247,-4.377441177242994,-8.712140944868326,-3.347269296646118,-1.1822118759155273,-0.23101094365119934
1772376939702695200,0.180695068359375,-1.8557571926422416,-2.621234346024692,-12.367586529189348,-3.3783323764801025,-0.7944890856742859,-0.27586570382118225
1772376939712643000,0.19064306640625,-1.2247741421625018,-0.7465624634236097,-15.302079307639598,-2.954495429992676,-0.41182079911231995,-0.1986342817544937
1772376939722592000,0.200592041015625,-0.5761907722581178,0.7807616701453923,-16.043797838163375,-2.38820743560791,-0.04114151373505592,-0.09177228808403015
1772376939732540200,0.2105400390625,-0.536563512605615,1.5064271837517618,-14.280250873315333,-1.8969504833221436,0.17775088548660278,-0.03188098594546318
1772376939742489000,0.220489013671875,-1.0489005656450987,1.488851925703138,-10.531079542070627,-1.6640337705612183,0.20589077472686768,-0.06607577949762344
1772376939752438000,0.23043798828125,-1.557940951759368,1.3064283430203794,-5.940099074521661,-1.6451094150543213,0.14070779085159302,-0.15146392583847046
1772376939762386200,0.24038623046875,-1.7698763140000402,1.278621029292792,-2.0319939033836123,-1.7481948137283325,0.06994813680648804,-0.2407841682434082
1772376939772335000,0.250335205078125,-1.889265932881832,1.6228149904690683,0.705455377009511,-1.8725489377975464,0.16460967063903809,-0.31887924671173096
1772376939782283000,0.260282958984375,-1.8606860273465513,1.9415373873889445,2.1647160281777382,-1.968970775604248,0.41441094875335693,-0.378373384475708
1772376939792232000,0.27023193359375,-1.4822585187874733,1.9820435853004454,2.8409166691303254,-1.9778215885162354,0.6762763857841492,-0.34915369749069214
1772376939802180000,0.28018017578125,-0.47699042984824624,1.9558964598700403,3.145677030062675,-1.836251974105835,0.829213559627533,-0.17333367466926575
1772376939812129000,0.29012890625,0.9351431074313818,1.9668506923437117,3.268074160197377,-1.5457937717437744,0.7868650555610657,0.10022304207086563
1772376939822078000,0.300077880859375,1.900169019690156,1.6254174280524254,3.4404917510420083,-1.1424857378005981,0.5857768058776855,0.342239111661911
1772376939832026000,0.310026123046875,1.9405783330984412,0.8753614234246313,3.786258076101541,-0.6818124055862427,0.3472132682800293,0.4791567623615265
1772376939841975000,0.31997509765625,1.1824451127380131,0.2081177401812747,4.104902000957727,-0.22268208861351013,0.28892982006073,0.5280507802963257
1772376939851923000,0.3299228515625,0.17921263954592867,-0.26933416969887913,4.73125929133296,0.1318030208349228,0.33071696758270264,0.5005760192871094
1772376939861871900,0.339871826171875,-0.5688127908360213,-0.4539102177077904,6.062637074431777,0.31865358352661133,0.45719295740127563,0.4254131317138672
1772376939871820000,0.349820068359375,-0.962676499588415,-0.8270084575355052,7.5319497485369435,0.37522950768470764,0.5996401309967041,0.3100724220275879
1772376939881769200,0.359769287109375,-1.4068018573954701,-1.3100968024000526,8.797835945549608,0.35292020440101624,0.6290176510810852,0.12952426075935364
1772376939891718100,0.36971826171875,-1.7928288811728357,-1.17488118028976,9.892375980341434,0.29564255475997925,0.5756910443305969,-0.052371248602867126
1772376939901666000,0.379666015625,-1.669994382534176,-1.159244196827337,10.518015477836132,0.24626648426055908,0.41077470779418945,-0.22015531361103058
1772376939911615200,0.389615234375,-1.4909553277231753,-1.2631548723526298,10.553173300457,0.2631381154060364,0.30078190565109253,-0.3865688145160675
1772376939921563100,0.399563232421875,-1.2498793573245406,-1.1754188673630357,10.201333208441733,0.2909972071647644,0.1628083735704422,-0.48737379908561707
1772376939931512000,0.409511962890625,-0.8406795477524399,-0.8401473405718803,9.90797336244583,0.342838853597641,0.00020879507064819336,-0.5419089198112488
1772376939941460200,0.419460205078125,-0.5292223560625687,-0.6196592540413141,9.43523368537724,0.45917052030563354,-0.16842293739318848,-0.5845609903335571
1772376939951409200,0.4294091796875,-0.6063343469135463,-0.4403112794116139,8.861953905194998,0.4916110038757324,-0.13121937215328217,-0.6655221581459045
1772376939961358000,0.439358154296875,-0.408542843500711,0.5007952664688229,9.802126385095715,0.15969164669513702,-0.2986328601837158,-0.4650752544403076
1772376939971306000,0.449305908203125,1.468762200615555,1.1562528329916297,11.596011789584159,-0.21863755583763123,-0.49401646852493286,-0.13351038098335266
1772376939981255200,0.459255126953125,2.1273855376929043,0.6291558350525797,10.974658006584644,-0.3511900007724762,-0.5602166056632996,0.045288264751434326
1772376939991203000,0.469203125,0.7889332861632108,0.4954557320717722,8.53578075387776,-0.27990224957466125,-0.4762471616268158,0.14506971836090088
1772376940001152000,0.479152099609375,-0.2792660368548706,0.0005985504150390625,5.668357186093926,-0.0526653528213501,-0.31007105112075806,0.12559373676776886
1772376940011100200,0.48910009765625,-1.5678829384505748,-0.20899865120165048,3.500774662569165,0.22784966230392456,-0.17220823466777802,-0.05893055722117424
1772376940021049000,0.499049072265625,-2.588156252287328,-0.00805982620641589,2.274309206318855,0.343187153339386,-0.17166271805763245,-0.24221445620059967
1772376940030998000,0.508998046875,-2.164116016457975,-0.3467688531655818,1.6361124250680208,0.2124730944633484,-0.3379518389701843,-0.3853670656681061
1772376940040946000,0.51894580078125,-0.870302386469394,-0.934409459394589,1.0538117185622453,-0.11923585832118988,-0.7581108808517456,-0.47158291935920715
1772376940050894800,0.528894775390625,0.7159202915962785,-1.9704853955842554,-0.3626818040251732,-0.505227267742157,-1.267810583114624,-0.4850982129573822
1772376940060843000,0.538843017578125,2.908910008904338,-3.4955481600925324,-3.5334751551657915,-0.8525247573852539,-1.8843183517456055,-0.42488494515419006
1772376940070792000,0.5487919921875,4.269060005240142,-4.561126012033224,-8.081865604266524,-1.1148825883865356,-2.3137435913085938,-0.39150622487068176
1772376940080740000,0.558739990234375,3.662213471020758,-4.719202942836285,-13.525317471909522,-1.2960768938064575,-2.3139004707336426,-0.42464810609817505
1772376940090689300,0.568689208984375,1.568740432062745,-3.5866289454653857,-18.54071519190669,-1.5430397987365723,-2.075277090072632,-0.4985598623752594
1772376940100638200,0.57863818359375,-1.7452165045179426,-0.8614783709574491,-21.39952641416788,-2.0072784423828125,-1.753700613975525,-0.6832695603370667
1772376940110586000,0.588586181640625,-5.319028784638643,1.9200642451189458,-23.128806367754933,-2.490800142288208,-1.377947211265564,-0.924278736114502
1772376940120535000,0.59853515625,-6.613326837143301,3.9214313934400677,-25.960466548240184,-2.4187798500061035,-0.7606877684593201,-0.9426239728927612
1772376940130483200,0.608483154296875,-5.334698647457361,5.724280148845911,-30.429938358926773,-1.5739246606826782,0.11901159584522247,-0.6607853770256042
1772376940140432100,0.61843212890625,-3.7539822386577724,7.274062782460451,-32.98883490672112,-0.5320170521736145,0.8981488943099976,-0.27207258343696594
1772376940150380000,0.628380126953125,-2.7429472932875156,7.345016725605726,-29.856330661964414,0.08831679821014404,1.3456825017929077,0.01808842644095421
1772376940160328200,0.638328125,-2.3241792987726626,5.695738529494404,-22.24827090269327,0.21411946415901184,1.7216626405715942,0.1565248966217041
1772376940170277000,0.648277099609375,-2.5233649234250186,4.211750264304876,-14.530087219405173,0.1402026265859604,2.1076040267944336,0.2719534635543823
1772376940180225000,0.65822509765625,-2.188194226659834,3.1478552508845925,-8.740473889905214,0.09341941773891449,2.3573100566864014,0.38146552443504333
1772376940190174200,0.66817431640625,-1.5271546222209929,2.124649536857754,-4.251291416576504,0.15676349401474,2.279336452484131,0.4708009958267212
1772376940200122000,0.6781220703125,-0.7652157259672879,1.2566139262765645,-0.2602145322412252,0.34698164463043213,1.9420608282089233,0.5660510659217834
1772376940210071000,0.688071044921875,0.14760098336562513,0.5665774329993873,2.8611732752174137,0.6219873428344727,1.5172533988952637,0.7101696133613586
1772376940220019200,0.698019287109375,1.0392302355021237,0.19553418947272003,5.48209168716073,0.8779251575469971,1.1888175010681152,0.8628390431404114
1772376940229968400,0.707968505859375,1.2106678753986955,-0.11935491289459169,7.7686846209913485,1.0555585622787476,1.092375636100769,0.9895282983779907
1772376940239917300,0.717917236328125,0.9123658968254923,-0.4706313066124916,9.669304307058454,1.1520220041275024,1.1896371841430664,1.0631418228149414
1772376940249865200,0.727865234375,0.2796051691487431,-0.9746301914282143,11.590468183982372,1.1087709665298462,1.2148802280426025,1.0510727167129517
1772376940259814100,0.737814208984375,-0.5859709194511175,-1.3334784086398779,14.22863408332467,0.919630765914917,1.0185632705688477,0.966413140296936
1772376940269762300,0.74776220703125,-1.0228926294896752,-1.5890172041550277,16.552660383492707,0.6819801330566406,0.7210770845413208,0.8625730276107788
1772376940279711200,0.757711181640625,-1.0543119231693445,-1.9604969394028187,17.544457252168655,0.4847339391708374,0.368106871843338,0.7729788422584534
1772376940289659100,0.7676591796875,-0.9064030428983271,-2.1562528818674385,17.64674273764491,0.3563506603240967,0.031466271728277206,0.6900621056556702
1772376940299608300,0.7776083984375,-0.8674112681377678,-2.1331375253483653,17.05242426108718,0.2776617109775543,-0.1530720442533493,0.6195882558822632
1772376940309557200,0.78755712890625,-0.9830262638516724,-2.0788735818497837,16.154223375475407,0.19815754890441895,-0.2658174932003021,0.5789798498153687
1772376940319505200,0.797505126953125,-1.0278002752754836,-1.7218281762763856,15.365295350009202,0.12393179535865784,-0.3870166540145874,0.5371989011764526
1772376940329454000,0.8074541015625,-1.2044879446547478,-1.3644462322250008,14.570999075508118,0.0722382441163063,-0.5095148682594299,0.4541301131248474
1772376940339402200,0.81740234375,-1.776214723241329,-1.024894397766143,13.628268143296241,0.016527025029063225,-0.614579975605011,0.29868873953819275
1772376940349351200,0.82735107421875,-2.5646058653518558,-0.7964100517846644,12.606869917082786,-0.0710342526435852,-0.7185242176055908,0.08232206106185913
1772376940359299000,0.837299072265625,-3.0847301016688347,-0.5539270641323178,11.630876182216404,-0.14249002933502197,-0.739501416683197,-0.12819859385490417
1772376940369248300,0.847248291015625,-3.07311974337399,-0.22782102323453873,10.257697485220431,-0.13167813420295715,-0.6779501438140869,-0.25634270906448364
1772376940379197200,0.857197265625,-2.4610481679826974,0.263631976001896,8.557105281457304,-0.05022590234875679,-0.5528137683868408,-0.2782838046550751
1772376940389145000,0.86714501953125,-1.629603189304471,0.6768803668450564,7.025311893519759,0.07888494431972504,-0.3896208107471466,-0.22421126067638397
1772376940399094000,0.877093994140625,-0.921390841737017,0.9559153348904103,5.914414013645053,0.19396039843559265,-0.21246567368507385,-0.11543262004852295
1772376940409042200,0.887042236328125,-0.36542591510154304,1.112376281864196,5.265550292429328,0.27614450454711914,-0.06153768301010132,-0.00831814669072628
1772376940418991000,0.8969912109375,-0.43308666192032397,1.136639054852724,4.682515426430106,0.3174506425857544,0.027164192870259285,0.05548185110092163
1772376940428939000,0.90693896484375,-0.7217268589831888,0.8907793573088943,4.070050467807055,0.2929290533065796,-0.0221538208425045,0.0684375911951065
1772376940438888200,0.91688818359375,-0.8545118198804557,0.33538744478840377,3.370098948910832,0.19221550226211548,-0.22332054376602173,0.00824084784835577
1772376940448837400,0.92683740234375,-0.7394606685943901,-0.29800054794121533,2.29673614218235,0.10078146308660507,-0.5316128730773926,-0.07093919068574905
1772376940458785300,0.936785400390625,-0.07202672347594052,-1.1107074718691408,0.14725743062496185,0.13159076869487762,-0.7119802832603455,-0.1431986391544342
1772376940468734200,0.946734130859375,1.1949370031077413,-2.3733472343064843,-3.006630378422141,0.20192138850688934,-0.9548927545547485,-0.19529619812965393
1772376940478682400,0.956682373046875,2.6752479680240153,-3.787525319558382,-5.8264528215974565,0.1861027628183365,-1.2050199508666992,-0.19709277153015137
1772376940488631300,0.96663134765625,4.153021011960506,-4.862744275547564,-8.138259107139707,-0.002297778148204088,-1.4647306203842163,-0.11459843069314957
1772376940498579200,0.9765791015625,5.122991248753666,-5.445096712240576,-10.447393543124198,-0.29617786407470703,-1.5398330688476562,-0.003489173948764801
1772376940508528000,0.986528076171875,4.87451888449341,-5.379065027928352,-13.162511749243736,-0.6678617000579834,-1.486675500869751,0.0505966991186142
1772376940518477300,0.996477294921875,3.4287978061169384,-4.635336034364998,-15.803234347331523,-1.1061404943466187,-1.4467501640319824,0.010363176465034485
1772376940528425200,1.00642529296875,0.8885118507683276,-2.796069227144122,-18.297141413342953,-1.5843778848648071,-1.3235960006713867,-0.14373637735843658
1772376940538374100,1.0163740234375,-1.955734547306597,-0.29250302823716773,-21.31465383578539,-1.790300726890564,-0.9417948126792908,-0.30253368616104126
1772376940548322300,1.026322265625,-3.0004157416909933,1.5734508017107844,-25.84613172852993,-1.387059211730957,-0.3607622981071472,-0.29448267817497253
1772376940558271200,1.036271240234375,-1.9187717210903763,2.88186301202476,-30.465117224335668,-0.4688545763492584,0.20716723799705505,-0.051780734211206436
1772376940568219100,1.04621923828125,-0.6713314274810254,4.529556861554086,-31.521818234598634,0.4723321199417114,0.5499073266983032,0.2770344316959381
1772376940578168000,1.05616796875,-0.3356835416581482,5.442341276052594,-27.766108441495895,1.0973305702209473,0.6945921778678894,0.44009268283843994
1772376940588117200,1.0661171875,-1.120581654021144,4.558877940845489,-21.27395474565029,1.3537089824676514,0.8085163235664368,0.439532607793808
1772376940598065200,1.076065185546875,-2.0677195890203115,3.510884845434129,-14.382379706925153,1.3299552202224731,0.9956385493278503,0.38349294662475586
1772376940608014000,1.08601416015625,-2.2426406871184708,2.8743855157509444,-8.347010578647255,1.1915377378463745,1.3211923837661743,0.3436858654022217
1772376940617962200,1.095962158203125,-1.7654432999886571,2.281187567655742,-3.817840378323197,1.0667427778244019,1.6483193635940552,0.3816068470478058
1772376940627911200,1.1059111328125,-0.829231248151511,2.0349092063084244,-0.24167934311926365,1.023324728012085,1.7803537845611572,0.48575136065483093
1772376940637859000,1.115859130859375,-0.004298446112591773,1.8877096433505416,3.006950696417689,1.0521079301834106,1.6467063426971436,0.5929434299468994
1772376940647808300,1.125808349609375,0.3933052711520344,1.7168965650931,5.989657178416848,1.1006288528442383,1.3732662200927734,0.6582761406898499
1772376940657756200,1.135756103515625,0.1388791861191392,1.3584212728470564,8.327235034075379,1.180895209312439,1.1425424814224243,0.654854953289032
1772376940667705300,1.145705322265625,-0.4872361121937632,1.0568137499224395,9.8762875998497,1.2803778648376465,0.9762978553771973,0.6012958288192749
1772376940677654300,1.155654296875,-1.1538378077391533,0.9205378781694918,11.392387744092941,1.3366509675979614,0.7506626844406128,0.5020432472229004
1772376940687602200,1.165602294921875,-1.5901735345833004,0.7148106498539447,13.444239609634876,1.2801456451416016,0.4818498194217682,0.38289210200309753
1772376940697551400,1.17555126953125,-1.664366751910746,0.6020727439463138,15.373409682881832,1.1266486644744873,0.3005608320236206,0.27552175521850586
1772376940707499300,1.185499267578125,-1.6065280186653137,0.49140214583203196,16.618406236600876,0.9252548217773438,0.18911659717559814,0.19967599213123322
1772376940717448200,1.1954482421875,-1.3613564495161175,0.5580811881370842,17.322780832636354,0.7133502960205078,0.10893427580595016,0.17106293141841888
1772376940727396400,1.205396240234375,-0.8925017971873282,0.6487861259348691,17.64349396498203,0.52176833152771,0.005398831330239773,0.17969051003456116
1772376940737345300,1.21534521484375,-0.4412693107888102,0.7634634754724801,17.62797841594219,0.36583390831947327,-0.1085033044219017,0.217237651348114
1772376940747294200,1.225294189453125,-0.10643471411019563,0.8936150191262364,17.335317658126353,0.2245531976222992,-0.21296872198581696,0.2699567973613739
1772376940757242000,1.2352421875,0.030718780727498233,1.1079061507128178,16.910988668483494,0.09837982803583145,-0.2575438618659973,0.31114661693573
1772376940767191300,1.24519140625,-0.2115558614037931,1.3309763626910744,16.234162589108944,-0.01952524296939373,-0.22555717825889587,0.3513510227203369
1772376940777139200,1.25513916015625,-0.41130967786554246,1.5513095509208739,15.31035379951,-0.1116088256239891,-0.056738220155239105,0.40163925290107727
1772376940787088100,1.265088134765625,-0.5780439258441329,1.7134736049070953,14.16776080468893,-0.18656882643699646,0.23444035649299622,0.4651380777359009
1772376940797036300,1.275036376953125,-0.7688165269382298,1.7890391335010527,13.087737371027469,-0.219574436545372,0.46184805035591125,0.48491859436035156
1772376940806985200,1.284985107421875,-1.2763845024123788,1.6248917967431247,12.321658306229114,-0.17962861061096191,0.49579161405563354,0.41226062178611755
1772376940816934100,1.29493408203125,-2.0494576638817787,1.3454970554746686,11.906918982708454,-0.1480371505022049,0.33689674735069275,0.27759024500846863
1772376940826882000,1.304882080078125,-2.6293238367170093,1.2664020375803111,11.553994018065929,-0.14227859675884247,0.04798876494169235,0.1383013129234314
1772376940836831000,1.3148310546875,-2.9583292888507247,1.1818459778010844,10.960383982038497,-0.17948560416698456,-0.34214144945144653,0.03149600327014923
1772376940846779100,1.324779052734375,-2.7615245679855347,0.771765586002171,10.29798156481385,-0.3869999051094055,-0.8282684683799744,-0.030052579939365387
1772376940856728000,1.33472802734375,-2.469637132629752,0.429680579803884,9.51798211121261,-0.8386867046356201,-1.292879581451416,-0.10858254134654999
1772376940866676000,1.344676025390625,-2.381953880740702,-0.07914894003868103,7.692634231489897,-1.358383297920227,-1.6353235244750977,-0.23890379071235657
1772376940876625400,1.35462548828125,-2.450416007070243,-0.8058508109554648,3.883238440907001,-1.8008233308792114,-1.8155643939971924,-0.40926146507263184
1772376940886574300,1.36457421875,-2.4710569362998007,-1.521471169757098,-1.2415385222196578,-2.1608128547668457,-1.9824305772781372,-0.6226392984390259
1772376940896522200,1.374522216796875,-2.1577841830879447,-2.2089649197489023,-6.625709348854422,-2.480565309524536,-2.154350757598877,-0.8835135102272034
1772376940906471200,1.38447119140625,-2.3960747605517505,-2.1361206328123807,-12.132081490790844,-2.777998447418213,-2.2078754901885986,-1.1307754516601562
1772376940916419300,1.39441943359375,-3.016149609656632,-0.6425116487752646,-17.778345503020287,-2.947514533996582,-2.030956745147705,-1.2757996320724487
1772376940926368300,1.4043681640625,-3.538669508938491,1.7174227809242903,-23.596660026347635,-2.8214569091796875,-1.5864907503128052,-1.2819091081619263
1772376940936316200,1.414316162109375,-3.9528906538039443,4.378331696341932,-29.22373067780733,-2.342311143875122,-1.0142616033554077,-1.0757389068603516
1772376940946265300,1.424265380859375,-3.373053707063198,6.1611331044971935,-33.465072947299475,-1.544212818145752,-0.42611634731292725,-0.713548481464386
1772376940956214300,1.43421435546875,-2.1923656671255825,6.854779970291257,-35.41319789638519,-0.5689761638641357,0.1797388792037964,-0.288709431886673
1772376940966162200,1.444162109375,-1.1795739412158728,6.4542538810402155,-34.64020276858806,0.33186769485473633,0.6361591815948486,0.07317288219928741
1772376940976111000,1.454111083984375,-0.7793614479586481,5.312586768892407,-30.585645637989042,0.9669154286384583,0.8245069980621338,0.29316437244415283
1772376940986059300,1.464059326171875,-0.9047573945831507,4.037311689026653,-24.545074849414824,1.3253284692764282,0.7610326409339905,0.39827215671539307
1772376940996008200,1.47400830078125,-0.9425310987908393,2.7592192136526106,-18.27093846607208,1.4818388223648071,0.5570198893547058,0.4488897919654846
1772376941005956000,1.4839560546875,-0.7074886364027857,1.6353386642165482,-12.715040368944406,1.4820600748062134,0.40101906657218933,0.502069354057312
1772376941015905000,1.493905029296875,-0.3478811252564192,0.8054125656686723,-8.028278975507616,1.359233021736145,0.41032931208610535,0.5389180183410645
1772376941025854200,1.503854248046875,-0.5702236440146342,0.3453477708538994,-4.060771767330169,1.1648751497268677,0.6003557443618774,0.5623120069503784
1772376941035802000,1.513802001953125,-0.8123191301867365,0.09301065745688974,-0.8802490493357181,1.0115381479263306,0.7900627851486206,0.5748493671417236
1772376941045751000,1.5237509765625,-0.9466187334306537,-0.11953282674476504,1.6306319478303193,0.961997389793396,0.9557361602783203,0.5832839012145996
1772376941055699200,1.53369921875,-1.1361300093520432,-0.14601999778449534,3.627852643996477,0.9640775918960571,1.0933173894882202,0.5497539043426514
1772376941065648000,1.543648193359375,-1.4605625275470315,-0.23647563699632881,5.621354611900449,0.9783734679222107,1.224394679069519,0.47055545449256897
1772376941075596000,1.553595947265625,-1.853664750407636,-0.45127150323465465,7.58139737779498,0.9662328958511353,1.3443918228149414,0.3332923650741577
1772376941085545200,1.563545166015625,-2.146675929096341,-0.6863720524854958,9.593282559129594,0.9318029880523682,1.3574501276016235,0.18475936353206635
1772376941095494100,1.573494140625,-2.07280887498334,-0.7581020945698023,11.64820959433317,0.8782481551170349,1.231041431427002,0.03800027072429657
1772376941105442300,1.5834423828125,-1.8303081324785946,-0.7090509903486818,13.473217866837977,0.8239628076553345,0.9242450594902039,-0.10601761937141418
1772376941115391200,1.59339111328125,-1.3874965606838463,-0.6376065602727234,14.917842674410343,0.7843339443206787,0.5687176585197449,-0.20556151866912842
1772376941125339400,1.60333935546875,-0.7657208990104496,-0.4243960635297,15.825163270545005,0.7519254088401794,0.2757158577442169,-0.24753080308437347
1772376941135288300,1.613288330078125,-0.1322328799724579,-0.24632110451050102,16.31470035315752,0.7180473208427429,0.08672075718641281,-0.24288484454154968
1772376941145236200,1.623236328125,0.3248859975835308,-0.24206045139133928,16.629495785892008,0.6509774923324585,-0.006526895333081484,-0.2112576812505722
1772376941155185400,1.633185302734375,0.5430593774309381,-0.299006181319803,16.92721850327253,0.5255790948867798,-0.03956485167145729,-0.18691933155059814
1772376941165133600,1.643133544921875,0.36119576671849934,-0.18980492510572075,17.250009026414155,0.3307715058326721,-0.07725230604410172,-0.21296745538711548
1772376941175082500,1.65308251953125,-0.1406263585800305,-0.11326061460748314,17.578939367485045,0.06678620725870132,-0.14796258509159088,-0.3074215054512024
1772376941185031400,1.663031494140625,-0.7645925525676459,0.008594663735479116,17.66119679493308,-0.23304444551467896,-0.24662311375141144,-0.4483048617839813
1772376941194979300,1.672979248046875,-1.214049553726241,0.3129201403819024,17.237683797848224,-0.4911167323589325,-0.34975770115852356,-0.591238260269165
1772376941204928500,1.682928466796875,-1.3135257539354264,0.6851978941395879,16.06562388552427,-0.6588767170906067,-0.46448883414268494,-0.7000443339347839
1772376941214876400,1.69287646484375,-1.0118378592509776,1.0743122164078056,14.390384149682522,-0.7382389307022095,-0.6082676649093628,-0.7239688634872437
1772376941224825300,1.702825439453125,-0.2499533052667044,1.551744581337273,12.557753711736202,-0.7502396702766418,-0.7885034680366516,-0.6479933857917786
1772376941234773500,1.7127734375,0.5518148212186992,2.0663822029367087,10.609788921648263,-0.7153556942939758,-0.9663470983505249,-0.47231268882751465
1772376941244722700,1.72272265625,1.270191346860677,2.337461974193901,8.583539699396491,-0.7518032193183899,-1.1482070684432983,-0.2716517746448517
1772376941254671600,1.732671630859375,1.2220911866888404,2.4418252888575194,6.70501318719387,-0.9103345274925232,-1.2455929517745972,-0.15085136890411377
1772376941264619500,1.74261962890625,0.38115064991265535,2.1990166494473815,4.451035990285873,-1.0862269401550293,-1.218723177909851,-0.16757388412952423
1772376941274568400,1.752568359375,-0.6671740155406296,1.4264672195911408,1.1241612660735845,-1.1301441192626953,-1.0873866081237793,-0.2783280313014984
1772376941284516600,1.7625166015625,-1.0810858021959662,0.6251262142103166,-3.0666806502372026,-1.0043245553970337,-0.8983200788497925,-0.39366182684898376
1772376941294465500,1.772465576171875,-0.29567710996232927,-0.2337502306204289,-7.481781988310813,-0.689041018486023,-0.7337354421615601,-0.4212208390235901
1772376941304413400,1.782413330078125,1.7921869300074875,-1.1608853150978684,-11.520150200653076,-0.302938312292099,-0.6905104517936707,-0.2894068956375122
1772376941314362600,1.792362548828125,4.665401502282918,-2.2945254803955555,-14.513984810388088,-0.05015771836042404,-0.8193309307098389,-0.024247752502560616
1772376941324311600,1.8023115234375,6.649237523958087,-3.2445959617152806,-16.058483366119862,-0.10045204311609268,-1.0354409217834473,0.24800905585289001
1772376941334259500,1.812259521484375,6.355102601936459,-3.498538574080169,-16.565911494731903,-0.5593938231468201,-1.4052788019180298,0.3611629009246826
1772376941344208400,1.82220849609375,3.2880513648211953,-2.2793075991280376,-16.695932543873784,-1.4094231128692627,-1.7506316900253296,0.1875189244747162
1772376941354156500,1.832156494140625,-1.8119539990119635,0.034197325291950256,-18.280200799936054,-2.1565539836883545,-1.584277868270874,-0.24133914709091187
1772376941364105500,1.84210546875,-5.731880102455616,1.2498545151442289,-23.321046264922618,-2.182307004928589,-0.8800246715545654,-0.6416974663734436
1772376941374053400,1.852053466796875,-5.89916325302124,2.0297727202028035,-29.97115414197445,-1.3759442567825317,-0.003935151733458042,-0.6786052584648132
1772376941384002600,1.86200244140625,-3.0560534577608105,3.406223278476298,-34.19108186751604,-0.11874264478683472,0.7146836519241333,-0.27949538826942444
1772376941393950500,1.871950439453125,0.17088197877518832,4.849470660215616,-33.42534650158882,1.0132206678390503,1.144927978515625,0.24215324223041534
1772376941403899400,1.8818994140625,1.1854252975925803,4.923218033471703,-27.774901988804338,1.656714677810669,1.23032546043396,0.5107804536819458
1772376941413848300,1.891848388671875,0.024497020135819912,3.4136332624718544,-19.701712442946434,1.8684133291244507,1.1150202751159668,0.4932608902454376
1772376941423796500,1.90179638671875,-1.568318261127919,1.9066520980991422,-12.254723535597323,1.8338959217071533,1.0188010931015015,0.37785226106643677
1772376941433745400,1.911745361328125,-2.081380888495594,1.0432438550576566,-6.848570594257116,1.7285563945770264,1.095678448677063,0.31955161690711975
1772376941443693300,1.921693359375,-1.5103744600728153,0.7140561051595956,-3.2180297340899706,1.6518592834472656,1.3097102642059326,0.3574918210506439
1772376941453642500,1.931642578125,-0.6626664749883114,0.6989792397979646,-0.28406828603744505,1.5963387489318848,1.491453766822815,0.4664213955402374
1772376941463590400,1.94159033203125,-0.2661593390550464,0.8246157171800732,2.7121710467517373,1.532594919204712,1.5718574523925781,0.592318058013916
1772376941473539600,1.95153955078125,-0.3972719097606838,0.9100649264067411,5.55833321532011,1.460558533668518,1.5702685117721558,0.6906506419181824
1772376941483488500,1.961488525390625,-0.9565189268067479,0.7067546230398118,7.764055207625031,1.4361910820007324,1.5014500617980957,0.7034921050071716
1772376941493436700,1.971436767578125,-1.9066154193505644,0.40189635469093915,9.44353389621079,1.4465495347976685,1.3852035999298096,0.6251908540725708
1772376941503385600,1.981385498046875,-2.7745269651606677,0.26409780341535805,10.847765318596363,1.4750173091888428,1.2041245698928833,0.4855645000934601
1772376941513333500,1.99133349609375,-3.312132789893448,0.2713626798518002,12.148390820556878,1.4918456077575684,0.9919820427894592,0.31697481870651245
1772376941523282400,2.001282470703125,-3.604797931623459,0.5162979560270905,13.396996212422847,1.4686758518218994,0.7547130584716797,0.1309647113084793
1772376941533230600,2.011230712890625,-3.5786934762910008,0.7341156543046236,14.588497322797775,1.4147878885269165,0.40845397114753723,-0.0545118972659111
1772376941543179500,2.021179443359375,-3.405851814815402,0.9508784367017448,15.831488966435193,1.2997465133666992,0.0060687074437737465,-0.2377818524837494
1772376941553128400,2.03112841796875,-3.029784751777351,1.2670726303182542,16.9442912186265,1.114565372467041,-0.33640170097351074,-0.37932878732681274
1772376941563076600,2.04107666015625,-2.3589649270802733,1.473135301133245,17.313739448046682,0.9162759780883789,-0.5050423741340637,-0.4685412347316742
1772376941573025500,2.051025634765625,-1.6941390821009874,1.6100488862678408,17.024002468723058,0.6976121068000793,-0.47284895181655884,-0.513566255569458
1772376941582973400,2.060973388671875,-1.2888394948378206,1.8566332448244094,16.63962204310894,0.4213043451309204,-0.2647327780723572,-0.5351831316947937
1772376941592922400,2.07092236328125,-1.0418556886348873,2.110586378583312,16.326608233094216,0.12385030090808868,0.03488912433385849,-0.5450761914253235
1772376941602870500,2.08087060546875,-0.9262056946728378,2.27091576448828,15.823845758205652,-0.13863246142864227,0.32842007279396057,-0.5416473746299744
1772376941612819500,2.0908193359375,-0.7954328042503446,2.4023040103301403,15.21341435123682,-0.33437108993530273,0.4699830114841461,-0.5231684446334839
1772376941622768400,2.100768310546875,-0.5837161262616515,2.542182436619699,14.649586874532698,-0.4470755457878113,0.4089113771915436,-0.48662135004997253
1772376941632716500,2.110716552734375,-0.2951110005121678,2.525898533555865,13.980559486210346,-0.501352071762085,0.17174792289733887,-0.42442086338996887
1772376941642665500,2.12066552734375,0.06624828620497136,2.4056286247082053,13.091618596374987,-0.5094171762466431,-0.20461000502109528,-0.32663464546203613
1772376941652613400,2.13061328125,0.4060938429133966,2.3013564954593777,11.985228549313545,-0.4892730116844177,-0.6135482788085938,-0.19995012879371643
1772376941662562300,2.140562255859375,0.7075925351686775,2.0820432979270813,10.608979943352937,-0.5322207808494568,-1.0224478244781494,-0.06567328423261642
1772376941672510500,2.150510498046875,0.8058155204463749,1.6547985669679939,9.345445862424373,-0.7257683873176575,-1.4264155626296997,0.02904779464006424
1772376941682459600,2.160459716796875,0.4680979156773537,0.9948094944953918,7.897130383640527,-1.0944377183914185,-1.8490993976593018,-0.01927286572754383
1772376941692407300,2.1704072265625,-0.28871408428298306,0.047682519281655546,5.557237821298838,-1.4966129064559937,-2.3008809089660645,-0.19589567184448242
1772376941702356500,2.1803564453125,-1.116386102027446,-0.8009086783781647,1.3385539583384989,-1.7061498165130615,-2.591590404510498,-0.43526405096054077
1772376941712305700,2.1903056640625,-1.3483815248697995,-1.929980805107951,-4.867789576238393,-1.6597062349319458,-2.6954643726348877,-0.6810775995254517
1772376941722253600,2.200253662109375,-1.580210505104065,-2.693340674075484,-11.218907492452859,-1.5193208456039429,-2.7083256244659424,-0.8905943036079407
1772376941732202500,2.210202392578125,-1.9129343932390213,-1.8496349103696643,-16.082465130209922,-1.423677921295166,-2.4894142150878906,-0.9409967064857483
1772376941742150700,2.220150634765625,-1.4089157808095216,-0.7197917262021452,-19.70753895714283,-1.3781189918518066,-1.9993571043014526,-0.8156457543373108
1772376941752099600,2.230099609375,-1.082592699627578,0.5333868187982589,-22.2687689163208,-1.4161499738693237,-1.3938531875610352,-0.5783429741859436
1772376941762047500,2.240047607421875,-1.4733613649740813,1.9914745537295937,-23.58341242223978,-1.4996230602264404,-0.73358553647995,-0.3030828535556793
1772376941771996400,2.249996337890625,-2.050395675384253,2.7315143373861908,-24.321511593222617,-1.448984146118164,-0.06826657801866531,-0.06278375536203384
1772376941781945300,2.2599453125,-2.488430680426955,2.80250715123713,-24.862570773279664,-1.155275821685791,0.4139637053012848,0.08196038007736206
1772376941791893500,2.2698935546875,-2.7971687128186224,2.4846780498951673,-24.53745969823599,-0.6899459958076477,0.6579612493515015,0.14407990872859955
1772376941801842400,2.279842529296875,-2.684860722760856,2.0739616982802747,-22.87012503643036,-0.1779782772064209,0.7614151835441589,0.2040332555770874
1772376941811790600,2.28979052734375,-2.219496104504913,1.724931110727787,-19.857849930119514,0.29510435461997986,0.8178044557571411,0.2976497709751129
1772376941821739500,2.299739501953125,-1.8591411359921097,1.2299021527007221,-16.084178948390484,0.6721792221069336,0.8810780048370361,0.38972777128219604
1772376941831687400,2.3096875,-1.7502908851727843,0.5551358188675716,-11.723387292653321,0.8426377177238464,1.004530668258667,0.4493016302585602
1772376941841636400,2.31963623046875,-1.6992688462048768,-0.08241634433679282,-7.189909750524163,0.8169248700141907,1.199986219406128,0.47462350130081177
1772376941851585300,2.329585205078125,-1.7016694776058197,-0.5919185027439147,-3.1127532501041886,0.6546608805656433,1.4500871896743774,0.4790806770324707
1772376941861533400,2.339533447265625,-1.7369260844260452,-0.7378940768647938,0.11590075385272502,0.44085410237312317,1.7029850482940674,0.4698565602302551
1772376941871482400,2.349482421875,-1.6307812931731342,-0.8259438970439136,2.4472984595716,0.30340301990509033,1.8186637163162231,0.43694621324539185
1772376941881430300,2.35943017578125,-1.60611987625584,-0.9010510143458843,4.09219566411972,0.27262061834335327,1.7457835674285889,0.38458260893821716
1772376941891379700,2.369379638671875,-1.603846086104959,-0.6961112831462174,5.518938193520904,0.29065847396850586,1.5679945945739746,0.31766021251678467
1772376941901327400,2.379327392578125,-1.638040178260207,-0.36479894230961796,6.708131611475348,0.3823516368865967,1.363694190979004,0.25085774064064026
1772376941911276500,2.389276611328125,-1.7244021184176206,0.04678922370374203,7.647372363483905,0.5267378091812134,1.171588659286499,0.19091647863388062
1772376941921225500,2.3992255859375,-1.807457125984132,0.3995244379278272,8.472069036945701,0.6951580047607422,1.0517157316207886,0.15079116821289062
1772376941931173600,2.409173583984375,-1.7995821548253297,0.6493330922931433,9.298390681260823,0.8542711734771729,0.9871964454650879,0.11891627311706543
1772376941941122600,2.41912255859375,-1.604428269907087,0.8107842487696558,10.157900893950462,1.0156021118164062,0.9100443720817566,0.10396555066108704
1772376941951070500,2.429070556640625,-1.2764374016433953,0.7995989109538495,11.029418355298041,1.1724166870117188,0.8479540348052979,0.11549288779497147
1772376941961019400,2.439019287109375,-0.9726417940899729,0.7117252510592341,11.99519581657648,1.280185341835022,0.7916942238807678,0.1383899599313736
1772376941970967600,2.448967529296875,-0.6839755127377808,0.6106685767255723,13.137449788701533,1.3125853538513184,0.715775728225708,0.1596810519695282
1772376941980916500,2.45891650390625,-0.56572161988765,0.3758177644520998,14.260336212533712,1.267940878868103,0.6176555752754211,0.1471002846956253
1772376941990864600,2.46886474609375,-0.6297150033053011,0.1795129559330642,15.318033248096704,1.1345831155776978,0.44777095317840576,0.10475654900074005
1772376942000813600,2.4788134765625,-0.9093124275390059,0.2576379597514868,16.282792472243308,0.8930199146270752,0.2694036364555359,0.031320683658123016
1772376942010762500,2.488762451171875,-1.2526131662026048,0.5689214388422668,16.934669988322256,0.5521683096885681,0.10103081166744232,-0.05179956927895546
1772376942020710400,2.49871044921875,-1.3613839220449329,1.0621255195297301,17.011513574028015,0.17657022178173065,-0.050229284912347794,-0.10297460854053497
1772376942030659300,2.508659423828125,-1.0646008236020803,1.5636002926953136,16.302343560409543,-0.16679032146930695,-0.2083539515733719,-0.0862450897693634
1772376942040607500,2.518607421875,-0.5257760515335947,1.9233043960839509,14.823409656000136,-0.4395350217819214,-0.392093688249588,0.011080669239163399
1772376942050556400,2.528556396484375,0.046548912141844624,2.2253793173246086,12.912712812554835,-0.6505351662635803,-0.6197149157524109,0.14922131597995758
1772376942060504300,2.53850439453125,0.443848075235635,2.265064992633462,10.798134733986855,-0.8743206262588501,-0.9616392254829407,0.2661961317062378
1772376942070453500,2.54845361328125,0.3428187638329342,2.0151649336576463,8.593112998905777,-1.172692060470581,-1.395587682723999,0.32242780923843384
1772376942080402400,2.55840234375,0.07202303368151187,1.7956863164305685,6.083266605484485,-1.4786133766174316,-1.8312795162200928,0.3526131510734558
1772376942090350300,2.568350341796875,0.15567481983108444,1.2171174899294972,2.6538632346898314,-1.6568430662155151,-2.1702747344970703,0.34302854537963867
1772376942100299500,2.578299560546875,0.1534297808506526,-0.08932283578962087,-1.869161302486062,-1.6991667747497559,-2.4065611362457275,0.23285570740699768
1772376942110247400,2.588247314453125,-0.1941380954718217,-1.554736164368689,-6.559136397272348,-1.6444447040557861,-2.5962743759155273,0.018893694505095482
1772376942120196600,2.598196533203125,-0.757196743227914,-2.384032148319483,-10.642628530454635,-1.5174163579940796,-2.807121515274048,-0.22352321445941925
1772376942130144500,2.60814453125,-1.3438549873560666,-2.1898528075218198,-13.953760326611995,-1.3201709985733032,-2.9052045345306396,-0.39253440499305725
1772376942140093400,2.618093505859375,-1.5085663877375424,-1.3640968342654407,-16.599374203872678,-1.0500942468643188,-2.8536574840545654,-0.44474300742149353
1772376942150042600,2.628042724609375,-1.735500143276155,-0.24159378372766077,-18.343164328849316,-0.7669402956962585,-2.574599027633667,-0.37790194153785706
1772376942159990000,2.637989990234375,-1.9162132687792182,0.7946710991628467,-19.039278461539745,-0.5643299221992493,-1.9627336263656616,-0.2075541764497757
1772376942169939000,2.64793896484375,-1.8116494631074367,1.1308080106116831,-18.986957907193897,-0.4498167037963867,-1.1775435209274292,0.03808882087469101
1772376942179887000,2.65788720703125,-1.3573742480121551,0.5481634956369176,-18.223117561233042,-0.37010854482650757,-0.5172687768936157,0.24183395504951477
1772376942189836000,2.6678359375,-1.1607216489687562,-0.18490743538774548,-16.557474505776167,-0.35072046518325806,-0.05118939280509949,0.33295804262161255
1772376942199784000,2.677783935546875,-1.2627512599878012,-0.796919024220109,-14.16964647230506,-0.39705121517181396,0.184860959649086,0.3494163751602173
1772376942209733000,2.687733154296875,-1.6488938729688525,-0.7655125900220126,-11.50772092719078,-0.529216468334198,0.22742292284965515,0.2921219766139984
1772376942219681000,2.697680908203125,-2.2539318964615465,-0.2876524464008398,-9.026066024509072,-0.7287490367889404,0.2690068483352661,0.18135231733322144
1772376942229630000,2.7076298828125,-2.7450445578277107,-0.09267022825507447,-7.200808745679259,-0.8568366765975952,0.40675637125968933,0.015107369050383568
1772376942239579100,2.7175791015625,-2.8299945853605863,-0.30074918906223025,-6.207266494640708,-0.8326165676116943,0.568889856338501,-0.16843369603157043
1772376942249527300,2.72752734375,-2.4019208562314507,-0.3906242153745144,-5.539945325714349,-0.6795303225517273,0.7180227041244507,-0.2971701920032501
1772376942259476200,2.737476318359375,-1.5171115132428705,-0.2421230134998448,-4.76102489952147,-0.4555360972881317,0.8735476136207581,-0.34306925535202026
1772376942269424000,2.747424072265625,-0.42767026289477944,-0.06235176282362081,-3.6002608727157113,-0.22023224830627441,0.9688077569007874,-0.33768707513809204
1772376942279373000,2.757373046875,0.4818696167245507,0.08671891863523051,-2.0926789659708738,0.003273808164522052,1.016133427619934,-0.302305668592453
1772376942289321200,2.7673212890625,1.2296921632118523,0.13944737792853265,-0.43992695626914496,0.19250606000423431,1.0028753280639648,-0.26994994282722473
1772376942299270100,2.777270263671875,1.622231637623161,0.07880419998792931,1.2655997812867164,0.3573288321495056,0.9370747208595276,-0.26224836707115173
1772376942309219000,2.787218994140625,1.7260615760624407,0.08207715724399313,2.84137434976995,0.5014287233352661,0.8715181350708008,-0.2686733901500702
1772376942319167200,2.797167236328125,1.715247921103239,0.19719372018277645,4.287422468143701,0.6063596606254578,0.7957038283348083,-0.2718753218650818
1772376942329116200,2.8071162109375,1.8212515503197908,0.32208774516712874,5.642747528541088,0.6775922775268555,0.7718616127967834,-0.2718944847583771
1772376942339064000,2.81706396484375,1.9730080459296702,0.3256001737348735,6.774791072297096,0.708477795124054,0.8059626221656799,-0.2776317298412323
1772376942349013000,2.827012939453125,2.018200209700316,0.30094953393992036,7.744391891255974,0.7170880436897278,0.9033434391021729,-0.2856300473213196
1772376942358961200,2.836961181640625,2.0644053499057886,0.312829539489001,8.574656720238924,0.7069547176361084,1.0153932571411133,-0.2728428840637207
1772376942368910000,2.84691015625,2.216582409015298,0.3726450527001172,9.381586850863695,0.6870084404945374,1.1044520139694214,-0.24942544102668762
1772376942378859000,2.85685888671875,2.330239183333516,0.3468180260695517,10.10271735138893,0.674410879611969,1.1444929838180542,-0.24228577315807343
1772376942388807200,2.86680712890625,2.259307890411466,0.23685663567055015,10.689848546791076,0.6636210680007935,1.1414794921875,-0.2524552047252655
1772376942398756000,2.876756103515625,2.152974883110076,0.15392799443006513,11.16297459282875,0.6409610509872437,1.1401526927947998,-0.26868024468421936
1772376942408704000,2.8867041015625,2.061417712397128,0.032685879549384116,11.642217075920104,0.5837246775627136,1.0686713457107544,-0.28428518772125244
1772376942418653000,2.89665283203125,1.9337078628070652,0.09923055488504469,12.213291455012559,0.48793157935142517,0.8923612236976624,-0.30103567242622375
1772376942428601000,2.90660107421875,1.7168696770861744,0.3154460786629468,12.715602679002284,0.317249059677124,0.6406201720237732,-0.30956315994262695
1772376942438550000,2.916550048828125,1.5632716452628372,0.5217389780372381,13.004310899800062,0.08455988764762878,0.30211588740348816,-0.2953442633152008
1772376942448498000,2.926497802734375,1.5780930745586752,0.5737935018580407,12.731155637443065,-0.1714487224817276,-0.08969825506210327,-0.27670052647590637
1772376942458447000,2.936447021484375,1.5009920069605112,0.5636787889484316,11.610059019637108,-0.41641318798065186,-0.4767969846725464,-0.22854819893836975
1772376942468396300,2.946396240234375,1.46308780824095,0.4467945039510727,9.778442727169393,-0.6485644578933716,-0.850725531578064,-0.1416112780570984
1772376942478344200,2.95634423828125,1.4510183080017567,0.15046894001737235,7.494756620696187,-0.8907978534698486,-1.2319676876068115,-0.07201700657606125
1772376942488293000,2.966293212890625,0.997382852114737,-0.08818440634422003,4.7367841922342775,-1.1228454113006592,-1.5207476615905762,-0.037221770733594894
1772376942498241300,2.9762412109375,0.5169365461915731,-0.6224821294423193,1.0662129349738358,-1.1911762952804565,-1.5506123304367065,-0.06663399189710617
1772376942508190200,2.986190185546875,-0.22447752149291336,-1.8299620955199003,-3.7799750503093,-0.997241735458374,-1.331742286682129,-0.19918504357337952
1772376942518138000,2.99613818359375,-1.5477645717903972,-2.8374989696413278,-8.766886096012591,-0.6553506851196289,-1.1468271017074585,-0.4305735230445862
1772376942528087000,3.006087158203125,-2.980482668469846,-2.803588808993995,-12.537453266507386,-0.31589511036872864,-1.1124370098114014,-0.6522778868675232
1772376942538035200,3.01603515625,-3.729950497946143,-1.9316351481862366,-14.967316607153414,-0.07161320745944977,-1.10471510887146,-0.7999176979064941
1772376942547984100,3.025984130859375,-4.288195206081867,-0.5673265708662569,-16.400716256356237,0.05445045977830887,-1.0054099559783936,-0.8781631588935852
1772376942557933000,3.03593310546875,-4.843528118424118,0.882383577146381,-17.264498155015705,0.07619810104370117,-0.7114819288253784,-0.8383901715278625
1772376942567881200,3.045881103515625,-4.78702326413095,1.732319029022008,-17.803861052548886,0.04264971613883972,-0.18231990933418274,-0.6873791813850403
1772376942577830100,3.055830078125,-4.135119444566965,1.890862554423511,-18.083409815335273,-0.01028007734566927,0.48473241925239563,-0.4573478698730469
1772376942587778000,3.065778076171875,-3.190344439306855,1.712054239628464,-17.697141384017467,-0.036032047122716904,1.009809136390686,-0.19836105406284332
1772376942597727000,3.07572705078125,-2.3156989090666174,1.5882074952073395,-16.53557480865717,0.0008141158614307642,1.2431178092956543,0.045332830399274826
1772376942607675100,3.085675048828125,-1.8567082097567618,1.5699810797736047,-14.973305618435143,0.10365049540996552,1.2126117944717407,0.25567710399627686
1772376942617624000,3.0956240234375,-1.7794063588894902,1.5736775962039828,-13.325322138309478,0.28678596019744873,1.1156079769134521,0.43030086159706116
1772376942627573000,3.105572998046875,-1.9013798567846416,1.3400195008464157,-11.734418389755486,0.5290339589118958,1.0237101316452026,0.555858850479126
1772376942637521200,3.115521240234375,-2.2010113303959367,0.7971211957287043,-10.028250431686638,0.8300518989562988,0.962623119354248,0.6218820810317993
1772376942647470000,3.125469970703125,-2.4930942883238196,0.17384897535461932,-7.991258281624317,1.1287957429885864,0.9006766080856323,0.6404830813407898
1772376942657418000,3.13541796875,-2.5385586931645867,-0.3211862662827596,-5.475669545158744,1.358882188796997,0.8266705274581909,0.634790301322937
1772376942667367200,3.1453671875,-2.4070234400674697,-0.5509482675172388,-2.512321843624115,1.4675461053848267,0.7153239250183105,0.6212486624717712
1772376942677315000,3.155315185546875,-2.192274920102209,-0.5200499289717525,0.5647551129430533,1.4451481103897095,0.6112388372421265,0.6068657636642456
1772376942687264300,3.16526416015625,-2.014098035078496,-0.3967855875484645,3.278725318071246,1.3176567554473877,0.5315561890602112,0.5818347334861755
1772376942697213200,3.175213134765625,-1.8868734847873447,-0.20937895575612783,5.564206491267681,1.120366096496582,0.4809632897377014,0.5569447875022888
1772376942707161000,3.1851611328125,-1.7433496877327561,0.04640007825568318,7.269951840010285,0.9284018874168396,0.4529798924922943,0.5311379432678223
1772376942717110300,3.1951103515625,-1.5903811859846113,0.22248481330573558,8.379612287044525,0.7624036073684692,0.4211399555206299,0.5002263188362122
1772376942727058200,3.20505810546875,-1.4691946006834506,0.3658737319342792,9.17950360507369,0.6301169991493225,0.4215354323387146,0.47355103492736816
1772376942737007000,3.215007080078125,-1.3187125089235603,0.4668072182796895,9.641395724913478,0.5503305196762085,0.46212440729141235,0.45765435695648193
1772376942746955300,3.224955322265625,-1.1504250766862183,0.5068753170348703,9.871349558925628,0.5234794616699219,0.5154913067817688,0.4464360177516937
1772376942756904200,3.234904296875,-0.9539162700276821,0.4902367553144693,10.014379727244377,0.5570861101150513,0.5539060831069946,0.4494544267654419
1772376942766853000,3.24485302734375,-0.739790558135882,0.3904471783071756,10.172904401814938,0.6370006799697876,0.5398489832878113,0.45947301387786865
1772376942776801000,3.254801025390625,-0.5205648927565664,0.28072189821898935,10.39364091014862,0.748145580291748,0.4874188303947449,0.473053514957428
1772376942786750000,3.26475,-0.38070823990739877,0.19865005647093056,10.609355206406116,0.87412029504776,0.399823397397995,0.49044907093048096
1772376942796698000,3.274697998046875,-0.31492015509270127,0.165723500033468,10.752238075208663,0.9993516802787781,0.330936998128891,0.4995690584182739
1772376942806647000,3.28464697265625,-0.3909321122799068,0.19868235130533574,10.855141984844208,1.0726238489151,0.30879202485084534,0.5004192590713501
1772376942816595200,3.29459521484375,-0.5472607015782966,0.4117211447432637,11.046212838232517,1.0673502683639526,0.3216699957847595,0.5015785098075867
1772376942826544000,3.304544189453125,-0.6916516733888536,0.7641003120712936,11.223514693987369,0.9731121063232422,0.2915641963481903,0.4732150733470917
1772376942836492000,3.314491943359375,-1.006006888075173,1.059165792941302,11.463722795510291,0.7751708030700684,0.1544894278049469,0.3892168402671814
1772376942846441000,3.32444091796875,-1.4324515546977519,1.3124708380550145,11.719373965358734,0.4590829014778137,-0.08721660822629929,0.2572444975376129
1772376942856390000,3.334389892578125,-1.6470364085339009,1.632618445472419,11.554597244656085,0.053181204944849014,-0.383314311504364,0.10503072291612625
1772376942866338000,3.344338134765625,-1.5830074423462153,1.8680537796355783,10.4685392070055,-0.30925479531288147,-0.693106472492218,-0.03190215677022934
1772376942876287200,3.354287353515625,-1.1513452602710574,1.9965591635175048,8.204131216976046,-0.514649510383606,-0.9631072878837585,-0.12636074423789978
1772376942886235000,3.36423486328125,-0.5777412896357477,2.130839039147645,5.018256616559625,-0.5290654301643372,-1.1810288429260254,-0.1924823671579361
1772376942896184300,3.374184326171875,0.1134653890651185,2.0270456333264706,1.6360720930576325,-0.3492560088634491,-1.3089988231658936,-0.21886657178401947
1772376942906132200,3.38413232421875,1.0538315192412584,1.3414840204410254,-1.7271973020941018,0.007064292673021555,-1.3335593938827515,-0.20036207139492035
1772376942916081200,3.3940810546875,2.1100512487933036,0.32154782960414885,-4.7060780883252615,0.4474789798259735,-1.2620081901550293,-0.14388467371463776
1772376942926030000,3.404030029296875,3.0368039828896523,-0.8158103333033621,-6.724812697163224,0.7613625526428223,-1.2968385219573975,-0.11125627905130386
1772376942935978200,3.413978271484375,3.4301085964545606,-1.6209442281611264,-7.365379714676737,0.8157456517219543,-1.4709937572479248,-0.11800765991210938
1772376942945927200,3.42392724609375,3.27052126108855,-1.9049131454773247,-7.282691494596004,0.622409999370575,-1.5988703966140747,-0.13559457659721375
1772376942955875000,3.433875,2.6408909403920173,-2.002070474284887,-7.349414668303727,0.20153497159481049,-1.5952277183532715,-0.18900640308856964
1772376942965824000,3.443823974609375,1.4826897498115896,-1.8665749392546713,-7.773973375049233,-0.32187604904174805,-1.3601206541061401,-0.2802980840206146
1772376942975772200,3.453772216796875,0.43153190675899383,-1.6413590935498474,-8.924567890018224,-0.7814071178436279,-0.8960379362106323,-0.35598671436309814
1772376942985721000,3.46372119140625,-0.14356741700060666,-1.5247770794346929,-10.67303769724369,-1.0744448900222778,-0.31097233295440674,-0.41363948583602905
1772376942995669200,3.473669189453125,-0.3447735146299004,-1.3876535048112273,-12.40721594426632,-1.1720867156982422,0.18830326199531555,-0.4587092101573944
1772376943005618200,3.4836181640625,-0.04381013482771814,-1.2340788538634777,-13.603664447915554,-1.0763407945632935,0.4248511791229248,-0.45455029606819153
1772376943015567000,3.493567138671875,0.5721853360090404,-1.0082879847496748,-14.231293657922745,-0.8518475294113159,0.4499245882034302,-0.4267415702342987
1772376943025515000,3.503514892578125,0.8472478932920843,-0.5490916798651219,-14.092198490965366,-0.5844882130622864,0.47301751375198364,-0.3635404706001282
1772376943035464000,3.5134638671875,0.8587304604887962,-0.16106003826707602,-13.364132053697109,-0.3342701196670532,0.6212301254272461,-0.28038913011550903
1772376943045412000,3.523412109375,0.7017534537516534,0.041850452127307654,-12.029599605959653,-0.12259569019079208,0.9445581436157227,-0.21155424416065216
1772376943055361000,3.533361083984375,0.4140844398085028,0.14963658084645867,-10.216107583725451,0.05733546242117882,1.3071376085281372,-0.1602228879928589
1772376943065309000,3.543308837890625,0.19756079992949963,0.1359405023187399,-7.892450701391696,0.19929258525371552,1.5590112209320068,-0.09770189970731735
1772376943075258000,3.553258056640625,0.23527375039327889,0.41820787641406054,-5.208243766364455,0.2999662160873413,1.6727066040039062,-0.027904704213142395
1772376943085206000,3.5632060546875,0.340944786654599,0.6925200537212193,-2.6239637709885835,0.3813646733760834,1.6363900899887085,0.04848499596118927
1772376943095155000,3.573155029296875,0.373345748315379,0.8720455768749117,-0.289573897716403,0.46039530634880066,1.438499927520752,0.0985601469874382
1772376943105104100,3.583104248046875,0.15097142791310325,1.0941308694690466,1.7743799090296029,0.5358618497848511,1.114389419555664,0.11312184482812881
1772376943115052300,3.59305224609375,-0.10237445153449662,1.415510795160383,3.722257020834088,0.5600436329841614,0.7674547433853149,0.11348243802785873
1772376943125001200,3.603001220703125,-0.22888430508449673,1.6876377373829483,5.36761833576262,0.5268235802650452,0.5116865634918213,0.12511250376701355
1772376943134949000,3.61294921875,-0.3082718761846423,1.9864849287487565,6.632024523350596,0.4404202699661255,0.39235296845436096,0.16380609571933746
1772376943144898300,3.622898193359375,-0.29821461081700396,2.4017196345709264,7.5314429680585855,0.3529529869556427,0.4263083338737488,0.25899946689605713
1772376943154846200,3.63284619140625,-0.1542118163401261,2.4757979933470486,8.08114488877654,0.26914599537849426,0.5512351393699646,0.3506702780723572
1772376943164795000,3.642794921875,-0.2950948896275833,2.205901586655527,8.457328563931584,0.19297850131988525,0.729760468006134,0.40443316102027893
1772376943174743800,3.652743896484375,-0.8011717862937598,1.8690543349802493,8.829055844199656,0.13436098396778107,0.9249798059463501,0.3988453149795532
1772376943184692000,3.66269189453125,-1.4359252221576868,1.6556807566300034,9.32256884470582,0.0767911747097969,1.1057740449905396,0.34229016304016113
1772376943194641000,3.672640869140625,-2.073109903756529,1.489900996364653,9.920520709329843,0.03473161160945892,1.2351930141448975,0.23030556738376617
1772376943204588800,3.6825888671875,-2.4810166047781705,1.253254386715591,10.45199723752737,0.01301432866603136,1.286017894744873,0.0925225019454956
1772376943214538000,3.6925380859375,-2.563862353508174,1.0107209109850228,10.883090314477682,0.01996917463839054,1.2489546537399292,-0.042859822511672974
1772376943224486000,3.70248583984375,-2.378493803414702,0.8467338793553412,11.259558651793002,0.04499809071421623,1.1221855878829956,-0.15633819997310638
1772376943234435000,3.71243505859375,-1.9581714190647004,0.7097605268575251,11.5741155995965,0.059271566569805145,0.912046492099762,-0.22000400722026825
1772376943244384000,3.722384033203125,-1.486469560611248,0.6978457787886262,11.872764199650288,0.02130875177681446,0.5920501947402954,-0.23958773910999298
1772376943254332200,3.732332275390625,-1.114921144041419,0.8703111542977392,12.08137772399187,-0.08543926477432251,0.18516549468040466,-0.21788111329078674
1772376943264281000,3.742281005859375,-0.8095766996107995,1.122060932793468,11.877225270712374,-0.2425396740436554,-0.24219481647014618,-0.1685393899679184
1772376943274229000,3.75222900390625,-0.7053006248392164,1.3892866589710116,10.834301441389321,-0.37537282705307007,-0.6414774656295776,-0.11342793703079224
1772376943284178000,3.762177978515625,-0.8528994893129914,1.4354760170854628,8.863042869475484,-0.47270843386650085,-0.9653937816619873,-0.06565455347299576
1772376943294126000,3.7721259765625,-0.930076617822051,1.0819314592398703,6.301868439877033,-0.4969133734703064,-1.1703567504882812,-0.024481816217303276
1772376943304075000,3.782074951171875,-0.9863114960674196,0.46891719617098565,3.302053002166748,-0.45295336842536926,-1.2743605375289917,-0.0054639894515275955
1772376943314023000,3.79202294921875,-1.1160978596705942,-0.1469661925934255,0.10511398690044879,-0.33525335788726807,-1.2798913717269897,-0.019246380776166916
1772376943323972000,3.80197216796875,-0.6860330297894776,-1.3267682434767485,-3.3228467838704585,-0.05321980267763138,-1.285384178161621,-0.06439445912837982
1772376943333921000,3.811921142578125,0.16164605799410492,-3.099900490532815,-7.012393959757685,0.3821990191936493,-1.3835299015045166,-0.12558378279209137
1772376943343869000,3.821868896484375,0.8661337224826217,-4.310864718529582,-10.091482840669155,0.77631676197052,-1.5963109731674194,-0.1703450232744217
1772376943353817900,3.83181787109375,1.0863417499627916,-4.619951418228447,-11.60395427302122,0.8985145688056946,-1.8882787227630615,-0.21229007840156555
1772376943363766000,3.84176611328125,0.7801620237518101,-4.257354662138224,-11.712474268972873,0.6650781035423279,-2.1940722465515137,-0.2513768672943115
1772376943373715000,3.85171484375,-0.07000420467238873,-3.65979442718029,-11.578936736142635,0.20158928632736206,-2.3803677558898926,-0.29154717922210693
1772376943383662800,3.861662841796875,-1.29245826985687,-3.06736600215286,-12.425756978607177,-0.27652454376220703,-2.211514711380005,-0.3449617326259613
1772376943393612000,3.871612060546875,-2.4687469057917593,-2.747185661509633,-14.528311441904306,-0.6239882707595825,-1.6676914691925049,-0.39235854148864746
1772376943403561000,3.88156103515625,-3.3974279776021836,-2.4326580859310925,-16.916568514442442,-0.7999485731124878,-0.9063482880592346,-0.4352502226829529
1772376943413508900,3.8915087890625,-3.7233532916381953,-1.9923998518809676,-18.838905526798964,-0.7455122470855713,-0.16887134313583374,-0.4263925552368164
1772376943423458000,3.9014580078125,-3.2298350304350256,-1.3569019543252885,-19.997873317837715,-0.4444240629673004,0.3826419413089752,-0.3304898738861084
1772376943433406000,3.911406005859375,-2.439397769449651,-0.5272849217265844,-20.118462521767615,0.04092878848314285,0.7563061118125916,-0.17847371101379395
1772376943443355100,3.921355224609375,-1.7839860878951848,0.12022197805270551,-18.600306029516457,0.5171554684638977,0.9717197418212891,-0.0018549857195466757
1772376943453303000,3.931302978515625,-1.4625442028835416,0.5161453958138823,-15.453174708992242,0.8648247718811035,1.1262733936309814,0.12728488445281982
1772376943463252000,3.941251953125,-1.5906053501293063,0.4721734214879572,-11.561871035051345,1.070339322090149,1.3167742490768433,0.1826125532388687
1772376943473200000,3.9512001953125,-1.8708225136965513,0.4578669559769332,-7.3745689833045,1.106985330581665,1.4460041522979736,0.18685390055179596
1772376943483149000,3.961149169921875,-1.8529270837828515,0.47654549909234045,-3.245527981868386,1.0365958213806152,1.4643138647079468,0.1839609295129776
1772376943493098000,3.971097900390625,-1.4842692740879952,0.529721501223743,0.35505437788665295,0.9115616679191589,1.3883916139602661,0.19031444191932678
1772376943503046100,3.981046142578125,-1.1669842164948583,0.7539508201092481,3.2702374757111072,0.774738609790802,1.2305039167404175,0.22900047898292542
1772376943512993000,3.990992919921875,-0.9953533921137452,1.1217328698828817,5.458444854113459,0.6910349130630493,1.0649384260177612,0.2781469523906708
1772376943522942000,4.00094189453125,-1.0978354230754077,1.5599290568366646,6.8869140611767765,0.6712660193443298,0.9363976716995239,0.3058180809020996
1772376943532890000,4.01089013671875,-1.4021340117149055,1.979441001586616,7.92521198426485,0.6910753846168518,0.8252949118614197,0.31579825282096863
1772376943542839000,4.020839111328125,-1.5673635907515882,2.2065721793934703,8.832362484529614,0.7316997647285461,0.7484319806098938,0.2934097647666931
1772376943552787000,4.030786865234375,-1.7092201852463185,2.366877015379071,9.670488548406958,0.7845957279205322,0.698365330696106,0.25440695881843567
1772376943562736000,4.040736083984375,-1.692933944094926,2.459963003094494,10.44164418581724,0.8392062187194824,0.6773048043251038,0.21115487813949585
1772376943572684000,4.05068408203125,-1.4922772239767015,2.498727325774729,11.168723950135707,0.8857417702674866,0.6636220216751099,0.16524356603622437
1772376943582633000,4.060633056640625,-1.1770470530867576,2.503149233870208,11.883411850392818,0.9064947962760925,0.648350715637207,0.14173609018325806
1772376943592582000,4.070581787109375,-0.7592292719688266,2.498197748942673,12.487825019985436,0.9050952792167664,0.6122925877571106,0.15132586658000946
1772376943602530000,4.080530029296875,-0.36567769790552557,2.564461488445103,13.002905709177256,0.8744329214096069,0.5234334468841553,0.17969071865081787
1772376943612479000,4.09047900390625,-0.011708996363729237,2.676076527802646,13.463493760681152,0.8040935397148132,0.3418343663215637,0.23813538253307343
1772376943622427000,4.100427001953125,0.3264107594653964,2.8483947499260305,13.778895927137135,0.6947246789932251,0.09148167073726654,0.3234352469444275
1772376943632376000,4.1103759765625,0.5769152871403843,3.049113429364562,13.7323387586236,0.570399284362793,-0.14455534517765045,0.43627098202705383
1772376943642324000,4.120323974609375,0.6348750164169817,3.2194927923798558,13.176390636992453,0.4240114688873291,-0.33470287919044495,0.5487465262413025
1772376943652273000,4.13027294921875,0.6302158654995262,3.2336247781068086,12.289523630821703,0.2549433410167694,-0.4972188472747803,0.6736117601394653
1772376943662221000,4.140220947265625,0.7570910178311169,3.071807199470699,11.080901874297856,0.06460588425397873,-0.6245163679122925,0.8170821070671082
1772376943672170000,4.150169921875,0.847926377075538,2.7250486485034227,9.595725860628486,-0.1447097808122635,-0.6721225380897522,0.9539278149604797
1772376943682119000,4.160118896484375,0.49426502444986253,2.3877730884134767,7.842149085652828,-0.4011024236679077,-0.6710104942321777,1.0314666032791138
1772376943692066800,4.17006689453125,-0.3694336163729429,2.0884499500989913,5.915598254993558,-0.6660693883895874,-0.6750379800796509,1.0184158086776733
1772376943702016000,4.18001611328125,-1.1698572877131401,1.3572183267980813,3.6137668354988097,-0.845569372177124,-0.6826040148735046,0.8987191319465637
1772376943711964000,4.1899638671875,-1.709452532697469,0.22284663235545157,0.8494868313252926,-0.8700025677680969,-0.6708464026451111,0.7205789685249329
1772376943721913000,4.1999130859375,-1.6182820232145487,-1.0817372518420219,-2.0869109039634464,-0.6846193671226501,-0.6773035526275635,0.5330097079277039
1772376943731861000,4.209861083984375,-0.7069787141192704,-2.513241588817537,-4.955932554593682,-0.3122047781944275,-0.6921008825302124,0.36729368567466736
1772376943741810200,4.21981005859375,0.4191767945114523,-3.8227106147080656,-7.193973931223153,-0.06044124811887741,-0.23609964549541473,0.07352367788553238
1772376943751758000,4.229758056640625,-0.05827146210689097,-3.666051149487495,-6.999617480292916,-0.17578648030757904,-1.136008381843567,0.009135900065302849
1772376943761707000,4.23970703125,2.8645667170479894,-5.132019189339876,-6.879101926121115,-0.05184296518564224,-1.3575475215911865,0.18030279874801636
1772376943771656000,4.249656005859375,4.3885871328964825,-7.215100305882096,-8.761923505169152,-0.24597887694835663,-1.8785643577575684,0.2617473304271698
1772376943781604000,4.25960400390625,2.4864918213188645,-5.916790095126628,-8.478439156499505,-0.7322531938552856,-2.224454879760742,0.1586066037416458
1772376943791553000,4.269552978515625,0.3041772272821516,-4.024041873086989,-8.43564513991177,-1.3345140218734741,-2.102346897125244,-0.009731797501444817
1772376943801501000,4.2795009765625,-1.64476744068861,-3.299044760261476,-9.677782797068357,-1.8722847700119019,-1.667068600654602,-0.24175910651683807
1772376943811450000,4.2894501953125,-2.830575015597045,-3.1524972314715383,-11.76395544988513,-2.1312952041625977,-0.9975904226303101,-0.5230904221534729
1772376943821398000,4.29939794921875,-2.896684441320598,-3.0524595249220727,-14.079346023654937,-2.015491247177124,-0.25753965973854065,-0.7725891470909119
1772376943831347000,4.309346923828125,-2.360137624121457,-2.5270970956906673,-15.717652159374952,-1.6490087509155273,0.3955363929271698,-0.9147284626960754
1772376943841296000,4.3192958984375,-1.4502400171056389,-1.6694095683835446,-15.60951911691427,-1.2579302787780762,0.9179129600524902,-0.9336860179901123
1772376943851244000,4.329244140625,-0.5740345440723001,-0.7503111484326421,-13.608097461926937,-0.992915689945221,1.3595465421676636,-0.8843615651130676
1772376943861193000,4.33919287109375,-0.0832040606483817,-0.2588886904649436,-10.774711772823332,-0.9013791084289551,1.7871861457824707,-0.8347097039222717
1772376943871140900,4.349140869140625,0.1277274217793718,-0.22240794867724178,-7.703570051524043,-0.9342907071113586,2.145085096359253,-0.803158164024353
1772376943881090000,4.359090087890625,0.06783577459212392,-0.18497385168746114,-4.922022101685404,-1.0015956163406372,2.4229421615600586,-0.7947959899902344
1772376943891039000,4.3690390625,-0.2166286346234381,0.09741524909138678,-2.806305958998203,-1.0317761898040771,2.6348578929901123,-0.8695144057273865
1772376943900987000,4.37898681640625,-0.8635781197156757,0.3497480881720781,-1.1475889034122229,-0.9766861200332642,2.6047425270080566,-0.9835002422332764
1772376943910935800,4.388935791015625,-1.3435828924164175,0.6572285217180848,0.4591062885135412,-0.843038022518158,2.287306070327759,-1.105314016342163
1772376943920885000,4.398885009765625,-1.584734704530239,1.2022889002405106,1.896884591192007,-0.6119132041931152,1.747760534286499,-1.2043519020080566
1772376943930833200,4.408833251953125,-1.5123901838093996,1.8805603561177848,3.155897395303845,-0.33668509125709534,1.0885038375854492,-1.279773235321045
1772376943940782000,4.418781982421875,-0.9923199427019804,2.5264444770008323,4.199564151948691,-0.06758995354175568,0.47132232785224915,-1.260318636894226
1772376943950730000,4.42872998046875,-0.12777392780221997,3.17465002656877,5.218054381760955,0.13283555209636688,0.10188571363687515,-1.0329619646072388
1772376943960679200,4.43867919921875,1.2852958308815956,3.256999808475375,5.977753390133381,0.24952514469623566,0.01131360325962305,-0.5949388146400452
1772376943970627000,4.448626953125,2.305328321699798,2.743225525707006,6.715230045303702,0.3701205253601074,0.07228107750415802,-0.23357129096984863
1772376943980576000,4.458575927734375,1.3652872130937874,2.3427862379565836,7.6404902027547354,0.4391307532787323,0.2427649050951004,-0.0735824778676033
1772376943990525000,4.46852490234375,-0.3842166864197701,1.9040018758513033,9.16187793201208,0.36390283703804016,0.44088196754455566,-0.06075136736035347
1772376944000473000,4.47847314453125,-1.7891805877983569,1.392362997676432,10.598878236055373,0.23050697147846222,0.7265771627426147,-0.14212337136268616
1772376944010422000,4.488422119140625,-2.6310791559517384,1.1779988008536397,11.353602378624677,0.11554791033267975,0.9491212964057922,-0.234596848487854
1772376944020370000,4.498369873046875,-2.7162422417134047,1.1234605704583227,11.657968771803379,0.07167044281959534,1.0225231647491455,-0.29924097657203674
1772376944030318800,4.50831884765625,-2.373998976213485,1.0570059845589101,11.607543237423895,0.10314261168241501,0.9891937375068665,-0.31049656867980957
1772376944040267000,4.51826708984375,-1.78937990976274,1.1826305523075162,11.277330455327034,0.20064787566661835,0.8753074407577515,-0.2437230348587036
1772376944050216000,4.5282158203125,-1.0438473739087581,1.3626051344029604,10.765680909627676,0.32003286480903625,0.700201153755188,-0.1367529034614563
1772376944060164000,4.5381640625,-0.6673275986671448,1.4280853223122656,10.430572172182798,0.3807428181171417,0.46652495861053467,-0.050486061722040176
1772376944070113000,4.548113037109375,-0.7766805383116007,1.38576915236935,10.469785407674312,0.32971373200416565,0.12768271565437317,-0.005079162772744894
1772376944080062000,4.55806201171875,-0.8413916415445506,1.4460473877213895,10.573407110190391,0.1698569655418396,-0.18713372945785522,0.02045494131743908
1772376944090009900,4.568009765625,-1.0257136051945388,1.4652508314937351,9.819086287724971,-0.0195811428129673,-0.320332795381546,0.0067899953573942184
1772376944099958800,4.577958740234375,-1.3091038458399473,1.0482670900471507,8.046239579612017,-0.25026655197143555,-0.4042864441871643,-0.06239967420697212
1772376944109907000,4.587906982421875,-1.2918211409971116,0.432561980459094,5.910813943326473,-0.40574562549591064,-0.5448472499847412,-0.14465966820716858
1772376944119855900,4.59785595703125,-0.5271420061245561,-0.5763834452860057,3.113948597368598,-0.433769553899765,-0.8014561533927917,-0.23075076937675476
1772376944129803800,4.6078037109375,0.6124721190162002,-1.6489850583836436,-0.014345920738577841,-0.4481583535671234,-1.1759169101715088,-0.2533607482910156
1772376944139753200,4.617753173828125,2.0845688708819448,-2.659878549456596,-2.575021753165126,-0.6172381639480591,-1.7199463844299316,-0.21639393270015717
1772376944149702100,4.6277021484375,3.012103549136221,-2.564212189859152,-4.643876775956153,-0.9164429903030396,-2.269336700439453,-0.11648199707269669
1772376944159650000,4.637650146484375,3.032475598296523,-1.809709727216512,-7.531312619677186,-1.2042710781097412,-2.444828987121582,-0.06335358321666718
1772376944169600300,4.647600341796875,1.422704944448173,-0.9787544317513703,-11.790760454702376,-1.4092133045196533,-2.1942951679229736,-0.05918840691447258
1772376944179548200,4.657548095703125,-0.20378899026196448,-0.20309680674672126,-16.22689464393258,-1.398501992225647,-1.5989021062850952,-0.08740540593862534
1772376944189497300,4.667497314453125,-1.2026093643665312,0.646750016997382,-20.23943751014471,-1.1249804496765137,-0.8756227493286133,-0.08028091490268707
1772376944199445200,4.6774453125,-1.412311268466711,1.64347126339823,-22.977723825883864,-0.6412582397460938,-0.30495166778564453,0.0052924444898962975
1772376944209394200,4.687394287109375,-0.7081381132874638,2.1078402947455643,-23.804345329928395,-0.06454969197511673,-0.06693990528583527,0.150795578956604
1772376944219342300,4.69734228515625,-0.009185158708225935,1.918020902723074,-22.71438970031738,0.4492720663547516,-0.1426679939031601,0.2857844829559326
1772376944229291300,4.707291259765625,0.1320581809926778,1.3004627126142383,-20.047354264843463,0.789687991142273,-0.23926644027233124,0.36791718006134033
1772376944239240200,4.717240234375,-0.1739933157287538,0.5303962586801498,-16.858634211868047,0.9644944071769714,-0.18747924268245697,0.4408506155014038
1772376944249188000,4.72718798828125,-0.5522044781234116,0.021639000356197355,-13.816042293226719,1.077186942100525,-0.06175195425748825,0.5147834420204163
1772376944259137300,4.73713720703125,-0.9087121966235339,-0.3276914469256997,-11.08582004147768,1.2551441192626953,0.01936134323477745,0.5673697590827942
1772376944269085200,4.747085205078125,-1.3029345095552503,-0.4840041445352137,-8.435628773298859,1.4520790576934814,-0.03629499673843384,0.5822305083274841
1772376944279034000,4.7570341796875,-1.49428476440683,-0.5699013897903263,-5.503481096670031,1.6357327699661255,-0.16875740885734558,0.566734790802002
1772376944288982300,4.766982177734375,-1.6761787702575326,-0.5999091361716389,-2.6600714416801927,1.7885494232177734,-0.2513750493526459,0.5366117358207703
1772376944298931200,4.77693115234375,-1.8034012747220693,-0.4513320012502372,-0.09220365192294121,1.884065866470337,-0.23173609375953674,0.4925362467765808
1772376944308880100,4.786880126953125,-2.003637723601609,-0.25415640124604105,2.365979774278402,1.9074451923370361,-0.08082247525453568,0.42296406626701355
1772376944318828000,4.796828125,-2.3287854773938657,-0.0663039253823459,4.720198968136311,1.8565503358840942,0.14141392707824707,0.35436323285102844
1772376944328777200,4.806777099609375,-2.306250258850306,0.30852409738004205,6.99375355669558,1.7442206144332886,0.362844854593277,0.31757938861846924
1772376944338725000,4.81672509765625,-1.9491414326518772,0.8201467550724745,9.130153590971231,1.5679845809936523,0.5154489874839783,0.2800813615322113
1772376944348674300,4.82667431640625,-1.748038430070877,1.1611156167224048,11.159896500557661,1.3446124792099,0.5887474417686462,0.2192382514476776
1772376944358622200,4.836622314453125,-1.607747769718617,1.453522399777174,13.00287648308277,1.076678991317749,0.5586979985237122,0.14119958877563477
1772376944368571400,4.8465712890625,-1.478798587591946,1.7351590747535228,14.464505032426118,0.8012855052947998,0.5023822784423828,0.03818904981017113
1772376944378519300,4.856519287109375,-1.4421141399256885,1.8323373002186416,15.29933439284563,0.5529001951217651,0.4828956425189972,-0.0829572007060051
1772376944388468200,4.86646826171875,-1.2700002082027495,1.817537790493667,15.493748711442947,0.37962135672569275,0.44198575615882874,-0.187351256608963
1772376944398417200,4.876417236328125,-0.8086955328620969,1.876155106896162,15.290498759961128,0.31565916538238525,0.29849809408187866,-0.266923725605011
1772376944408365300,4.886365234375,-0.2755518751699477,2.025898216857016,14.878116228699684,0.33632421493530273,0.10478296130895615,-0.3178790509700775
1772376944418314200,4.896314208984375,0.18760737852882592,2.2481688028901816,14.47921744838953,0.38231781125068665,-0.13359221816062927,-0.33791276812553406
1772376944428262100,4.90626220703125,0.6212207312043756,2.5659809530973434,14.263414304804801,0.3863908350467682,-0.36239954829216003,-0.3465975821018219
1772376944438211300,4.91621142578125,0.8717376799695193,2.9172265863507985,14.194732982766627,0.3026789128780365,-0.5815935730934143,-0.3458203971385956
1772376944448159200,4.9261591796875,1.047773972767964,3.285267871582508,14.09815710710883,0.12818965315818787,-0.77064049243927,-0.3162284195423126
1772376944458108200,4.936108154296875,1.3002784420885145,3.6213255803152915,13.51927585365772,-0.0800519585609436,-0.8790376782417297,-0.2408970445394516
1772376944468057000,4.94605712890625,1.6109664395041763,3.655432432578504,12.255751125079392,-0.30799245834350586,-0.946649968624115,-0.12355177849531174
1772376944478005200,4.956005126953125,1.8918943816892801,3.4620632391199466,10.674684879928826,-0.5860752463340759,-0.9734316468238831,0.016612688079476357
1772376944487954200,4.9659541015625,2.0360462475143373,3.212598356691003,8.739024860140681,-0.883899450302124,-0.9155973792076111,0.19101299345493317
1772376944497902000,4.975902099609375,2.248970182400942,2.786281700362265,6.276802972203493,-1.1303472518920898,-0.823283851146698,0.3819141685962677
1772376944507851000,4.98585107421875,2.466798402072489,2.0901474016666413,3.137103847506642,-1.2533982992172241,-0.7420425415039062,0.5360997319221497
1772376944517799200,4.995799072265625,2.5176883390933273,1.1593591284438967,-0.5475456194669008,-1.2302131652832031,-0.6535535454750061,0.671784520149231
1772376944527748000,5.005748046875,2.8012840391829608,-0.03136953625380993,-4.337416625368595,-1.1229218244552612,-0.5885769128799438,0.7586310505867004
1772376944537696000,5.015696044921875,2.9521038384646174,-0.9980053679272531,-7.644964717820287,-1.0120149850845337,-0.5792084336280823,0.7974178194999695
1772376944547645200,5.025645263671875,2.7689751762524244,-1.6240610450074076,-10.189808774864673,-0.9664658904075623,-0.6252360939979553,0.8003044128417969
1772376944557594400,5.035594482421875,2.052995190358162,-1.7525418789699672,-11.812820310819149,-1.0815056562423706,-0.7351052165031433,0.781257688999176
1772376944567542000,5.0455419921875,1.303986941217631,-1.8160089734911917,-12.684079413491487,-1.3097097873687744,-0.9860953688621521,0.7357708811759949
1772376944577491200,5.0554912109375,0.3381538772944361,-1.9646689643904565,-13.534358856499194,-1.4922349452972412,-1.0642688274383545,0.5444746017456055
1772376944587439400,5.065439453125,-1.4867768729947506,-0.9005604543499648,-14.975847119611501,-1.5868945121765137,-0.9011219143867493,0.41147103905677795
1772376944597388300,5.07538818359375,-2.040626414911449,-0.4839934770107269,-16.497611280965803,-1.5197712182998657,-0.5227739810943604,0.3616456687450409
1772376944607336200,5.085336181640625,-1.832922114369273,-0.31751535921767354,-17.526701815247534,-1.2753920555114746,-0.07092319428920746,0.3798177242279053
1772376944617285400,5.095285400390625,-1.430796773228049,-0.24455577533841133,-17.60878973134756,-0.9468523263931274,0.29731565713882446,0.46161088347435
1772376944627234300,5.105234375,-0.9841714152988046,-0.31817353086546063,-16.275789900004863,-0.6563193202018738,0.5709301829338074,0.5335865616798401
1772376944637182200,5.11518212890625,-1.026150389176607,-0.5591600694149732,-13.693970741784572,-0.4731537103652954,0.8255990147590637,0.5408319234848022
1772376944647131100,5.125131103515625,-1.3018296170532702,-0.9969789474889635,-10.740725332069397,-0.3465036153793335,1.037495732307434,0.49042627215385437
1772376944657079300,5.135079345703125,-1.4914920649483798,-1.3443468625262378,-7.832047378355264,-0.25643712282180786,1.1465203762054443,0.38550877571105957
1772376944667028200,5.1450283203125,-1.5651494218334554,-1.6255222036011516,-5.003600314697623,-0.21156896650791168,1.1048305034637451,0.25069957971572876
1772376944676976000,5.15497607421875,-1.5074525812767445,-1.7016282688125968,-2.1589187400758267,-0.2854847311973572,0.9431114196777344,0.10099367797374725
1772376944686925000,5.164925048828125,-1.3755492255195974,-1.3973586140066385,0.5799450832903384,-0.4856545925140381,0.7544717192649841,-0.02225235477089882
1772376944696873200,5.174873291015625,-1.0690117719121277,-0.9845343303270637,2.7146850753992795,-0.7197946906089783,0.6165027022361755,-0.09640960395336151
1772376944706822100,5.184822265625,-0.700777009934932,-0.5375312981918454,3.89057009896934,-0.8968991637229919,0.591949999332428,-0.09893934428691864
1772376944716771000,5.19477099609375,-0.29303055924260984,-0.06769245713129639,4.285680008390545,-0.9973934888839722,0.665988028049469,-0.033715538680553436
1772376944726719200,5.20471923828125,0.1092712892429903,0.26110928912386294,4.341424107444286,-0.9892798662185669,0.7622589468955994,0.032427266240119934
1772376944736668200,5.214668212890625,0.07928754479177295,0.5851504699137061,4.204676964917779,-0.840559720993042,0.8609364628791809,0.07045714557170868
1772376944746616000,5.224615966796875,-0.1712291665113531,0.7795093319967389,4.048709573614597,-0.588840126991272,0.9223787784576416,0.07491713762283325
1772376944756565000,5.23456494140625,-0.490210305698961,0.8072817205414176,4.230744887632131,-0.28002074360847473,0.9468073844909668,0.038766853511333466
1772376944766513200,5.24451318359375,-0.9170142340879887,0.7487903686061501,4.75128968744874,0.035287681967020035,0.9357473254203796,-0.05033159628510475
1772376944776462000,5.254462158203125,-1.2948033716782927,0.6365035674668849,5.5251820563465355,0.3041561543941498,0.9009613990783691,-0.1496928483247757
1772376944786411300,5.264411376953125,-1.4490356097519397,0.4952056297682225,6.477858628511428,0.49211248755455017,0.8316049575805664,-0.24636773765087128
1772376944796359400,5.274359375,-1.4634927357800305,0.44113260573185975,7.614644982880353,0.6057982444763184,0.7114971876144409,-0.3303794264793396
1772376944806308400,5.284308349609375,-1.4189023372948169,0.5893237370103598,8.694460911270976,0.6742468476295471,0.5966675281524658,-0.3707963824272156
1772376944816256300,5.29425634765625,-1.1798362454138696,0.8080985898822546,9.531625436639786,0.6821641325950623,0.4942711293697357,-0.3699357509613037
1772376944826205200,5.304205078125,-0.7919499305706471,0.9296140418116002,10.212888037157057,0.6459691524505615,0.38104739785194397,-0.34476569294929504
1772376944836153300,5.3141533203125,-0.5314406531665474,0.8567117410775273,10.66815109424591,0.6006109714508057,0.26239684224128723,-0.3161201477050781
1772376944846102300,5.324102294921875,-0.5014009407443926,0.8199079048153013,10.768087970769404,0.5605972409248352,0.1643318086862564,-0.28296512365341187
1772376944856050200,5.33405029296875,-0.49471353540234264,1.0115068006657064,10.732857667434216,0.48898354172706604,0.08081617951393127,-0.2443566620349884
1772376944865999000,5.3439990234375,-0.3796840844914317,1.1239349099718035,10.709091007399559,0.38228079676628113,-0.029187018051743507,-0.19239306449890137
1772376944875948300,5.3539482421875,-0.20251973751112817,1.1732074749238788,10.5065120870471,0.23903468251228333,-0.15869246423244476,-0.10781345516443253
1772376944885896200,5.363896240234375,-0.02093578399028629,1.4136507003769279,9.926911871671676,0.06785281002521515,-0.25636762380599976,0.008467611856758595
1772376944895845000,5.37384521484375,-0.044857305793091655,1.6808486617647111,8.890525919684768,-0.13028930127620697,-0.4019445478916168,0.1076534241437912
1772376944905793300,5.383793212890625,-0.10969499454777687,1.6020489735551178,7.481352949243783,-0.342838853597641,-0.6020108461380005,0.2224084883928299
1772376944915742200,5.3937421875,0.1723825925964862,1.2330937883488833,5.477586192435026,-0.49729153513908386,-0.797720193862915,0.3262583911418915
1772376944925690000,5.403690185546875,0.4397067376472056,0.3868505420546978,2.687260477378964,-0.569037675857544,-0.9902262687683105,0.3318465054035187
1772376944935639000,5.41363916015625,0.4782876665845513,-0.7317022364873439,-0.466700981426239,-0.5086776614189148,-1.2072781324386597,0.28312385082244873
1772376944945588200,5.423588134765625,0.700507033887133,-1.8271330095738172,-3.7239129713475703,-0.3735373616218567,-1.4961179494857788,0.20777346193790436
1772376944955536100,5.4335361328125,0.6875199073463678,-2.5862553871020673,-6.4048857467591755,-0.43087947368621826,-1.8923567533493042,0.09024728089570999
1772376944965485000,5.443485107421875,-0.11958928790604695,-2.5093381516382096,-7.714987517595291,-0.8632673621177673,-2.3386716842651367,-0.07536165416240692
1772376944975433200,5.45343310546875,-1.7815329956546424,-1.6380808025315403,-8.596413794016838,-1.5652015209197998,-2.5180442333221436,-0.3157840967178345
1772376944985382100,5.463382080078125,-4.081336416453123,-0.07233794484958052,-10.717688155353068,-2.240238904953003,-2.2632668018341064,-0.5761802792549133
1772376944995330000,5.473330078125,-5.574494661048054,1.6441355725258588,-14.46916367188692,-2.559704065322876,-1.5380685329437256,-0.7091082334518433
1772376945005279200,5.483279296875,-5.175863007241487,2.662991420780122,-19.191927522075176,-2.3542189598083496,-0.5614697933197021,-0.6518086791038513
1772376945015227100,5.49322705078125,-3.3066414990007877,3.203326962737739,-23.297052810394764,-1.6988730430603027,0.2101392298936844,-0.36106976866722107
1772376945025176300,5.50317626953125,-0.8175992625467479,3.6041403444975613,-25.191822601389884,-0.8658179044723511,0.6495743989944458,0.10472776740789413
1772376945035125200,5.513125244140625,0.9793632112994789,3.7692820991203186,-24.520924743020533,-0.135592982172966,0.846326470375061,0.5849213004112244
1772376945045073200,5.5230732421875,0.9246308465715497,3.5662203636869787,-21.60590706489086,0.3291853368282318,1.0310633182525635,0.9037203192710876
1772376945055022300,5.533022216796875,-0.5270819465003908,2.641042331561446,-17.68596532548666,0.5593495965003967,1.2807625532150269,1.0161046981811523
1772376945064970200,5.54297021484375,-2.1960585302941498,1.4318087267495692,-13.917241737031937,0.7081401348114014,1.5420067310333252,0.9926619529724121
1772376945074919200,5.552919189453125,-3.229268336462974,0.4530811099398881,-10.623803418475388,0.8414379358291626,1.7366795539855957,0.9124038219451904
1772376945084867300,5.562867431640625,-3.516306578221917,-0.19220424133241176,-7.596788423672318,0.9867722392082214,1.7818573713302612,0.845413327217102
1772376945094816300,5.572816162109375,-3.215110047250986,-0.5261646124597639,-4.674835393321514,1.1677337884902954,1.6738946437835693,0.8177552819252014
1772376945104765200,5.58276513671875,-2.7435855911910534,-0.5895095784386619,-1.9091291557371615,1.3607267141342163,1.4429231882095337,0.8241559267044067
1772376945114713000,5.592713134765625,-2.39805219810456,-0.5941772779887542,0.7339817987918853,1.5267904996871948,1.1855831146240234,0.8388539552688599
1772376945124662300,5.602662353515625,-2.3163472899727524,-0.5969757130682468,3.1912650612831115,1.619929552078247,0.9503452181816101,0.8105334043502808
1772376945134610200,5.612610107421875,-2.492063483971357,-0.6256327754929661,5.479217593029141,1.6190605163574219,0.7954142689704895,0.7350020408630371
1772376945144559000,5.62255908203125,-2.697915142384171,-0.6790913208927959,7.548980962836742,1.5523475408554077,0.7217637300491333,0.642730712890625
1772376945154507300,5.63250732421875,-2.7986586591154334,-0.6880021379053592,9.161265937593578,1.473491907119751,0.6764076352119446,0.5515940189361572
1772376945164455400,5.642455322265625,-2.7075676446095107,-0.5395701105430722,10.326335552638769,1.4241262674331665,0.6292089223861694,0.46975430846214294
1772376945174403300,5.6524033203125,-2.4949890160292387,-0.33452129294574257,11.155574545705317,1.401680827140808,0.5434712171554565,0.40811893343925476
1772376945184352500,5.6623525390625,-2.1457181899800895,-0.17745207788050174,11.836098310554027,1.3748852014541626,0.4207439720630646,0.3614180088043213
1772376945194301700,5.6723017578125,-1.7974042262643575,0.08737506272271275,12.503821046018599,1.3433773517608643,0.2912660241127014,0.3468838930130005
1772376945204249300,5.682249267578125,-1.3366416949763893,0.3312745661094785,12.981118240261077,1.3220754861831665,0.20735248923301697,0.3676043748855591
1772376945214198500,5.692198486328125,-0.8150036930955946,0.40055779956355686,13.2675795589149,1.267630934715271,0.17663489282131195,0.4201740026473999
1772376945224146700,5.702146728515625,-0.4017443789996207,0.3236747586302459,13.627307189309596,1.144966721534729,0.2009093463420868,0.47527480125427246
1772376945234095600,5.712095703125,-0.23069223128929733,0.3548880814090371,14.06451085809469,0.944797694683075,0.26494100689888,0.5396890044212341
1772376945244043500,5.72204345703125,-0.12278634864799677,0.5099285671256483,14.373124387323855,0.6618104577064514,0.35029131174087524,0.6134585738182068
1772376945253992400,5.731992431640625,-0.11729761503860353,0.6566326016515494,14.595641349333524,0.3102169930934906,0.3533128798007965,0.6722569465637207
1772376945263940600,5.741940673828125,-0.1127080952912569,0.7689712791085243,14.569263045495747,-0.007103984244167805,0.2035052627325058,0.7200907468795776
1772376945273889500,5.7518896484375,-0.020224895774573086,0.736607324989885,13.58591836334467,-0.1920165717601776,-0.026385284960269928,0.7624542713165283
1772376945283838500,5.76183837890625,0.11903072244152427,0.6097149292625487,11.754626480525731,-0.2585306167602539,-0.3517726957798004,0.7962726950645447
1772376945293786600,5.77178662109375,0.24945867188386617,0.6339437999814749,9.574255787098407,-0.2515352964401245,-0.7983472347259521,0.7771488428115845
1772376945303735600,5.781735595703125,0.21187548527959732,0.6122877023600042,7.177389291647076,-0.155000239610672,-1.2167950868606567,0.7588489055633545
1772376945313683500,5.791683349609375,0.6274490311346947,0.332595877841115,4.427371621581912,0.041373804211616516,-1.5169355869293213,0.7592700719833374
1772376945323632400,5.80163232421875,1.3345681035727261,-0.5528649147935212,1.57216280772686,0.29631420969963074,-1.7282172441482544,0.740466833114624
1772376945333580500,5.81158056640625,2.182507997716963,-1.991740218928456,-0.9095528852313757,0.5779309272766113,-1.9183769226074219,0.7259955406188965
1772376945343529500,5.821529541015625,3.305670900402963,-3.603754560050368,-2.8709184241622685,0.8033017516136169,-2.1481354236602783,0.7387683391571045
1772376945353478400,5.831478515625,4.376561471799016,-4.925709850287437,-4.027154159888625,0.7555034160614014,-2.5414013862609863,0.7517049908638
1772376945363426600,5.841426513671875,4.268564038416743,-5.351874823185801,-4.0887890705466265,0.1641378253698349,-3.071077346801758,0.6600544452667236
1772376945373375500,5.85137548828125,2.137355581434816,-4.784807341647148,-3.59160936422646,-0.9493607878684998,-3.559065103530884,0.33324864506721497
1772376945383323400,5.861323486328125,-1.343254537244886,-3.801915079438686,-4.615936629629135,-2.0728654861450195,-3.5131499767303467,-0.17143021523952484
1772376945393272300,5.871272216796875,-4.016890540027618,-2.9566473271131515,-8.810132532542944,-2.769786834716797,-2.745582103729248,-0.6543886661529541
1772376945403220500,5.881220458984375,-4.730860939665138,-2.283217904439568,-14.827802922523022,-2.8883919715881348,-1.5869585275650024,-0.9704254865646362
1772376945413169400,5.89116943359375,-3.624277123597264,-1.0214660307526588,-19.998359640049934,-2.4354214668273926,-0.30662527680397034,-1.028205156326294
1772376945423117300,5.901117431640625,-1.440086871881783,0.9798447112061083,-22.912724991750714,-1.6456377506256104,0.8975392580032349,-0.7385730147361755
1772376945433066500,5.91106640625,1.0677179327093065,2.9841286237567664,-22.488006710529326,-0.9194622039794922,1.791934847831726,-0.22379550337791443
1772376945443015700,5.921015625,2.6834128620401025,4.1427977241098874,-18.606159431719778,-0.4862774908542633,2.3149898052215576,0.24352163076400757
1772376945452963600,5.930963623046875,2.6080361340165137,3.9175910846248265,-13.277566699922083,-0.3137246370315552,2.541105270385742,0.5063162446022034
1772376945462912500,5.94091259765625,1.6056934675373136,2.8601196745112536,-8.371737023624778,-0.3382880389690399,2.5064334869384766,0.5881392359733582
1772376945472860700,5.950860595703125,0.4179503945216536,1.771104832881689,-4.032000430876017,-0.5143035054206848,2.252241611480713,0.5039117336273193
1772376945482809600,5.9608095703125,-0.7723782380077987,1.102608190435171,-0.2676490661561489,-0.7875701785087585,1.858156681060791,0.2950115501880646
1772376945492757500,5.970757568359375,-1.77743915046975,0.7993489547807723,2.439769233110547,-1.0693172216415405,1.4653199911117554,0.03061046451330185
1772376945502706400,5.98070654296875,-2.315063826033473,0.6047700932715088,4.002959629830718,-1.2678923606872559,1.0715560913085938,-0.22352275252342224
1772376945512654600,5.990654541015625,-2.328974131833762,0.47909394146613776,4.6635926992952825,-1.3090919256210327,0.69669109582901,-0.43025127053260803
1772376945522603500,6.000603515625,-1.9295682787843047,0.5207264399938285,4.520222339236736,-1.1460378170013428,0.3414967954158783,-0.5414361357688904
1772376945532552400,6.010552490234375,-1.2851815568521618,0.7168763502120972,4.028171812498569,-0.8437548875808716,0.04254025220870972,-0.5647180080413818
1772376945542500600,6.02050048828125,-0.6698852472607046,0.9851038007780909,3.7024411442518232,-0.4902336299419403,-0.22132734954357147,-0.5307619571685791
1772376945552449500,6.030449462890625,-0.2361214349974878,1.0271209877744316,3.8766935493081807,-0.1405555158853531,-0.44395726919174194,-0.4845260679721832
1772376945562397400,6.0403974609375,-0.012458682219870388,0.8746424615003168,4.338320296210051,0.1680651754140854,-0.6056947708129883,-0.46687862277030945
1772376945572346400,6.050346435546875,-0.06984276703298091,0.7739315318644047,5.0242076339185235,0.3934152126312256,-0.6918357014656067,-0.46311667561531067
1772376945582294500,6.06029443359375,-0.1063609547542408,0.77315221805498,5.863164887923002,0.4766067564487457,-0.6530802845954895,-0.4609832167625427
1772376945592243500,6.070243408203125,-0.15518223227486014,0.8776273955952376,6.80973379086256,0.4093478322029114,-0.5348336696624756,-0.45575597882270813
1772376945602192400,6.0801923828125,-0.097546328125149,1.073243856523931,7.66873605403006,0.2535249590873718,-0.4319685399532318,-0.4409746527671814
1772376945612140500,6.090140625,-0.0019996493846178055,1.4001656342513857,7.929892251035571,0.11607281118631363,-0.3872423470020294,-0.38267698884010315
1772376945622089500,6.10008935546875,0.18283676659353076,1.972699856763333,7.279586514317989,0.11594444513320923,-0.4237593412399292,-0.2818409204483032
1772376945632037400,6.110037353515625,0.1677466764241457,2.613815301939845,5.6980023827731605,0.2690482437610626,-0.5534451603889465,-0.19313378632068634
1772376945641986300,6.119986328125,-0.33076968532726164,3.1332725987806915,3.8256466681599615,0.5207510590553284,-0.7974945902824402,-0.16941913962364197
1772376945651934500,6.1299345703125,-1.3423261703535914,3.660286594611406,2.05495743034184,0.852299690246582,-1.055572748184204,-0.19699640572071075
1772376945661883600,6.139883544921875,-2.270314583724737,4.108876165285706,0.06634381900131701,1.3111096620559692,-1.090981364250183,-0.24185068905353546
1772376945671831300,6.149831298828125,-2.7003333094418047,4.167766453410684,-2.4675422061771153,1.9328131675720215,-0.7867852449417114,-0.29354676604270935
1772376945681780500,6.159780517578125,-2.8802321959525345,4.092475357843935,-4.706075750237703,2.6458353996276855,-0.22012656927108765,-0.26882731914520264
1772376945691729700,6.169729736328125,-2.233763114788383,4.203236702981591,-5.902937510862946,3.330049991607666,0.5732461214065552,-0.10351020842790604
1772376945701677600,6.179677490234375,-1.1670425225533545,4.170121784365177,-5.3309337419658895,3.818577527999878,1.2464176416397095,0.17355947196483612
1772376945711626500,6.18962646484375,-0.08635784850418567,3.853705472430587,-2.7842349969655276,4.0690107345581055,1.585774540901184,0.48198726773262024
1772376945721574700,6.19957470703125,1.2082630792792886,2.6750264342278243,0.4938543612897396,4.036569595336914,1.4181650876998901,0.7803015112876892
1772376945731523600,6.209523681640625,2.6937258740007874,0.6243626094266772,3.9978240205079314,3.686859369277954,0.5584083199501038,0.9952665567398071
1772376945741471500,6.219471435546875,3.3494378536760805,-1.3341291276335716,7.1945391638904805,3.0516772270202637,-0.6957927346229553,1.0313009023666382
1772376945751420400,6.22942041015625,2.514156657835841,-2.736456469963491,9.174303113821148,2.2324204444885254,-1.894909381866455,0.8812879920005798
1772376945761368600,6.23936865234375,0.9916626478370278,-3.718683254000544,9.083366120833158,1.420231819152832,-2.595168352127075,0.6495876312255859
1772376945771317500,6.2493173828125,-0.43359906842187046,-5.046334125530719,6.56148208361566,0.7444073557853699,-2.7290475368499756,0.3511829674243927
1772376945781266400,6.259266357421875,-1.4748735231027006,-6.262483354949951,3.0047213299304247,0.2179533690214157,-2.3747072219848633,0.04070340469479561
1772376945791214600,6.269214599609375,-1.7632684401676058,-7.004386594390868,-0.3162859635531902,-0.16469520330429077,-1.7649847269058228,-0.17464035749435425
1772376945801163500,6.27916357421875,-1.056663600862026,-7.31082336410284,-2.546100194585323,-0.48882588744163513,-1.2425286769866943,-0.2789324223995209
1772376945811111400,6.289111328125,-0.012882862448692321,-6.916660380142927,-3.085855890828371,-0.9873006343841553,-1.149330735206604,-0.27677977085113525
1772376945821060400,6.299060302734375,0.8187092696152627,-5.573416218161583,-2.0667788010388612,-1.733142375946045,-1.3599278926849365,-0.1743364781141281
1772376945831008500,6.309008544921875,0.7901848936595022,-3.8227106147080656,-1.4861942508012056,-2.408950090408325,-1.376621961593628,-0.025504156947135925
1772376945840957400,6.31895751953125,0.03441708725616335,-2.317933828511834,-3.1635973021566866,-2.860269546508789,-1.020973563194275,0.11423030495643616
1772376945850906400,6.32890625,-1.011049558417499,-0.7773927782341837,-5.3446828658550976,-3.1849701404571533,-0.4739413857460022,0.30570492148399353
1772376945860854300,6.338854248046875,-1.275105714648217,0.9825032628908753,-6.379574779891968,-3.3493571281433105,0.20310501754283905,0.5708702802658081
1772376945870803700,6.3488037109375,-0.9966888785012066,2.490023502576351,-6.995662605187296,-3.243222236633301,0.8659095764160156,0.8667460680007935
1772376945880751400,6.35875146484375,-0.7906359984278678,3.1626684968739744,-7.323719670554995,-2.8682215213775635,1.266991138458252,1.111807942390442
1772376945890700500,6.368700439453125,-0.7693874586939812,2.8397599003106353,-6.763665867170691,-2.367450714111328,1.3445407152175903,1.203295350074768
1772376945900648700,6.378648681640625,-1.3308807933621107,1.8404530943959951,-5.141279769638181,-1.8705017566680908,1.192911982536316,1.086510419845581
1772376945910597600,6.38859765625,-2.3381007104888556,0.7798458704747259,-2.7523768004119393,-1.4824789762496948,0.9524836540222168,0.801155149936676
1772376945920545500,6.398545654296875,-3.00909413818717,-0.1369398155543953,-0.24703297910690306,-1.2101353406906128,0.6632228493690491,0.4445333778858185
1772376945930494500,6.408494384765625,-2.946190815028548,-0.7382463243685662,2.063079361999035,-1.0751993656158447,0.4247855544090271,0.09557268023490906
1772376945940443400,6.418443359375,-2.198823757223785,-0.9918741716958582,3.9446974104762074,-1.046273946762085,0.27991783618927,-0.17332324385643005
1772376945950391600,6.4283916015625,-1.0837541446223855,-0.9995757590491324,5.112738734808564,-1.0698487758636475,0.30196017026901245,-0.3384549617767334
1772376945960340500,6.438340576171875,0.15088015116676687,-0.9142366591334342,5.570283180832862,-1.0576506853103638,0.4313695728778839,-0.4136868417263031
1772376945970288600,6.44828857421875,1.1249598691053688,-0.6042951692361385,5.47136804857254,-0.9848918318748474,0.6377856135368347,-0.4198855459690094
1772376945980237600,6.458237548828125,1.7330018967196343,-0.36736298411134627,5.237410239616036,-0.8781424760818481,0.8664243817329407,-0.39779913425445557
1772376945990185500,6.468185546875,2.0692218102768063,-0.40333990456275637,5.198568760046363,-0.7324222922325134,1.0607860088348389,-0.3582555651664734
1772376946000134400,6.478134521484375,2.312171757853776,-0.4850015946073457,5.162289239919185,-0.5320029258728027,1.2395962476730347,-0.30199071764945984
1772376946010082600,6.48808251953125,2.494029231086373,-0.5746639280170202,4.955683548268675,-0.25512948632240295,1.4099982976913452,-0.2201758325099945
1772376946020031500,6.498031494140625,2.514605862908065,-0.7367045017540454,4.776254617357254,0.04688015952706337,1.5878586769104004,-0.1396450400352478
1772376946029980400,6.50798046875,2.0747930345378816,-0.7240200844869017,4.893382282656431,0.31289294362068176,1.702643632888794,-0.07046925276517868
1772376946039928300,6.51792822265625,1.7431439360275864,-0.6749183460570871,5.2874347919791935,0.5568395256996155,1.7177760601043701,-0.004598361440002918
1772376946049877500,6.52787744140625,1.8399118271261452,-0.9809705734308809,5.747107482203841,0.7346982359886169,1.598938226699829,0.048169005662202835
1772376946059825400,6.537825439453125,1.5235127585873007,-1.331604139200598,6.281849734199047,0.7593551278114319,1.2862426042556763,0.05552492290735245
1772376946069774300,6.5477744140625,1.050182276018709,-1.298879535076022,6.936790729501843,0.6286940574645996,0.8672229051589966,0.04747951403260231
1772376946079722500,6.557722412109375,0.8612102946057916,-1.2030523588936775,6.9861495114326475,0.369628369808197,0.2821200489997864,0.021377872675657272
1772376946089671400,6.56767138671875,0.6553409544058144,-1.1672871449641882,6.030210722601414,0.06067346781492233,-0.37813571095466614,-0.025921164080500603
1772376946099620600,6.57762060546875,0.3833624442106113,-1.0305136258874088,3.772700090870261,-0.10613815486431122,-0.9172223806381226,-0.0733209028840065
1772376946109568500,6.587568603515625,0.5405073183279484,-1.1105704014860094,-0.11362228752672672,0.002070082351565361,-1.1823813915252686,-0.16020441055297852
1772376946119517400,6.597517333984375,0.5521866136731579,-1.6368762490473687,-4.829828971156478,0.3532201051712036,-1.206658959388733,-0.24734437465667725
1772376946129465600,6.607465576171875,1.0101144695244728,-2.3220871487990022,-8.68151141332686,0.737255871295929,-1.2448986768722534,-0.26556041836738586
1772376946139414500,6.61741455078125,1.7576656517244875,-2.7905592315509913,-10.704700078964233,0.8879852294921875,-1.3984932899475098,-0.2739810645580292
1772376946149362700,6.62736279296875,1.7671124022446572,-2.7319989060327408,-11.073463248729706,0.6997333765029907,-1.7820073366165161,-0.3366734981536865
1772376946159311600,6.6373115234375,0.7964411045100539,-2.250068499031663,-10.874217272192238,0.3104385733604431,-2.2415335178375244,-0.4119946360588074
1772376946169259000,6.647259033203125,-0.4027250606000423,-1.3915753544300793,-11.476724900424479,-0.0815180242061615,-2.395153760910034,-0.4701734185218811
1772376946179208000,6.6572080078125,-1.711293192128092,-0.16306787095814942,-13.755877455121277,-0.26854756474494934,-1.9416862726211548,-0.4858253598213196
1772376946189157000,6.6671572265625,-2.6274790856331585,0.5225720678605139,-16.897796009433268,-0.21308429539203644,-1.0129324197769165,-0.4433041214942932
1772376946199105000,6.67710498046875,-2.4112556708097457,0.8977928893327712,-19.47387048652172,0.04718296602368355,0.1528109312057495,-0.2836500108242035
1772376946209054000,6.687053955078125,-1.6273171241939066,1.3641357049711047,-20.59613614810705,0.3712289333343506,1.1550623178482056,-0.016506457701325417
1772376946219002000,6.697002197265625,-0.7957429661780595,2.071523219086975,-18.95561935060024,0.5735375881195068,1.5535905361175537,0.24786686897277832
1772376946228951000,6.706950927734375,-0.5278834721416235,2.5159295127272605,-14.803153634434938,0.5842954516410828,1.437459945678711,0.3852221667766571
1772376946238899000,6.71689892578125,-0.9921582493342459,2.3401205258786675,-10.218877048438786,0.42573586106300354,1.1256005764007568,0.34483957290649414
1772376946248848000,6.726847900390625,-1.834446985848993,1.7015704011455177,-6.551736350148916,0.21695734560489655,0.9669461250305176,0.22880718111991882
1772376946258796000,6.736796142578125,-2.232751745788753,1.2303414209008217,-4.1457442989557975,0.045835934579372406,1.0928012132644653,0.13993829488754272
1772376946268745200,6.7467451171875,-2.0815902934625745,1.2215293880876152,-2.48189397213459,-0.09073922038078308,1.4600129127502441,0.12122374773025513
1772376946278694100,6.756694091796875,-1.6698615499347447,1.2196046305701136,-0.6774456725776196,-0.23181645572185516,1.8013741970062256,0.13850714266300201
1772376946288642000,6.76664208984375,-1.208809753376618,1.0861689506791532,1.6112410186618566,-0.2975078523159027,1.905975341796875,0.16345442831516266
1772376946298591200,6.77659130859375,-0.7000161816302687,0.9932147726498544,3.658313248711824,-0.20256562530994415,1.7448506355285645,0.2131679207086563
1772376946308539100,6.7865390625,-0.21312588719949124,0.9424890132147818,4.8473289720118045,0.06871169060468674,1.482678771018982,0.28242963552474976
1772376946318488000,6.796488037109375,-0.20726077629206702,1.0213985915396362,5.650826205578446,0.4023522436618805,1.2343443632125854,0.3305721580982208
1772376946328436200,6.806436279296875,-0.6699974754635244,1.0781871581450104,6.790330586734414,0.6824648976325989,1.0566867589950562,0.34908050298690796
1772376946338385200,6.81638525390625,-1.161501401169598,0.8623148948468268,8.356098140466212,0.8649159073829651,1.0035542249679565,0.3496544361114502
1772376946348334000,6.826333984375,-1.4871715714007616,0.596367225781083,9.856526083803177,0.9466171860694885,1.1119306087493896,0.34161922335624695
1772376946358282000,6.836281982421875,-1.7525494777545332,0.3052693333677947,11.22603281428814,0.9395914673805237,1.198576807975769,0.3217211365699768
1772376946368231200,6.846231201171875,-1.9914478118531405,0.0757261259831488,12.710839994645118,0.8975353837013245,1.1221026182174683,0.27538442611694336
1772376946378179000,6.856178955078125,-2.251463168260455,0.0151145670235157,14.100181890934705,0.814935564994812,0.896460771560669,0.19976559281349182
1772376946388128000,6.8661279296875,-2.424833675915748,0.11182035267129539,15.312822819972038,0.685309112071991,0.5838128328323364,0.09364184737205505
1772376946398076200,6.876076171875,-2.5526754813224075,0.16188742900192737,16.082923395371438,0.533780038356781,0.2826172709465027,-0.02985984832048416
1772376946408025000,6.886025146484375,-2.5769971448913216,0.21093699885308742,16.25876979162097,0.3707226812839508,0.0486598014831543,-0.176357701420784
1772376946417973000,6.895972900390625,-2.588118550625443,0.3564266891531646,16.103603779828546,0.17323650419712067,-0.10031557083129883,-0.3135291635990143
1772376946427922000,6.905921875,-2.4534949761241673,0.6251524446301162,15.74266385103464,-0.04362470284104347,-0.15237775444984436,-0.4174826443195343
1772376946437871000,6.91587109375,-2.174386066059768,1.0294107061468065,14.964291121852398,-0.2515888214111328,-0.1224941536784172,-0.48149171471595764
1772376946447819000,6.925819091796875,-1.7710706383511423,1.4316956217639147,13.773082272422313,-0.38873523473739624,-0.09223027527332306,-0.5058852434158325
1772376946457768000,6.935767822265625,-1.2010332741562277,1.6481690658256412,12.328333546209334,-0.4911758601665497,-0.15864737331867218,-0.5086530447006226
1772376946467716000,6.945716064453125,-0.9469377362519502,1.9776739919140933,10.911633687394858,-0.5750283598899841,-0.27553102374076843,-0.5133816003799438
1772376946477665300,6.955665283203125,-1.0829016194462775,2.3277786384388803,9.340599591436982,-0.6436814665794373,-0.4017459452152252,-0.5334221720695496
1772376946487613000,6.965613037109375,-1.2725753193877636,2.324820519285649,7.458200037193298,-0.7561742663383484,-0.5304952263832092,-0.5705165863037109
1772376946497562000,6.97556201171875,-1.4141151030182837,2.391349485595524,5.411351679027081,-0.8498485684394836,-0.6347819566726685,-0.597413182258606
1772376946507510300,6.98551025390625,-1.1408324148893356,2.202533133135736,2.600152687290311,-0.7877811193466187,-0.6336166262626648,-0.6011025309562683
1772376946517459200,6.995459228515625,-0.8505037532828748,1.6287622084356843,-1.0673135896921158,-0.5304835438728333,-0.4997051954269409,-0.5992887020111084
1772376946527408000,7.005408203125,-0.4411849569736048,0.9050247402824461,-4.5797886269271375,-0.1457872986793518,-0.37754395604133606,-0.5983412265777588
1772376946537356000,7.01535595703125,0.2739807533957064,-0.18002689680457115,-6.959115374034643,0.188734769821167,-0.4942002594470978,-0.6058233976364136
1772376946547305200,7.02530517578125,1.1524475954897702,-1.1995844635874031,-7.754103137931227,0.2942449450492859,-0.9191224575042725,-0.6252773404121399
1772376946557253000,7.035253173828125,1.8598875704452393,-1.8313802917547524,-7.66301124664247,0.16193564236164093,-1.428276777267456,-0.6602992415428162
1772376946567202000,7.0452021484375,1.804982552564144,-2.1362040733121335,-8.238004845005273,-0.12921763956546783,-1.780507206916809,-0.7132906913757324
1772376946577150200,7.055150146484375,1.006186774686724,-2.111936039626598,-9.660866733580827,-0.6055407524108887,-1.991298794746399,-0.765320360660553
1772376946587099100,7.06509912109375,0.04666030009444803,-1.6189678135216234,-11.369852087157964,-1.177574634552002,-1.930495262145996,-0.7842583060264587
1772376946597047000,7.075047119140625,-0.7850754416912794,-0.7401448514662683,-13.872163408899306,-1.6652487516403198,-1.487655520439148,-0.7482134699821472
1772376946606996000,7.084995849609375,-1.5315215852588415,0.13796499388366937,-17.147040819370744,-1.894391655921936,-0.8207290172576904,-0.6999839544296265
1772376946616945200,7.094945068359375,-2.136257703195512,1.1468910573411732,-20.508733758985993,-1.7859282493591309,-0.14440198242664337,-0.5895053744316101
1772376946626893000,7.10489306640625,-1.6400887813530862,1.8481259671114385,-22.92243506938219,-1.3720115423202515,0.20537367463111877,-0.3960475027561188
1772376946636842000,7.114842041015625,-0.5079045870173722,2.2919098910696802,-23.74292844593525,-0.7258568406105042,0.17175525426864624,-0.14706136286258698
1772376946646790100,7.1247900390625,0.21899967460371553,2.5203774320468306,-23.031972133421895,-0.034921493381261826,0.058984965085983276,0.10553748905658722
1772376946656739000,7.134739013671875,0.1449699042096734,2.3686419792249795,-20.875135460317132,0.5154982805252075,0.021556897088885307,0.3278951942920685
1772376946666687000,7.14468701171875,-0.3835901520192623,1.8327264456667005,-17.413870385837555,0.8869812488555908,0.19244523346424103,0.5164176225662231
1772376946676636000,7.154635986328125,-1.00659718211852,1.065757957747951,-13.504914150828123,1.0745567083358765,0.5273953080177307,0.6724642515182495
1772376946686585000,7.164585205078125,-1.574514339289069,0.22716968318633735,-9.255116772201657,1.0971406698226929,0.842260479927063,0.7971827983856201
1772376946696533000,7.174532958984375,-1.9733321633175014,-0.39403468140512704,-5.004771696564555,1.0653845071792603,1.0035135746002197,0.8701600432395935
1772376946706482200,7.184482177734375,-2.430077421788126,-0.9612467590462416,-1.2782552647203207,1.008533000946045,1.0685957670211792,0.8942450284957886
1772376946716430000,7.19443017578125,-2.832845590877533,-1.4055027574956416,1.6215712740182875,0.9472326040267944,1.1421754360198975,0.8587242960929871
1772376946726379300,7.204379150390625,-3.1701608984559773,-1.7670885829776524,3.812357562997937,0.8860619068145752,1.2298356294631958,0.7849279046058655
1772376946736327200,7.2143271484375,-3.3486431961670515,-1.9908343561299144,5.5918228124678135,0.830115020275116,1.2709304094314575,0.6713744401931763
1772376946746276000,7.224276123046875,-3.3041277626141903,-1.9577730673968792,7.276669750088453,0.7743309140205383,1.1955362558364868,0.5411543846130371
1772376946756224300,7.234224365234375,-3.007186551000178,-1.7809021504051983,8.757091847229004,0.7389931082725525,0.9933823347091675,0.4108099937438965
1772376946766173200,7.244173095703125,-2.5445363062694666,-1.5348581823356449,9.838661925810575,0.7316441535949707,0.6986397504806519,0.29309603571891785
1772376946776122000,7.2541220703125,-2.0487932086236773,-1.0031918306544423,10.577723219823836,0.7459865808486938,0.3649326264858246,0.2238144427537918
1772376946786070000,7.264070068359375,-1.46564275342077,-0.5415476942263543,11.028770705044268,0.7855917811393738,0.026697594672441483,0.19417202472686768
1772376946796019200,7.274019287109375,-1.0716044918190688,-0.09190949128195643,11.16756192061901,0.851691484451294,-0.21498613059520721,0.19462288916110992
1772376946805967000,7.283967041015625,-1.0001522437628358,0.2382495148010552,11.01686983937025,0.9065341353416443,-0.25561583042144775,0.18896718323230743
1772376946815916000,7.293916015625,-1.2191567406721413,0.4688578671991825,10.913942548859119,0.9213788509368896,-0.19524116814136505,0.16815564036369324
1772376946825864200,7.3038642578125,-1.5228297447592019,0.7302448042206465,11.02356378405094,0.9136397242546082,-0.12591895461082458,0.12576071918010712
1772376946835813000,7.313813232421875,-1.7519361681617796,0.9181148157410323,11.169944431841373,0.8834612965583801,-0.05908799171447754,0.06968385726213455
1772376946845761000,7.323760986328125,-1.8278396965384482,1.0816713469989596,11.327003125512599,0.8129839897155762,-0.041613057255744934,0.003881906159222126
1772376946855710000,7.3337099609375,-1.8048080727800726,1.2763662361033261,11.556613845175503,0.7353049516677856,-0.09083946794271469,-0.056450411677360535
1772376946865659000,7.343658935546875,-1.562880307857692,1.3964995129592717,11.446349635905026,0.7036128044128418,-0.15858986973762512,-0.08599568903446198
1772376946875607000,7.35360693359375,-1.1159841701630502,1.3829035338051616,10.895223819863796,0.681707501411438,-0.24675515294075012,-0.10949249565601349
1772376946885556000,7.363555908203125,-0.7036352489102632,1.4389811025969683,10.325171185034513,0.6443124413490295,-0.34031257033348083,-0.11216451227664948
1772376946895504000,7.37350390625,-0.2492261235033162,1.5858537716880439,9.640772040057183,0.5900894403457642,-0.39053818583488464,-0.07174891233444214
1772376946905453000,7.383453125,0.15438896300531924,1.7036600669011472,8.832223368319868,0.4876149296760559,-0.4825459122657776,-0.047164104878902435
1772376946915401000,7.39340087890625,0.5298585716068744,1.8256775500684976,8.016196908047794,0.34247931838035583,-0.6808925271034241,-0.006613216362893581
1772376946925350000,7.403349853515625,1.3681988627567887,1.566081149725616,6.925023134818673,0.2545502483844757,-0.9177129864692688,0.05908363312482834
1772376946935298000,7.413298095703125,2.514775958777964,0.8895634056478738,5.279988567626476,0.1875789612531662,-1.2640639543533325,0.10484632849693298
1772376946945247200,7.423247314453125,3.747155022986233,-0.2325356671988964,3.5122190166473386,0.0886973887681961,-1.7684158086776733,0.11858883500099182
1772376946955196200,7.433196044921875,5.221303154423833,-1.8421406090915202,1.5831518192529677,-0.01840030401945114,-2.362759590148926,0.08518853783607483
1772376946965144000,7.44314404296875,6.025140579730272,-3.0503131605431437,-0.8767588691323995,-0.11789149045944214,-2.8877086639404297,-0.006154574919492006
1772376946975093200,7.45309326171875,5.228878558114171,-2.4787466140195726,-3.5623885304391383,-0.2589617967605591,-3.246379852294922,-0.09051419794559479
1772376946985041200,7.463041259765625,4.08345852317363,-1.4833952677324413,-6.074644907611608,-0.5291221141815186,-3.4532532691955566,-0.1705368608236313
1772376946994990000,7.472989990234375,2.8977096927151083,-1.1362420183591544,-8.401414953529834,-0.913056492805481,-3.4055941104888916,-0.30161845684051514
1772376947004938200,7.482938232421875,1.2309678822360932,-0.42075756089687344,-10.773154606509207,-1.3054972887039185,-2.915173292160034,-0.418134480714798
1772376947014887200,7.49288720703125,-0.025252222417294978,0.2503600777029991,-13.409247791230678,-1.569294810295105,-2.018500328063965,-0.43165507912635803
1772376947024836000,7.502836181640625,-0.2592057935900986,0.5009218154579401,-15.830824949568509,-1.6411024332046509,-0.9030280113220215,-0.3176533579826355
1772376947034784000,7.512783935546875,0.25255977970436216,0.8536910050168633,-17.06849510592222,-1.5721532106399536,0.11454930901527405,-0.11167089641094208
1772376947044733000,7.52273291015625,1.1536385588400064,1.117470244002342,-16.727424245202542,-1.305173635482788,0.740222692489624,0.18095116317272186
1772376947054681000,7.53268115234375,1.8340749376662075,1.0559855554699897,-15.308417863011359,-0.8511555790901184,0.9867576360702515,0.4252743422985077
1772376947064630000,7.542630126953125,1.6357133427478372,0.6695879448145627,-13.15157417564392,-0.3352656066417694,1.0143020153045654,0.5452523827552795
1772376947074578000,7.552577880859375,0.6642044982105493,0.18290215997993944,-10.053827940535545,0.08240566402673721,0.8842947483062744,0.539456307888031
1772376947084527000,7.562527099609375,-0.46960357099995015,-0.21196385768279433,-6.308809052795171,0.29682713747024536,0.6959161758422852,0.43938326835632324
1772376947094475000,7.57247509765625,-1.363991620325297,-0.44325288582146166,-2.4002374331891536,0.24781379103660583,0.5533214807510376,0.2893601953983307
1772376947104424000,7.582423828125,-1.907883393459767,-0.4260268796019256,0.9909458048045635,-0.030589327216148376,0.5425578951835632,0.12913382053375244
1772376947114372000,7.5923720703125,-2.038181067585945,-0.18938392321467398,3.560167931780219,-0.42930370569229126,0.6369895935058594,0.01359471119940281
1772376947124321000,7.602321044921875,-1.8280404798075556,0.19400880653634667,5.283960393866896,-0.824049711227417,0.7454399466514587,-0.04789630323648453
1772376947134270000,7.61227001953125,-1.5068684977784752,0.5732838718354701,6.104727911186218,-1.1162101030349731,0.8623337745666504,-0.07847045361995697
1772376947144217900,7.6222177734375,-1.1471579646490513,0.78229063327834,6.042742287394404,-1.2422837018966675,1.0131196975708008,-0.07804936915636063
1772376947154167300,7.632167236328125,-0.7393648070044815,0.7550675491794944,5.534696319144964,-1.2230583429336548,1.15133535861969,-0.051625221967697144
1772376947164115500,7.642115478515625,-0.35503421188145873,0.6339321095436811,5.140512292397022,-1.1051979064941406,1.1796059608459473,0.007056449074298143
1772376947174064400,7.652064453125,-0.014514116912335156,0.39734190625697374,5.005101951432228,-0.9137867093086243,1.098526120185852,0.06402385979890823
1772376947184012300,7.66201220703125,0.11870083290003239,0.10267243896722793,4.96430992231667,-0.6477378010749817,0.9773772954940796,0.09900010377168655
1772376947193961500,7.67196142578125,0.09139481975808739,-0.1602883963074535,4.942474522605538,-0.33628320693969727,0.8559523224830627,0.1091584637761116
1772376947203910400,7.681910400390625,-0.23499051300510762,-0.3801243025396019,5.006287361824512,-0.007823033258318901,0.8032904863357544,0.06946790218353271
1772376947213858300,7.6918583984375,-0.8803276675298809,-0.4536494844123721,5.271377975669503,0.3043724000453949,0.7550508975982666,-0.06353728473186493
1772376947223807200,7.70180712890625,-1.5956841146983205,-0.16483926454484463,5.708409795019031,0.5506397485733032,0.8198323249816895,-0.1441248506307602
1772376947233755400,7.71175537109375,-1.513109145733714,-0.441439041332528,6.466821101668477,0.6392601728439331,0.7713941931724548,-0.2006339281797409
1772376947243704300,7.721704345703125,-1.2641568890020252,-0.6245495103009044,7.53283237659037,0.6396641135215759,0.6979905962944031,-0.2881745994091034
1772376947253652200,7.73165234375,-1.5614157882630824,-0.11077091668359934,8.235745083379745,0.5722988843917847,0.6208716034889221,-0.3558976948261261
1772376947263601400,7.741601318359375,-1.5450851234480738,0.39638679748922584,8.463634386077523,0.48246145248413086,0.5639654397964478,-0.35227152705192566
1772376947273549300,7.75154931640625,-1.2785541015364228,0.6533647589620203,8.177017000079154,0.3733919560909271,0.5072427988052368,-0.3164437413215637
1772376947283498200,7.761498291015625,-1.209602730385214,0.7989404470451176,7.546941565963626,0.234685480594635,0.4899989366531372,-0.28349122405052185
1772376947293447200,7.771447265625,-1.5399290558591485,0.857631413205713,6.595957184669375,0.09917638450860977,0.5052080154418945,-0.2764311730861664
