time,seconds_elapsed,accel_x,accel_y,accel_z,gyro_x,gyro_y,gyro_z
1772376834616041700,0.063041748046875,-0.07729786881189793,-0.46621728956252334,-0.32147768697738643,-0.20967979729175568,-0.1300615668296814,-0.19359268248081207
1772376834625990700,0.07299072265625,0.6654908116940409,-0.14869886160492896,-0.04497895941138267,-0.1318361461162567,-0.5761651992797852,-0.19518446922302246
1772376834635939600,0.082939697265625,1.209958996476978,-0.13981003722846508,-0.06964578315615653,-0.048756442964076996,-0.7862668037414551,-0.12065830826759338
1772376834645887500,0.092887451171875,1.4325557457245885,-0.08640709447339176,-0.8085083397269248,0.1260603815317154,-0.8268260955810547,-0.025734316557645798
1772376834655836700,0.102836669921875,1.1101276261545716,0.31512028077468274,-1.575232716691494,0.32113000750541687,-0.6879273056983948,0.03325576335191727
1772376834665785900,0.112785888671875,0.6079401746749877,0.5742807739183307,-1.8782149620354174,0.4477121829986572,-0.4091339409351349,0.05213337019085884
1772376834675734800,0.12273486328125,0.15785066603282466,0.6022580373853444,-1.6435855374276638,0.4659404456615448,-0.10396365076303482,0.05893641337752342
1772376834685683700,0.13268359375,-0.06301187983332202,0.4531880043804645,-1.1039403158217669,0.4020096957683563,0.12475983798503876,0.07160825282335281
1772376834695631600,0.142631591796875,0.03994947734419256,0.3054533116325736,-0.4282394410848617,0.30794498324394226,0.22702708840370178,0.09145120531320572
1772376834705580800,0.152580810546875,0.1319856454794295,0.2432777182266116,0.10547872855961322,0.21742117404937744,0.23502911627292633,0.09294478595256805
1772376834715529700,0.16252978515625,0.1565870758377947,0.2323819379419088,0.3788227914869785,0.1458766907453537,0.20257450640201569,0.07673705369234085
1772376834725478700,0.172478759765625,0.20089542424492537,0.2158691945582628,0.4414198251754045,0.11446258425712585,0.14410300552845,0.06373228132724762
1772376834735426600,0.182426513671875,0.31441494551692156,0.1881393299810588,0.35773207266330714,0.14325107634067535,0.09234687685966492,0.07111749053001404
1772376834745375700,0.192375732421875,0.43221791626177725,0.20435440559238194,0.23912089080810545,0.2178712636232376,0.050741132348775864,0.0956706777215004
1772376834755324700,0.20232470703125,0.43984384456295517,0.32713892760947344,0.1842033057063818,0.3154723644256592,0.03460956737399101,0.12965260446071625
1772376834765273600,0.212273681640625,0.39382027146946635,0.4102496108859777,0.19741174684762955,0.4152573049068451,0.04877489060163498,0.16094689071178436
1772376834775222800,0.222222900390625,0.327102723784931,0.43619946017861366,0.33976094716489313,0.5042287111282349,0.09649820625782013,0.19762714207172394
1772376834785170700,0.232170654296875,0.2854201390378177,0.46594928627610205,0.6797709006547927,0.5624033212661743,0.14378096163272858,0.2327684611082077
1772376834795119900,0.242119873046875,0.21491397619266062,0.5217220269024372,1.2157032392174005,0.554347813129425,0.1524817794561386,0.2711392939090729
1772376834805068800,0.25206884765625,0.2403585428442806,0.5385194324463606,1.8340549177914858,0.5091707110404968,0.12099795043468475,0.30617013573646545
1772376834815017700,0.262017822265625,0.31593839222453535,0.49039983692169187,2.39985223326385,0.44513532519340515,0.06388325989246368,0.3345317542552948
1772376834824965600,0.271965576171875,0.304655987242423,0.42958910212814805,2.8243939888745544,0.3634316623210907,-0.014878565445542336,0.35447433590888977
1772376834834914600,0.28191455078125,0.26474662271291016,0.4099702094227075,3.195779323837161,0.27680912613868713,-0.08990007638931274,0.3682918846607208
1772376834844863700,0.29186376953125,0.16091767065431922,0.3775286600232124,3.446147000324726,0.1986653357744217,-0.16572682559490204,0.37485530972480774
1772376834854812700,0.301812744140625,0.00021161519037559627,0.34812399410158396,3.554315114098787,0.13977645337581635,-0.21743875741958618,0.36910179257392883
1772376834864761600,0.31176171875,-0.25391492064036425,0.279463714851439,3.400119993165135,0.12605877220630646,-0.20967532694339752,0.3429451286792755
1772376834874709500,0.32170947265625,-0.6473131307728588,0.23768092113286254,3.076211864170432,0.11665888875722885,-0.1484425961971283,0.3020711839199066
1772376834884658700,0.33165869140625,-0.9530228283192962,0.29817221471369265,2.792898195892572,0.1406547725200653,-0.0700192078948021,0.2702120542526245
1772376834894608000,0.34160791015625,-1.064206344391778,0.3736401281520724,2.5722400134921073,0.18414819240570068,-0.0340082086622715,0.2641853094100952
1772376834904556800,0.351556884765625,-1.045319930679351,0.37818040193021296,2.395329787403345,0.21298277378082275,-0.03297719731926918,0.2818802297115326
1772376834914504700,0.361504638671875,-0.9279166633091867,0.26312545125186443,2.176529215568304,0.22654278576374054,-0.06496761739253998,0.29614490270614624
1772376834924453600,0.37145361328125,-0.8936820199478417,0.04112316076606512,1.7703303413778542,0.2451082170009613,-0.10421536862850189,0.291848748922348
1772376834934402800,0.38140283203125,-0.947184769815579,-0.2695639598667621,1.1438561466246842,0.27886801958084106,-0.1062265932559967,0.2548089921474457
1772376834944351700,0.391351806640625,-1.1246939847107975,-0.637182928033173,0.4379711460262537,0.278201162815094,-0.13570460677146912,0.16596044600009918
1772376834954300700,0.40130078125,-1.2481779602341354,-0.9627855859860778,-0.16166297259628773,0.19443625211715698,-0.2018495500087738,0.029354136437177658
1772376834964248600,0.41124853515625,-0.9931577087003737,-1.356765614594519,-0.8862719628870487,0.07813253253698349,-0.2710511088371277,-0.1120247095823288
1772376834974197500,0.421197509765625,-0.24100140732508152,-1.8395085070222614,-1.8412223252028226,-0.03678233548998833,-0.3743939995765686,-0.1791701763868332
1772376834984146700,0.431146728515625,0.6194564249455928,-2.1229960705623028,-2.9218092379659413,-0.12561605870723724,-0.48171335458755493,-0.16457638144493103
1772376834994095600,0.441095703125,1.1412575814988464,-2.174567560106516,-4.000187827029824,-0.1937762051820755,-0.5512332916259766,-0.1070353239774704
1772376835004043500,0.45104345703125,1.0810169747434555,-2.0781497976198793,-4.887855043667555,-0.2788144052028656,-0.5632625818252563,-0.08895990997552872
1772376835013992700,0.46099267578125,0.5191713925715535,-1.949852503530681,-5.505040601071715,-0.4479445815086365,-0.5728747248649597,-0.14497683942317963
1772376835023941600,0.470941650390625,-0.15764120626691727,-1.8975754960656166,-5.755047043031453,-0.7657364010810852,-0.6498460173606873,-0.2676030695438385
1772376835033890800,0.480890869140625,-0.8348885432608425,-1.8492974951088428,-5.855851934561133,-1.209196925163269,-0.7319645881652832,-0.4124414920806885
1772376835043839700,0.49083984375,-1.46837510099411,-1.6054393466457724,-6.545027792420983,-1.6183825731277466,-0.6451147198677063,-0.5392467975616455
1772376835053787600,0.50078759765625,-1.9274666303299366,-1.1295115410603582,-8.066196325969695,-1.772789478302002,-0.26430240273475647,-0.6304123997688293
1772376835063736600,0.510736572265625,-2.1887623819366095,-0.19667130374386904,-10.004572618979216,-1.5638282299041748,0.323478102684021,-0.637388288974762
1772376835073685800,0.520685791015625,-1.9280141812101006,0.7673338871650397,-11.568570824950934,-1.0356615781784058,0.9097484946250916,-0.5045018792152405
1772376835083634700,0.530634765625,-0.9918041751995682,1.3254220895648001,-11.863685405659675,-0.34845447540283203,1.3095948696136475,-0.26905834674835205
1772376835093582600,0.54058251953125,0.09948211849331855,1.419324508229643,-10.684461593055724,0.3361520767211914,1.4103665351867676,-0.040322624146938324
1772376835103531800,0.55053173828125,0.8022370043724775,1.1747577731058,-8.323509291550517,0.8792830109596252,1.2214815616607666,0.12971320748329163
1772376835113480700,0.560480712890625,1.176496141205728,0.7482466171182691,-5.290575428092479,1.2579962015151978,0.8861042857170105,0.23124276101589203
1772376835123430000,0.570429931640625,1.2280427885696292,0.37252865977883337,-2.3589777865618466,1.47321617603302,0.5132238864898682,0.27359822392463684
1772376835133378800,0.58037890625,1.0491646964740007,0.18073972124904394,0.15972762061953544,1.5460165739059448,0.2086879462003708,0.28574809432029724
1772376835143326700,0.59032666015625,0.8134171545565128,0.18008154960125683,2.1941133875757455,1.5028318166732788,0.032483622431755066,0.3089632987976074
1772376835153275600,0.600275634765625,0.6416362541802227,0.4175763005122542,3.7569074784547087,1.3870431184768677,0.014180516824126244,0.35740700364112854
1772376835163224600,0.610224609375,0.5921237064598128,0.7480667305067181,4.884448450094461,1.2154288291931152,0.1215619444847107,0.42458850145339966
1772376835173173800,0.620173828125,0.5688476064210757,0.9627993222504854,5.730915641337633,1.0203953981399536,0.2446732074022293,0.48684096336364746
1772376835183121700,0.63012158203125,0.48036754159852857,1.0408929080173372,6.431689582532644,0.8215641379356384,0.33437374234199524,0.5149995684623718
1772376835193070600,0.640070556640625,0.2798323289681226,1.094094629111886,6.99406919851601,0.6599592566490173,0.401824951171875,0.5106945633888245
1772376835203019500,0.65001953125,0.10041103337388485,1.10136988081187,7.399568400004505,0.5353916883468628,0.3946506381034851,0.4932779371738434
1772376835212968700,0.65996875,0.004040142236277461,1.2001947044402361,7.701098108452558,0.4480442702770233,0.30054038763046265,0.46169763803482056
1772376835222918000,0.66991796875,-0.08108652050513773,1.369350663140416,7.922131553906202,0.39515286684036255,0.20463944971561432,0.41864389181137085
1772376835232865800,0.67986572265625,-0.19003113507702946,1.541505803656578,8.029341051781177,0.34166109561920166,0.18187154829502106,0.3693362772464752
1772376835242814700,0.689814697265625,-0.2883292314175516,1.6415984552636742,8.191362920817733,0.27401840686798096,0.16138991713523865,0.3144233226776123
1772376835252763600,0.699763671875,-0.48081839063856746,1.8200465584442018,8.32695446356833,0.1972610354423523,0.20907726883888245,0.26235294342041016
1772376835262712800,0.709712890625,-0.5034463654994964,1.9245380295321344,8.376308569324015,0.13624750077724457,0.2808687388896942,0.23005010187625885
1772376835272660700,0.71966064453125,-0.37940238147322086,1.9588167312309144,8.490930389282108,0.04152258113026619,0.30483877658843994,0.20091724395751953
1772376835282609700,0.729609619140625,-0.18063333826512099,1.8407056078523396,8.82045226650536,-0.11564330011606216,0.30317071080207825,0.17559914290905
1772376835292558600,0.73955859375,0.07218578649517149,1.6296595956668256,9.214161661478876,-0.3231687843799591,0.2822670340538025,0.16795614361763
1772376835302507500,0.749507568359375,0.2953227800993249,1.3487410058319569,9.412596906155347,-0.5912225842475891,0.2244904339313507,0.16046364605426788
1772376835312455700,0.75945556640625,0.35759346791021523,0.907961524386704,9.411242568936943,-0.9674787521362305,-0.048828452825546265,-0.01462454441934824
1772376835322404600,0.769404541015625,-0.5718382761370391,0.4035883994311094,9.215116770246624,-1.3443853855133057,-0.20309939980506897,-0.09754006564617157
1772376835332353800,0.779353759765625,0.7832408466752618,0.03298690832257271,7.776822919261455,-1.8518973588943481,-0.4880821406841278,-0.09533177316188812
1772376835342302700,0.789302734375,1.3544132062494754,-0.6401788949787617,6.386602486571669,-2.375037670135498,-0.9264653921127319,-0.1287306249141693
1772376835352251600,0.799251708984375,1.016140013424307,-0.38504181213229893,3.5449247699409723,-2.7887444496154785,-1.2087879180908203,-0.22628460824489594
1772376835362199800,0.80919970703125,0.4489354980351403,-0.08228855323866009,-0.34255262371003625,-3.061310291290283,-1.3238252401351929,-0.34147152304649353
1772376835372148700,0.819148681640625,-0.1047874857592862,0.18825564983710646,-4.813731238314509,-3.1343398094177246,-1.3441203832626343,-0.46958449482917786
1772376835382097700,0.82909765625,-0.597228774513863,0.8716124461546539,-9.146057262545824,-2.982509136199951,-1.3005461692810059,-0.5818362236022949
1772376835392046600,0.839046630859375,-0.6472918687891215,1.8444940403498709,-12.913937970435619,-2.588164806365967,-1.2305047512054443,-0.6117845177650452
1772376835401994800,0.848994873046875,-0.28666480533666905,2.7802567409843206,-15.79022522815466,-2.0667130947113037,-1.1864315271377563,-0.5352593064308167
1772376835411943700,0.858943603515625,0.32678109061513094,3.3249744435489177,-17.134315777832267,-1.6158256530761719,-1.1562693119049072,-0.3539313077926636
1772376835421892600,0.868892578125,0.7187813070505857,3.1331214998722077,-17.120501187491417,-1.1606831550598145,-0.8660736680030823,-0.29677465558052063
1772376835431841500,0.878841552734375,-0.067115972417593,2.7876106108784673,-16.920749014997483,-0.8047983050346375,-0.46005427837371826,-0.26120415329933167
1772376835441790700,0.888790771484375,-0.7131964926555753,2.3361003304518757,-15.78537369647026,-0.5683394074440002,-0.013617715798318386,-0.1880636215209961
1772376835451739000,0.89873876953125,-0.7811608985960483,1.8339120021894573,-13.630651823562383,-0.39662596583366394,0.35050591826438904,-0.15133143961429596
1772376835461687800,0.908687744140625,-1.0346842626355588,1.2753003604374826,-11.164197412621974,-0.20947633683681488,0.5367331504821777,-0.14413678646087646
1772376835471636700,0.91863671875,-1.0436800545178353,0.502208275071904,-8.767618501940369,0.02737695351243019,0.5096980929374695,-0.1412256807088852
1772376835481585700,0.928585693359375,-0.6906123204037546,-0.0754594378709793,-6.408338517561554,0.2719041705131531,0.3162936270236969,-0.1340855211019516
1772376835491533800,0.938533935546875,-0.42462453852333126,-0.4323103072529658,-4.046303096994757,0.48458153009414673,0.09679721295833588,-0.13472388684749603
1772376835501482800,0.948482666015625,-0.3934162937784567,-0.6696089876025915,-1.9026129057109356,0.6474862694740295,-0.02322366274893284,-0.13993455469608307
1772376835511431700,0.958431640625,-0.5540257752664387,-0.7492484145719558,-0.024767361509799957,0.7271350026130676,0.016197245568037033,-0.1586318016052246
1772376835521380600,0.968380615234375,-0.6823309604011476,-0.6625562926121056,1.6905799283146856,0.7359216213226318,0.17498144507408142,-0.17956341803073883
1772376835531329500,0.97832958984375,-0.7083956682451069,-0.5823003411795944,3.195730223998427,0.7065905928611755,0.4089715778827667,-0.18572038412094116
1772376835541277700,0.988277587890625,-0.5837400916591287,-0.44933688191026444,4.454699773490429,0.6852262020111084,0.636361300945282,-0.1543872207403183
1772376835551226600,0.9982265625,-0.29375319269504396,-0.2719439138058573,5.475552056258916,0.7014142274856567,0.7487519979476929,-0.11513277143239975
1772376835561175800,1.00817578125,-0.09670017789090052,-0.11795695573017001,6.36949937607944,0.7464677691459656,0.7580147981643677,-0.07943390309810638
1772376835571124700,1.018124755859375,-0.0023870230006985366,-0.02809679819345474,7.259569562205672,0.7930096983909607,0.6927103400230408,-0.06382165104150772
1772376835581073000,1.028072998046875,-0.02090535231940448,-0.011204334777221082,8.112518516683577,0.8425447344779968,0.5728525519371033,-0.05331942439079285
1772376835591021800,1.038021728515625,-0.1420749864857644,0.011263882944732904,8.945945024567841,0.8694631457328796,0.4457014799118042,-0.07446092367172241
1772376835600970800,1.047970703125,-0.40385187267288564,0.030378917781263587,9.659709380239248,0.8440049290657043,0.3570132255554199,-0.13379475474357605
1772376835610919700,1.057919677734375,-0.6328666722692549,0.06999518111571669,10.329701229679584,0.7475523948669434,0.3013851046562195,-0.1960517317056656
1772376835620867800,1.067867919921875,-0.6047385290894657,0.15449775714203715,10.964968971741198,0.5638535022735596,0.24289345741271973,-0.2303342968225479
1772376835630816800,1.077816650390625,-0.3408504229020327,0.3627290041677654,11.56848080857992,0.2984822392463684,0.1541990041732788,-0.21820759773254395
1772376835640765700,1.087765625,0.17402327247560023,0.5969629997171462,11.897199552726745,-0.016183558851480484,0.0369504950940609,-0.14396792650222778
1772376835650714600,1.097714599609375,0.7747451863348483,0.7651827004805207,11.732993325388431,-0.33292287588119507,-0.09807975590229034,-0.011069267988204956
1772376835660663600,1.10766357421875,1.1031183319143951,0.9651109601937233,10.978913325941562,-0.6216913461685181,-0.20405226945877075,0.13453985750675201
1772376835670611700,1.11761181640625,1.1634112533789127,1.133700809443742,9.724989369401335,-0.8887414336204529,-0.2867354452610016,0.27743229269981384
1772376835680561000,1.127560791015625,1.140579243845865,1.0480758052587509,8.280408400970696,-1.1673780679702759,-0.3575471341609955,0.4019409716129303
1772376835690509800,1.137509765625,0.8708747795298695,0.8935760022900998,6.619711569744348,-1.4318294525146484,-0.4351047873497009,0.469171404838562
1772376835700458800,1.147458740234375,0.3417314069876447,0.6453348895024508,4.6100160074084995,-1.6852105855941772,-0.4916056990623474,0.46023058891296387
1772376835710406700,1.15740673828125,-0.1077791235896293,0.23380108402483163,2.3031647139251232,-1.841468095779419,-0.5550094842910767,0.3934049606323242
1772376835720355800,1.16735595703125,-0.47360641343314197,-0.06582125643193722,-0.655862786322832,-1.856500267982483,-0.5694316625595093,0.29078400135040283
1772376835730304800,1.1773046875,-0.8409577801719308,-0.15304562210496514,-3.92121190547049,-1.7506154775619507,-0.5316855907440186,0.1716541349887848
1772376835740253700,1.187253662109375,-1.0505613384641705,-0.08075703282244504,-7.090756133332848,-1.517195463180542,-0.5198678970336914,0.06846758723258972
1772376835750202600,1.19720263671875,-0.8606062642980367,0.18076164081990717,-10.014641593050957,-1.2019696235656738,-0.5484095215797424,0.027326812967658043
1772376835760150800,1.20715087890625,-0.4616414330143481,0.5686204831343143,-12.224580910789966,-0.901958167552948,-0.5841445922851562,0.040403902530670166
1772376835770099700,1.217099609375,-0.1734403580211103,0.9020045887436717,-13.520599211215972,-0.713752269744873,-0.5947921872138977,0.0756436437368393
1772376835780048600,1.227048583984375,-0.16732395750004797,1.1664124079562723,-13.94276430082321,-0.6562227010726929,-0.5035660266876221,0.10355425626039505
1772376835789997800,1.236997802734375,-0.4495275821767747,1.32771151567623,-14.125282429921626,-0.622588038444519,-0.30879706144332886,0.11913853883743286
1772376835799945700,1.24694580078125,-0.7236527855444699,1.433432382428646,-14.528857385349273,-0.5174275040626526,-0.07980254292488098,0.14382854104042053
1772376835809895000,1.25689501953125,-0.5903821965547278,1.4326689968407154,-14.981822102367877,-0.2820450961589813,0.08774863183498383,0.1843900829553604
1772376835819843800,1.26684375,-0.27810992562230674,1.2231934488423168,-15.09753873182535,0.03396722301840782,0.18763825297355652,0.24576635658740997
1772376835829792800,1.276792724609375,-0.014236505547352134,0.9319796018991618,-14.701887555134295,0.3949850797653198,0.2591654062271118,0.3317749798297882
1772376835839740700,1.28674072265625,-0.0251835045626387,0.754256086666137,-13.657468518817424,0.7422245144844055,0.3458632528781891,0.39977332949638367
1772376835849689600,1.296689697265625,-0.41973146925214677,0.5378469400122762,-12.009721185535192,1.0654428005218506,0.46267351508140564,0.4396277964115143
1772376835859638800,1.306638671875,-0.8345579230669885,0.2711693127041682,-10.06437271542549,1.3874725103378296,0.5902856588363647,0.458029568195343
1772376835869587700,1.316587646484375,-1.0467346928481012,0.10222113326946272,-7.961199827969073,1.7036118507385254,0.6811529994010925,0.45652541518211365
1772376835879536600,1.32653662109375,-1.0429710294656456,-0.06962225615009665,-5.642147809082269,1.9833478927612305,0.6945695877075195,0.4628160297870636
1772376835889484500,1.336484619140625,-0.8497556383293121,-0.15604257543124259,-3.13582140648067,2.2091546058654785,0.6250799894332886,0.4783555865287781
1772376835899433700,1.346433837890625,-0.6921957902029157,-0.056677726642042396,-0.576516277885437,2.3620831966400146,0.5233035683631897,0.48611515760421753
1772376835909383000,1.3563828125,-0.5816450190760195,0.07627214249335229,1.8277198695510626,2.419494867324829,0.4385625720024109,0.4861239194869995
1772376835919331800,1.366331787109375,-0.5816252183970063,0.061463645744323725,3.998765100750327,2.410893440246582,0.3998919427394867,0.4639582335948944
1772376835929279700,1.37627978515625,-0.7054600531846285,0.024849632965773343,5.867987778034806,2.3309218883514404,0.4239828884601593,0.4202059507369995
1772376835939228700,1.386228759765625,-0.9418865903422236,0.03357040729895234,7.480731017953157,2.178982734680176,0.47109711170196533,0.35767102241516113
1772376835949177900,1.396177734375,-1.1029409295208752,0.08814327061623334,8.998943624305724,1.9814863204956055,0.475864440202713,0.28197839856147766
1772376835959126800,1.406126708984375,-1.0729788489121943,0.11366846475601196,10.309313106167316,1.7511966228485107,0.3993234932422638,0.18392369151115417
1772376835969074700,1.41607470703125,-0.983709569940716,0.12395663453638553,11.33649342291355,1.4934974908828735,0.2754577398300171,0.0714741125702858
1772376835979023600,1.426023681640625,-0.8724212052542716,0.19917334969267247,12.114848616439103,1.2235618829727173,0.15237927436828613,-0.03304724395275116
1772376835988972500,1.43597265625,-0.7552931015636771,0.40947804199159143,12.63189096109271,0.9385806918144226,0.06102565675973892,-0.13855236768722534
1772376835998921700,1.445921630859375,-0.6973818876039236,0.7061728776291012,12.793075210261344,0.6568412184715271,0.00893148873001337,-0.22579634189605713
1772376836008871000,1.455870849609375,-0.5705133111435919,1.051085800729692,12.629550535446405,0.3873617649078369,0.010529651306569576,-0.2937559485435486
1772376836018818600,1.465818603515625,-0.3869120629835874,1.4024354788795113,12.274319047427177,0.11898359656333923,0.017108356580138206,-0.3120114505290985
1772376836028767700,1.475767822265625,0.019101280305813997,1.655838285279274,11.907739651441574,-0.12221729755401611,-0.020739689469337463,-0.28200188279151917
1772376836038716700,1.485716552734375,0.48486799482293425,1.8692314451128242,11.31666877850294,-0.3386920690536499,-0.14300663769245148,-0.20853763818740845
1772376836048665900,1.495665771484375,0.7442188229069113,2.044160434256494,10.54383030257225,-0.5572209358215332,-0.2868722081184387,-0.12262912094593048
1772376836058614300,1.5056142578125,0.7653209399074316,2.075707372903824,9.656022800680994,-0.7974575757980347,-0.4428137540817261,-0.04246384650468826
1772376836068563200,1.515563232421875,0.5905046904232353,1.872529317614436,8.51580413377583,-1.048781394958496,-0.5863506197929382,0.00877111405134201
1772376836078512000,1.52551220703125,0.2695471913950518,1.5581746143847703,7.008805579876899,-1.2958061695098877,-0.6439121961593628,0.004422159865498543
1772376836088461000,1.5354609375,-0.25335027249492703,1.1378967998288572,5.007757434377074,-1.5142441987991333,-0.6225230097770691,-0.05680498108267784
1772376836098409200,1.5454091796875,-0.7714419070057571,0.7484758958294987,2.555152685090899,-1.6610685586929321,-0.5057048797607422,-0.15659651160240173
1772376836108358100,1.555358154296875,-1.007503775569424,0.44768268496245145,-0.07926993606984614,-1.7460145950317383,-0.4066888391971588,-0.25559288263320923
1772376836118307000,1.56530712890625,-0.7958281602434814,0.2833766505114734,-2.6151760688990353,-1.7838159799575806,-0.41267919540405273,-0.3065708875656128
1772376836128256000,1.575256103515625,-0.3188317755784839,0.2943915271311998,-4.9264557002186775,-1.7676490545272827,-0.5168034434318542,-0.3177945017814636
1772376836138204200,1.5852041015625,-0.016194927872437984,0.5807132911838591,-7.114356204628944,-1.680963158607483,-0.6328312158584595,-0.29993003606796265
1772376836148153000,1.595153076171875,0.04971974246399477,0.9965174674570559,-9.37430546168387,-1.5145589113235474,-0.669710099697113,-0.2721039950847626
1772376836158102300,1.605102294921875,-0.011402542496751994,1.1373054098069668,-11.42639055145979,-1.3065264225006104,-0.63228440284729,-0.25059884786605835
1772376836168051200,1.61505126953125,-0.16438304520994423,1.2372748734258114,-12.808698311328888,-1.1016371250152588,-0.5212809443473816,-0.22582849860191345
1772376836178000100,1.625000244140625,-0.2899059426823631,1.3849929072998464,-13.491195422077178,-0.9073806405067444,-0.35662129521369934,-0.1827038824558258
1772376836187948300,1.6349482421875,-0.33018381173070516,1.445591168386489,-13.579392760968208,-0.7272478342056274,-0.16103795170783997,-0.1307554543018341
1772376836197897200,1.644897216796875,-0.37938276345729827,1.3808026160031557,-13.21957043802738,-0.5284820199012756,0.04681864008307457,-0.07270220667123795
1772376836207846100,1.65484619140625,-0.38863574497103687,1.2548556844323873,-12.577447423243521,-0.31348076462745667,0.24780474603176117,-0.008248117752373219
1772376836217795000,1.664795166015625,-0.3732915704427287,1.045779803276062,-11.591449011713266,-0.06718629598617554,0.40277981758117676,0.0511397086083889
1772376836227743200,1.6747431640625,-0.37104448563568293,0.680685239020735,-10.287906745523214,0.21596099436283112,0.5027985572814941,0.08839680254459381
1772376836237692200,1.684692138671875,-0.41860264788530765,0.30902715153135357,-8.827211677637695,0.5170875191688538,0.5605271458625793,0.10339643061161041
1772376836247641000,1.69464111328125,-0.49748402302898465,0.06047054305374622,-7.085823937627673,0.792259693145752,0.5646539330482483,0.10604201257228851
1772376836257590300,1.70459033203125,-0.515160001505725,-0.08076046688854693,-4.980730895763635,1.0206282138824463,0.5145531296730042,0.09435883909463882
1772376836267539200,1.714539306640625,-0.4195975041415542,-0.18693762604109943,-2.8465327554464337,1.1895726919174194,0.4297810196876526,0.08557946234941483
1772376836277487400,1.7244873046875,-0.2621192881503142,-0.19416830794699488,-0.8153355553984641,1.3056732416152954,0.33481791615486145,0.09622503072023392
1772376836287436300,1.734436279296875,-0.13839476360306144,-0.022580957381427288,1.0256722502708435,1.384703278541565,0.2692793905735016,0.1241469457745552
1772376836297385200,1.74438525390625,-0.06560643550432287,0.2427436113499105,2.5976725609123705,1.4268763065338135,0.2520177960395813,0.1529814451932907
1772376836307334100,1.754334228515625,-0.09827898064809851,0.4762773496754467,3.971095588058233,1.4432313442230225,0.2687983810901642,0.16953246295452118
1772376836317282300,1.7642822265625,-0.27359867700925095,0.6132591777406633,5.271638087910413,1.4323238134384155,0.2800105810165405,0.1716536581516266
1772376836327231200,1.774231201171875,-0.42353685288447884,0.727820353552699,6.52091801803708,1.3942477703094482,0.26700183749198914,0.1473105102777481
1772376836337180200,1.78418017578125,-0.587077017529495,0.8010748287253081,7.65713738617301,1.324552059173584,0.23862504959106445,0.09879001975059509
1772376836347129000,1.794129150390625,-0.7382929399892687,0.8214851640693843,8.635635212814808,1.219317078590393,0.2218567281961441,0.03459319472312927
1772376836357077200,1.8040771484375,-0.82701357210204,0.8635932442195713,9.489158167788386,1.078356146812439,0.2235138714313507,-0.05135478079319
1772376836367026200,1.814026123046875,-0.9082253629546612,0.9674844113267957,10.187498744356631,0.9187731742858887,0.2277757227420807,-0.1415134221315384
1772376836376975400,1.823975341796875,-0.8814874320242554,1.0886083066552876,10.75864209703207,0.7490373849868774,0.18791945278644562,-0.22653798758983612
1772376836386924300,1.83392431640625,-0.7336548318598419,1.1570035052284597,11.241567068028449,0.5377182364463806,0.09025228023529053,-0.29356148838996887
1772376836396873200,1.843873291015625,-0.5344028639730066,1.2123600662693381,11.769638171696663,0.25012484192848206,-0.02318982407450676,-0.3411705493927002
1772376836406821400,1.8538212890625,-0.2746569173579104,1.2412978453315793,12.245476399302483,-0.11836210638284683,-0.14805638790130615,-0.3580842912197113
1772376836416770300,1.863770263671875,-0.021967300728801636,1.182804447569698,12.324606634640693,-0.5288242101669312,-0.24256707727909088,-0.35336610674858093
1772376836426719200,1.87371923828125,0.16591493095234036,1.025191773277521,11.763250516486167,-0.9351269602775574,-0.29791662096977234,-0.3272570073604584
1772376836436668200,1.883668212890625,0.19828962566070257,0.8922543982975184,10.569899978852272,-1.305376410484314,-0.32730311155319214,-0.29282346367836
1772376836446616000,1.893615966796875,0.2689325300954282,0.6537216826409101,8.871845184612274,-1.6158474683761597,-0.3625977039337158,-0.23089377582073212
1772376836456565200,1.903565185546875,0.29946747868862,0.32356165364459155,6.758307555007934,-1.8591557741165161,-0.37570294737815857,-0.17558857798576355
1772376836466514200,1.91351416015625,0.10865616215248591,0.014406857145577668,4.2023137429177755,-2.0021309852600098,-0.37984976172447205,-0.14856600761413574
1772376836476463000,1.923463134765625,-0.2526107061740011,-0.2411309154562652,1.3580173682212828,-2.08339262008667,-0.3517797887325287,-0.16533930599689484
1772376836486411000,1.933410888671875,-0.48636426126267757,-0.5585547969982028,-1.430905494299531,-2.078397750854492,-0.30426740646362305,-0.20583747327327728
1772376836496360000,1.94335986328125,-0.49871345522608607,-0.9280665931738913,-4.353175920036435,-1.9649854898452759,-0.27328965067863464,-0.2672284245491028
1772376836506309400,1.953309326171875,-0.2983996302613988,-1.2081847533460706,-7.003285355150699,-1.7844765186309814,-0.31127139925956726,-0.3286065459251404
1772376836516258300,1.96325830078125,0.009295642478531227,-1.2053723993390797,-9.105280430999398,-1.5520341396331787,-0.38859596848487854,-0.3879779577255249
1772376836526206200,1.973206298828125,0.17865372702153398,-0.8987084698077291,-10.976058521032332,-1.2449216842651367,-0.44248342514038086,-0.46226364374160767
1772376836536155100,1.983155029296875,0.11089717341177165,-0.4586437855683267,-12.559731733810901,-0.9165929555892944,-0.44955918192863464,-0.5207449197769165
1772376836546104300,1.993104248046875,0.17094565512854604,0.09018453065287321,-13.5684773992002,-0.6081607937812805,-0.3683767020702362,-0.5389339923858643
1772376836556053200,2.00305322265625,0.38729317125566304,0.5439247620886192,-13.995317494881153,-0.3507136106491089,-0.20238977670669556,-0.5197034478187561
1772376836566002200,2.013002197265625,0.5485619203699752,0.8339300734922289,-13.826229340720175,-0.1343860924243927,0.025675341486930847,-0.456508994102478
1772376836575950000,2.0229501953125,0.8191772524531931,1.1297129088513553,-13.199680327165126,0.004214941523969173,0.2719308137893677,-0.3357943594455719
1772376836585899000,2.03289892578125,1.2134279146965592,1.3869710755050182,-12.1219786144495,0.0924350768327713,0.4702947735786438,-0.17947879433631897
1772376836595848200,2.04284814453125,1.4251903315231202,1.459583307251334,-10.761043312954902,0.15714402496814728,0.5745236873626709,-0.025324005633592606
1772376836605797400,2.05279736328125,1.4222674298137425,1.387374395608902,-9.298128815454245,0.23698799312114716,0.5891380310058594,0.10839784145355225
1772376836615745000,2.0627451171875,1.2446177835345267,1.2750441937193273,-7.983951173481345,0.38514551520347595,0.5328973531723022,0.2121344655752182
1772376836625694200,2.072694091796875,0.9281674962650984,1.0053164946582167,-6.813933580639958,0.5842615365982056,0.4831923544406891,0.27122119069099426
1772376836635643100,2.08264306640625,0.505113896852918,0.6438450893361121,-5.654394127193093,0.8117322325706482,0.45033136010169983,0.306423157453537
1772376836645592300,2.09259228515625,0.11243224662509746,0.41221638091430063,-4.297497871956229,1.0253251791000366,0.4270143210887909,0.31807368993759155
1772376836655540200,2.102540283203125,-0.13851541257435454,0.29887291032895447,-2.7375270218044516,1.222760796546936,0.3816167712211609,0.32238566875457764
1772376836665489200,2.1124892578125,-0.3069154200743884,0.328816870759055,-1.018340007686615,1.3694255352020264,0.31324276328086853,0.318055659532547
1772376836675438000,2.12243798828125,-0.4598637558173388,0.4272859397523105,0.8007388747692108,1.445591926574707,0.2288092076778412,0.2885279953479767
1772376836685387000,2.132386962890625,-0.6213004453770816,0.5104600436538458,2.674485751479864,1.4563157558441162,0.15540769696235657,0.2531087398529053
1772376836695336200,2.142336181640625,-0.7944746267426759,0.653117579267919,4.3921267051994795,1.4096437692642212,0.11233257502317429,0.20232753455638885
1772376836705284000,2.1522841796875,-0.9547844311643391,0.8694843480847776,5.821496660494804,1.346428394317627,0.11404818296432495,0.1565009206533432
1772376836715233000,2.16223291015625,-0.9674319504871964,1.126586739654839,6.934216495099664,1.2621033191680908,0.16947560012340546,0.12862282991409302
1772376836725182200,2.17218212890625,-0.8701681656304746,1.4111691126942634,7.919148738703131,1.1420475244522095,0.26628124713897705,0.1192929670214653
1772376836735131100,2.182131103515625,-0.6995749406687914,1.6018305084988473,8.931367633160948,0.9870857000350952,0.36122578382492065,0.12188763171434402
1772376836745079300,2.192079345703125,-0.6168970958516001,1.740116843291372,9.965466935515403,0.7948228120803833,0.41470178961753845,0.12337234616279602
1772376836755028200,2.2020283203125,-0.566354437898472,1.8138867206402123,10.865815354549884,0.5640691518783569,0.4339767098426819,0.10799284279346466
1772376836764977200,2.21197705078125,-0.54299416670762,1.809999211682379,11.555436618089676,0.35675567388534546,0.3729309141635895,0.04360879212617874
1772376836774926000,2.221926025390625,-0.8783388318002223,1.6068139959998429,11.709824046725034,0.12498954683542252,0.2615806758403778,-0.013977971859276295
1772376836784874200,2.231874267578125,-0.7317857500523328,2.0801383410885927,12.181742470538616,-0.18105480074882507,0.1894151270389557,-0.016479214653372765
1772376836794823200,2.2418232421875,-0.09260499926544725,2.3102675316676495,12.556135755145549,-0.5526635050773621,0.04998478665947914,0.031569190323352814
1772376836804772000,2.251772216796875,0.10061035533826798,1.95973428446725,12.436197708600758,-0.9488502144813538,-0.07228786498308182,0.07386711239814758
1772376836814721000,2.261720947265625,0.1626383569670841,1.9714874122336505,11.89706160556078,-1.3299206495285034,-0.07510051131248474,0.14541588723659515
1772376836824669200,2.271669189453125,0.2730073052536696,2.060111305973679,10.680139638203382,-1.6678673028945923,-0.044248320162296295,0.24354858696460724
1772376836834618000,2.2816181640625,0.5304906224327162,1.8286836000166833,9.052824852097034,-1.8990362882614136,-0.05522899329662323,0.3670639991760254
1772376836844567300,2.2915673828125,0.7646186368569732,1.6619319259792564,6.920065804672241,-1.9804118871688843,-0.12648771703243256,0.49579057097435
1772376836854516200,2.30151611328125,0.8749396908812225,1.441414613354206,4.270927260416746,-1.9275894165039062,-0.17264948785305023,0.5938029289245605
1772376836864465200,2.311465087890625,0.7082311253331601,0.9756002055041492,1.6494401086747645,-1.8045772314071655,-0.22415688633918762,0.6377869248390198
1772376836874413300,2.321413330078125,0.3753741854030639,0.5435702860951424,-0.5977817687541246,-1.6671255826950073,-0.30454957485198975,0.6217418909072876
1772376836884362200,2.3313623046875,-0.08052647546958178,-0.007910992320254445,-2.547453362759948,-1.5824698209762573,-0.3878311514854431,0.5307089686393738
1772376836894311200,2.341311279296875,-0.3974121219489723,-0.5786638113081455,-4.296729810193181,-1.544747233390808,-0.38716334104537964,0.4154781997203827
1772376836904260000,2.351260009765625,-0.28911139477118847,-1.2215132406704128,-6.217790811264514,-1.5051339864730835,-0.32324960827827454,0.30950728058815
1772376836914208300,2.361208251953125,0.06391007078206166,-1.812154490020126,-8.201594391974806,-1.4585002660751343,-0.24066439270973206,0.21886877715587616
1772376836924157200,2.3711572265625,0.4770212999105453,-2.234116896662116,-9.850725288569926,-1.4326540231704712,-0.19552993774414062,0.14894162118434906
1772376836934106000,2.381106201171875,0.7249484513781964,-2.218743094180524,-11.129362246084213,-1.4182987213134766,-0.16019411385059357,0.10150187462568283
1772376836944055000,2.391054931640625,0.7524789209257811,-1.6526709072895347,-12.222644974291324,-1.4040833711624146,-0.15250477194786072,0.0754748061299324
1772376836954003200,2.401003173828125,0.6680313630223274,-0.8163835300814359,-13.296471306878328,-1.313353180885315,-0.1306712031364441,0.06408414244651794
1772376836963952000,2.4109521484375,0.5176998587142676,0.10726919217295944,-14.618911165761947,-1.0935674905776978,-0.05737408623099327,0.06536778062582016
1772376836973901300,2.4209013671875,0.3967172715526074,0.9270040054436772,-16.011293744921684,-0.7202460765838623,0.07037828117609024,0.09503353387117386
1772376836983850200,2.430850341796875,0.38378636871110644,1.5195157979056237,-16.932398536258933,-0.2282113879919052,0.21366460621356964,0.1421363353729248
1772376836993798100,2.440798095703125,0.36853948054481295,1.8099385675363242,-17.07282758216858,0.3248952031135559,0.3186405897140503,0.2077362835407257
1772376837003747300,2.450747314453125,0.43376887203082437,1.8358349330760537,-16.112500202989576,0.8515907526016235,0.3799228370189667,0.3025807738304138
1772376837013696300,2.4606962890625,0.519401328869909,1.7507862674742936,-14.064024535882472,1.2936301231384277,0.408415824174881,0.4146742522716522
1772376837023645200,2.470645263671875,0.5225132138127461,1.5632444649949668,-11.438666680186985,1.6707524061203003,0.42282938957214355,0.5352427363395691
1772376837033593000,2.480593017578125,0.3076545114712789,1.3076039626710116,-8.732547188559174,1.9801901578903198,0.43151476979255676,0.622593343257904
1772376837043542300,2.490542236328125,-0.16123528523612768,1.005651717961952,-5.956218434673548,2.208981513977051,0.36724522709846497,0.6466662287712097
1772376837053491200,2.5004912109375,-0.9275432999521493,0.7917007781151681,-2.9692174703508614,2.383025884628296,0.1724291741847992,0.512057900428772
1772376837063440100,2.510440185546875,-1.9013574988223612,0.6471876046970486,-0.3772802382200956,2.4996113777160645,0.25159379839897156,0.5018323659896851
1772376837073389300,2.520389404296875,-1.1214289185002446,0.38104412079825994,2.086893368306756,2.4649484157562256,0.17823326587677002,0.47533679008483887
1772376837083337000,2.5303369140625,-1.4641095525041221,0.5475293259192258,4.568266531437635,2.408482789993286,0.10441789031028748,0.36282676458358765
1772376837093286400,2.540286376953125,-1.9021305290214716,0.9217674930296837,6.304338044860959,2.3209896087646484,0.13046151399612427,0.27285000681877136
1772376837103235300,2.5502353515625,-1.725004614355415,1.332102882502973,7.580790644073486,2.188589334487915,0.2758485674858093,0.2116183191537857
1772376837113184300,2.560184326171875,-1.5875485929071902,1.6122066488236189,8.86405526138842,2.0138795375823975,0.4228750169277191,0.13516969978809357
1772376837123132200,2.570132080078125,-1.6033018962256609,1.8475309238277375,10.1404084918797,1.8061269521713257,0.5038385987281799,0.026553740724921227
1772376837133081000,2.5800810546875,-1.6047914041310547,2.077112855787575,11.33589721058607,1.5619853734970093,0.524411141872406,-0.1016465425491333
1772376837143030300,2.5900302734375,-1.5996915967740117,2.3215428127892315,12.404576243412494,1.3003381490707397,0.4852246046066284,-0.23134168982505798
1772376837152979200,2.599979248046875,-1.4777644222386181,2.6759488097697495,13.232669573575258,1.0280346870422363,0.403241366147995,-0.34809228777885437
1772376837162927000,2.609927001953125,-1.235517654494941,2.997375643342733,13.806758916574715,0.7289137840270996,0.286603182554245,-0.4517987072467804
1772376837172876000,2.6198759765625,-0.9154843211069703,3.2188515718668698,14.20940448219776,0.40530112385749817,0.1511380672454834,-0.49404534697532654
1772376837182825200,2.6298251953125,-0.2529998516220599,3.3800688465222715,14.359088847708701,0.0679880753159523,-0.04032057523727417,-0.45140549540519714
1772376837192774400,2.6397744140625,0.42969292782880364,3.554647414793074,14.162320074939727,-0.2896699607372284,-0.2974911630153656,-0.36718255281448364
1772376837202722000,2.64972216796875,0.8319918719712645,3.6151489375069734,13.544721260559559,-0.6341791749000549,-0.5483918190002441,-0.2640092968940735
1772376837212671200,2.659671142578125,1.0244215195573865,3.4939144214108584,12.356301749587058,-0.9649990797042847,-0.7374532222747803,-0.14671793580055237
1772376837222620200,2.6696201171875,0.9086883773565292,3.3204102043733,10.702699845057726,-1.2429215908050537,-0.8392562866210938,-0.05711454898118973
1772376837232569300,2.6795693359375,0.6533444468263536,2.9254923103928565,8.45209767754078,-1.4349884986877441,-0.7668271064758301,0.03353136405348778
1772376837242518300,2.689518310546875,0.4736788210822269,2.1608372870482504,5.7968953032016755,-1.6014858484268188,-0.593875527381897,0.12060128152370453
1772376837252466200,2.699466064453125,0.35828703966494646,1.4225021153524517,3.2698306484758852,-1.7060908079147339,-0.39222243428230286,0.18561148643493652
1772376837262415000,2.7094150390625,0.28321360543686896,0.6958060896545648,0.636864071342349,-1.6859272718429565,-0.3330129086971283,0.2307954728603363
1772376837272364000,2.719364013671875,0.43763347503710537,-0.23569953805729746,-2.1817595174372193,-1.5281977653503418,-0.3968964219093323,0.24879306554794312
1772376837282313200,2.729313232421875,0.6290446297630667,-1.3282390466816723,-4.879636081376671,-1.2928425073623657,-0.5152835249900818,0.24020224809646606
1772376837292261000,2.73926123046875,0.6403142848614602,-2.2425543240092694,-7.11988402813971,-1.1001685857772827,-0.5712706446647644,0.19019171595573425
1772376837302210000,2.7492099609375,0.33635175977591425,-2.814324430280924,-8.576088214346766,-1.0313602685928345,-0.538139820098877,0.09339939802885056
1772376837312159200,2.7591591796875,-0.009949859470408409,-3.1951758049860595,-9.37113267686665,-1.0962245464324951,-0.4552043378353119,-0.03670370578765869
1772376837322108200,2.769108154296875,-0.2902691865041852,-3.342394657166302,-9.956703783345223,-1.2410962581634521,-0.36441105604171753,-0.16798315942287445
1772376837332056300,2.779056396484375,-0.420306163867563,-3.129550363387167,-10.63195048457384,-1.408774733543396,-0.28328296542167664,-0.27307432889938354
1772376837342005200,2.789005126953125,-0.40334746681470424,-2.5131843056723473,-11.548204913270473,-1.5107556581497192,-0.19525058567523956,-0.3373957872390747
1772376837351954200,2.7989541015625,-0.26098389091221613,-1.6306268332637845,-12.962152843028306,-1.4251222610473633,-0.11155573278665543,-0.34051841497421265
1772376837361903000,2.808903076171875,-0.0332002291295561,-0.660216743748635,-14.627992297840118,-1.1104426383972168,-0.010190493427217007,-0.28281864523887634
1772376837371851300,2.818851318359375,0.1600841972385533,0.20233004189161582,-15.981436366796492,-0.6051943302154541,0.14422090351581573,-0.1649104654788971
1772376837381800200,2.82880029296875,0.3758058182859793,0.6616937574986368,-16.360474262338876,-0.033552687615156174,0.32361727952957153,-0.012965927831828594
1772376837391749000,2.8387490234375,0.542058420227468,0.5897572695894167,-15.293926396322249,0.46593114733695984,0.427214115858078,0.11155856400728226
1772376837401698000,2.848697998046875,0.41488446761239317,0.29830731233544644,-12.822905700379609,0.8299410939216614,0.4677934944629669,0.18751750886440277
1772376837411646200,2.858646240234375,0.10870101507436483,0.0711834045195952,-9.744734518834948,1.0773087739944458,0.4758422076702118,0.22925212979316711
1772376837421595100,2.86859521484375,-0.15951942122895268,-0.11200162752233445,-6.7548267271548506,1.2408196926116943,0.4580797255039215,0.24458901584148407
1772376837431544000,2.8785439453125,-0.3996598278105259,-0.17987444618921725,-4.0731922729641195,1.3537572622299194,0.41056424379348755,0.24572180211544037
1772376837441493200,2.8884931640625,-0.5314047050703317,-0.11244104185290633,-1.650479973116517,1.4124679565429688,0.34732747077941895,0.24446186423301697
1772376837451442200,2.898442138671875,-0.6561046322546898,0.027978140249848363,0.5150795201480388,1.4321880340576172,0.3227868676185608,0.24022738635540009
1772376837461390300,2.908390380859375,-0.7590189171537757,0.19044578029252587,2.290333289402723,1.432497262954712,0.3298514187335968,0.24918413162231445
1772376837471339300,2.91833935546875,-0.8399276334065944,0.491799328456074,3.7724639440268275,1.4191800355911255,0.35202500224113464,0.2581779658794403
1772376837481288200,2.9282880859375,-0.8360240500967949,0.7920737761460244,5.032390355852246,1.3975887298583984,0.36118707060813904,0.25699737668037415
1772376837491237000,2.938237060546875,-0.8827665851145983,0.976132120423764,6.156602475330233,1.363927960395813,0.36561456322669983,0.23795753717422485
1772376837501185300,2.948185302734375,-0.9562393061477691,1.1332767388127742,7.123951715970039,1.3150861263275146,0.39540895819664,0.19854383170604706
1772376837511134200,2.95813427734375,-1.0201973259910941,1.3585723717555402,7.991701933738589,1.2532565593719482,0.44044700264930725,0.15714426338672638
1772376837521083100,2.968083251953125,-1.053606039922312,1.5819862826049327,8.78643367704749,1.152554988861084,0.49052694439888,0.10654793679714203
1772376837531032000,2.978031982421875,-1.0058983131341637,1.7454042821750044,9.57038975932002,0.9962451457977295,0.5220648646354675,0.06452416628599167
1772376837540980200,2.987980224609375,-0.9703933575760573,1.9944627757601439,10.340708945906162,0.7968997955322266,0.5538715124130249,0.022789238020777702
1772376837550929200,2.99792919921875,-0.878535596481338,2.287323732323199,10.924629947090148,0.5728309750556946,0.559916615486145,-0.006004970520734787
1772376837560878300,3.00787841796875,-0.7493135887626559,2.4467025395050643,11.282217058324813,0.34439969062805176,0.5275448560714722,-0.029760366305708885
1772376837570827300,3.0178271484375,-0.6629171618137508,2.4975708492159843,11.44792784500718,0.10567019879817963,0.46627378463745117,-0.05464191734790802
1772376837580775200,3.027775146484375,-0.5861497100841254,2.52599234931916,11.439147157180308,-0.13443562388420105,0.36899328231811523,-0.0714896097779274
1772376837590724400,3.037724365234375,-0.4566773808661848,2.515896194979548,11.253901648944616,-0.3856106102466583,0.2451060265302658,-0.08605151623487473
1772376837600673300,3.04767333984375,-0.31681210631914436,2.367770457087457,10.942296536684035,-0.6779772043228149,0.14657437801361084,-0.09508708864450455
1772376837610622200,3.057622314453125,-0.1784907732784748,2.0871898670352995,10.444617064148186,-1.0128660202026367,0.07180065661668777,-0.08541541546583176
1772376837620570000,3.067570068359375,0.050861441578716034,1.8158160812675952,9.762968094661831,-1.3948917388916016,-0.008330130949616432,-0.06254205852746964
1772376837630519000,3.07751904296875,0.5032506967969238,1.4108802127502857,8.788409945556522,-1.7514569759368896,-0.1321672797203064,-0.015017008408904076
1772376837640468200,3.08746826171875,1.20207584201172,0.6092835521079599,7.195196166494489,-2.0280823707580566,-0.33902671933174133,0.06101091206073761
1772376837650417200,3.097417236328125,1.8490069877296684,-0.13923545221090317,5.009790401509404,-2.19977068901062,-0.6250516772270203,0.14066308736801147
1772376837660366300,3.107366455078125,2.0936066022098063,-0.5791884927693755,2.4974989530235527,-2.3327651023864746,-0.8815508484840393,0.21512481570243835
1772376837670314000,3.11731396484375,1.9160719606123864,-0.7312375415850431,0.02471709262728691,-2.437187910079956,-1.0588383674621582,0.2721583843231201
1772376837680263200,3.12726318359375,1.4497127783611417,-0.7937839410647749,-2.6443781979858874,-2.485194683074951,-1.166146159172058,0.28680282831192017
1772376837690212400,3.13721240234375,0.721699532584846,-0.7083873388081788,-5.602359404051303,-2.456031322479248,-1.171256184577942,0.23140506446361542
1772376837700161300,3.147161376953125,-0.2966709433052689,-0.2726807949793525,-8.509851947373152,-2.39517879486084,-1.1151691675186157,0.09490233659744263
1772376837710109200,3.157109130859375,-1.3817283525459467,0.49981129693277176,-11.039431215268372,-2.2970290184020996,-1.0013178586959839,-0.08794574439525604
1772376837720058000,3.16705810546875,-1.9625329752750693,1.3421024446003138,-13.393825765693187,-2.067568778991699,-0.8353890180587769,-0.2176627218723297
1772376837730007300,3.17700732421875,-1.7225730032943187,1.9476430107876657,-15.763188752669095,-1.6413941383361816,-0.5969828963279724,-0.23762372136116028
1772376837739956200,3.186956298828125,-1.041090038024634,2.2996153508804738,-17.749208255863188,-1.0728331804275513,-0.34011247754096985,-0.1530345231294632
1772376837749904100,3.196904052734375,-0.3150957308553159,2.4321815544605254,-18.552678016901016,-0.4641661047935486,-0.1459134817123413,0.0013197183143347502
1772376837759853000,3.20685302734375,0.10334351576236075,2.3403661712028083,-17.9084214972198,0.0758822113275528,-0.00210917042568326,0.17405393719673157
1772376837769802000,3.216802001953125,0.11736306322393938,2.048951760186255,-16.1143239112854,0.5134401321411133,0.13564099371433258,0.3247815668582916
1772376837779751400,3.22675146484375,-0.22937908459780737,1.734852785283327,-13.844424338102339,0.8884273171424866,0.26761820912361145,0.421878844499588
1772376837789699000,3.236698974609375,-0.7325074884556233,1.2808544874332843,-11.456259620022774,1.2338581085205078,0.408523291349411,0.4782392680644989
1772376837799648300,3.246648193359375,-1.1011540461041032,0.7432336843270808,-9.183392429205774,1.5757111310958862,0.5196530222892761,0.4991424083709717
1772376837809597200,3.25659716796875,-1.350973733320087,0.4689875579934567,-6.844149270683527,1.912830114364624,0.543501615524292,0.5045348405838013
1772376837819546000,3.266546142578125,-1.4365595745384692,0.41944530925452705,-4.455011323657631,2.2188689708709717,0.47999563813209534,0.5063982605934143
1772376837829494300,3.276494384765625,-1.4261900100849567,0.46906003870777785,-1.9842589232623575,2.479733943939209,0.3693888187408447,0.488669753074646
1772376837839443200,3.286443115234375,-1.459626269610226,0.5835196173088625,0.3922732246905565,2.668027400970459,0.282099187374115,0.44187694787979126
1772376837849392000,3.29639208984375,-1.5232641906537114,0.7542388432703911,2.5836545569539067,2.7849104404449463,0.24175307154655457,0.3797323405742645
1772376837859341000,3.306341064453125,-1.5518874969393015,1.019750970463082,4.549243266537785,2.828294038772583,0.23918525874614716,0.3155333995819092
1772376837869290200,3.316290283203125,-1.5206893717296421,1.339818571446836,6.434035268875956,2.77856183052063,0.3088499903678894,0.23899255692958832
1772376837879238100,3.326238037109375,-1.446692553757131,1.6212435033686459,8.182776294258236,2.6389644145965576,0.3992323577404022,0.14902564883232117
1772376837889187000,3.33618701171875,-1.3837813395529985,1.8297106049768626,9.778308871656655,2.4451286792755127,0.46908578276634216,0.03645400330424309
1772376837899136000,3.346135986328125,-1.2934051953181624,1.9637851672932505,11.132747796869277,2.189324140548706,0.49253275990486145,-0.10686799883842468
1772376837909085200,3.356085205078125,-1.2266489961236715,2.114280849187076,12.304531814861297,1.8790981769561768,0.49730584025382996,-0.25386372208595276
1772376837919033300,3.366033447265625,-1.0536506827816368,2.2511275065653025,13.34547645306587,1.5013319253921509,0.4895414113998413,-0.39056938886642456
1772376837928982300,3.375982177734375,-0.7498273104384541,2.409110475474596,14.231387181425093,1.0619490146636963,0.4698890745639801,-0.5151734948158264
1772376837938931200,3.38593115234375,-0.4749336799815297,2.5703911707550287,14.864073674821853,0.5966731905937195,0.39733046293258667,-0.6110143065452576
1772376837948880100,3.395880126953125,-0.14658113879859447,2.7679171916320917,15.211260972595214,0.09457039088010788,0.2699316442012787,-0.679367184638977
1772376837958828300,3.405828369140625,0.17032186067439614,2.9416169312417506,15.273925226300953,-0.47087544202804565,0.14145700633525848,-0.7135669589042664
1772376837968777200,3.415777099609375,0.42742271787449715,3.033521600218117,15.141913295602798,-1.0884923934936523,0.03628210350871086,-0.7094554305076599
1772376837978726100,3.42572607421875,0.6769223062906414,3.070969287341833,14.45029062911272,-1.6717352867126465,-0.07303612679243088,-0.6533671021461487
1772376837988675000,3.435675048828125,1.0652800380378962,3.036203386647999,12.953612978219985,-2.1493120193481445,-0.24097685515880585,-0.520322859287262
1772376837998623200,3.445623291015625,1.588235113866627,2.804471144786477,10.801003567421436,-2.509716272354126,-0.4443283975124359,-0.32734304666519165
1772376838008572200,3.455572265625,2.0063025588966905,2.4459238102175296,8.205595444309711,-2.7260384559631348,-0.6735473275184631,-0.09479451179504395
1772376838018521000,3.46552099609375,2.2994337107032536,2.0050440832681953,5.076594239237904,-2.7628111839294434,-0.8023434281349182,0.15586541593074799
1772376838028470300,3.47547021484375,2.4420086826004086,1.4657454831428824,1.570413333711028,-2.6526286602020264,-0.8614588379859924,0.38923364877700806
1772376838038418200,3.485418212890625,2.322696805129945,0.7637692534860223,-1.8623621438652276,-2.411311388015747,-0.8858400583267212,0.5565310120582581
1772376838048367400,3.495367431640625,1.8130163675464688,-0.06268792684227228,-5.150347457712888,-2.066690444946289,-0.8593832850456238,0.6297289133071899
1772376838058316000,3.50531591796875,0.8701536987137048,-0.7654089835170655,-8.038667098531127,-1.7018617391586304,-0.8159908056259155,0.575118362903595
1772376838068265200,3.51526513671875,-0.2789341928183101,-1.2040294602975248,-10.10257122091651,-1.4077839851379395,-0.8032814264297485,0.3869740962982178
1772376838078213000,3.525213134765625,-1.3365426185160874,-1.5039723379455505,-11.300727697527408,-1.286200761795044,-0.8189716935157776,0.10517489910125732
1772376838088162300,3.535162353515625,-2.1255640213541684,-1.5615176412023604,-11.82881984398365,-1.3468526601791382,-0.7743327021598816,-0.18242159485816956
1772376838098111200,3.545111328125,-2.4264698988154527,-1.0094130432568489,-12.157460262197255,-1.4800500869750977,-0.6160573363304138,-0.39428484439849854
1772376838108060200,3.55506005859375,-2.0929668430015442,-0.15007167519493958,-12.951948259878158,-1.4906196594238281,-0.41241714358329773,-0.4719868302345276
1772376838118009000,3.565009033203125,-1.0626498356647789,0.49988154915738847,-14.400541971081495,-1.2843999862670898,-0.23018978536128998,-0.40014272928237915
1772376838127957000,3.57495703125,0.23373181818090377,0.808811998848617,-15.869806714391707,-0.8924612402915955,-0.0749378651380539,-0.21204838156700134
1772376838137906200,3.58490625,1.2521836887441575,0.8131395066589117,-16.5508471965909,-0.42695242166519165,0.022540487349033356,0.021533474326133728
1772376838147855000,3.594855224609375,1.49211662658751,0.6433863857831805,-15.989729563367366,-0.015391236171126366,0.09456907212734222,0.2164389044046402
1772376838157804000,3.604803955078125,0.9677348058912902,0.443321969002299,-14.397225393879413,0.3183116316795349,0.14801125228405,0.3073858320713043
1772376838167752000,3.614751953125,0.05528973831578623,0.17734598715752362,-12.356913159483671,0.596842348575592,0.21100977063179016,0.3145080804824829
1772376838177701000,3.624701171875,-0.7614698174372315,-0.10067476234398781,-10.18183122011423,0.8365739583969116,0.31332042813301086,0.2714735269546509
1772376838187650300,3.634650390625,-1.2599597295731306,-0.2890763599904254,-7.989659614256024,1.062729835510254,0.40985074639320374,0.21820709109306335
1772376838197599200,3.64459912109375,-1.4623172622598706,-0.3563531855255365,-5.748538976311683,1.2646291255950928,0.4592483937740326,0.17167021334171295
1772376838207547100,3.654547119140625,-1.381630006738007,-0.3494050468880683,-3.4106080694317815,1.438939094543457,0.42679548263549805,0.1475352793931961
1772376838217496000,3.66449609375,-1.126307045930624,-0.2911543718408793,-1.1026093594789503,1.572585105895996,0.31409183144569397,0.13833965361118317
1772376838227445200,3.6744453125,-0.847582239812985,-0.25346239109989255,0.9516419684201478,1.6743899583816528,0.18029525876045227,0.13241036236286163
1772376838237394200,3.684394287109375,-0.7151307486537843,-0.19465338805019855,2.7048545862585303,1.7368924617767334,0.06224292144179344,0.11940428614616394
1772376838247342000,3.694342041015625,-0.6587499591317028,-0.030926980118080972,4.230196021577716,1.7560979127883911,0.009787280112504959,0.10383345186710358
1772376838257291000,3.704291015625,-0.6586305705357343,0.16442023541517556,5.586523537015915,1.729438066482544,0.028951121494174004,0.08656658232212067
1772376838267240000,3.714239990234375,-0.6372309318933636,0.33590785193331535,6.816732271447777,1.652533769607544,0.09326976537704468,0.0731029286980629
1772376838277189000,3.724189208984375,-0.5738444283276796,0.5095250278260559,7.973812641304731,1.522294282913208,0.1900293380022049,0.055935125797986984
1772376838287137000,3.734136962890625,-0.5216985729616135,0.6845743554137647,9.051389850857854,1.344180703163147,0.25183776021003723,0.04090898111462593
1772376838297086000,3.7440859375,-0.4028753923235461,0.8304102288030087,10.04773956053257,1.1301565170288086,0.2806643545627594,0.014334362000226974
1772376838307035100,3.75403515625,-0.4024879273759201,0.9556292844906449,10.87602578291893,0.871134877204895,0.27319979667663574,-0.03049464151263237
1772376838316984000,3.763984130859375,-0.48563897919543086,1.1965478723704814,11.52206275627613,0.5667843222618103,0.25274938344955444,-0.07492256164550781
1772376838326933200,3.773933349609375,-0.521272456504032,1.5256743205353618,11.929185759574175,0.23928818106651306,0.24822072684764862,-0.11386731266975403
1772376838336881200,3.783881103515625,-0.4128445958152413,1.75414054633826,11.976011808156967,-0.09778650850057602,0.24924205243587494,-0.1271492838859558
1772376838346830000,3.793830078125,-0.19102332445215434,1.8034128190293908,11.728052946376799,-0.41736024618148804,0.22125746309757233,-0.11576718091964722
1772376838356779000,3.803779052734375,-0.02500274116825312,1.8631179306685923,11.191109969466924,-0.7306899428367615,0.1468740552663803,-0.09653542935848236
1772376838366728200,3.813728271484375,0.16560498822033404,1.9020767530076204,10.45477722363472,-1.0177456140518188,0.016607210040092468,-0.06900769472122192
1772376838376676000,3.823676025390625,0.4039794445753097,1.7913672841876744,9.412951710942387,-1.2844455242156982,-0.17467673122882843,-0.0331205315887928
1772376838386625000,3.833625,0.6823524415805935,1.575210212598741,7.974867118793726,-1.4803106784820557,-0.4075639247894287,0.007946532219648361
1772376838396574000,3.843573974609375,0.9590595512002706,1.3401771756261587,5.9955444828897715,-1.5620967149734497,-0.6087005138397217,0.06377118080854416
1772376838406523000,3.85352294921875,1.1241758791208267,1.006843192768842,3.601884090003371,-1.5494366884231567,-0.7593066096305847,0.10292215645313263
1772376838416471000,3.863470947265625,1.0485605931010096,0.5175294705834239,1.2522072157502173,-1.5528959035873413,-0.8649837374687195,0.10254105925559998
1772376838426420200,3.873420166015625,0.6199064337354153,0.09862520940303802,-0.7351297997832298,-1.6421613693237305,-0.9388945698738098,0.04575654864311218
1772376838436369200,3.883369140625,0.02466773934351513,-0.08964286152422428,-2.5459973187327383,-1.766821265220642,-0.9720237255096436,-0.06446769088506699
1772376838446318000,3.893318115234375,-0.5895929093405604,-0.1381072336322628,-4.745655480954051,-1.828294277191162,-0.9847609996795654,-0.21195563673973083
1772376838456266200,3.903266357421875,-1.0489890476461499,0.08060569645194336,-7.436178174999355,-1.7439393997192383,-0.9794727563858032,-0.36008918285369873
1772376838466215200,3.913215087890625,-1.1815371310476213,0.47818464460149407,-10.360643480432033,-1.4907150268554688,-0.9111836552619934,-0.44449320435523987
1772376838476164000,3.9231640625,-0.8833479651991277,0.85826182006374,-13.053107956194877,-1.1112406253814697,-0.7168322801589966,-0.42680659890174866
1772376838486113000,3.933113037109375,-0.40727815732713785,1.1952793137393891,-14.988072979456186,-0.6863927841186523,-0.4762006998062134,-0.3439286947250366
1772376838496061200,3.943061279296875,-0.12011453562285751,1.4177633963927625,-15.834415083014964,-0.28853702545166016,-0.2784940004348755,-0.23170524835586548
1772376838506010000,3.953010009765625,-0.06683887250926346,1.5370543772056697,-15.545004266905783,0.014348813332617283,-0.13822560012340546,-0.13630016148090363
1772376838515959000,3.962958984375,-0.1960937961168587,1.448800047430396,-14.418444707518816,0.2628142833709717,-0.02005261555314064,-0.05941229313611984
1772376838525908000,3.972907958984375,-0.4032474039737135,1.1807442271042614,-13.15168406575918,0.5203499794006348,0.0840018019080162,0.0035102383699268103
1772376838535856000,3.982856201171875,-0.7083243565745652,0.8479105219192803,-11.862013673055172,0.7653570175170898,0.2163718193769455,0.026370545849204063
1772376838545805300,3.992805419921875,-1.0181059797350316,0.4768101048452779,-10.340091690790652,1.018090844154358,0.34091755747795105,0.017914099618792534
1772376838555754200,4.002754150390625,-1.263410308418423,0.23301778816003352,-8.640942087051272,1.2933108806610107,0.4260156750679016,0.001244575367309153
1772376838565703200,4.012703125,-1.3322341076672077,0.1253835346675012,-6.866759746420383,1.5759179592132568,0.4640141725540161,-0.015387749299407005
1772376838575651000,4.022651123046875,-1.2486055379964411,0.08376169453114271,-4.885331662669778,1.834343671798706,0.44770658016204834,-0.0260624960064888
1772376838585600300,4.032600341796875,-1.1257607371594756,0.15275036548543722,-2.8008541233330964,2.0570390224456787,0.3755559027194977,-0.045647021383047104
1772376838595549200,4.042549072265625,-0.9879898045431822,0.3243402368016541,-0.7792705548048019,2.247154951095581,0.28959041833877563,-0.06033994257450104
1772376838605498000,4.052498046875,-0.8512172353144735,0.6043470455538481,1.0565139632582663,2.3941643238067627,0.24400532245635986,-0.06932082772254944
1772376838615446000,4.062446044921875,-0.6495968577958643,0.9207501326806843,2.695502820545435,2.498338222503662,0.254083514213562,-0.05980242043733597
1772376838625395000,4.07239501953125,-0.4689586241599172,1.2374328404664992,4.22979562408328,2.54561710357666,0.30568647384643555,-0.035088539123535156
1772376838635344100,4.08234423828125,-0.2310474196688272,1.5435707733623683,5.753643605974316,2.5359745025634766,0.37265458703041077,-0.0020778581965714693
1772376838645293000,4.09229296875,-0.02228044006489217,1.7262933389917015,7.18003016154468,2.4764835834503174,0.41307616233825684,0.024343419820070267
1772376838655241000,4.102240966796875,0.1269116301507689,1.8536036678701637,8.485621176958084,2.3671367168426514,0.40843161940574646,0.02941860444843769
1772376838665190000,4.11218994140625,0.19929741446375845,1.9241689039587972,9.715165894523263,2.200655698776245,0.3785254657268524,0.012397066690027714
1772376838675139000,4.12213916015625,0.2062223731550388,1.9677704375371337,10.793858371841907,1.9452083110809326,0.36441364884376526,-0.022160110995173454
1772376838685088300,4.132088134765625,0.22259428329588843,1.9649054034948348,11.835972053825854,1.5891845226287842,0.3843069076538086,-0.0784769132733345
1772376838695037200,4.142037109375,0.10802265002191998,2.086791076976061,12.822081524515152,1.1353142261505127,0.4321841597557068,-0.15803059935569763
1772376838704985000,4.151985107421875,-0.04748032950675115,2.285699199861288,13.637996925628185,0.6098153591156006,0.4557003378868103,-0.2623957693576813
1772376838714934000,4.16193408203125,-0.16913111651986837,2.4440824201345444,14.142334102487563,0.022809943184256554,0.42194318771362305,-0.3788861632347107
1772376838724883200,4.17188330078125,-0.17620054344944655,2.5654940463632343,14.364047931420803,-0.6024648547172546,0.36782482266426086,-0.48795512318611145
1772376838734832000,4.18183203125,-0.0819979910605587,2.6953409079819917,14.12452722764015,-1.2081875801086426,0.3023768365383148,-0.5653780102729797
1772376838744780000,4.191780029296875,0.11286456449460237,2.794096758027375,13.250135087639093,-1.767956018447876,0.2039833664894104,-0.6022610068321228
1772376838754729000,4.20172900390625,0.40336313930787143,2.7531434008702633,11.965868015283345,-2.2747206687927246,0.053023938089609146,-0.5999427437782288
1772376838764678000,4.211677978515625,0.7752262478500604,2.5869857472032307,10.314421827483176,-2.6758322715759277,-0.13829368352890015,-0.5452762246131897
1772376838774627300,4.22162744140625,1.2541609801664948,2.2180916445344687,8.157845266619324,-2.9327924251556396,-0.40788283944129944,-0.43503281474113464
1772376838784575000,4.231574951171875,1.8731214382886885,1.5930251246221363,5.497078243890404,-3.024077892303467,-0.6832284331321716,-0.2804381549358368
1772376838794524200,4.241524169921875,2.395426525776088,0.8449557637669145,2.361860648521781,-2.9286811351776123,-0.9032611846923828,-0.10221727937459946
1772376838804473000,4.25147314453125,2.59452140340507,0.2373511046566069,-1.03024788762331,-2.6854846477508545,-1.0030080080032349,0.07064547389745712
1772376838814422000,4.261422119140625,2.36574669617489,-0.2024409001212567,-4.351193221786618,-2.360869884490967,-0.9718458652496338,0.19622230529785156
1772376838824370200,4.2713701171875,1.6360072111278772,-0.675873089498654,-7.200599486842751,-2.0624382495880127,-0.8870306015014648,0.21354670822620392
1772376838834319000,4.281319091796875,0.5612178421949967,-1.2054436379443854,-9.34847193224728,-1.857192039489746,-0.7808961868286133,0.10761282593011856
1772376838844268000,4.29126806640625,-0.6435645188290625,-1.4860603952884672,-10.905289286804198,-1.7646032571792603,-0.6519656181335449,-0.09790873527526855
1772376838854217000,4.301217041015625,-1.649306837683916,-1.2625417088903486,-12.138810506784916,-1.7262942790985107,-0.5540769100189209,-0.34208598732948303
1772376838864165000,4.3111650390625,-2.1577064416766167,-0.6847826644022017,-13.34447107541561,-1.6731748580932617,-0.472220778465271,-0.5664274096488953
1772376838874114000,4.321114013671875,-1.976127493124455,-0.02202423681411892,-14.775385337543486,-1.5417203903198242,-0.3512592017650604,-0.6876335144042969
1772376838884063000,4.33106298828125,-1.2462205425560473,0.4116819817766547,-16.040568939244746,-1.4404404163360596,-0.2854800224304199,-0.6388489603996277
1772376838894012200,4.34101220703125,-0.3776159729804843,0.7690890602692961,-16.19477984226942,-1.3168103694915771,-0.06621770560741425,-0.5269911289215088
1772376838903960000,4.3509599609375,0.04928275755252689,1.4432131872087717,-15.70642817004919,-0.9973424077033997,0.31289437413215637,-0.48459088802337646
1772376838913910300,4.36091015625,-0.4838849386023357,1.9733175502702593,-15.739466516298055,-0.5789587497711182,0.5813796520233154,-0.32199186086654663
1772376838923859200,4.370859130859375,-0.226484039009735,1.9912273009702561,-14.994583384263514,-0.1326557993888855,0.8564278483390808,-0.10800541192293167
1772376838933808000,4.38080810546875,-0.10891730643985792,1.6921821028143167,-13.26006026932597,0.30668455362319946,1.0292671918869019,0.03252453729510307
1772376838943757000,4.390757080078125,-0.5102375600095838,1.3088301434651017,-10.894497843676804,0.7417265176773071,1.0657895803451538,0.1010286808013916
1772376838953705000,4.400705078125,-0.9130614778742193,0.7955108379226178,-8.141686158978938,1.1501352787017822,0.9874188303947449,0.10827594250440598
1772376838963654100,4.410654052734375,-1.1567539874467998,0.4336837144980207,-5.33755403688848,1.511025071144104,0.8498281836509705,0.09773115813732147
1772376838973603000,4.42060302734375,-1.0728398057676851,0.439818125599809,-2.673122646433115,1.818876028060913,0.7074077129364014,0.09492950886487961
1772376838983552300,4.43055224609375,-0.854388924153149,0.42435595071502025,-0.2541892806023359,2.07487416267395,0.5826127529144287,0.10257527232170105
1772376838993500000,4.4405,-0.7754771538712084,0.35283889379426836,1.993351745778322,2.250972032546997,0.47798672318458557,0.10166287422180176
1772376839003449000,4.450448974609375,-0.6938187882948667,0.4849084364311769,4.118945139357447,2.351560592651367,0.41816526651382446,0.12020885199308395
1772376839013398300,4.460398193359375,-0.5295567025834694,0.6834120336361229,6.139927234861254,2.3838202953338623,0.35690537095069885,0.16667701303958893
1772376839023347200,4.47034716796875,-0.3739797719025984,0.9317887555021792,7.963585261800885,2.348304510116577,0.27446696162223816,0.20317518711090088
1772376839033295000,4.480295166015625,-0.3000566036881879,1.0620387180291115,9.631643561705946,2.21366024017334,0.19854556024074554,0.20595286786556244
1772376839043244000,4.490244140625,-0.3697476142255589,1.0014745053425431,11.03688269982934,2.022179126739502,0.1369004100561142,0.16851268708705902
1772376839053193200,4.500193115234375,-0.5121439781527966,1.059060432870686,12.120204005992411,1.7944227457046509,0.09967288374900818,0.10987574607133865
1772376839063142100,4.51014208984375,-0.6434498794734478,1.3078912551797925,12.989633555150032,1.5160282850265503,0.05302055925130844,0.045314814895391464
1772376839073090000,4.520090087890625,-0.6709720926493405,1.6657681431412696,13.790007688260078,1.1592110395431519,0.016529658809304237,-0.025006748735904694
1772376839083039000,4.5300390625,-0.5652392431981861,2.0278120876543224,14.428312606060505,0.7492275834083557,-0.03409479185938835,-0.0896572396159172
1772376839092988000,4.53998779296875,-0.37946382933687417,2.291007097011059,14.720264923346042,0.31109607219696045,-0.14456883072853088,-0.1371949464082718
1772376839102937000,4.54993701171875,-0.13342771578021348,2.605432381258905,14.55219617536068,-0.12481386214494705,-0.2498539835214615,-0.1429135501384735
1772376839112886300,4.55988623046875,0.03919098712708801,2.92003930568397,13.881529787659645,-0.5283597111701965,-0.3049832880496979,-0.11715997010469437
1772376839122834200,4.569834228515625,0.21827435600385067,3.0850223626136777,12.672085024315118,-0.8623318672180176,-0.38455337285995483,-0.08555503934621811
1772376839132783000,4.579783203125,0.30693945853710175,2.8866864866584536,11.159219624209403,-1.1613818407058716,-0.5298383831977844,-0.039000313729047775
1772376839142732000,4.58973193359375,0.3537896186478436,2.6465561265468596,9.517268994507193,-1.4615675210952759,-0.7104891538619995,0.006178711540997028
1772376839152681200,4.59968115234375,0.3230326978670433,2.328829754927009,7.537376449760794,-1.702438235282898,-0.8755385279655457,0.03739868476986885
1772376839162629000,4.609629150390625,0.27914405444301665,1.684584341161698,4.932353526085615,-1.8426134586334229,-0.9576861262321472,0.04916691035032272
1772376839172578000,4.619578125,0.16261261973762883,0.6609587942875922,1.812612316790223,-1.8753114938735962,-0.8628136515617371,0.05005480721592903
1772376839182527000,4.62952685546875,0.06346292980276048,-0.5610964443050325,-1.4622960733413695,-1.8099701404571533,-0.6924603581428528,0.059460125863552094
1772376839192476200,4.63947607421875,0.2308661996167153,-1.7412930474638937,-4.492610694211721,-1.6495641469955444,-0.5194747447967529,0.08253801614046097
1772376839202424000,4.649424072265625,0.40487529743649064,-2.666794904716313,-7.118658870258927,-1.489800214767456,-0.4560328423976898,0.09845012426376343
1772376839212373000,4.659373046875,0.24719648083923382,-3.1149390697106716,-8.928221151828765,-1.4459481239318848,-0.522546112537384,0.06205695867538452
1772376839222322000,4.669322021484375,-0.3372585358899087,-3.145427439215779,-9.933259779393673,-1.551945447921753,-0.6301663517951965,-0.050882793962955475
1772376839232271000,4.67927099609375,-1.4242168103158472,-2.746250718747079,-10.968581317019462,-1.7748126983642578,-0.6913133263587952,-0.25401806831359863
1772376839242219300,4.68921923828125,-2.7512629939511415,-1.6896445471607147,-12.200811912667751,-2.0011916160583496,-0.64799964427948,-0.46934080123901367
1772376839252168200,4.699168212890625,-3.3639515321969986,-0.1911811818949878,-14.065927739155292,-1.9754136800765991,-0.4774331748485565,-0.589009165763855
1772376839262117000,4.7091171875,-3.018383360058069,0.983997227775678,-16.89667489644885,-1.5907700061798096,-0.22661179304122925,-0.5466967821121216
1772376839272066000,4.719066162109375,-2.1713085583105682,1.776713466543704,-19.384756617307662,-0.9519962072372437,0.07182016223669052,-0.38341009616851807
1772376839282014200,4.72901416015625,-1.4029080648273229,2.1243194281205535,-20.405799454212186,-0.20884431898593903,0.3227493464946747,-0.17948193848133087
1772376839291963100,4.738963134765625,-0.9163845578823238,2.002398391065001,-19.514574252831935,0.46710535883903503,0.47151777148246765,-0.0167582668364048
1772376839301912000,4.748912109375,-0.8837278313621878,1.5065490565657615,-16.767465163689852,1.0281034708023071,0.5100454092025757,0.05430252477526665
1772376839311861000,4.758861083984375,-1.0827250938355921,0.9772709151953458,-13.316895670747757,1.4827696084976196,0.4627300798892975,0.042432550340890884
1772376839321809200,4.76880908203125,-1.3453566240906714,0.5570500184584408,-9.767117615556716,1.8270595073699951,0.40710410475730896,-0.03840174898505211
1772376839331758000,4.778758056640625,-1.4570175484165548,0.20542548715630546,-6.3005655405849215,2.053147077560425,0.33097127079963684,-0.13981492817401886
1772376839341707000,4.78870703125,-1.2646660075679421,-0.028162419908726585,-2.990450812515616,2.16070818901062,0.25886648893356323,-0.23185592889785767
1772376839351656200,4.79865625,-0.9001130028434097,-0.12887407106384635,-0.1402268013358116,2.2084734439849854,0.21168062090873718,-0.295263409614563
1772376839361604000,4.80860400390625,-0.6706848001405596,-0.13145586771797388,2.1496984917879103,2.2061104774475098,0.28346720337867737,-0.33336180448532104
1772376839371553300,4.81855322265625,-0.19589913206128404,0.05284399369806051,3.99545846042037,2.166919708251953,0.46595659852027893,-0.2689804136753082
1772376839381502200,4.828502197265625,0.5610620305787771,0.32706659302562474,5.680294876646995,2.0884499549865723,0.6169320940971375,-0.16238899528980255
1772376839391451100,4.838451171875,0.8409406829066574,0.6294201850771903,7.397050279703736,1.9667471647262573,0.7186341881752014,-0.09782785177230835
1772376839401399000,4.84839892578125,0.7858112816851586,0.877530145765841,8.920366346675157,1.7670952081680298,0.7747098803520203,-0.08394264429807663
1772376839411348200,4.85834814453125,0.6308981486752628,1.0726695637673138,10.395530084896087,1.5142195224761963,0.8136674165725708,-0.09565097093582153
1772376839421297200,4.868297119140625,0.4935711604341864,1.350590433090925,11.588759041976928,1.2371166944503784,0.8528296947479248,-0.12448258697986603
1772376839431246000,4.87824609375,0.26881653903294356,1.7191221321880816,12.46224984922409,0.955562949180603,0.8536704182624817,-0.17060907185077667
1772376839441194000,4.888194091796875,0.14058536898251622,2.063687264764309,13.091097202849387,0.6904066205024719,0.810899555683136,-0.21420307457447052
1772376839451143000,4.898142822265625,0.0996336192606017,2.300531442812085,13.492474355971812,0.445963591337204,0.7048631310462952,-0.24111270904541016
1772376839461092000,4.908092041015625,0.12404361870009452,2.557432612721622,13.72633338072896,0.2192002236843109,0.5189521312713623,-0.2468092143535614
1772376839471041300,4.918041259765625,0.19120043458472935,2.7993612544268367,13.838657445138692,-0.02322891540825367,0.3606546223163605,-0.2406003177165985
1772376839480989000,4.927989013671875,0.21647848556302487,2.8948037421405313,13.839981971740722,-0.2860672175884247,0.2410397082567215,-0.223418191075325
1772376839490938000,4.937938232421875,0.2085409705620259,2.921277907568216,13.662795851320027,-0.5739304423332214,0.15674693882465363,-0.20995616912841797
1772376839500887000,4.947886962890625,0.1385638730922714,2.982269259625673,13.316872289872169,-0.8817641139030457,0.10921315848827362,-0.2001378834247589
1772376839510836200,4.957836181640625,0.007324095810391009,2.99685951051414,12.849323751705883,-1.230973482131958,0.06334606558084488,-0.18135620653629303
1772376839520784100,4.9677841796875,0.00800257959384471,2.9334017683431504,12.313729851317404,-1.604038119316101,0.005003778263926506,-0.1489274650812149
1772376839530733000,4.977733154296875,0.0994730218714103,2.6972429422110316,11.559355252838134,-1.9709612131118774,-0.12267801910638809,-0.10910335183143616
1772376839540682000,4.987681884765625,0.21500322537869213,2.206019660077244,10.437288328695297,-2.3486666679382324,-0.3664924204349518,-0.06612103432416916
1772376839550631200,4.997631103515625,0.3908603256853297,1.4815981551825999,9.020262306666373,-2.7453222274780273,-0.690416157245636,-0.027118511497974396
1772376839560580000,5.007580078125,0.5275770365409552,0.8530457659158855,7.248584057810902,-3.1053993701934814,-0.9174528121948242,0.0217118076980114
1772376839570528000,5.017528076171875,0.9178619369585066,0.46371480522230263,4.21735582922697,-3.328343391418457,-1.1087771654129028,0.05831802263855934
1772376839580477000,5.027476806640625,0.8208920204818249,-0.3145313019055873,0.777882899838686,-3.351365327835083,-1.2186329364776611,0.08155953884124756
1772376839590426000,5.037426025390625,0.6700516898687928,-0.6959438906900585,-3.124060241538286,-3.2131009101867676,-1.3135615587234497,0.0652623325586319
1772376839600375300,5.047375244140625,0.3130491005238145,-0.6911351021688431,-6.758060302248596,-3.0561683177948,-1.4718140363693237,0.025005409494042397
1772376839610323200,5.0573232421875,-0.10636442535296081,-0.34410715967565775,-9.409375021499395,-2.9519596099853516,-1.7041462659835815,-0.06336546689271927
1772376839620272000,5.067272216796875,-0.8184401703502983,0.5919252247456461,-11.54339780524969,-2.9223461151123047,-1.84359872341156,-0.20279906690120697
1772376839630221000,5.077220947265625,-1.6546737715445459,1.8658590460702775,-13.745543108111619,-2.819260835647583,-1.8173068761825562,-0.2945367097854614
1772376839640170000,5.087169921875,-2.185666900139302,3.3081580410435794,-16.433762785911558,-2.599484920501709,-1.6042178869247437,-0.2782445251941681
1772376839650118100,5.0971181640625,-2.270575572748482,4.750646128848195,-18.870675460547208,-2.2292404174804688,-1.1675522327423096,-0.15711811184883118
1772376839660067000,5.107067138671875,-2.066465058914572,5.42817421901226,-21.03377937735319,-1.719717264175415,-0.5799514651298523,0.061800286173820496
1772376839670016000,5.11701611328125,-1.840811114053428,5.482790775340796,-22.369879512798786,-1.0701565742492676,0.023078985512256622,0.31503790616989136
1772376839679965000,5.12696484375,-1.6894593998521565,5.679320478656888,-22.376723095083236,-0.26026034355163574,0.4328431785106659,0.523919403553009
1772376839689913000,5.1369130859375,-1.7424514237187803,5.717654008704423,-21.240548150610923,0.5015315413475037,0.545247495174408,0.7349669337272644
1772376839699862000,5.146862060546875,-1.1664495250962674,4.518090295644104,-18.72225132423043,1.2187786102294922,0.445649117231369,0.8858950734138489
1772376839709811200,5.156811279296875,-0.9291668095007538,3.1939041776150465,-15.746713418686388,1.911856770515442,0.2644372284412384,0.9278692007064819
1772376839719760100,5.166760009765625,-1.559421107314527,2.3848795589290557,-12.6679033547163,2.5094399452209473,0.14203128218650818,0.8823958039283752
1772376839729708300,5.176708251953125,-2.0798248912252486,1.6442356718994675,-9.335356430086494,2.992854595184326,0.09957784414291382,0.7803059220314026
1772376839739657200,5.1866572265625,-2.3242593782715497,0.9980253878019749,-5.9836558921754355,3.3489410877227783,0.08944051712751389,0.6542598605155945
1772376839749606100,5.196606201171875,-2.322559150224924,0.5580304077979177,-2.663735809406638,3.568988800048828,0.10115496814250946,0.5218967199325562
1772376839759555000,5.20655517578125,-2.088078924829513,0.30821305866949256,0.4304401659995317,3.6562485694885254,0.15681175887584686,0.42393729090690613
1772376839769503200,5.216503173828125,-1.6330669198922811,0.20318390050828455,3.264573458600044,3.636704683303833,0.2371092587709427,0.3665879964828491
1772376839779452200,5.2264521484375,-1.1945626899026334,0.24136985704498365,5.671346431037783,3.5378522872924805,0.3024570345878601,0.32906869053840637
1772376839789401000,5.236401123046875,-0.8807596292063593,0.3357912398163229,7.71758104121983,3.3638765811920166,0.34239140152931213,0.28252407908439636
1772376839799350000,5.24635009765625,-0.6085327702732757,0.38790253532566127,9.498206566640734,3.131538152694702,0.3710332214832306,0.21611574292182922
1772376839809298000,5.2562978515625,-0.4116604640645906,0.40196642425246537,10.913040047061443,2.862950563430786,0.38531017303466797,0.11831355094909668
1772376839819247000,5.2662470703125,-0.2767494874566793,0.4931083652280271,11.966757657599448,2.602621078491211,0.4050556421279907,-0.024626830592751503
1772376839829196300,5.2761962890625,-0.1409504394352436,0.5535100808292627,12.646481796503066,2.3290395736694336,0.41269516944885254,-0.17619770765304565
1772376839839145200,5.286145263671875,0.08773903719689696,0.6286214359149337,13.158761456799507,2.0601346492767334,0.4302126169204712,-0.3270324170589447
1772376839849093000,5.296093017578125,0.33361448029913005,0.7489461436897515,13.42524498630762,1.7716833353042603,0.47144556045532227,-0.48427608609199524
1772376839859042000,5.3060419921875,0.4379876587696373,1.1297260605938733,13.67455876982808,1.4715300798416138,0.4971157908439636,-0.640317976474762
1772376839868991200,5.3159912109375,0.6227968944799155,1.6659934763297437,13.89464879695177,1.137807011604309,0.5037907361984253,-0.772132158279419
1772376839878940200,5.325940185546875,0.859448837891221,2.02339178699404,13.96965815296769,0.7507112622261047,0.4488290548324585,-0.8573421239852905
1772376839888888000,5.33588818359375,1.2075436058983207,2.3378639791235325,13.930918380206823,0.3259895443916321,0.2622831463813782,-0.8701716661453247
1772376839898837000,5.3458369140625,1.6522067969091236,2.791594712078571,13.872093266272545,-0.13435913622379303,-0.07510983198881149,-0.8082464933395386
1772376839908786200,5.3557861328125,2.153917570787668,3.0631741034209727,13.669475767475365,-0.7116008996963501,-0.4443637430667877,-0.7120230197906494
1772376839918735000,5.365735107421875,2.3622728825844823,2.686367620192468,13.101457268822193,-1.347869634628296,-0.7420920133590698,-0.6446223258972168
1772376839928683000,5.37568310546875,2.0439659345977006,1.981522922427207,11.473174514466523,-1.8441286087036133,-0.972947895526886,-0.6237673759460449
1772376839938632000,5.3856318359375,1.574193729032576,1.4511032098062335,8.124614612668752,-1.9694539308547974,-1.3575212955474854,-0.6668440699577332
1772376839948580900,5.395580810546875,0.754780475866422,0.8429431087702512,3.1508582320928573,-1.761155605316162,-1.5221331119537354,-0.798060953617096
1772376839958530300,5.4055302734375,-0.32434356126990166,0.44793665972352026,-1.3226836045116186,-1.361890435218811,-1.465857982635498,-0.9505845308303833
1772376839968478200,5.415478271484375,-0.987243881546706,0.33402328029572964,-5.432717707660794,-0.9857989549636841,-1.2961493730545044,-1.098940134048462
1772376839978427100,5.42542724609375,-1.96788909548074,0.3525657759413123,-8.24959474503398,-0.756511926651001,-1.0961575508117676,-1.2091021537780762
1772376839988376000,5.4353759765625,-2.532418290713429,0.6843313404381275,-9.840692554855346,-0.7839997410774231,-0.9523068070411682,-1.2589563131332397
1772376839998325000,5.445324951171875,-2.512157008451223,1.0077559967648237,-10.498041195821761,-0.9522971510887146,-0.8534887433052063,-1.2091647386550903
1772376840008273200,5.455273193359375,-1.9905342041395604,0.9855836201842874,-11.560975547516346,-1.0760613679885864,-0.6972700953483582,-1.0240992307662964
1772376840018222000,5.46522216796875,-1.110651065506786,0.6710679542392491,-13.334206871032714,-1.0629972219467163,-0.35520389676094055,-0.7408339977264404
1772376840028171000,5.4751708984375,-0.40476591877788304,0.2449256315641105,-15.130497583097219,-0.9436735510826111,0.11331431567668915,-0.42587581276893616
1772376840038120000,5.485119873046875,-0.16455935162492094,-0.11528189130201935,-15.943341906201839,-0.7691465020179749,0.5132260322570801,-0.15931884944438934
1772376840048068000,5.495068115234375,-0.4080805962838232,-0.46371612039655447,-15.646909813153743,-0.5588329434394836,0.7572149634361267,0.012082464061677456
1772376840058017500,5.505017578125,-0.87738496514149,-0.9300449075095355,-14.611625684928892,-0.30543556809425354,0.8156814575195312,0.08177890628576279
1772376840067966500,5.514966552734375,-1.422453015513718,-1.2966997068189083,-13.127053482371569,-0.010005246847867966,0.7107619643211365,0.044033121317625046
1772376840077915400,5.524915283203125,-1.9162338731758295,-1.5165543177515268,-11.512118869888782,0.33248817920684814,0.5246037244796753,-0.058571185916662216
1772376840087863600,5.534863525390625,-2.187985552345216,-1.6733745264917612,-9.828436299872397,0.6877778172492981,0.33716171979904175,-0.18031519651412964
1772376840097812500,5.5448125,-2.1840974588654936,-1.631145450310409,-8.027757581982016,1.0068250894546509,0.22729220986366272,-0.2763090133666992
1772376840107761400,5.554761474609375,-1.7990195525065062,-1.4647782455459237,-6.067959146237373,1.2642065286636353,0.178928405046463,-0.303562194108963
1772376840117710300,5.56471044921875,-1.1985369272958486,-1.1316910770565272,-3.9805554903209206,1.4534233808517456,0.17498159408569336,-0.2643643021583557
1772376840127658200,5.574658203125,-0.6062554729910568,-0.7083804706759751,-1.8162293382436037,1.5788804292678833,0.20503297448158264,-0.16474288702011108
1772376840137607400,5.584607421875,-0.03043726037237793,-0.2231574518702924,0.22859014444351194,1.6385266780853271,0.25013187527656555,-0.03823506459593773
1772376840147556600,5.594556640625,0.413884898648411,0.17640388400182128,2.1585276949316263,1.6381529569625854,0.2778990566730499,0.08049744367599487
1772376840157505500,5.604505615234375,0.6487623066678643,0.48286286554560065,3.897126096484065,1.614047646522522,0.2849362790584564,0.1720987856388092
1772376840167453400,5.614453369140625,0.6665146748490631,0.815766640292108,5.326759671151637,1.5726715326309204,0.2877139449119568,0.22067990899085999
1772376840177402600,5.624402587890625,0.5937369868753477,1.1202021531842647,6.5824839551120995,1.5235462188720703,0.2808831036090851,0.22899407148361206
1772376840187351600,5.6343515625,0.5032044099697843,1.4425436173841357,7.6420029454052445,1.4804235696792603,0.228109672665596,0.20069850981235504
1772376840197300500,5.644300537109375,0.4775021787626669,1.7358095014862716,8.611831143379211,1.3948301076889038,0.17066867649555206,0.13393369317054749
1772376840207248400,5.654248291015625,0.460743059402518,1.9390069921284914,9.559339957517384,1.2479761838912964,0.14236432313919067,0.04203972965478897
1772376840217197300,5.664197265625,0.5845590433591976,2.123620924462378,10.339935038924217,1.0636916160583496,0.13992901146411896,-0.04635240510106087
1772376840227146500,5.674146484375,0.8104379926152527,2.36487473564595,10.989315477490424,0.8308082222938538,0.13471800088882446,-0.11640286445617676
1772376840237095400,5.684095458984375,1.133911529584974,2.6339655250430107,11.437060414034127,0.5610654354095459,0.09665260463953018,-0.15310752391815186
1772376840247043300,5.694043212890625,1.5155308199226856,2.8938655845075845,11.68536180564165,0.22192440927028656,0.05229739099740982,-0.1454823613166809
1772376840256992300,5.7039921875,1.882920947769284,3.201154002612829,11.891846501260995,-0.1759745180606842,0.023859906941652298,-0.09153895825147629
1772376840266941400,5.71394140625,2.2484255541302263,3.368329601150751,11.884163545542954,-0.6145193576812744,-0.018095266073942184,0.009504832327365875
1772376840276890600,5.723890625,2.5388930396854876,3.3377120523080226,11.488812813103198,-1.0412994623184204,-0.07281078398227692,0.14467786252498627
1772376840286838500,5.733838623046875,2.7132655639901757,3.040028790155053,10.705237839102745,-1.4538230895996094,-0.08444027602672577,0.302705317735672
1772376840296787500,5.743787353515625,2.7548919981032607,2.6354984336987135,9.500051317724585,-1.797276258468628,-0.0647030621767044,0.4893292784690857
1772376840306736400,5.753736328125,2.774880308642983,2.1486850769616663,7.746274051740765,-2.0580499172210693,-0.07282517850399017,0.6603638529777527
1772376840316685300,5.763685302734375,2.4130630124926564,1.5248369929283856,6.066859076040982,-2.2412569522857666,-0.12197766453027725,0.7978101372718811
1772376840326633500,5.773633544921875,2.1176517869248985,0.9700020932361483,3.99385394783318,-2.3751578330993652,-0.17874054610729218,0.8822256922721863
1772376840336582400,5.78358251953125,1.5104799662739037,0.46622123508527874,1.8832412657648323,-2.4436397552490234,-0.2390817403793335,0.9053286910057068
1772376840346531300,5.79353125,0.8446637950830161,0.08743234586790204,-0.4582037867158651,-2.3737311363220215,-0.35200801491737366,0.8700865507125854
1772376840356480300,5.803480224609375,0.24826825652290135,-0.18825521144568919,-3.146921477165818,-2.159127712249756,-0.578590989112854,0.790677011013031
1772376840366428400,5.813428466796875,-0.41859943301491437,-0.34306700297296044,-5.7437271921157835,-1.8593487739562988,-0.8843134045600891,0.6551636457443237
1772376840376377300,5.82337744140625,-1.1918066691927611,-0.27107809075675904,-7.80823863274455,-1.5532790422439575,-1.2472813129425049,0.4999573826789856
1772376840386326300,5.833326171875,-1.7576185977123677,0.0015075184861198067,-9.50483621391356,-1.2789514064788818,-1.5666720867156982,0.3468437194824219
1772376840396275500,5.843275390625,-2.1647050683923066,0.26837175440751015,-10.970070678794384,-1.0286328792572021,-1.7317819595336914,0.22622933983802795
1772376840406223600,5.8532236328125,-2.37327095419988,0.5078559986352921,-12.353121950507163,-0.7693017721176147,-1.6824558973312378,0.16074354946613312
1772376840416172500,5.863172607421875,-2.31466357466951,0.6434320515558123,-13.57668525557518,-0.5049803853034973,-1.439048171043396,0.18511442840099335
1772376840426121500,5.87312158203125,-1.9846531832769512,0.7264902739927173,-14.282507127809524,-0.2561369836330414,-1.0363694429397583,0.30827152729034424
1772376840436070400,5.8830703125,-1.6035393582433461,0.9755153036996722,-14.108871393346785,-0.07934170961380005,-0.5542774796485901,0.49526187777519226
1772376840446018600,5.8930185546875,-1.298060912169516,1.0911474697440862,-13.010312770563363,0.04240097478032112,-0.15114760398864746,0.6952370405197144
1772376840455967500,5.902967529296875,-1.1028104350090027,0.9720550071779638,-11.383279724007844,0.14259815216064453,0.094571553170681,0.8504196405410767
1772376840465916400,5.91291650390625,-1.1835098193600773,0.7650877887386828,-9.69993325407803,0.270325243473053,0.23847731947898865,0.9304966330528259
1772376840475865300,5.922865234375,-1.5160324858345091,0.567313419123739,-8.246867950418592,0.4676564037799835,0.34024685621261597,0.9236992001533508
1772376840485813500,5.9328134765625,-1.8856541721254587,0.341598428257741,-7.104178509485721,0.743675172328949,0.41174420714378357,0.8487061858177185
1772376840495762400,5.942762451171875,-2.163829016210139,0.18088639971073717,-5.9164253534674645,1.0787885189056396,0.4520854353904724,0.7510122656822205
1772376840505711400,5.95271142578125,-2.2186201984532175,0.151221913809143,-4.365219409051537,1.4016309976577759,0.4405464828014374,0.6385555267333984
1772376840515660500,5.96266064453125,-2.1152635766141117,0.2190690865781158,-2.434721886593103,1.6537293195724487,0.4397245943546295,0.5191290378570557
1772376840525608400,5.9726083984375,-1.8741104493260383,0.3147425335034728,-0.3362082231193781,1.822963833808899,0.46694713830947876,0.40226638317108154
1772376840535557600,5.9825576171875,-1.4735492887616157,0.5466711747199297,1.6565537400722503,1.9312785863876343,0.4818204939365387,0.3171096444129944
1772376840545506600,5.992506591796875,-0.920633958955109,0.8151968045148998,3.5494185742288824,1.9728643894195557,0.4779253602027893,0.26632237434387207
1772376840555455500,6.00245556640625,-0.28834954355321823,0.9815693430416286,5.290731495437026,1.9421429634094238,0.48785722255706787,0.23570919036865234
1772376840565403400,6.0124033203125,0.25516645507141944,1.0255759502895176,6.832762199750542,1.8567253351211548,0.5014459490776062,0.2184138149023056
1772376840575352300,6.022352294921875,0.6499376340575516,0.9775566002689301,8.085069953265785,1.7153133153915405,0.5633983016014099,0.19945235550403595
1772376840585301500,6.032301513671875,0.9184455090001225,0.8973128507308662,9.211399795550108,1.5158039331436157,0.6543338298797607,0.17937931418418884
1772376840595250400,6.04225048828125,1.0973238933566958,0.892865223672241,10.204315439122915,1.2805171012878418,0.7657104730606079,0.15990430116653442
1772376840605198300,6.0521982421875,1.2061199297707528,0.935362157009542,10.977981598049402,1.0091614723205566,0.8983422517776489,0.1323496401309967
1772376840615147300,6.062147216796875,1.2155861887089907,1.0335315854690967,11.49479597916603,0.7361120581626892,1.0126895904541016,0.09253444522619247
1772376840625096400,6.072096435546875,1.1787487424381076,1.1752759517610072,11.793937915694713,0.4747409224510193,1.0081539154052734,0.07764497399330139
1772376840635045600,6.082045654296875,1.4031488878458738,1.4398891573525965,11.96679272891283,0.1765337437391281,0.8923106789588928,0.10556981712579727
1772376840644993500,6.09199365234375,1.780418604671955,1.5261461758308112,12.072221773111819,-0.17284876108169556,0.7424745559692383,0.13529150187969208
1772376840654942500,6.1019423828125,1.9003565050862727,1.312051297468692,11.929916411936283,-0.5286571979522705,0.6035539507865906,0.18915429711341858
1772376840664891400,6.111891357421875,2.0078018575437366,1.0919038410693407,11.118235287392139,-0.8432841300964355,0.4441053867340088,0.2779741883277893
1772376840674840600,6.121840576171875,1.9474679464817046,0.9061638273149728,9.839598329877854,-1.12428879737854,0.29136985540390015,0.37924811244010925
1772376840684788500,6.13178857421875,1.709372891589999,0.7612997215673327,8.076675634407996,-1.319064736366272,0.1758112758398056,0.4764135479927063
1772376840694737400,6.1417373046875,1.2919964975640177,0.5228542458027601,5.573056737199425,-1.378633975982666,0.105624258518219,0.5447325110435486
1772376840704686300,6.151686279296875,0.6585473492316901,0.19689926728084683,2.794457700294256,-1.2192411422729492,0.11084538698196411,0.5764592885971069
1772376840714635300,6.16163525390625,0.20244086358863858,0.004635258585214614,-0.535970917007327,-0.8776934742927551,0.12014226615428925,0.6002410054206848
1772376840724583400,6.17158349609375,-0.07525872766710817,-0.39090982738286256,-3.4905770936816927,-0.4572541415691376,0.0886240154504776,0.6278569102287292
1772376840734532400,6.181532470703125,-0.11772826154083013,-1.0148096416033803,-5.602202752184867,-0.029357362538576126,0.007412341423332691,0.6229199767112732
1772376840744481300,6.191481201171875,-0.1815637144504115,-1.6952352067746221,-6.971335388660431,0.3106555938720703,-0.18962988257408142,0.566450834274292
1772376840754430500,6.201430419921875,-0.18818598213437943,-2.258269487274438,-7.545485521936416,0.4847661554813385,-0.47512325644493103,0.4944412410259247
1772376840764378600,6.211378662109375,-0.04796561053935438,-2.737692441499233,-7.575013814237713,0.4257635474205017,-0.815288782119751,0.378449946641922
1772376840774327600,6.22132763671875,-0.28048699348457157,-2.9299753010258076,-7.298584060254693,0.09195921570062637,-1.1398054361343384,0.22226762771606445
1772376840784276500,6.2312763671875,-1.0261685093551873,-2.6515891522780057,-7.1412056331098075,-0.46906575560569763,-1.270359754562378,0.00983259454369545
1772376840794225400,6.241225341796875,-2.2932027073591947,-1.945806589140743,-7.7182251843422645,-1.0939743518829346,-1.0853861570358276,-0.24705156683921814
1772376840804173600,6.251173583984375,-3.6109245978102087,-0.941750542872399,-9.215500216606259,-1.540211796760559,-0.5993281602859497,-0.5099382996559143
1772376840814122500,6.26112255859375,-4.26498968706131,0.04500993907153606,-11.47946513904333,-1.6347601413726807,0.005394088104367256,-0.6716834902763367
1772376840824071400,6.271071533203125,-3.685885438509285,0.8869935551598668,-13.785747692728043,-1.349255084991455,0.5214419960975647,-0.6482242345809937
1772376840834020400,6.281020263671875,-2.1223887523189187,1.375040983736515,-15.167707077550887,-0.8112337589263916,0.8013139367103577,-0.4673895835876465
1772376840843968500,6.290968505859375,-0.5700217282343656,1.5328303297698498,-15.014578709065914,-0.18903329968452454,0.8173424601554871,-0.2319115549325943
1772376840853917400,6.30091748046875,0.39032852036356924,1.453865221865475,-13.452037131643294,0.3763733506202698,0.6939372420310974,-0.013138219714164734
1772376840863866400,6.310866455078125,0.5721123438380659,1.1493770289380103,-10.913733290022611,0.8031305074691772,0.6044059991836548,0.13052120804786682
1772376840873815600,6.320815673828125,0.12981577236074954,0.769418949810788,-8.071361161386966,1.1056866645812988,0.5928890705108643,0.195649653673172
1772376840883763200,6.33076318359375,-0.46875780435819175,0.5163610113259405,-5.285518729224801,1.2972992658615112,0.6168468594551086,0.19311271607875824
1772376840893712600,6.340712646484375,-0.9053107906822114,0.29118644747957584,-2.5540742422044276,1.3663119077682495,0.6540753245353699,0.14350295066833496
1772376840903661600,6.35066162109375,-1.0813111353844405,0.1059741108611226,0.08787585185170173,1.3362517356872559,0.6628217101097107,0.08074288815259933
1772376840913610500,6.360610595703125,-1.0033272936023772,0.11254223720505833,2.489320907264948,1.2467581033706665,0.6274424195289612,0.028221724554896355
1772376840923558400,6.370558349609375,-0.7098582150783389,0.2915107109978795,4.431988175466657,1.1410481929779053,0.5170823335647583,0.00872552115470171
1772376840933507300,6.38050732421875,-0.348237683609128,0.5025483937464654,5.964203588208556,1.0309946537017822,0.3658439517021179,0.0015140718314796686
1772376840943456500,6.39045654296875,-0.07155718800174073,0.5541413644701242,7.122297519022226,0.9225099086761475,0.23860052227973938,-0.018952054902911186
1772376840953405400,6.400405517578125,0.060336705807317044,0.5742933411389589,7.9414348047912116,0.836554229259491,0.15096355974674225,-0.0398646779358387
1772376840963353300,6.410353271484375,0.112602077633515,0.6719122961089015,8.425926294451951,0.7787753939628601,0.11151015758514404,-0.0629577487707138
1772376840973302300,6.42030224609375,0.07071065417500212,0.8694275033310055,8.735989437967538,0.7363442778587341,0.12314000725746155,-0.09368710964918137
1772376840983251500,6.43025146484375,0.0744443973432295,1.119170764309913,9.048355013206601,0.6936373114585876,0.15818454325199127,-0.12723255157470703
1772376840993200600,6.44020068359375,0.06341319064320997,1.3052835568994283,9.397854679575563,0.6312589049339294,0.1985928863286972,-0.15297101438045502
1772376841003148300,6.450148193359375,0.15792915636282412,1.439328893121332,9.788834941846131,0.5282126665115356,0.25942614674568176,-0.16616670787334442
1772376841013097500,6.460097412109375,0.3001591142145917,1.5400591119796037,10.260262367272377,0.3494799733161926,0.30877265334129333,-0.1759093552827835
1772376841023046400,6.47004638671875,0.3459015688117593,1.6205929305054247,10.697632040274142,0.1194843128323555,0.3369758129119873,-0.1818481981754303
1772376841032995600,6.47999560546875,0.4328499305550009,1.7853965392149984,10.985379307085275,-0.1622706800699234,0.31914129853248596,-0.14891541004180908
1772376841042943500,6.489943603515625,0.631033684688434,1.9111570083029568,10.988513513457775,-0.5003262162208557,0.1919194459915161,-0.11277472972869873
1772376841052892400,6.499892333984375,0.5781283527245745,1.8572304800651966,10.905858611124753,-0.8857825994491577,0.07571180164813995,-0.08352378755807877
1772376841062840600,6.509840576171875,0.5532536949153989,1.661957352681458,10.332436792123318,-1.3046778440475464,-0.009690451435744762,-0.046919967979192734
1772376841072789800,6.519789794921875,0.47756899692118165,1.393082105731219,9.299849647897481,-1.7181057929992676,-0.03651343286037445,-0.022630469873547554
1772376841082737400,6.5297373046875,0.17508458156418055,1.0683040620341897,7.758048076164722,-2.097458600997925,-0.07550691068172455,-0.032315321266651154
1772376841092686600,6.5396865234375,-0.18548945479309184,0.6448042166918516,5.798917164418101,-2.396348714828491,-0.18696115911006927,-0.08563254773616791
1772376841102635500,6.549635498046875,-0.3836234697669744,0.34102629092559217,3.0152474001199003,-2.441842555999756,-0.322390615940094,-0.1740681380033493
1772376841112584700,6.559584716796875,-0.6572920884735882,0.10112455193810164,-0.8931628914445638,-2.1720287799835205,-0.36581823229789734,-0.2736218273639679
1772376841122532600,6.56953271484375,-0.893443315821141,-0.17638810191079973,-5.139046311497688,-1.6334810256958008,-0.3813375234603882,-0.37056460976600647
1772376841132481500,6.5794814453125,-0.9818827929049729,-0.28456308381706474,-8.825511303460598,-0.9926243424415588,-0.40320998430252075,-0.4606384336948395
1772376841142430500,6.589430419921875,-0.8243832235984504,-0.25332104640044273,-11.125013403224944,-0.42631590366363525,-0.4555927813053131,-0.5013169050216675
1772376841152379400,6.59937939453125,-0.2098123970036395,-0.4163530423276126,-11.98559095288515,-0.04620877280831337,-0.5340818762779236,-0.47083616256713867
1772376841162327600,6.60932763671875,0.5355933158665895,-0.7707146156445145,-11.719380979621409,0.07937711477279663,-0.6387140154838562,-0.41971731185913086
1772376841172276500,6.6192763671875,0.7214545448478311,-1.0044297749515623,-10.853978786283731,-0.098849356174469,-0.7090272903442383,-0.42064711451530457
1772376841182225400,6.629225341796875,0.12965714773293585,-0.9012820466227829,-10.002794503390788,-0.46742552518844604,-0.6206178069114685,-0.48277491331100464
1772376841192174600,6.639174560546875,-0.759040179137513,-0.5660911838524043,-9.950169997662305,-0.8281789422035217,-0.33676597476005554,-0.5548350811004639
1772376841202122500,6.64912255859375,-1.4636466111674904,-0.1509255246784538,-10.777346797502041,-1.0007871389389038,0.06779081374406815,-0.6062412858009338
1772376841212071700,6.65907177734375,-1.6904893274217843,0.3734330612726509,-11.940468201088905,-0.9128085970878601,0.41988933086395264,-0.6027876734733582
1772376841222020600,6.6690205078125,-1.3539225001230835,0.9175102009113878,-12.732102562904357,-0.6025381088256836,0.6652022004127502,-0.5065810084342957
1772376841231969500,6.678969482421875,-0.6547795211307704,1.238943829551339,-12.707899849539995,-0.16492290794849396,0.7874606251716614,-0.35302257537841797
1772376841241917700,6.688917724609375,-0.05987186477454379,1.1886755315601825,-11.651486424046753,0.26945650577545166,0.8199362754821777,-0.2048957198858261
1772376841251866600,6.69886669921875,0.08074745214334689,0.8654116918183863,-9.745434776058792,0.6395426392555237,0.7996691465377808,-0.10879939049482346
1772376841261815600,6.708815673828125,-0.12756357298716903,0.5199086573375389,-7.298891518768667,0.9097142219543457,0.7812086939811707,-0.07102777063846588
1772376841271764500,6.718764404296875,-0.46974173736162483,0.29975955697037276,-4.718826510739326,1.0895887613296509,0.7421750426292419,-0.08424948155879974
1772376841281712600,6.728712646484375,-0.6988662078775465,0.17862901270538567,-2.201343338829279,1.1827596426010132,0.6651793122291565,-0.11990601569414139
1772376841291661600,6.73866162109375,-0.6751419256798923,0.19062873564399777,0.15466975270807742,1.2160675525665283,0.53691166639328,-0.15760691463947296
1772376841301610500,6.748610595703125,-0.43299766846261917,0.3234585585962981,2.2041075428456067,1.2136640548706055,0.40369346737861633,-0.16857755184173584
1772376841311559400,6.758559326171875,-0.10748013150990009,0.515994516101107,3.875328106173873,1.2032108306884766,0.29927563667297363,-0.14634083211421967
1772376841321507300,6.76850732421875,0.22247847489649428,0.8048455063704401,5.14752830863893,1.1905403137207031,0.235397070646286,-0.09222007542848587
1772376841331456800,6.778456787109375,0.5449926470484584,1.0963796713091432,6.107552320957184,1.1805423498153687,0.24702472984790802,-0.003225416410714388
1772376841341405700,6.78840576171875,0.7961082923591136,1.323633014190942,6.867972044819593,1.1845698356628418,0.30174046754837036,0.11538751423358917
1772376841351354600,6.798354736328125,0.9671456078264862,1.4470603641562163,7.532001770985126,1.1896274089813232,0.3360118269920349,0.24726442992687225
1772376841361302500,6.808302490234375,1.0971575238138436,1.5444215449728071,8.284937276571988,1.1863330602645874,0.31465381383895874,0.3667639195919037
1772376841371251500,6.81825146484375,1.1432835343685,1.5545280745759606,9.066648794788122,1.161539912223816,0.23477399349212646,0.4404820501804352
1772376841381200600,6.82820068359375,0.9778601132601499,1.444018804503232,9.753418760550021,1.1334080696105957,0.14021499454975128,0.460254967212677
1772376841391149600,6.838149658203125,0.6768626119926572,1.3911452924497425,10.185749854862689,1.072325348854065,0.07211580872535706,0.4549480974674225
1772376841401097500,6.848097412109375,0.4437590817779302,1.5980585887446999,10.665490350604056,0.9556329846382141,0.0476464182138443,0.4403909742832184
1772376841411046400,6.85804638671875,0.22969397749956696,1.8625024291187524,11.080044965207577,0.757344126701355,0.02785622701048851,0.37595704197883606
1772376841420995600,6.86799560546875,-0.191089411958307,2.0729604122832415,11.615814222162962,0.4777103662490845,0.03387843072414398,0.2808222770690918
1772376841430944500,6.877944580078125,-0.36624972563982006,2.2819603055939077,11.994594928073882,0.10788358747959137,0.08507326245307922,0.1959356665611267
1772376841440892400,6.887892333984375,-0.28458474765960123,2.393879734725505,12.125976744174956,-0.3349638879299164,0.1921110451221466,0.1471095234155655
1772376841450841600,6.897841552734375,-0.10396543791983276,2.4356400243513283,11.902772384423017,-0.7713417410850525,0.3336716294288635,0.11201164871454239
1772376841460790500,6.90779052734375,0.07734452096521854,2.2204503364898263,11.09180437658429,-1.1525018215179443,0.376485139131546,0.08631720393896103
1772376841470739700,6.91773974609375,0.30607531598843635,1.98843240955472,9.84436101423502,-1.4340053796768188,0.30476510524749756,0.08458918333053589
1772376841480687600,6.9276875,0.7871244101103395,1.8507484245695172,7.931704268893599,-1.5046875476837158,0.2041117250919342,0.14891012012958527
1772376841490636500,6.937636474609375,1.7096822498001156,1.4452439623840152,4.9789703158319,-1.3725939989089966,0.008571109734475613,0.2797563970088959
1772376841500585500,6.94758544921875,2.3186375928670167,1.0602984502330421,2.3219120844930408,-1.1863125562667847,-0.26475417613983154,0.4244467616081238
1772376841510534400,6.957534423828125,2.5627210745185613,1.21350792113021,0.1382090317726135,-1.0297101736068726,-0.47127753496170044,0.5358692407608032
1772376841520482600,6.967482666015625,2.444885260950029,1.3114474863566457,-1.8462287551879881,-0.889355480670929,-0.6095198392868042,0.6195635795593262
1772376841530431500,6.977431396484375,2.211709103890508,1.0156712268687784,-3.7807109633684157,-0.7567601203918457,-0.6474310755729675,0.6922866106033325
1772376841540380400,6.98738037109375,2.24234316547662,0.15863193433731793,-5.345719807687401,-0.7219997048377991,-0.6691438555717468,0.7353262305259705
1772376841550328600,6.99732861328125,2.0837762591995297,-0.8911228369843214,-6.3210752446502445,-0.8179851770401001,-0.7601076364517212,0.7087041139602661
1772376841560277500,7.007277587890625,1.6847550215534866,-1.5574001228809355,-7.060745610472559,-1.0398712158203125,-0.8924121856689453,0.6246510148048401
1772376841570226700,7.017226806640625,1.166205048815906,-1.8782574860028922,-7.952040954479575,-1.3164564371109009,-0.995349645614624,0.4838181734085083
1772376841580175600,7.027175537109375,0.34030382186993957,-1.9827086250804364,-9.390049558782577,-1.613161563873291,-0.9830048084259033,0.28443288803100586
1772376841590123800,7.037123779296875,-0.6830567904576659,-1.5935805665478109,-11.288763703489304,-1.8277090787887573,-0.7937545776367188,0.07069745659828186
1772376841600072700,7.04707275390625,-1.4918316721662879,-0.9273641439929604,-13.57513744161129,-1.8727412223815918,-0.4649367332458496,-0.09150582551956177
1772376841610021600,7.057021728515625,-1.7875430497244,-0.052590913986135274,-16.096227113580703,-1.6622833013534546,-0.13543537259101868,-0.1492985188961029
1772376841619970600,7.066970458984375,-1.6571970064118504,0.9134039346363395,-18.147994807970523,-1.2049483060836792,0.1520906686782837,-0.0659748762845993
1772376841629918500,7.07691845703125,-1.213872151332721,1.5701637428641317,-19.206009823441505,-0.627540111541748,0.3373377025127411,0.11299099773168564
1772376841639867600,7.08686767578125,-0.8651059138048439,1.5935564550198613,-18.635855481803414,-0.0657542496919632,0.4365186095237732,0.27740469574928284
1772376841649816600,7.096816650390625,-1.0430167683035134,1.0219524260301143,-16.64327530491948,0.3773677945137024,0.48228853940963745,0.35210272669792175
1772376841659765500,7.106765625,-1.577690631237626,0.20936832476425915,-13.8036936837852,0.6896303296089172,0.5567612051963806,0.34596920013427734
1772376841669713400,7.11671337890625,-2.060245746008307,-0.3832529559541493,-10.751590424954891,0.9073491096496582,0.6359123587608337,0.31700584292411804
1772376841679662600,7.12666259765625,-2.2438069544188677,-0.5863505664184689,-7.888585258135199,1.0871535539627075,0.6715771555900574,0.2953532636165619
1772376841689611800,7.13661181640625,-2.0934816606558857,-0.7598794795058668,-5.283574609419703,1.223250150680542,0.6993167996406555,0.24473610520362854
1772376841699560700,7.146560791015625,-2.1374445748925206,-0.9460190139718353,-2.8937159469038245,1.3391766548156738,0.6790458559989929,0.18764325976371765
1772376841709508600,7.156508544921875,-2.1492845041595396,-0.8221150594707578,-0.7510381475329398,1.4421113729476929,0.6357195973396301,0.14968110620975494
1772376841719457500,7.16645751953125,-2.0036856543965635,-0.3118444739744067,1.1627484786212443,1.5411958694458008,0.5829530358314514,0.14204715192317963
1772376841729406700,7.17640673828125,-1.8011663552768526,0.12869491510465741,2.869522001367807,1.6327826976776123,0.5044013261795044,0.15089599788188934
1772376841739355600,7.186355712890625,-1.6457583514221013,0.4193335925083607,4.38681223217845,1.7064279317855835,0.41027218103408813,0.15334132313728333
1772376841749303600,7.196303466796875,-1.5631393971852958,0.6116694243311882,5.732327261701226,1.759514570236206,0.31275612115859985,0.14399856328964233
1772376841759252500,7.20625244140625,-1.4600097159698604,0.840053670939058,6.927476957711577,1.782212734222412,0.24665777385234833,0.14133059978485107
1772376841769201400,7.216201416015625,-1.362184570903331,1.1024360487386584,7.981420193699002,1.7790019512176514,0.23213499784469604,0.1382267028093338
1772376841779150600,7.226150634765625,-1.2834402661427855,1.3439998026542366,8.920914628207683,1.741946816444397,0.2641107738018036,0.12881508469581604
1772376841789098500,7.236098388671875,-1.2253382057860494,1.5324087433569131,9.782985046774149,1.6926831007003784,0.29441410303115845,0.10791575908660889
1772376841799047400,7.24604736328125,-1.1560616943337023,1.7594946207173168,10.555083517992497,1.61874258518219,0.28845396637916565,0.07065945863723755
1772376841808996400,7.255996337890625,-1.0522199193261563,2.016042447144538,11.290524283421039,1.5202969312667847,0.23708884418010712,0.019299305975437164
1772376841818945500,7.265945556640625,-0.9356425813861191,2.227393141365051,12.037408818405867,1.3553245067596436,0.15269380807876587,-0.050319187343120575
1772376841828893700,7.275893798828125,-0.8671013984709978,2.4058844991654156,12.750697373259067,1.1000908613204956,0.0797140821814537,-0.1290561407804489
1772376841838842600,7.285842529296875,-0.7719079170823097,2.645672913971543,13.470987331306933,0.7304877638816833,0.014946800656616688,-0.21187379956245422
1772376841848791600,7.29579150390625,-0.6852186446666717,2.8085899782821535,14.013465730512142,0.2772025763988495,-0.03174532949924469,-0.28504860401153564
1772376841858740500,7.305740478515625,-0.4817006533658132,2.835386507532,14.216535649251938,-0.23957957327365875,-0.08754654973745346,-0.3172885775566101
1772376841868688600,7.315688720703125,-0.15910430108942092,2.707927125571668,14.040610927069187,-0.8004117608070374,-0.14989885687828064,-0.30765822529792786
1772376841878637600,7.325637451171875,0.12121544606946408,2.523060095259547,13.350940563690662,-1.356184959411621,-0.24520060420036316,-0.2736022472381592
1772376841888586500,7.33558642578125,0.3677134049842134,2.1690729082129896,12.07511164933443,-1.8656537532806396,-0.3683318793773651,-0.21253958344459534
1772376841898535400,7.345535400390625,0.61023109862376,1.7591190654031932,10.248271485227345,-2.2767157554626465,-0.5497680306434631,-0.11753877252340317
1772376841908483600,7.355483642578125,0.8863362602949142,1.255185208647698,7.875019674119353,-2.531014919281006,-0.7571341395378113,-0.005805696360766888
1772376841918432500,7.3654326171875,1.018414826488495,0.5804756830357015,4.8021045134067535,-2.5878684520721436,-0.9364903569221497,0.08919218927621841
1772376841928381400,7.37538134765625,0.7199814766205846,-0.16355726191028952,1.119251866722107,-2.437279462814331,-1.013831377029419,0.11203587055206299
1772376841938330600,7.38533056640625,0.06531420195894315,-0.8816197531670331,-2.8918215114593506,-2.098299503326416,-0.9302483201026917,0.043786242604255676
1772376841948278800,7.39527880859375,-0.8682431158520281,-1.399822958293557,-6.705284405350684,-1.6223965883255005,-0.7853983044624329,-0.07835987955331802
1772376841958227700,7.405227783203125,-1.7584939192421734,-1.5910174380615352,-9.747480018150807,-1.1365790367126465,-0.6160516142845154,-0.24957691133022308
1772376841968176600,7.4151767578125,-2.315112487480789,-1.597446594326198,-11.781636068004369,-0.7773135900497437,-0.5283186435699463,-0.43878647685050964
1772376841978125600,7.42512548828125,-2.202370051528513,-1.5882830446615814,-12.481373067367077,-0.6367514133453369,-0.5915786027908325,-0.5850014686584473
1772376841988073500,7.435073486328125,-1.3922903708316385,-1.4414005848288536,-12.51066462830305,-0.6101163029670715,-0.5788723826408386,-0.5783512592315674
1772376841998022700,7.445022705078125,0.008186448260769247,-0.9151356537997722,-13.388201496070623,-0.6585118174552917,-0.6456178426742554,-0.5279746651649475
1772376842007971600,7.4549716796875,0.16303276311215012,-0.8004122731633484,-13.783745120733975,-0.6725051999092102,-0.6175236105918884,-0.4528089165687561
1772376842017919500,7.46491943359375,0.08341226003896444,-0.3198200559634715,-14.768597869360446,-0.6319452524185181,-0.4107682704925537,-0.3668311536312103
1772376842027868400,7.474868408203125,-0.2202005382934585,0.18553236235305665,-15.50748614489436,-0.5055398344993591,-0.09468848258256912,-0.26388636231422424
1772376842037817600,7.484817626953125,-0.597742423124425,0.5167613722877576,-15.752551623320578,-0.28545117378234863,0.24271857738494873,-0.182072713971138
1772376842047766500,7.4947666015625,-0.9098892045136541,0.6558001694153994,-15.128175862151384,-0.010495780035853386,0.4824827313423157,-0.11214593052864075
1772376842057714400,7.50471435546875,-0.9298289997365325,0.5509596656940877,-13.654934031903743,0.30332285165786743,0.5918784737586975,-0.0412035807967186
1772376842067663600,7.51466357421875,-0.8484927057214081,0.2611701889982447,-11.722467255198955,0.6245365142822266,0.5974151492118835,0.012423977255821228
1772376842077612500,7.524612548828125,-0.8520328625462948,-0.08394041209891438,-9.443826157155632,0.9128863215446472,0.5700045824050903,0.035091474652290344
1772376842087561700,7.534561767578125,-0.9338996832415462,-0.4379295719068497,-7.069377829739451,1.1637897491455078,0.5232651829719543,0.01969434879720211
1772376842097509600,7.544509521484375,-1.0579732952211052,-0.7099697126287966,-4.6891988497167825,1.3581570386886597,0.4399692416191101,-0.014686526730656624
1772376842107458600,7.55445849609375,-1.1524684921473265,-0.7488814078904688,-2.2429688961595295,1.470709204673767,0.3597813546657562,-0.07936357706785202
1772376842117407500,7.564407470703125,-1.2315560573875903,-0.6273303731910884,0.0810106422573328,1.5151333808898926,0.2960476279258728,-0.1517602950334549
1772376842127356400,7.5743564453125,-1.2321892407245933,-0.4232995735298842,2.1390303827792403,1.5116952657699585,0.24750855565071106,-0.22766666114330292
1772376842137304600,7.5843046875,-1.193019990505278,-0.14910364301353693,3.909684549283981,1.4612584114074707,0.15639649331569672,-0.354887992143631
1772376842147253500,7.59425341796875,-1.5800073837473987,0.137454706273973,5.475234076350927,1.4152499437332153,0.15920700132846832,-0.4541345238685608
1772376842157202400,7.604202392578125,-1.1977861819937825,0.8985578823558986,6.52903176638782,1.3458452224731445,0.24181319773197174,-0.48258161544799805
1772376842167151400,7.6141513671875,-0.565733748716861,1.4389434009350834,7.602292281785607,1.2364870309829712,0.28192710876464844,-0.47727787494659424
1772376842177099500,7.624099609375,-0.2752872146180831,1.72663659947142,8.605577343681453,1.1348317861557007,0.2718832790851593,-0.47854262590408325
1772376842187048700,7.634048583984375,-0.06356169573580846,2.0450537298344074,9.26861338263452,1.0577322244644165,0.2583036720752716,-0.4710269272327423
1772376842196997600,7.64399755859375,0.20898085981663314,2.4320104356773196,9.79999112663269,0.9777237176895142,0.23880347609519958,-0.4411800801753998
1772376842206946600,7.653946533203125,0.4918476245772093,2.731512291559577,10.368244603085516,0.8827308416366577,0.22961276769638062,-0.40310412645339966
1772376842216894700,7.663894775390625,0.6773578481636942,2.870978629916906,10.916549516487121,0.7610859274864197,0.2285749465227127,-0.3776499032974243
1772376842226843600,7.67384375,0.7750751489415765,2.9322888386651873,11.406549540436266,0.6135736703872681,0.21904683113098145,-0.3564661741256714
1772376842236792600,7.68379248046875,0.8380808364961296,3.0600504184424877,11.84698093909621,0.4431382715702057,0.20143108069896698,-0.3322598934173584
1772376842246741500,7.693741455078125,0.9188117119640111,3.289571413995325,12.196781049716472,0.249836727976799,0.16824382543563843,-0.30063503980636597
1772376842256689700,7.703689697265625,0.964557710225135,3.463254786992073,12.50346682575345,0.015454593114554882,0.08172037452459335,-0.26900866627693176
1772376842266638600,7.713638671875,1.0482288038633762,3.6276556601196526,12.749060711967944,-0.26937180757522583,-0.037651292979717255,-0.2137898951768875
1772376842276587500,7.72358740234375,1.18124830416888,3.7876547911569474,12.926686392849684,-0.6401605010032654,-0.1329818069934845,-0.14416980743408203
1772376842286536400,7.733536376953125,1.2732732385240495,3.7283512460559605,12.910740635699034,-1.097320556640625,-0.1745205968618393,-0.08128996193408966
