time,seconds_elapsed,accel_x,accel_y,accel_z,gyro_x,gyro_y,gyro_z
1772376781255773400,0.0717734375,-1.195483458009362,-0.6674835198812187,-0.49295478210151195,-0.40818899869918823,0.1583889275789261,-0.20823487639427185
1772376781265722600,0.08172265625,-0.8724704512234777,-0.41822541207075115,-0.5420148733466863,-0.30651962757110596,0.019897088408470154,-0.28212109208106995
1772376781275671800,0.091671875,-0.4415100242095068,-0.17139467753767967,-0.46949148892760273,-0.1783084273338318,-0.06632314622402191,-0.32513564825057983
1772376781285620700,0.101620849609375,-0.12362813323438167,0.025182956573367117,-0.11260989561378955,-0.07580947875976562,-0.15331397950649261,-0.34209758043289185
1772376781295569700,0.111569580078125,0.01589116371946875,0.2053093682296574,0.39016193162500856,-0.03754299879074097,-0.2667649984359741,-0.3248937427997589
1772376781305518600,0.1215185546875,0.13385584153179078,0.30582565207630397,0.8378215279728174,-0.06395728886127472,-0.336864709854126,-0.2952314615249634
1772376781315467500,0.131467529296875,0.15372933005280792,0.3695120884366333,1.1639397342324256,-0.12902940809726715,-0.35085776448249817,-0.2582201361656189
1772376781325416400,0.14141650390625,0.1155043384136632,0.3327433234877884,1.2487380783349276,-0.20189455151557922,-0.29271137714385986,-0.23107028007507324
1772376781335365600,0.15136572265625,0.08494140583500266,0.3077871614076197,1.2319172919154167,-0.26413387060165405,-0.1622253805398941,-0.22003957629203796
1772376781345314600,0.161314453125,0.11786617217417805,0.2990744242504239,1.3328829269647597,-0.3097953796386719,0.008290695957839489,-0.20800529420375824
1772376781355263700,0.171263671875,0.17401172816827892,0.3048807724416256,1.6262661538362502,-0.3541725277900696,0.11141276359558105,-0.19205644726753235
1772376781365212700,0.181212646484375,0.2718648572202772,0.27192148277834055,2.104683876541257,-0.39382433891296387,0.13819724321365356,-0.16337233781814575
1772376781375161600,0.19116162109375,0.44412828041650354,0.2354291966833174,2.508815296807885,-0.43912336230278015,0.11312392354011536,-0.13701984286308289
1772376781385110500,0.201110595703125,0.6180673086747527,0.13466712138205766,2.7945313500523565,-0.4746328890323639,0.06863261759281158,-0.1169595867395401
1772376781395058700,0.21105859375,0.6716416624739766,0.04413008749708533,3.0423177778750654,-0.4991688132286072,0.002068660221993923,-0.10431049019098282
1772376781405007600,0.221007568359375,0.6909821766294538,-0.0077712185233831405,3.24374928175807,-0.5225667953491211,-0.1055251806974411,-0.09411484003067017
1772376781414956500,0.23095654296875,0.787624687782675,0.022017332149297,3.304634250831604,-0.5484196543693542,-0.26895585656166077,-0.08669448643922806
1772376781424905500,0.240905517578125,0.9139703363474458,0.09802066763862967,3.1562399251312017,-0.5584664344787598,-0.40987834334373474,-0.06297557055950165
1772376781434854400,0.2508544921875,1.0267214670628309,0.3008084084361791,2.83609611710608,-0.5584522485733032,-0.5429316759109497,-0.005042245611548424
1772376781444803800,0.260803955078125,0.8655129602357745,0.3133540017545223,2.3852502919375893,-0.5407747030258179,-0.5486465692520142,0.02922118455171585
1772376781454752800,0.270752685546875,0.4014125897619873,0.34191213384941216,1.7409768211215733,-0.48311930894851685,-0.5158212780952454,0.03148820996284485
1772376781464701700,0.28070166015625,-0.28191384794991464,0.3754764036685228,1.0007067358404398,-0.39849042892456055,-0.5052168369293213,-0.006486870348453522
1772376781474650600,0.290650634765625,-0.7519266208052635,0.39341779161579904,0.1877846713244915,-0.27426013350486755,-0.4790467917919159,-0.0722043514251709
1772376781484599600,0.300599609375,-1.0718597817543893,0.37080680442228914,-0.7267436642318964,-0.09639213979244232,-0.3847227096557617,-0.14213469624519348
1772376781494548500,0.310548583984375,-1.164664906701818,0.3985221290174871,-1.448026140448451,0.10301154106855392,-0.2146156281232834,-0.18562591075897217
1772376781504497400,0.320497314453125,-1.0378713682390748,0.5798232104763388,-1.7153683326125144,0.2761066257953644,-0.04592248052358627,-0.18415798246860504
1772376781514446600,0.330446533203125,-0.6321548707380891,0.828879512104392,-1.593036084407568,0.3688759207725525,0.026351112872362137,-0.11958828568458557
1772376781524395800,0.340395751953125,0.04360854784101247,0.9126876761257648,-1.4640326878756285,0.37873440980911255,0.006677009165287018,0.020281730219721794
1772376781534344700,0.3503447265625,0.7396675893433392,0.6299041692018509,-1.73516433545053,0.35684043169021606,-0.0385613888502121,0.2005535513162613
1772376781544293600,0.360293701171875,1.2681592565111814,0.14191621572747826,-2.329407408684492,0.30013054609298706,-0.09963992238044739,0.3846898376941681
1772376781554242600,0.37024267578125,1.5687489076301455,-0.31332638309523464,-3.0232091727793216,0.3104466199874878,-0.23240603506565094,0.5322167873382568
1772376781564191500,0.38019140625,1.6699055352069436,-0.8248917576424777,-4.060869382485747,0.33529311418533325,-0.4347498118877411,0.6288354396820068
1772376781574140700,0.390140625,1.5101635938011109,-1.234133798921108,-4.600042894926667,0.29250821471214294,-0.6500731706619263,0.625659704208374
1772376781584089600,0.400089599609375,1.0458923237398265,-1.6261070177517831,-4.873202833458781,0.22989489138126373,-0.9179916977882385,0.5257434844970703
1772376781594038500,0.41003857421875,-0.05138546545282006,-1.7053265388086438,-4.973742352050542,0.07727335393428802,-1.2639153003692627,0.3291185796260834
1772376781603987700,0.41998779296875,-2.015541365754604,-1.4009206904023885,-5.143075420883298,-0.18684086203575134,-1.8145105838775635,0.00651976466178894
1772376781613936600,0.4299365234375,-4.23784361372143,-1.0686221880726516,-6.22429069467783,-0.5796279907226562,-2.2906241416931152,-0.4446048438549042
1772376781623885600,0.439885498046875,-5.37035915890336,-0.9632676704145967,-7.979658444723486,-0.9476411938667297,-2.2335617542266846,-0.9217985272407532
1772376781633834500,0.44983447265625,-5.316529953560233,-0.7705589866913855,-9.574660276246071,-1.1620184183120728,-1.6426513195037842,-1.2697592973709106
1772376781643783700,0.45978369140625,-4.433419669574499,-0.21456717204898595,-10.193522826951742,-1.2170329093933105,-0.8216983675956726,-1.444571614265442
1772376781653732600,0.469732666015625,-3.2691400358632206,0.7346957922801375,-9.427252623495459,-1.2258875370025635,0.02661566622555256,-1.4293537139892578
1772376781663681500,0.479681640625,-1.7928334112174809,1.4093363443091511,-7.492517901858687,-1.2566596269607544,0.7120931148529053,-1.2166664600372314
1772376781673630700,0.489630615234375,-0.3103320235848427,1.639448583753407,-5.176421810168027,-1.2975213527679443,1.1485075950622559,-0.8865566253662109
1772376781683579600,0.49957958984375,0.7083461300149559,1.5167080470085144,-3.1476503759622574,-1.2385661602020264,1.4033998250961304,-0.583864152431488
1772376781693527800,0.50952783203125,1.1385187311194835,1.0330854491367936,-1.5841647956877947,-1.0546150207519531,1.5239871740341187,-0.38995498418807983
1772376781703476700,0.519476806640625,1.4195761449031532,0.524629036922939,-0.16965806300342082,-0.8036245703697205,1.4871015548706055,-0.2888536751270294
1772376781713425700,0.52942578125,1.745094339442998,0.06781359929293394,1.2217910346984862,-0.5511941909790039,1.3068835735321045,-0.23715363442897797
1772376781723374600,0.53937451171875,2.1248416984289884,-0.3130986752865836,2.560239779096842,-0.3140048086643219,1.049456000328064,-0.16799241304397583
1772376781733323500,0.549323486328125,2.483550214909017,-0.5850365246778354,3.7191917880445717,-0.07009769976139069,0.7640266418457031,-0.06113499775528908
1772376781743272400,0.5592724609375,2.5953753898859024,-0.7432016817536204,4.578074808746576,0.18511994183063507,0.4928857386112213,0.06765281409025192
1772376781753221600,0.5692216796875,2.5229309159219264,-0.8278802719339727,5.127750425979495,0.45122143626213074,0.27057501673698425,0.20737473666667938
1772376781763170800,0.5791708984375,2.221297308707982,-0.8292932805370539,5.588612033727765,0.7244926691055298,0.1326536238193512,0.35004478693008423
1772376781773119700,0.58911962890625,1.7587470172204076,-0.7519570890087633,5.886660914322734,1.0019969940185547,0.1048465222120285,0.48893681168556213
1772376781783068700,0.599068603515625,1.256112260364741,-0.6235858529005199,6.052647010815143,1.2710239887237549,0.2112797647714615,0.6097913384437561
1772376781793017600,0.609017578125,0.8350873537685721,-0.4422085644003004,6.547212735244631,1.4824342727661133,0.46475479006767273,0.6874247789382935
1772376781802966500,0.618966552734375,0.5897346193661913,-0.07404014565758407,7.243768766483664,1.5876868963241577,0.7802498936653137,0.7146700024604797
1772376781812915500,0.62891552734375,0.32855105942972,0.28941417711004613,7.864530428808927,1.6181459426879883,0.9948794841766357,0.6927648782730103
1772376781822864600,0.63886474609375,-0.12039116060715167,0.3730561907842755,8.38827256336212,1.5741432905197144,1.025855541229248,0.6171939373016357
1772376781832813600,0.6488134765625,-0.6799249952379613,0.5111657077051699,8.733827876019477,1.4574681520462036,0.7902866005897522,0.5021026134490967
1772376781842762800,0.6587626953125,-1.0116632333364337,0.7171249181456864,8.724826823440194,1.3040883541107178,0.2618810832500458,0.381600946187973
1772376781852711700,0.668711669921875,-0.8762865023802965,0.9516237021110951,7.838057432425022,1.0888906717300415,-0.1528017669916153,0.25897541642189026
1772376781862660600,0.67866064453125,-0.5389268807360902,1.1459244773313402,5.641436445942521,0.9008432030677795,-0.44847628474235535,0.12562908232212067
1772376781872609500,0.688609619140625,-0.7389234929777682,1.0550957670234142,3.2571389246851203,0.8762414455413818,-0.602976381778717,0.04870546609163284
1772376781882558500,0.698558349609375,-0.7189879355385899,1.1019048644714058,1.3341788119941949,1.0401902198791504,-0.38401347398757935,0.06543224304914474
1772376781892507600,0.708507568359375,-0.46488881743773813,1.2780104961790144,-0.5605290196806192,1.3054083585739136,0.1811603605747223,0.17717139422893524
1772376781902456600,0.71845654296875,-0.3278442993998527,1.6484250864133239,-1.7060919702231883,1.6074491739273071,0.8759124875068665,0.47067758440971375
1772376781912405500,0.728405517578125,0.5428238516420125,2.086902282265574,-1.7769219947278498,1.8521215915679932,1.5530734062194824,1.036503791809082
1772376781922354700,0.738354736328125,1.819930823110044,2.025549549549818,-0.22036942858695982,1.928749442100525,1.8178472518920898,1.774627685546875
1772376781932303600,0.7483037109375,2.478848028567433,1.0867761227920651,1.730703264388442,1.7813273668289185,1.4016557931900024,2.41813325881958
1772376781942252500,0.75825244140625,3.118769441653788,0.050768940989673134,3.2858190757244823,1.4606202840805054,0.7850128412246704,2.95947265625
1772376781952201700,0.76820166015625,3.9261128292545675,-1.6065014229193328,4.255819707655906,0.9685625433921814,0.4007148742675781,3.2519102096557617
1772376781962150700,0.778150634765625,3.8838960280328987,-3.253808903479576,4.006466176646947,0.13230574131011963,-0.5920383334159851,3.2708077430725098
1772376781972098600,0.7880986328125,2.4408628735661506,-4.700746956430375,2.3402140493810175,-1.1051207780838013,-2.941683053970337,2.87148118019104
1772376781982047500,0.798047607421875,-1.7618036283120513,-5.732018049621582,-0.6236234814971685,-2.381308078765869,-4.96063232421875,1.9941619634628296
1772376781991996400,0.807996337890625,-6.49460459612906,-5.896897646176814,-6.038807286033034,-2.8558995723724365,-3.9529495239257812,0.7620560526847839
1772376782001945600,0.817945556640625,-8.336023905208707,-4.494784531119466,-13.089745788240432,-2.4897007942199707,-1.8112306594848633,-0.34582000970840454
1772376782011894300,0.827894287109375,-8.011177618581057,-1.0548064286880194,-11.887627422261238,-1.9536336660385132,0.08955898880958557,-1.1594312191009521
1772376782021843200,0.83784326171875,-6.191598385387659,3.193620684498548,-8.561336635416746,-1.6206543445587158,1.2559316158294678,-1.631405234336853
1772376782031792000,0.847792236328125,-4.36973747099787,5.2606993452668185,-4.11308355384767,-1.5064879655838013,1.7833733558654785,-1.783596158027649
1772376782041741000,0.857740966796875,-1.850688072684407,6.117295716336369,-0.692825612539053,-1.4191296100616455,1.9449174404144287,-1.4103407859802246
1772376782051690200,0.867690185546875,1.773411940780282,5.241788308569789,1.1135527782976626,-1.38923978805542,1.9133296012878418,-0.6238997578620911
1772376782061639400,0.877639404296875,3.488290444049239,3.5915731238692996,2.4149083480983973,-1.4888670444488525,1.7356210947036743,0.18629059195518494
1772376782071588400,0.88758837890625,3.425292428344488,2.508891869175434,3.375675287738442,-1.6046463251113892,1.5062053203582764,0.8079848289489746
1772376782081537300,0.897537353515625,3.3860473364099857,1.6361010268911718,3.866984056198597,-1.7057693004608154,1.2762298583984375,1.2142369747161865
1772376782091486200,0.907486328125,3.5054008610650893,0.6723764064893126,3.6656495829492806,-1.705501914024353,1.0400424003601074,1.426451325416565
1772376782101435100,0.91743505859375,3.1700340572059154,-0.37071861468218265,2.973746345952153,-1.4656928777694702,0.8940385580062866,1.257806420326233
1772376782111384000,0.927384033203125,2.246471935844421,-1.6682532379552721,1.9403268425554037,-0.9286021590232849,0.8341812491416931,0.9154736399650574
1772376782121333200,0.937333251953125,1.6576077791698276,-2.8344185392826793,1.367303082960844,-0.3014512062072754,0.6610153317451477,0.7758960127830505
1772376782131282400,0.947282470703125,0.6563747544329613,-2.5440239728331564,1.8845020794808864,0.233965665102005,0.3468124270439148,0.679999589920044
1772376782141231400,0.9572314453125,-0.4076197738390416,-1.5018503773555159,3.063099284619093,0.6623649001121521,0.21856020390987396,0.57403165102005
1772376782151180300,0.96718017578125,-0.4044270422123372,-1.2883505422770976,4.18156672296524,0.9205979704856873,0.2871035635471344,0.49905622005462646
1772376782161129200,0.977129150390625,0.0985916541933082,-1.4199696742653847,5.196700043565034,1.0249797105789185,0.4465582072734833,0.4522586464881897
1772376782171078100,0.987078125,0.587985035752505,-1.4113031143374741,6.020909225770831,0.9784157276153564,0.592973530292511,0.43372976779937744
1772376782181027000,0.997027099609375,0.8080338540829718,-1.2171335642814636,6.504203614601493,0.8041599988937378,0.5688822865486145,0.4080513119697571
1772376782190976300,1.006976318359375,0.6005866701070219,-0.8140631973750889,6.406431222635507,0.5383339524269104,0.28674086928367615,0.40497562289237976
1772376782200925200,1.01692529296875,0.6455581037990749,-0.11798552423752844,5.618138572463393,0.24113261699676514,-0.20542939007282257,0.4310929775238037
1772376782210874400,1.026874267578125,0.4844257309481501,0.5209439552020281,3.795848326745629,0.06351368129253387,-0.4221160411834717,0.5901469588279724
1772376782220823300,1.0368232421875,0.41225291353240606,0.8274434879519045,0.5307517210543156,0.13378891348838806,-0.36726558208465576,0.8437613844871521
1772376782230772200,1.046772216796875,-0.2466647668490186,0.9399949313767254,-1.9629139374166726,0.45344972610473633,-0.1674497127532959,1.0967811346054077
1772376782240721200,1.05672119140625,-0.7265589553147555,1.1769266415774822,-4.331440473568439,0.9227202534675598,0.11806432157754898,1.2572888135910034
1772376782250669300,1.06666943359375,-1.312597533174604,1.22418085244447,-5.682957958376408,1.391141653060913,0.21284767985343933,1.3274704217910767
1772376782260618200,1.0766181640625,-0.9528943796340376,0.5290729741871356,-6.627107525214552,1.8052797317504883,0.24286815524101257,1.4416112899780273
1772376782270567200,1.086567138671875,-0.1147872487860266,-0.4306033937372267,-6.719122376567125,2.0192580223083496,0.13545005023479462,1.5782077312469482
1772376782280516000,1.09651611328125,0.39362650246303527,-1.2859151318237185,-5.4347892532378435,1.8624639511108398,-0.3941117823123932,1.5608104467391968
1772376782290465000,1.106465087890625,0.3484492074679583,-2.620741886332631,-3.8712721087813375,1.4775359630584717,-1.276081919670105,1.3698718547821045
1772376782300414200,1.116414306640625,-0.74685092497617,-3.8247313068807123,-3.4450761562228203,1.0139073133468628,-2.2686281204223633,1.141750454902649
1772376782310363400,1.12636328125,-2.924826832221448,-3.7708699528336522,-4.35133935225904,0.42701804637908936,-3.064392328262329,0.851242184638977
1772376782320312300,1.136312255859375,-5.514000737118721,-2.7838918826162815,-6.352474006998539,-0.23821642994880676,-3.274958610534668,0.475293904542923
1772376782330261200,1.14626123046875,-8.175546927526593,-2.1039206370837986,-9.736391053381562,-0.7685152888298035,-2.6328728199005127,-0.046417079865932465
1772376782340210200,1.156210205078125,-10.068021301060915,-1.634111752770096,-13.321037592858076,-1.0522027015686035,-1.4305330514907837,-0.6579025387763977
1772376782350159000,1.1661591796875,-9.942199457174539,-0.470565255638957,-14.703940396010875,-1.1196770668029785,0.05522322654724121,-1.1546074151992798
1772376782360108000,1.17610791015625,-7.665049474471807,0.7410100899934768,-13.420760534369945,-1.1236798763275146,1.4675079584121704,-1.3602503538131714
1772376782370057500,1.186057373046875,-4.515732918862998,1.435329448221624,-10.20022144780755,-1.1973578929901123,2.41536808013916,-1.3180564641952515
1772376782380006400,1.19600634765625,-1.810777210317552,1.6416028391778468,-6.5352259448528285,-1.2518664598464966,2.8476076126098633,-1.1868374347686768
1772376782389955300,1.205955322265625,-0.14571067610699684,1.243295010498166,-3.3991251369088884,-1.1864627599716187,2.796663999557495,-1.0426232814788818
1772376782399904300,1.215904296875,0.43813083009999243,0.6587868570759892,-0.9713777655035257,-0.9904738068580627,2.35758376121521,-0.9509040117263794
1772376782409853200,1.225853271484375,0.4161541952872649,0.1863474781282246,0.9071937548846006,-0.7156121134757996,1.7906478643417358,-0.8471601009368896
1772376782419802000,1.235802001953125,0.8411932694282382,-0.25148659751489755,2.309472289636731,-0.43479007482528687,1.2631515264511108,-0.7459802031517029
1772376782429751000,1.2457509765625,0.9996441481102257,-0.4991005913801491,3.4434283890157937,-0.19705021381378174,0.8295151591300964,-0.660053014755249
1772376782439700200,1.2557001953125,1.1871405040126293,-0.47288639206290245,4.22841615242362,0.0061417752876877785,0.5803583264350891,-0.5169227123260498
1772376782449649400,1.2656494140625,1.318871498877555,-0.4152149782083928,4.909001292070746,0.16182968020439148,0.46093979477882385,-0.33361655473709106
1772376782459598300,1.275598388671875,0.893027428496629,-0.37288171100020406,5.474028207692504,0.2753290832042694,0.3645504117012024,-0.20753344893455505
1772376782469547300,1.28554736328125,0.7243385027863085,-0.43715953738242386,5.825553242409229,0.4078900218009949,0.35437455773353577,-0.06553558260202408
1772376782479496200,1.29549609375,1.2133246735177934,-0.6687609924711286,5.886757360434532,0.5432449579238892,0.49199312925338745,0.1249920204281807
1772376782489445000,1.305445068359375,0.7880939127296209,-0.6733775463558733,6.249596400848031,0.6368839740753174,0.5746364593505859,0.23543769121170044
1772376782499394300,1.315394287109375,0.11282569378893821,-0.23574893015697598,6.623634880667924,0.6982320547103882,0.6100205183029175,0.24482746422290802
1772376782509343200,1.32534326171875,-0.008571355925127864,0.025852234137058255,7.021003967192769,0.6949343085289001,0.6385215520858765,0.24498581886291504
1772376782519292200,1.335292236328125,-0.14399137803371995,-0.08977671703696251,7.622039769306778,0.6067623496055603,0.5060913562774658,0.23769089579582214
1772376782529240000,1.345239990234375,-0.3090362846858799,-0.14460223994106053,8.014369108098744,0.4849615693092346,0.3417651057243347,0.19740526378154755
1772376782539189200,1.355189208984375,-0.22897921682633457,-0.19229674192145466,8.215944988888502,0.3977081775665283,0.35684046149253845,0.1113143265247345
1772376782549138400,1.365138427734375,-0.2024469645358622,-0.2644632757268846,8.093741335499287,0.37349972128868103,0.45481589436531067,-0.0027583411429077387
1772376782559087400,1.37508740234375,0.01272920625694096,-0.4361407157287001,7.552320920914411,0.38797131180763245,0.5250075459480286,-0.06645156443119049
1772376782569036300,1.385036376953125,0.6518395221561193,-0.19179288405254483,6.403979153308272,0.43391793966293335,0.6226898431777954,-0.025740310549736023
1772376782578985200,1.394985107421875,0.9217432353712618,0.24961232807561753,4.989144503843784,0.4549212157726288,0.6332359910011292,0.06553900241851807
1772376782588934100,1.40493408203125,0.97867113738209,0.6057112465791404,3.416722168397903,0.5240495204925537,0.571386456489563,0.2246856391429901
1772376782598883000,1.414883056640625,1.2372453550703824,0.6427445076830685,2.0655933906465767,0.682197093963623,0.47145164012908936,0.43448466062545776
1772376782608832000,1.42483203125,1.4268334225550292,0.3901026026532054,1.4288941544771194,0.8469475507736206,0.12676607072353363,0.70783931016922
1772376782618781400,1.434781494140625,2.9341455724477767,0.07377996035143733,0.9348562533140182,0.9321638941764832,0.009189382195472717,1.1119135618209839
1772376782628730400,1.44473046875,4.072543161405623,-0.23911942950338125,0.6314391236841679,0.890973687171936,0.21576988697052002,1.5644227266311646
1772376782638679300,1.45467919921875,4.611985553915798,-0.7217207215033471,-0.1545750601619482,0.7427285313606262,0.06291244179010391,1.9819719791412354
1772376782648628200,1.464628173828125,3.486308038060367,-0.8964479044646024,-0.9570517185091971,0.47411417961120605,-1.2099809646606445,2.1461408138275146
1772376782658577200,1.4745771484375,1.389157187372446,-0.44794338172525167,-1.884726535886526,0.10263887792825699,-2.9228363037109375,2.0104992389678955
1772376782668526000,1.484526123046875,0.3599248334672302,-0.5805094391748309,-3.806628079435229,-0.29267144203186035,-3.893265724182129,1.6900591850280762
1772376782678475300,1.494475341796875,-0.3808305511128157,-1.1419167029947042,-7.340259886467456,-0.6271852254867554,-3.504992723464966,1.0969513654708862
1772376782688424400,1.504424560546875,-1.6980872352048755,-0.5772393314629792,-10.623547397887705,-0.8284001350402832,-3.2535276412963867,0.2723345160484314
1772376782698373400,1.514373291015625,-2.4860990226089954,0.6083093002483249,-11.293776563215255,-0.7701972723007202,-2.4918651580810547,-0.3774416446685791
1772376782708322300,1.524322265625,-1.9107754616394639,1.2995740932114421,-11.014494342410563,-0.6653154492378235,-1.3962002992630005,-0.6569471955299377
1772376782718271200,1.534271240234375,-1.1963045651338995,1.8801051596961915,-8.306835804647207,-0.7113437056541443,-0.3327805697917938,-0.6227500438690186
1772376782728220200,1.54422021484375,-0.48221886855363844,2.4233415376618503,-4.811992285692692,-0.9296424388885498,0.3998353183269501,-0.40922820568084717
1772376782738169000,1.554169189453125,-0.055824763074517246,2.5346599321603773,-1.6121154634088277,-1.1996768712997437,0.8117858171463013,-0.1689319759607315
1772376782748118300,1.5641181640625,0.10036876513473689,2.1838152809232474,0.46458676575124264,-1.410142183303833,1.0347942113876343,0.00903312861919403
1772376782758067200,1.574067138671875,0.004046060520410537,1.766937630199641,1.6918465872496367,-1.5006396770477295,1.125954031944275,0.06744077801704407
1772376782768016400,1.584016357421875,-0.17464717652760445,1.358953480027616,2.5394120951235295,-1.4756087064743042,1.111289143562317,0.0015366654843091965
1772376782777965300,1.59396533203125,-0.1279436218133196,0.8423369595706462,3.15219561817646,-1.3713438510894775,1.014298439025879,-0.21742551028728485
1772376782787913200,1.603913330078125,0.00023782734386622905,0.20426482761278747,3.7478029655009504,-1.2188819646835327,0.7895359396934509,-0.6853545904159546
1772376782797862400,1.6138623046875,0.1416424768200144,-0.5457024758182466,4.386861916539073,-1.0690253973007202,0.40597736835479736,-1.0434378385543823
1772376782807811300,1.623811279296875,0.7702598576143384,-0.9378652989368885,4.742737547680735,-0.9259580373764038,0.08680670708417892,-1.0741524696350098
1772376782817760300,1.63376025390625,1.520024916471541,-0.7329560359407216,4.929447283250093,-0.8131271004676819,-0.12501101195812225,-0.9238359332084656
1772376782827709200,1.643709228515625,1.338529700680077,0.2046357067517936,4.937074124866724,-0.703464925289154,-0.2593846619129181,-0.7857257127761841
1772376782837658000,1.653658203125,1.075679193912074,0.7731202154815197,4.76473661352098,-0.5581633448600769,-0.2932930886745453,-0.6363170742988586
1772376782847607000,1.66360693359375,1.3163133388273418,0.551685130424425,4.389620859858393,-0.3325885236263275,-0.292501300573349,-0.4534280300140381
1772376782857556200,1.67355615234375,1.3493588454693555,0.24223368906639514,4.0068046148210765,-0.05180346593260765,-0.2871305048465729,-0.28104081749916077
1772376782867505400,1.68350537109375,1.2210121592804788,0.11523637165986,4.103433681970834,0.2396208941936493,-0.2359873205423355,-0.14305618405342102
1772376782877454300,1.693454345703125,1.0621125139176846,-0.014839695604890584,4.550823813727498,0.47510239481925964,-0.17721109092235565,-0.036904722452163696
1772376782887403300,1.7034033203125,0.6788999630391598,-0.16543744963370263,5.130014863780141,0.6184368133544922,-0.16751067340373993,0.028071638196706772
1772376782897352200,1.713352294921875,0.15712847097180782,-0.31491387148238714,5.524284230723977,0.6870750188827515,-0.20097649097442627,0.04411612078547478
1772376782907301000,1.723301025390625,-0.44853323737718165,-0.4245842065129429,5.637667448797822,0.7101617455482483,-0.277353972196579,-0.007182326167821884
1772376782917250000,1.73325,-1.0335737441103905,-0.47539779036194085,5.382479220286012,0.6929726600646973,-0.44119325280189514,-0.10553339123725891
1772376782927199200,1.74319921875,-1.2140061529759316,-0.550086389990896,4.728539510980248,0.6084169149398804,-0.7272239923477173,-0.20152756571769714
1772376782937148400,1.7531484375,-0.8879963755268603,-0.705773210787028,3.4549691892057655,0.5197579264640808,-0.9866694211959839,-0.25070762634277344
1772376782947097300,1.763097412109375,-0.78561977770105,-0.7921152772001921,1.4937871901482342,0.49457821249961853,-1.1175910234451294,-0.27249619364738464
1772376782957046300,1.77304638671875,-1.2333104998394846,-0.7208478841915726,-1.1379074673533438,0.594037652015686,-1.0353461503982544,-0.28409266471862793
1772376782966995200,1.7829951171875,-1.5626245795309543,-0.5703127470701933,-3.7489860378056763,0.7605233788490295,-0.6730965971946716,-0.26139169931411743
1772376782976944000,1.792944091796875,-1.0857402038730681,-0.5634283943839371,-5.318611436009407,0.8971589803695679,-0.1877986043691635,-0.17486372590065002
1772376782986893000,1.80289306640625,-0.20178996193185447,-1.113566368431598,-5.547134360435605,0.7944582104682922,-0.006306629627943039,-0.0710468590259552
1772376782996842200,1.81284228515625,0.2048894623171538,-2.0869917141146956,-4.81229331446588,0.42896461486816406,-0.33500516414642334,-0.030418476089835167
1772376783006791200,1.822791259765625,-0.17712452642656862,-3.033229047012329,-4.769655365222692,-0.036206383258104324,-0.9228457808494568,-0.09246449172496796
1772376783016740400,1.832740234375,-1.6469281258538364,-3.2001942176699636,-6.036224868324399,-0.47720322012901306,-1.5107945203781128,-0.2729271948337555
1772376783026689300,1.842689208984375,-3.5343379094749685,-2.33798088350147,-8.058282484105229,-0.8854804635047913,-1.9513949155807495,-0.501775860786438
1772376783036638200,1.85263818359375,-5.141790057247877,-1.3029372860342263,-10.597737249326705,-1.2052949666976929,-2.0756418704986572,-0.7660208344459534
1772376783046586400,1.86258642578125,-6.3533998896718025,-0.6578896159753203,-13.765866934216021,-1.245510220527649,-1.6113643646240234,-1.0203139781951904
1772376783056535300,1.872535400390625,-6.636359922206402,-0.09362725498527288,-16.14028603553772,-1.123858094215393,-0.779727578163147,-1.290167212486267
1772376783066484200,1.882484130859375,-5.710215383136272,1.091588929901272,-15.844199979448318,-0.967427134513855,0.15280239284038544,-1.4386870861053467
1772376783076433200,1.89243310546875,-3.6073417708873747,2.1736486916959286,-13.608506627249717,-0.8219578266143799,0.9336534738540649,-1.3105299472808838
1772376783086382000,1.902382080078125,-1.0841213704995811,2.4668431179970502,-10.584831006002425,-0.7025750279426575,1.3958922624588013,-0.894413411617279
1772376783096331000,1.9123310546875,0.8905531473375856,2.315220770160854,-7.424039993438124,-0.5956917405128479,1.5518327951431274,-0.3749965727329254
1772376783106280400,1.922280517578125,1.8287696708649397,1.9411863819941877,-4.649222813159227,-0.4725826382637024,1.4852052927017212,0.08430458605289459
1772376783116229400,1.9322294921875,1.9828461338549852,1.3665499265059828,-2.4963293247222897,-0.29088926315307617,1.3379039764404297,0.40770581364631653
1772376783126178300,1.94217822265625,1.7419667089417576,0.5997847791396081,-0.847171540120244,-0.053846586495637894,1.2039425373077393,0.5720390677452087
1772376783136127200,1.952127197265625,1.3861603436440229,-0.16635397995673118,0.5667611920684575,0.189560204744339,1.0954033136367798,0.6228671073913574
1772376783146076200,1.962076171875,1.081875199007988,-0.8038350141536444,1.8934312358677385,0.38560712337493896,0.9857940077781677,0.6156729459762573
1772376783156025000,1.972025146484375,0.8465299542810767,-1.187238776755333,3.0438293514817953,0.5367149114608765,0.9079508781433105,0.5838913321495056
1772376783165974000,1.98197412109375,0.6611335663326084,-1.2140337716352194,3.969218688270449,0.6762236952781677,0.8770010471343994,0.539436936378479
1772376783175923500,1.99192333984375,0.5621025526076555,-1.0849900430928916,4.705328731262684,0.7984481453895569,0.8670123219490051,0.49760717153549194
1772376783185872400,2.001872314453125,0.2942035668110475,-0.941597690398246,5.3591287398368115,0.9253007173538208,0.8517135381698608,0.4121946692466736
1772376783195821300,2.0118212890625,0.3705832613321021,-0.6963815514549613,5.995829145050048,1.0531636476516724,0.7671033143997192,0.36440080404281616
1772376783205770200,2.021770263671875,0.39371165999583896,-0.372588134881109,6.438120492362976,1.1876624822616577,0.664605438709259,0.3381255567073822
1772376783215719200,2.03171923828125,0.7646295966424047,-0.11338804037943481,6.887308028930425,1.321908712387085,0.6114226579666138,0.3755190074443817
1772376783225668000,2.041668212890625,0.9337638549674302,0.08505129595026373,7.328343823224306,1.4258873462677002,0.6107653379440308,0.44891417026519775
1772376783235617300,2.0516171875,0.8017889683440327,0.29191432336270806,7.673781062459946,1.4709688425064087,0.6471971273422241,0.5124009847640991
1772376783245566200,2.061566162109375,0.5718931115968152,0.5606180131383239,7.923781659200787,1.4598420858383179,0.6472846269607544,0.5348227024078369
1772376783255515400,2.071515380859375,0.22636245845668015,0.8719672509416937,8.104110753822326,1.3922417163848877,0.5875816345214844,0.509499728679657
1772376783265464300,2.08146435546875,-0.09614640733250417,1.104845594098419,8.125991161718964,1.2837461233139038,0.47648561000823975,0.4550052881240845
1772376783275413200,2.091413330078125,-0.17831992848990483,1.245902270387113,7.988503429958224,1.1210863590240479,0.32266783714294434,0.3885226845741272
1772376783285362200,2.101362060546875,-0.07602196712456644,1.2090846978604792,7.4787676089257,0.9278410077095032,0.06565762311220169,0.3392704427242279
1772376783295311000,2.11131103515625,0.2396301555044949,1.0110004585787653,6.303719036179781,0.7795189023017883,-0.12805218994617462,0.3352448046207428
1772376783305259300,2.12125927734375,0.8610386643659323,0.7524959451258182,4.665836094307899,0.7631674408912659,-0.09050235152244568,0.3870736360549927
1772376783315208200,2.131208251953125,1.368893859283626,0.5610986362621188,2.7584932374656197,0.9009713530540466,0.12491142004728317,0.49833837151527405
1772376783325157000,2.1411572265625,1.8414064495980738,0.446544036321342,1.2837830882310866,1.1267684698104858,0.41377806663513184,0.6846858263015747
1772376783335106000,2.15110595703125,2.591488611580431,0.3130933049917221,0.1970551884949207,1.3124680519104004,0.5841575264930725,0.9725410342216492
1772376783345055200,2.16105517578125,3.463350356321037,0.04813800796419382,-0.5226239441782236,1.3570878505706787,0.3844192624092102,1.334873914718628
1772376783355004400,2.17100439453125,3.837695710133016,-0.29583734202533957,-1.0536001216381787,1.2489336729049683,-0.26791617274284363,1.6687639951705933
1772376783364953300,2.180953369140625,3.2660052449688313,-0.8044476661592721,-1.6965034731447695,0.9605867862701416,-1.3118810653686523,1.7725934982299805
1772376783374902300,2.19090234375,1.6165939239971339,-1.766822625517845,-2.562050043389201,0.5486639142036438,-2.338294744491577,1.4212168455123901
1772376783384851200,2.200851318359375,-0.4934001147162169,-3.1403970438331363,-4.200574790295958,0.11549130827188492,-2.9364984035491943,0.8118414282798767
1772376783394800000,2.210800048828125,-2.2109322742991147,-3.8254543604582545,-6.408177189520001,-0.3422307074069977,-3.144467830657959,0.22064706683158875
1772376783404749000,2.2207490234375,-3.6687154002606865,-2.7274992565259337,-8.409711072710156,-0.7633099555969238,-3.077425718307495,-0.30007854104042053
1772376783414698200,2.2306982421875,-4.807795418524742,-0.8978732610926031,-10.241907210892439,-0.9458451271057129,-2.528855562210083,-0.7202185392379761
1772376783424647400,2.2406474609375,-5.000834941637516,0.3607905834510922,-11.2668756968081,-1.038198471069336,-1.8067182302474976,-1.0071724653244019
1772376783434596400,2.250596435546875,-4.170978401194513,1.1087176132261753,-10.80032669107318,-1.1011791229248047,-0.915687084197998,-1.1118628978729248
1772376783444545300,2.260545166015625,-2.8547373969510197,1.5457248826563357,-9.391438382792472,-1.1558022499084473,0.1063174307346344,-1.0624792575836182
1772376783454494200,2.270494140625,-1.604927013209462,2.0400711191162464,-7.273900869897007,-1.2075940370559692,1.0497766733169556,-0.9403203725814819
1772376783464443100,2.280443115234375,-0.5258111959122121,2.4325074254140255,-4.7082735525429245,-1.2487189769744873,1.7701152563095093,-0.822577953338623
1772376783474392000,2.29039208984375,0.2805063557721674,2.3777584748774765,-2.1292133376419544,-1.2463871240615845,2.182112216949463,-0.7780230045318604
1772376783484341200,2.30034130859375,0.7099378561858087,1.7961098025396465,0.15931494816541672,-1.208031177520752,2.1541872024536133,-0.7913827300071716
1772376783494290200,2.310290283203125,0.9200918149024248,0.9544085105240344,1.9898785167098043,-1.1224801540374756,1.8322346210479736,-0.8350018262863159
1772376783504239400,2.3202392578125,0.9434197181936352,0.479252419963479,3.198296859616041,-0.978280782699585,1.391413927078247,-0.9024211168289185
1772376783514188300,2.330188232421875,0.8003591547366231,0.5255747568078338,4.024429118838906,-0.8019614219665527,0.8861387968063354,-0.9736303091049194
1772376783524137200,2.34013720703125,0.7123337383463978,0.9145216135546564,4.430499398213625,-0.6105459332466125,0.4805999994277954,-0.9717674851417542
1772376783534086100,2.350086181640625,1.3403348504059016,1.4494889064773917,4.494693930226564,-0.4162624776363373,0.218260258436203,-0.8605852723121643
1772376783544035000,2.36003515625,1.5455883967950939,1.6459567966036497,4.559116425776481,-0.22746437788009644,0.11214624345302582,-0.6967951655387878
1772376783553983200,2.369983154296875,1.7406982964411377,1.8322205419711768,4.42121952869296,-0.02513231337070465,0.1772565394639969,-0.5321279168128967
1772376783563932200,2.37993212890625,1.713439118115604,1.8229229906633495,4.452466899871826,0.18216870725154877,0.32069310545921326,-0.3612588942050934
1772376783573881000,2.389881103515625,1.5569950492113829,1.7484860277079044,4.772300326773524,0.3744332194328308,0.4743843972682953,-0.21204598248004913
1772376783583830000,2.399830078125,1.2939772961176932,1.7043248144201932,5.312008676743507,0.527664840221405,0.614526629447937,-0.09305870532989502
1772376783593779200,2.409779296875,1.0476524652801453,1.6475824981093405,5.94580634625256,0.6527087688446045,0.6882197260856628,-0.0050904941745102406
1772376783603728400,2.419728271484375,0.7875388361301273,1.6330660431094466,6.426925729131698,0.745433509349823,0.7150434851646423,0.049348052591085434
1772376783613677300,2.42967724609375,0.6806219645261764,1.5826893163077533,6.817763368061184,0.7972346544265747,0.6721999049186707,0.0859002023935318
1772376783623626200,2.439626220703125,0.7935368344359099,1.5805705705881117,7.021904715424776,0.831013023853302,0.5963864326477051,0.12648653984069824
1772376783633575200,2.4495751953125,0.7707721910506486,1.681400012037158,7.156168808963894,0.809877872467041,0.46139344573020935,0.1787327080965042
1772376783643524000,2.459524169921875,0.6131501644082367,1.7717551134839653,7.047982575011253,0.7451655268669128,0.3008957505226135,0.22528883814811707
1772376783653473000,2.46947314453125,0.43381030001975596,1.80662184420377,6.556617107927799,0.6552409529685974,0.19975528120994568,0.2864331603050232
1772376783663422500,2.47942236328125,0.009657397596165537,1.4132967723727226,5.629239227670431,0.5824985504150391,0.21540816128253937,0.3255698084831238
1772376783673371400,2.489371337890625,-0.4476458966160193,0.772891959683597,4.555969944444298,0.542762041091919,0.3515114188194275,0.3472119867801666
1772376783683320300,2.4993203125,-0.6328986748427152,0.059919923433661454,3.4886417417049405,0.5618709921836853,0.6338441371917725,0.3550030589103699
1772376783693269200,2.509269287109375,-0.5884875053819268,-0.8705942090228199,2.5656173804819584,0.5989411473274231,0.9996353983879089,0.3726496994495392
1772376783703218200,2.51921826171875,-0.1146172533808276,-1.891918200956285,2.1121143188029525,0.49493467807769775,1.148194432258606,0.40199902653694153
1772376783713167000,2.5291669921875,0.5662468128055334,-2.9277167084440587,2.0960791298031807,0.1283646821975708,0.7120255827903748,0.44044363498687744
1772376783723116000,2.539115966796875,0.8861049357570707,-4.1146956652194255,1.5840917304515838,-0.3957599699497223,-0.13052166998386383,0.39461973309516907
1772376783733065200,2.549065185546875,0.1003516496031545,-4.940376673543453,0.0005991349369287491,-0.9252813458442688,-1.0295952558517456,0.14805445075035095
1772376783743014400,2.559014404296875,-1.505481427334249,-5.3748342584908,-2.7356360934913155,-1.4268975257873535,-1.7927929162979126,-0.30416303873062134
1772376783752963300,2.56896337890625,-2.9874440319150684,-5.326783052027225,-6.2348682027935975,-1.8234893083572388,-2.250781536102295,-0.8389241695404053
1772376783762912300,2.578912353515625,-4.032753002808988,-4.323514941266179,-9.999929177087544,-2.0194473266601562,-2.2321488857269287,-1.327928900718689
1772376783772861200,2.588861083984375,-4.658572240784764,-2.954396917837858,-13.708977756780385,-2.0326809883117676,-1.8882426023483276,-1.763829231262207
1772376783782810000,2.59881005859375,-4.638096146728098,-1.3808074383087456,-16.19545438053012,-1.9066401720046997,-1.270703673362732,-2.0753705501556396
1772376783792758300,2.60875830078125,-3.4205969640046354,-0.000775514417141676,-16.602741049957274,-1.670724868774414,-0.4809454083442688,-2.0845775604248047
1772376783802707200,2.618707275390625,-1.4876193151682615,1.2037602879673241,-15.166795223402977,-1.3594372272491455,0.22789736092090607,-1.7284406423568726
1772376783812656000,2.62865625,0.25896836810503154,2.2880304192878302,-12.65941609687805,-1.0284923315048218,0.7075848579406738,-1.1044061183929443
1772376783822605000,2.63860498046875,1.3412209855906665,2.7907348803788423,-9.78133961765468,-0.6916211247444153,0.9788813591003418,-0.35719650983810425
1772376783832554200,2.64855419921875,1.708413545038551,2.626838449642062,-6.979863563030958,-0.3635711073875427,1.1006163358688354,0.35676315426826477
1772376783842503400,2.65850341796875,1.329751350940764,1.958989165188372,-4.456768396458029,-0.07249069958925247,1.1198068857192993,0.9006016850471497
1772376783852452400,2.668452392578125,0.6017069063086062,1.1204084894113242,-2.3120430169075727,0.17121917009353638,1.0968589782714844,1.2278159856796265
1772376783862401300,2.6784013671875,-0.08900600665910169,0.26229557629898187,-0.35357203037440776,0.34872162342071533,1.0643974542617798,1.3653639554977417
1772376783872350200,2.68835009765625,-0.603332279020734,-0.6158781280674039,1.3867372667491435,0.48149752616882324,1.0119400024414062,1.2704054117202759
1772376783882299100,2.698299072265625,-1.0627890980049968,-1.5064517336711287,2.881331097105145,0.5709673762321472,0.8427209854125977,1.0019978284835815
1772376783892248000,2.708248046875,-1.2137316468834876,-2.220845619417727,4.233658729252219,0.628739595413208,0.5398854613304138,0.7101292014122009
1772376783902197200,2.718197265625,-1.067120624403283,-2.4252006095319985,5.355315319028496,0.6700701117515564,0.19702549278736115,0.4844817519187927
1772376783912146400,2.728146484375,-0.956714084052667,-1.941978701415658,6.141919869983196,0.7093149423599243,-0.10589496046304703,0.33182668685913086
1772376783922095400,2.738095458984375,-0.8235768756516277,-1.0697134904406964,6.54147097672224,0.7447727918624878,-0.29892951250076294,0.25056636333465576
1772376783932044300,2.748044189453125,-0.6083601536527276,-0.2748955301530659,6.683310473951697,0.790947437286377,-0.4120584726333618,0.2345924824476242
1772376783941993200,2.7579931640625,-0.27187188974926246,0.27679961020871996,6.616549306321144,0.872128427028656,-0.4197150468826294,0.27598556876182556
1772376783951942100,2.767942138671875,-0.042105321937520056,0.7351575645729899,6.511416030198335,0.9644900560379028,-0.35464760661125183,0.3364044427871704
1772376783961891000,2.77789111328125,0.08958388874544762,0.9894095351479947,6.457132651346922,1.084897518157959,-0.17287980020046234,0.4252845048904419
1772376783971840300,2.78784033203125,0.09355667396709322,1.1424676148757338,6.582340162727236,1.1912577152252197,0.06876558065414429,0.5067822933197021
1772376783981789200,2.7977890625,-0.07536400097275618,1.2574044921323657,6.961785470026731,1.226339340209961,0.2905018925666809,0.5542111992835999
1772376783991738400,2.80773828125,-0.3339775414578616,1.3539213310793041,7.434591198068857,1.1964898109436035,0.43638932704925537,0.5459088087081909
1772376784001687300,2.817687255859375,-1.0316017133850603,1.2396224594652652,7.732754644954204,1.1392123699188232,0.3727825880050659,0.4553811550140381
1772376784011637000,2.827636962890625,-0.8279298101641237,1.3511238093152642,7.48964088511765,1.1168495416641235,0.2944960296154022,0.41066935658454895
1772376784021586000,2.8375859375,-0.2999429324469529,1.2263108502104878,7.197211013448238,1.0465868711471558,0.16609056293964386,0.4373655915260315
1772376784031534000,2.8475341796875,-0.0029184995288960634,0.6947738239973783,6.774910314762592,0.917386531829834,-0.06657784432172775,0.5137916207313538
1772376784041483000,2.85748291015625,0.3025327662770636,0.2537836224108934,5.779414007046818,0.7669178247451782,-0.2900875508785248,0.5522239208221436
1772376784051432000,2.867431884765625,0.553487284475565,-0.30706366943866015,4.345199534329772,0.6458801031112671,-0.4675840437412262,0.5666545033454895
1772376784061380900,2.877380859375,1.264158204176277,-1.2734180538222193,2.6095009458720684,0.5592955946922302,-0.6370483636856079,0.5923025012016296
1772376784071329800,2.887329833984375,2.1339975031785667,-2.3642545579209924,0.9001660482048988,0.49855366349220276,-0.9290744066238403,0.605124831199646
1772376784081278700,2.89727880859375,2.3789042839117345,-3.1812647685334086,-0.6297568696856498,0.3831188380718231,-1.413962721824646,0.5640080571174622
1772376784091227600,2.9072275390625,1.962682174487412,-3.6940760514885187,-1.9739181465119122,0.12694936990737915,-1.992493987083435,0.4391782283782959
1772376784101176800,2.9171767578125,0.8344714138273149,-3.8823639961600303,-3.778033853113651,-0.2490348219871521,-2.350649833679199,0.21198366582393646
1772376784111126000,2.9271259765625,-0.7910433371197432,-3.5630765127032995,-6.204941851085424,-0.6540912389755249,-2.325640916824341,-0.12267182767391205
1772376784121075000,2.937074951171875,-2.430412937352806,-2.695437061832845,-8.88460938911736,-1.0108133554458618,-2.0215158462524414,-0.5124033093452454
1772376784131024000,2.94702392578125,-3.3606966220542787,-1.5243652837634085,-11.381698007774352,-1.209012508392334,-1.546460747718811,-0.8458302617073059
1772376784140972800,2.956972900390625,-3.0802292831182476,-0.5497866763919591,-13.27533382630348,-1.241421103477478,-1.0164848566055298,-1.0669196844100952
1772376784150921700,2.966921630859375,-1.8129891872785984,0.4361114896342158,-13.837970047396421,-1.1021705865859985,-0.466782808303833,-1.0920703411102295
1772376784160871000,2.976870849609375,-0.042557431352883576,1.3088973634824157,-12.900961584484577,-0.839486300945282,0.043100617825984955,-0.8731521368026733
1772376784170819800,2.98681982421875,1.4677407486133276,2.0477833009287716,-10.709322478067874,-0.5487090349197388,0.4303380846977234,-0.4577469527721405
1772376784180769000,2.99676904296875,2.3729421606369314,2.507384679482877,-7.815632250127196,-0.31553781032562256,0.6121745705604553,0.01964266411960125
1772376784190718000,3.006718017578125,2.692973302067816,2.5579183504119514,-4.592615959796309,-0.17657995223999023,0.5937860012054443,0.4388154447078705
1772376784200667000,3.0166669921875,2.4487208935901523,2.255907580448687,-1.5871581322848796,-0.16418176889419556,0.4232434630393982,0.7156333327293396
1772376784210615800,3.02661572265625,1.8096914609074592,1.701085247977078,0.8392354864239692,-0.251789927482605,0.1559222936630249,0.8058494925498962
1772376784220564700,3.036564697265625,0.8636195477046072,0.9729276252940297,2.5614023931354284,-0.37428656220436096,-0.09233522415161133,0.7024258375167847
1772376784230514000,3.046513916015625,-0.04614186571091413,0.3688327278703451,3.5460704328447576,-0.4907258152961731,-0.26702848076820374,0.47367122769355774
1772376784240462800,3.056462890625,-0.6707795657519251,0.030690614078938958,3.9842578519701957,-0.579998254776001,-0.31203773617744446,0.19218435883522034
1772376784250411800,3.066411865234375,-0.9681476975411176,-0.029696634605526923,4.115664217990637,-0.6312302947044373,-0.23493631184101105,-0.07623670250177383
1772376784260361000,3.07636083984375,-0.8978989800557494,0.10600275243371725,4.068991314142942,-0.6449825763702393,-0.04290921241044998,-0.2870858311653137
1772376784270310000,3.086309814453125,-0.5388373392891138,0.32755978337004776,3.9969828935086724,-0.6124254465103149,0.24135154485702515,-0.4073885381221771
1772376784280258000,3.096258056640625,-0.020961612551286816,0.49215574067831036,4.025404685872793,-0.5248029232025146,0.5496646761894226,-0.4233476221561432
1772376784290207000,3.10620703125,0.4217199031230062,0.6223658826515078,4.197053630432486,-0.3889223039150238,0.7849475145339966,-0.3647162616252899
1772376784300156000,3.116156005859375,0.6587199293196201,0.6454283399395644,4.503029796895385,-0.2067643105983734,0.9180285334587097,-0.2601778507232666
1772376784310104800,3.126104736328125,0.6679928576428443,0.5953111408568919,4.877141926473379,0.013703877106308937,0.9563735723495483,-0.15032245218753815
1772376784320053800,3.1360537109375,0.41407472213208674,0.4939037533894181,5.339895631578564,0.24326346814632416,0.9107472896575928,-0.05713672935962677
1772376784330002700,3.146002685546875,-0.006055939038097858,0.45066126238182186,5.764064462223649,0.44418299198150635,0.7860650420188904,0.023508045822381973
1772376784339951900,3.155951904296875,-0.48283853482194244,0.3956884399615228,6.138358962631226,0.579331636428833,0.6130418181419373,0.06993214040994644
1772376784349901000,3.165901123046875,-1.0179342764299362,0.305426423625648,6.310802856960892,0.6454272866249084,0.4550687074661255,0.06956489384174347
1772376784359850000,3.17585009765625,-1.5758604932010172,0.26497195590138434,6.262812440773844,0.647128164768219,0.33154720067977905,0.023443840444087982
1772376784369799000,3.185798828125,-1.9097110472783445,0.2234489821627736,5.9479521261096,0.6098785400390625,0.23259373009204865,-0.04667319357395172
1772376784379747800,3.195747802734375,-1.9376361421667039,0.15605097793340683,5.29555497007072,0.5646514296531677,0.13830770552158356,-0.10981248319149017
1772376784389696800,3.20569677734375,-1.7229526502616703,0.176134857802093,4.529191243112087,0.5297930240631104,-0.025010909885168076,-0.14749941229820251
1772376784399645700,3.215645751953125,-1.525521906452626,0.22799539342075584,3.6130607330560682,0.5147854089736938,-0.2810446619987488,-0.1527765840291977
1772376784409595000,3.225594970703125,-1.2398007386416197,0.21965923449099062,2.36814718144536,0.5503833889961243,-0.534758448600769,-0.11454849690198898
1772376784419543800,3.235543701171875,-0.6538824992258101,-0.06545300764143466,0.8076666282057762,0.6566269993782043,-0.6497047543525696,-0.021671105176210403
1772376784429493000,3.245492919921875,0.07040529628656804,-0.5102335414215922,-0.28709903203547,0.7880944609642029,-0.6797388195991516,0.1105700209736824
1772376784439442000,3.25544189453125,0.4812681437000632,-1.0216828883737326,-0.49426469565629955,0.75394207239151,-0.9142892360687256,0.2102310061454773
1772376784449390800,3.265390869140625,0.5169284359503538,-1.9635218401819465,-0.2386485971212387,0.43453559279441833,-1.3660860061645508,0.19196972250938416
1772376784459339800,3.27533984375,-0.008770897085219621,-3.2913816782876846,-0.42497605537474153,-0.1373741328716278,-1.8191344738006592,0.0027427540626376867
1772376784469288700,3.285288818359375,-1.37954472489655,-4.1980049398079515,-1.6699942364037035,-0.826740026473999,-2.0800833702087402,-0.3819487392902374
1772376784479238000,3.29523779296875,-3.2336469899386167,-4.14403428016752,-4.165384818971157,-1.493080496788025,-2.0083329677581787,-0.8884223699569702
1772376784489186800,3.305186767578125,-4.8660547152698035,-3.2410081663563846,-7.287656423527002,-2.0166778564453125,-1.5782842636108398,-1.4408198595046997
1772376784499136000,3.315135986328125,-5.8296706146001815,-2.0089590647548436,-10.378494778943061,-2.382133960723877,-1.0575116872787476,-1.9714950323104858
1772376784509085000,3.3250849609375,-5.600839647138119,-0.4188035042196512,-12.654776162117718,-2.569636344909668,-0.586027979850769,-2.394059896469116
1772376784519032800,3.33503271484375,-3.7858363435581324,1.0893781219840049,-13.909416157972812,-2.5123465061187744,-0.08718141913414001,-2.5321855545043945
1772376784528982000,3.34498193359375,-1.279608432894945,2.2423250452980397,-13.900440239834785,-2.229968309402466,0.354393869638443,-2.2920398712158203
1772376784538931000,3.354930908203125,0.8421526890449226,3.1430922742664813,-12.824425457292794,-1.801021933555603,0.6804470419883728,-1.7071524858474731
1772376784548880000,3.3648798828125,2.0258660681530833,3.6584354137867687,-11.15551375542879,-1.3135663270950317,0.896079957485199,-0.9449216723442078
1772376784558828800,3.374828857421875,2.262748532384634,3.6759313229888675,-9.173900962761044,-0.8037024140357971,1.0640180110931396,-0.17204847931861877
1772376784568777700,3.38477783203125,1.847360974088311,3.0581551062151786,-7.084907991826534,-0.3091248869895935,1.2350564002990723,0.4498329162597656
1772376784578726700,3.3947265625,0.9691241413578391,2.0365810850434003,-4.818735914734006,0.1145419180393219,1.3868944644927979,0.8431722521781921
1772376784588675800,3.40467578125,0.010445333103463053,1.024025505977124,-2.3953467385381457,0.42541855573654175,1.4813499450683594,1.018471121788025
1772376784598625000,3.414625,-0.7738995292909443,0.1110075749836862,0.10278349812626839,0.6138377785682678,1.5309064388275146,1.0056456327438354
1772376784608574000,3.424573974609375,-1.3894092624373733,-0.7394915021240711,2.479505031171441,0.6941454410552979,1.5488625764846802,0.7966120839118958
1772376784618523000,3.43452294921875,-1.7843875083029268,-1.5465189556434749,4.522497882953286,0.6651259660720825,1.4640558958053589,0.4719448983669281
1772376784628471800,3.444471923828125,-1.8156126676499842,-2.1259005598321554,6.29309009013772,0.5702484250068665,1.2798231840133667,0.136789008975029
1772376784638420700,3.454420654296875,-1.477023102352023,-2.2426808729983865,7.508293563139438,0.45024940371513367,1.0574589967727661,-0.12421910464763641
1772376784648369700,3.46436962890625,-0.9119052205111831,-1.7994262336112559,8.191030327862501,0.3542879819869995,0.8513244390487671,-0.2926086485385895
1772376784658318800,3.47431884765625,-0.4378058724619448,-1.0137427430242298,8.367830079314112,0.2934858500957489,0.616312563419342,-0.3475553095340729
1772376784668268000,3.48426806640625,-0.11654954575081355,-0.23187778781205415,8.29536163995266,0.2693011462688446,0.434855192899704,-0.3224409222602844
1772376784678217000,3.494217041015625,0.20697545654466373,0.2353082006521523,8.133058615887165,0.26345428824424744,0.3390205204486847,-0.26573291420936584
1772376784688166000,3.504165771484375,0.5282621692609042,0.5703060250684618,7.914703449732064,0.25022581219673157,0.3321346640586853,-0.17720599472522736
1772376784698114800,3.51411474609375,0.8795780912715941,0.7697139141693711,7.844989277514815,0.2450508177280426,0.3786660134792328,-0.03430876135826111
1772376784708063700,3.524063720703125,0.9899664383783936,0.7699810406729578,7.7858719026356935,0.2383127510547638,0.4642466902732849,0.1325657069683075
1772376784718013000,3.534012939453125,0.8326425178997218,0.7837564680472016,7.7603703816324465,0.21053099632263184,0.5347225666046143,0.29033294320106506
1772376784727961900,3.5439619140625,0.5155190806090831,0.9342619406826793,7.765615296548605,0.12438173592090607,0.5407842397689819,0.4161398708820343
1772376784737910800,3.553910888671875,0.15481389215281233,0.9554179798275232,7.620521765959262,-0.04963013157248497,0.31821510195732117,0.474992573261261
1772376784747860000,3.56385986328125,0.04397670529996976,0.7469136149488389,6.997037400671839,-0.2791956663131714,-0.07635857164859772,0.501365602016449
1772376784757807900,3.573807861328125,0.23824242747314273,0.24461451978832482,5.827814757600426,-0.4590684473514557,-0.4455924332141876,0.5175828337669373
1772376784767757000,3.583757080078125,0.7245842211756854,-0.440885572168231,3.8646623352527616,-0.39731746912002563,-0.6222715973854065,0.5704489946365356
1772376784777706000,3.5937060546875,1.5466168630599975,-1.4254304238893092,1.3181547289103268,-0.08393809199333191,-0.502024233341217,0.6576812863349915
1772376784787655000,3.603655029296875,2.4756992091476917,-2.2679157058894632,-0.5522288088470697,0.38762038946151733,-0.5284600853919983,0.7469711899757385
1772376784797603800,3.613603759765625,3.6818306101605294,-2.76544963247478,-1.5524223344683645,0.7387832999229431,-0.8994022607803345,0.8242948651313782
1772376784807552800,3.623552734375,4.406301068763435,-3.3519594811081883,-1.5222235955595969,0.794305682182312,-1.4568231105804443,0.8653392195701599
1772376784817501700,3.633501708984375,3.9134503315582867,-3.980582962849736,-1.585462434282899,0.5388532280921936,-1.956734538078308,0.8053794503211975
1772376784827451000,3.643450927734375,1.981240744484961,-4.141863073608279,-2.163813526380062,-0.042358480393886566,-2.3671464920043945,0.571392297744751
1772376784837400000,3.653400146484375,-0.6737533208657056,-3.9775490019813176,-3.5874183422774073,-0.921403169631958,-2.7204513549804688,0.14614208042621613
1772376784847349000,3.663348876953125,-3.653461132505536,-3.535488248553872,-6.594290128239989,-1.8578585386276245,-2.891195774078369,-0.4909382462501526
1772376784857298000,3.6732978515625,-6.253927123528719,-2.7331074517965317,-11.157781700360774,-2.452937364578247,-2.672455310821533,-1.3263684511184692
1772376784867246800,3.683246826171875,-7.43743781967163,-1.326947983957827,-16.073449464583398,-2.4201934337615967,-1.7732857465744019,-2.1678576469421387
1772376784877195800,3.69319580078125,-6.205999835705756,0.3760528883822262,-18.778796802794933,-1.8549925088882446,-0.4745476245880127,-2.6433591842651367
1772376784887144700,3.703144775390625,-3.0290149364486334,2.1070845079421994,-18.079231652867794,-1.089176058769226,0.5951547026634216,-2.5513272285461426
1772376784897094000,3.713093994140625,0.3472600707486272,3.728081196942925,-15.004001200950144,-0.39068612456321716,1.206889271736145,-1.924314022064209
1772376784907042800,3.723042724609375,2.901965596593916,4.5177842984348535,-11.119387964558602,0.1316084861755371,1.4384205341339111,-0.981101930141449
1772376784916992000,3.732991943359375,4.032575892676413,4.4097354271262885,-7.446352363011241,0.45324504375457764,1.4330154657363892,-0.03684188053011894
1772376784926941000,3.74294091796875,3.6871348540484905,3.5445156046181916,-4.320383657503128,0.6688910722732544,1.3698794841766357,0.6397607922554016
1772376784936889900,3.752889892578125,2.4271698637783525,2.3266261074028907,-2.0305384438782927,0.87991863489151,1.2870396375656128,1.0008193254470825
1772376784946838800,3.7628388671875,1.0756543517317623,1.267571665881574,-0.20514730953574178,1.0620628595352173,1.2435169219970703,1.095144510269165
1772376784956787700,3.77278759765625,0.035832287816330785,0.39157808203324673,1.4998235477030277,1.2274879217147827,1.1893471479415894,0.990571141242981
1772376784966737000,3.78273681640625,-0.6660267452016473,-0.2955437659062445,3.0973095972567797,1.3787308931350708,1.1174309253692627,0.7318500876426697
1772376784976685800,3.792685791015625,-1.0151743832625448,-0.6769624191053212,4.652539390361309,1.4920363426208496,1.0023483037948608,0.4216562807559967
1772376784986633700,3.8026337890625,-1.11302159403041,-0.871883810441941,6.095223000738025,1.5437538623809814,0.8815231323242188,0.06358946114778519
1772376784996582700,3.812582763671875,-1.1559466896519064,-1.0050891887083648,7.3894585094004865,1.5071250200271606,0.7004838585853577,-0.30711641907691956
1772376785006531800,3.82253173828125,-1.0681573470398784,-0.859747966968268,8.413197745782137,1.425580382347107,0.5079492926597595,-0.6012953519821167
1772376785016481000,3.83248095703125,-0.711254564807564,-0.4039503646112978,8.890152994719147,1.3384441137313843,0.3684181869029999,-0.7932226657867432
1772376785026430000,3.842429931640625,-0.501898770731315,0.06289952376633882,8.844248152634501,1.2652257680892944,0.19469113647937775,-0.939538300037384
1772376785036379100,3.852379150390625,-0.820473795069754,0.537089984165132,8.865956126573682,1.2060325145721436,-0.10552408546209335,-1.0259959697723389
1772376785046328000,3.862328125,-1.0845203797545284,1.0876710258051752,8.933142241618036,1.1280263662338257,-0.43752625584602356,-1.0521575212478638
1772376785056277000,3.872277099609375,-1.1971483955468982,1.5001643239647149,8.708394744077324,0.9900369048118591,-0.5980374813079834,-1.0284998416900635
1772376785066226000,3.882225830078125,-1.0496650472115725,1.81805450784415,8.230418335399031,0.7743770480155945,-0.5567811727523804,-1.0008351802825928
1772376785076174800,3.8921748046875,-1.1384328064016997,1.9570637500837444,7.803979221734404,0.5148431062698364,-0.5061126947402954,-0.9811879992485046
1772376785086124000,3.9021240234375,-1.3548817005440592,2.0467200556114316,7.094048745137453,0.2808942198753357,-0.4575608968734741,-0.9601655602455139
1772376785096073000,3.912072998046875,-1.3675930058181285,2.051527455893159,5.87946895699203,0.1285995990037918,-0.26758909225463867,-0.9257881045341492
1772376785106022000,3.92202197265625,-1.2877994842655955,1.905295861184597,4.799903788492084,0.07289906591176987,-0.0156487375497818,-0.8732194304466248
1772376785115971000,3.93197119140625,-0.9733610482752323,1.6362638162374497,3.5246138033181427,0.12115240097045898,0.16807138919830322,-0.7854856848716736
1772376785125920000,3.941919921875,-0.45176922362372274,1.18821375926733,2.27043967140913,0.2696973979473114,0.2100079208612442,-0.6683886647224426
1772376785135869000,3.951868896484375,0.25424897490032017,0.5312906502366066,1.0178273819893597,0.4808594882488251,0.1395689845085144,-0.5092461109161377
1772376785145818000,3.961818115234375,1.0904214935570955,-0.2952405451759696,0.215883807605505,0.6837273836135864,-0.03983273357152939,-0.3218725025653839
1772376785155767000,3.97176708984375,1.8344250662781296,-1.0333803404301405,-0.31272973237633706,0.7948090434074402,-0.3826347887516022,-0.16481706500053406
1772376785165715000,3.98171484375,1.8863088366419076,-0.9607593408554792,-0.33974341150820253,0.7695276737213135,-0.8485188484191895,-0.12242034077644348
1772376785175663900,3.991663818359375,1.8310504752784966,-1.575122534315288,-0.8724614641994237,0.6206669807434082,-1.2444169521331787,-0.2486419677734375
1772376785185612800,4.00161279296875,0.641484205423668,-2.1449738013535735,-1.4603542916238308,0.3469528555870056,-1.4220117330551147,-0.5152280926704407
1772376785195562000,4.01156201171875,-0.9058154522687196,-2.7380104214072225,-2.3311223959088325,-0.05234165117144585,-1.4834096431732178,-0.8677255511283875
1772376785205511200,4.02151123046875,-2.2942978091195223,-3.1068551319763063,-3.296388985055685,-0.5619993209838867,-1.4712510108947754,-1.2836140394210815
1772376785215460000,4.031460205078125,-3.414702645269036,-3.3584584877386687,-4.372976599049568,-1.1153560876846313,-1.3633228540420532,-1.7016525268554688
1772376785225409000,4.041408935546875,-4.212986528101563,-3.327765535572171,-5.904857080748677,-1.63214111328125,-1.1077682971954346,-2.0572972297668457
1772376785235358000,4.05135791015625,-4.193258037541806,-2.7938170643031595,-7.457250773644447,-1.9896104335784912,-0.6186896562576294,-2.281162977218628
1772376785245307000,4.061306884765625,-3.454565576840937,-1.9844658440113065,-8.61302532159984,-2.105543851852417,-0.018778551369905472,-2.297255277633667
1772376785255256000,4.071256103515625,-2.1645313192605973,-0.6814630915254354,-9.217977420374751,-1.959712028503418,0.4858398139476776,-2.03985333442688
1772376785265205000,4.081205078125,-0.5207184028178453,0.8163274890452623,-9.124965959200262,-1.6119641065597534,0.8026449680328369,-1.531722903251648
1772376785275154000,4.09115380859375,1.000378965190798,1.936911481153965,-8.304333466437459,-1.1491777896881104,0.9104677438735962,-0.8714200854301453
1772376785285103000,4.10110302734375,2.079398190245777,2.39478881239444,-6.8759677197486155,-0.6653445959091187,0.8330184817314148,-0.17900490760803223
1772376785295052000,4.111052001953125,2.5645336768984794,2.4510297550544142,-4.966330029967427,-0.2123519331216812,0.6347783803939819,0.4139960706233978
1772376785305000200,4.121000244140625,2.492423841716349,2.222573612254113,-2.80593887925148,0.15439145267009735,0.42472338676452637,0.8069494962692261
1772376785314949000,4.13094921875,1.8885212519943713,1.7577846019290386,-0.5304249733179808,0.38901692628860474,0.24421417713165283,0.9908815026283264
1772376785324898000,4.14089794921875,1.0794714988671243,1.2729564276598393,1.6473638869225977,0.4841804504394531,0.02398408204317093,1.0306808948516846
1772376785334847000,4.150846923828125,0.41232977816089983,0.9185460467651486,3.618840485501289,0.45310455560684204,-0.17274601757526398,0.9451324343681335
1772376785344796000,4.1607958984375,-0.1635675823749043,0.4535165056824684,5.217948583298921,0.33476272225379944,-0.25713813304901123,0.8109309077262878
1772376785354744800,4.170744873046875,-0.49771235189214347,-0.17251374469548464,6.148665837112069,0.1915101408958435,-0.28530576825141907,0.6997755169868469
1772376785364693800,4.18069384765625,-0.374854728106223,-0.5446811699464917,6.610583091393113,0.03389335423707962,-0.2967725396156311,0.6551529169082642
1772376785374643200,4.190643310546875,-0.04525942032057792,-0.29734716206640005,6.851707138717174,-0.1187833771109581,-0.26444193720817566,0.6467998027801514
1772376785384592100,4.200592041015625,0.26524342978652565,0.14558131410628555,7.0847495863944285,-0.2332170158624649,-0.15925480425357819,0.6658549904823303
1772376785394541000,4.210541015625,0.443274841924943,0.42113048586249346,7.081772616410255,-0.28202569484710693,-0.004242613445967436,0.7273829579353333
1772376785404490000,4.220489990234375,0.6214606043748557,0.6498825428694486,7.049207732892036,-0.2814515233039856,0.16807056963443756,0.8262496590614319
1772376785414439000,4.23043896484375,0.8292455689378082,0.7924721278138458,7.0446303419739005,-0.2690160870552063,0.34207338094711304,0.9425342082977295
1772376785424387800,4.240387939453125,1.008323421389237,0.9570862053006887,7.116338318356871,-0.25657913088798523,0.5623578429222107,1.0914294719696045
1772376785434337000,4.2503369140625,1.2183112297587095,1.1844926929175854,7.192479893273115,-0.2543492019176483,0.8863410353660583,1.2577306032180786
1772376785444286000,4.260285888671875,1.4150139515541493,1.4390642508357763,7.015999875295162,-0.2676469087600708,1.27914297580719,1.4286906719207764
1772376785454235100,4.270235107421875,1.3648596353314817,1.6435111570172012,6.915134193488955,-0.30767622590065,1.6791465282440186,1.5727243423461914
1772376785464184000,4.28018408203125,1.1101333983082324,1.7561871036045251,6.917244317510724,-0.39516428112983704,1.9119254350662231,1.6799285411834717
1772376785474133000,4.290133056640625,0.6134191906079649,1.6344839470833539,6.842254835239053,-0.5510282516479492,1.7054476737976074,1.7520602941513062
1772376785484082000,4.30008203125,0.132327709515905,1.1960007598817348,6.386456356099248,-0.745908260345459,0.8269183039665222,1.846144437789917
1772376785494030800,4.31003076171875,0.2591382447792217,0.2554392806634307,5.279015923202038,-0.8958074450492859,-0.406637579202652,1.9714865684509277
1772376785503980000,4.31997998046875,1.095646900055185,-0.9865006619639695,3.490610411429405,-0.8930012583732605,-1.2641538381576538,1.9728524684906006
1772376785513929000,4.329928955078125,1.8237259776093064,-1.6953832369431852,1.232602936092019,-0.6433269381523132,-1.4688042402267456,1.7440332174301147
1772376785523878100,4.339878173828125,1.725009436661005,-1.713331419957429,-2.110942936936021,-0.1979215443134308,-1.7772544622421265,1.2723394632339478
1772376785533827000,4.3498271484375,1.1314073647443204,-1.5498055760987102,-6.787715435799956,0.30748093128204346,-2.2051913738250732,0.7513633370399475
1772376785543775000,4.35977490234375,-0.013367942551895976,-1.6967288063332437,-9.092387047156691,0.6059320569038391,-2.4108762741088867,0.25711020827293396
1772376785553724200,4.36972412109375,-0.287279941560328,-2.30763659864217,-11.404887160181998,0.5014949440956116,-2.5886356830596924,-0.2381688952445984
1772376785563673000,4.379673095703125,-1.20988973063305,-2.294067945886403,-12.358099738919734,0.11818587779998779,-2.5783472061157227,-0.686957597732544
1772376785573622000,4.3896220703125,-2.3820767764680086,-1.81111199522987,-12.670913642448186,-0.31717413663864136,-2.342952013015747,-1.036190152168274
1772376785583571000,4.399571044921875,-3.162012955574691,-1.1496347300261258,-13.482318872660398,-0.5878527760505676,-1.8182239532470703,-1.2327743768692017
1772376785593519900,4.409519775390625,-3.5099954953789707,-0.23870251926556227,-14.631472541171311,-0.6304595470428467,-1.0487786531448364,-1.2371623516082764
1772376785603468800,4.41946875,-3.3873706939682364,0.7418085468947887,-15.588927579784393,-0.5224909782409668,-0.21546229720115662,-1.0507559776306152
1772376785613418000,4.42941796875,-2.8549013553410765,1.526562647677213,-15.410808562427759,-0.38578182458877563,0.4888356924057007,-0.7083021998405457
1772376785623367200,4.4393671875,-2.0701510539509353,2.0759350441798565,-13.852358638232946,-0.25649067759513855,1.019450306892395,-0.2965308427810669
1772376785633316000,4.449316162109375,-1.275949325865507,2.34198105905354,-11.439841569185257,-0.11646848917007446,1.4159287214279175,0.07714470475912094
1772376785643265000,4.45926513671875,-0.7403473883010446,2.339735618214309,-8.710041342240572,0.0365157276391983,1.673826813697815,0.34122827649116516
1772376785653214000,4.4692138671875,-0.6808880681164562,2.1444240585163232,-6.113813719439507,0.2067825049161911,1.794758677482605,0.5031468868255615
1772376785663163000,4.479162841796875,-0.7450199832219631,1.8254330737881361,-3.747404906094074,0.38582122325897217,1.8253400325775146,0.5850473642349243
1772376785673111800,4.48911181640625,-0.7745473256751895,1.4685925431370734,-1.5441414128571749,0.5776086449623108,1.7816499471664429,0.6062679290771484
1772376785683061000,4.49906103515625,-0.780863450019434,1.1246595709845424,0.48284606054127216,0.7606295943260193,1.6477378606796265,0.5852689146995544
1772376785693010200,4.50901025390625,-0.7120494415123015,0.9002009733878076,2.3357050475239753,0.9466004967689514,1.4596552848815918,0.5343164205551147
1772376785702959000,4.518958984375,-0.5772340707659721,0.7903449065268039,3.9444180090129373,1.1166670322418213,1.276286244392395,0.4735017716884613
1772376785712908000,4.528907958984375,-0.46893860428519546,0.7409666892431676,5.290057541698217,1.254594326019287,1.097072958946228,0.4024973511695862
1772376785722857000,4.53885693359375,-0.37695728987604377,0.7155129529044032,6.48009384021759,1.357495903968811,0.9375474452972412,0.32929983735084534
1772376785732806000,4.548805908203125,-0.3552088012633845,0.7495958397701382,7.4084057864546775,1.4577816724777222,0.9229807257652283,0.33186522126197815
1772376785742754800,4.5587548828125,-0.08867228119270876,0.7902648270279169,7.93099290575385,1.5527111291885376,0.9909874796867371,0.42929697036743164
1772376785752704000,4.5687041015625,0.8529415018238127,0.8358747778192162,8.021786690878868,1.5932122468948364,1.0083550214767456,0.4640032947063446
1772376785762653000,4.57865283203125,-0.0491614098949125,0.9854013224199414,8.382453063428402,1.5871849060058594,0.9855690598487854,0.4154520034790039
1772376785772600800,4.588600830078125,-0.8428881637126207,1.6347361682787536,8.677846461078524,1.55349600315094,0.9849609732627869,0.3533130884170532
1772376785782550000,4.598550048828125,-1.055092479087785,2.044900438968837,8.861880839958786,1.4847917556762695,1.0597959756851196,0.30805692076683044
1772376785792499000,4.6084990234375,-1.033156614676863,1.987790604519844,8.960911707553267,1.3849639892578125,1.2018550634384155,0.2710261046886444
1772376785802448100,4.6184482421875,-1.1161822500184178,2.0188281323403117,8.984566139385104,1.2682384252548218,1.3481900691986084,0.2452576458454132
1772376785812397000,4.62839697265625,-1.2274455533288418,2.131530382412672,8.984244652345776,1.1314071416854858,1.4555214643478394,0.241419717669487
1772376785822346000,4.638345947265625,-1.3328009477697311,2.273345329722762,8.988261486771702,0.9191145896911621,1.5855133533477783,0.24525493383407593
1772376785832295000,4.648294921875,-1.4870491140648723,2.365256428439915,9.101577484828233,0.5975413918495178,1.7898447513580322,0.24840961396694183
1772376785842243800,4.658243896484375,-1.6332200646273791,2.3220988392367956,9.17860811753869,0.13835489749908447,2.0454983711242676,0.24927541613578796
1772376785852192800,4.66819287109375,-1.942581781875342,2.038556038378179,9.327997884017229,-0.5310107469558716,1.9318866729736328,0.21068187057971954
1772376785862142200,4.67814208984375,-2.152446036930382,1.4926023642778397,9.332660030609368,-1.348691701889038,0.5413397550582886,0.22078324854373932
1772376785872091100,4.688091064453125,-1.0254034432668238,0.3812663852468133,7.871969054377079,-1.8833339214324951,-0.9181910157203674,0.47946882247924805
1772376785882040000,4.6980400390625,1.7159405795425176,-1.6512512497499585,4.650743739116192,-1.9140896797180176,-1.4200624227523804,0.7976955771446228
1772376785891989000,4.707989013671875,2.7866774216815826,-3.348021849398315,2.388764437538385,-1.54509437084198,-1.5246013402938843,0.9052438735961914
1772376785901938000,4.71793798828125,2.570580263586342,-3.820225519894063,-0.7643325133919715,-1.0431936979293823,-1.6568903923034668,0.6408705115318298
1772376785911886800,4.727886962890625,0.7808535862125456,-3.8656235815003512,-3.8802398436129093,-0.6139272451400757,-2.00921893119812,0.05613004416227341
1772376785921835800,4.737835693359375,-1.861883712698519,-4.115216181962192,-6.6168982658892865,-0.4108915627002716,-2.4368035793304443,-0.7489497065544128
1772376785931785000,4.747784912109375,-3.815039641688764,-4.534026408183575,-9.06396467027068,-0.4590406119823456,-2.6838877201080322,-1.6129599809646606
1772376785941734100,4.757734130859375,-4.957979550251364,-5.110981077486277,-10.8411321641922,-0.6742269396781921,-2.5153732299804688,-2.3694114685058594
1772376785951683000,4.76768310546875,-5.065371418955922,-5.120630364841222,-11.954461655128002,-0.9608945250511169,-2.062864303588867,-2.9343245029449463
1772376785961632000,4.777632080078125,-4.314333271422982,-4.270279610162973,-12.318981195974349,-1.2526220083236694,-1.457650899887085,-3.2385029792785645
1772376785971581000,4.787580810546875,-3.102253483399749,-2.710461027963459,-12.089203303050994,-1.4650397300720215,-0.8494255542755127,-3.2192957401275635
1772376785981529900,4.79752978515625,-1.6267558370493351,-0.9559244680449366,-11.49296993278265,-1.529995322227478,-0.3622199296951294,-2.8673765659332275
1772376785991478000,4.80747802734375,-0.30762802532315253,0.5302120612196624,-10.796807869297265,-1.4125070571899414,-0.04073280841112137,-2.2426507472991943
1772376786001428000,4.817427978515625,0.7303137778036296,1.5353030034936963,-10.105256514477729,-1.100904107093811,0.1872210055589676,-1.4509336948394775
1772376786011375000,4.827375,1.2400390774421393,2.1959813734047113,-9.420431837564706,-0.6488189697265625,0.39009037613868713,-0.6319327354431152
1772376786021324000,4.837323974609375,1.2482213609844446,2.4552435733571647,-8.505835697469115,-0.11959189921617508,0.5799625515937805,0.08088415116071701
1772376786031273200,4.847273193359375,0.8451286361157894,2.3278213085368273,-7.27962100110948,0.40449410676956177,0.7439800500869751,0.571389377117157
1772376786041222400,4.857222412109375,0.21463115892959758,1.7966067922763524,-5.788098248761892,0.8674628734588623,0.8430567979812622,0.8355448246002197
1772376786051171300,4.86717138671875,-0.5141565235516056,1.083245172186941,-3.9293782607913017,1.21785569190979,0.8929459452629089,0.9136512875556946
1772376786061120300,4.877120361328125,-1.109313679423183,0.5358642417624593,-1.77153211838305,1.4493805170059204,0.9007807374000549,0.8754578232765198
1772376786071069200,4.887069091796875,-1.410539290358126,0.15237638107389212,0.42434827886521814,1.5683817863464355,0.8393656015396118,0.7685170769691467
1772376786081018000,4.89701806640625,-1.5752309631258248,-0.07867927670031785,2.5216905604720115,1.580219030380249,0.7378789186477661,0.623684823513031
1772376786090967300,4.90696728515625,-1.5993585654273628,-0.1871151014998555,4.356704678684473,1.5040513277053833,0.6197912096977234,0.4607189893722534
1772376786100916200,4.916916259765625,-1.5840702492721377,-0.13895108231157063,5.897420208746195,1.3493791818618774,0.4993302822113037,0.28417617082595825
1772376786110865200,4.926865234375,-1.5799160522021352,0.1039542954713106,7.073505138802528,1.1243524551391602,0.34714797139167786,0.08241631090641022
1772376786120814300,4.936814453125,-1.7847122102126478,0.5126368031710385,7.954018392032385,0.8662265539169312,0.20887796580791473,-0.02425207756459713
1772376786130763300,4.94676318359375,-1.3980921889781952,0.8913070344448089,8.39267518223524,0.5908854603767395,0.08526494354009628,-0.029702728614211082
1772376786140712200,4.956712158203125,-0.6532005813762545,1.0352680538728833,8.407709085237979,0.34865736961364746,-0.048422276973724365,0.034022990614175797
1772376786150661000,4.9666611328125,-0.25307781222909687,1.2801836024343967,8.168491748318075,0.15027178823947906,-0.12419727444648743,0.13280630111694336
1772376786160610300,4.9766103515625,-0.07168002893012017,1.7404656567290424,7.635397263529896,0.029744841158390045,0.037617459893226624,0.25970616936683655
1772376786170559200,4.986559326171875,0.21563951398823408,2.022166629113257,6.819032365083694,0.013883933424949646,0.36867573857307434,0.4224125146865845
1772376786180508200,4.996508056640625,0.6712732675530017,2.0379992812782524,5.848094744563102,0.07802403718233109,0.7638550400733948,0.5486905574798584
1772376786190457300,5.006457275390625,1.0370177470844237,1.992203160265088,4.883698508509993,0.18393917381763458,1.0828555822372437,0.6006719470024109
1772376786200406300,5.01640625,0.7657143231391906,2.260394662734866,4.227310237008333,0.300851970911026,1.254502534866333,0.6217471361160278
1772376786210355200,5.026355224609375,0.6314180808961392,2.2417750101998446,3.755741357284784,0.40078142285346985,1.2748812437057495,0.7015777826309204
1772376786220304100,5.03630419921875,1.0752087999213487,1.6204524991214275,3.4114141251176595,0.4852236211299896,1.1295064687728882,0.8568845987319946
1772376786230252300,5.046252197265625,1.8839402078144252,0.7720543398156762,3.0975276239216325,0.5243024826049805,0.890920877456665,1.050574779510498
1772376786240201200,5.056201171875,2.659078338989615,0.21114771899431942,2.8824668231368062,0.47843700647354126,0.6643663644790649,1.249070644378662
1772376786250150100,5.066150146484375,3.367173124592006,-0.19832389325648545,2.693648717111349,0.3278937339782715,0.28513193130493164,1.419197678565979
1772376786260099000,5.07609912109375,3.9447178687423463,-0.7307368255212903,2.5626515164136885,0.06758677959442139,-0.1754322052001953,1.5270917415618896
1772376786270048300,5.08604833984375,4.0526030739218,-1.4364675123408437,2.375985619986057,-0.28180640935897827,-0.5912262797355652,1.4652334451675415
1772376786279997400,5.09599755859375,3.469624906545877,-2.377181844033301,1.5336591818094252,-0.6551464200019836,-0.8927592039108276,1.1726051568984985
1772376786289946400,5.1059462890625,1.822826836812496,-3.2526354757860303,-0.03170212920904159,-0.9203322529792786,-1.0908269882202148,0.6853206157684326
1772376786299895300,5.115895263671875,-0.17643062587827443,-3.8092660267233844,-2.150149158164859,-1.068682074546814,-1.156875491142273,0.08624064922332764
1772376786309844200,5.12584423828125,-1.6594466850347815,-3.7378997033849357,-4.6209331227421755,-1.1136761903762817,-1.1348153352737427,-0.4970318078994751
1772376786319793200,5.135793212890625,-2.3598016701653597,-3.1898101862996815,-6.895912775668501,-1.0980753898620605,-1.0243141651153564,-0.9698653817176819
1772376786329742000,5.1457421875,-2.1297714099161325,-2.289526064673066,-8.421172377923131,-1.0446381568908691,-0.9776455760002136,-1.2736239433288574
1772376786339691300,5.155691162109375,-1.4125890624947846,-1.0548355086520314,-9.099369745650886,-0.9747523069381714,-0.9864398241043091,-1.3812999725341797
1772376786349640200,5.16564013671875,-0.35010946883037686,-0.13788842151612044,-9.361206910657883,-0.864500105381012,-0.9495253562927246,-1.3295214176177979
1772376786359589400,5.17558935546875,0.6217065419599414,0.6340273866117,-9.103198948550224,-0.7328387498855591,-0.8670267462730408,-1.180057406425476
1772376786369538300,5.185538330078125,1.0656655302241445,1.2388137734308837,-8.170768461078405,-0.6025817394256592,-0.7754306793212891,-0.9897946715354919
1772376786379487200,5.1954873046875,1.0737656884409486,1.506316709114611,-6.850777748912573,-0.47429195046424866,-0.6699506044387817,-0.805847704410553
1772376786389436200,5.205436279296875,0.7237445554811507,1.4022750276207923,-5.498627226898074,-0.3161494731903076,-0.5472676157951355,-0.6287018060684204
1772376786399385000,5.215385009765625,0.31548491283599284,1.2311945305988192,-4.1245238162726165,-0.13874806463718414,-0.45975297689437866,-0.4609045088291168
1772376786409334300,5.225334228515625,0.060370553277991706,1.2931345616832375,-2.585325705036521,0.030478211119771004,-0.4095417857170105,-0.35540419816970825
1772376786419283200,5.235283203125,-0.2955607718399726,1.6724427985996007,-0.8881535388499497,0.1818714588880539,-0.323540061712265,-0.2395436316728592
1772376786429232000,5.245232177734375,-0.22381757801314814,1.6110209461703895,0.6547130317658185,0.3101738691329956,-0.276786744594574,-0.11820799857378006
1772376786439181300,5.255181396484375,0.05632113175671547,0.9954960154548287,1.939964438983798,0.3660930395126343,-0.3069542348384857,-0.012819791212677956
1772376786449129200,5.265129150390625,0.1219844942132011,0.6314467224687338,3.318444164997339,0.3346286416053772,-0.3443540632724762,0.05307621508836746
1772376786459078400,5.275078369140625,0.19013762765880673,0.6270739142119884,4.747941546064615,0.25186824798583984,-0.3814857006072998,0.07583372294902802
1772376786469027300,5.28502734375,0.21390600472651422,0.7504325828552245,5.997121522948145,0.1617262363433838,-0.4065289795398712,0.05974862724542618
1772376786478976300,5.294976318359375,0.138341243317537,0.892355082193017,6.979267350703477,0.07747766375541687,-0.42630454897880554,0.029303105548024178
1772376786488925200,5.30492529296875,0.20016692730728536,0.9710025024503469,7.682028081801533,0.004015268757939339,-0.4273192286491394,-0.007187744602560997
1772376786498874000,5.3148740234375,0.34598201363682746,0.9582207622885703,8.120005657568573,-0.05277291312813759,-0.4038381278514862,-0.039676714688539505
1772376786508823000,5.324822998046875,0.5140462315775454,0.9203583568841218,8.403257366526127,-0.09309030324220657,-0.3675713837146759,-0.06613767892122269
1772376786518772200,5.334772216796875,0.6611565818820149,0.9332485258564353,8.564775962215661,-0.12547089159488678,-0.32588544487953186,-0.0862480029463768
1772376786528721400,5.344721435546875,0.8348392972916364,1.0084493127912282,8.644664906966685,-0.13647568225860596,-0.2809077501296997,-0.09874583035707474
1772376786538670300,5.35467041015625,0.9230698077999054,1.1733587199628353,8.654226516038179,-0.17144273221492767,-0.21025410294532776,-0.10866957157850266
1772376786548619300,5.364619384765625,0.8703792510978877,1.413855283038318,8.709104353651403,-0.20464056730270386,-0.10131580382585526,-0.10400541126728058
1772376786558568200,5.374568115234375,0.790026780488342,1.6392308493494987,8.709548590287566,-0.2131435126066208,-0.025127558037638664,-0.08027584850788116
1772376786568517000,5.38451708984375,0.6861681274112313,1.7520044110924005,8.438918462494016,-0.21316304802894592,0.03657878190279007,-0.040520865470170975
1772376786578466300,5.39446630859375,0.4894412940878421,1.7421522946417332,7.855430592030286,-0.22436004877090454,0.12420156598091125,0.005334773100912571
1772376786588415200,5.404415283203125,0.38474429049044845,1.6497198023989796,6.9601832955271,-0.24148747324943542,-0.05428532510995865,0.04827553406357765
1772376786598364200,5.4143642578125,0.32866942511238156,1.2269316124573348,5.345364418378472,-0.298417329788208,-0.3499169945716858,0.11569478362798691
1772376786608313300,5.424313232421875,0.39533487728349864,0.4004328580096364,3.011165683764219,-0.4185420274734497,-0.5682714581489563,0.21130827069282532
1772376786618262300,5.43426220703125,0.7444147108051925,-0.5999760639280081,1.447164555183053,-0.6159778833389282,-0.578007698059082,0.26218128204345703
1772376786628211200,5.444211181640625,0.8609687409348785,-1.3368819334730506,0.6310223595768213,-0.9498307704925537,-0.9181870222091675,0.1577311009168625
1772376786638160100,5.45416015625,0.3961989467669278,-1.6750462590962647,-0.936924876281619,-1.4234422445297241,-1.4961398839950562,-0.11791592836380005
1772376786648109300,5.464109375,-0.7816855800572783,-1.9479677126973867,-2.943846882250905,-1.9431869983673096,-1.818247675895691,-0.5682762861251831
1772376786658058200,5.474058349609375,-2.5932822169989347,-2.466828797210753,-5.7232326856195925,-2.328291416168213,-1.579301118850708,-1.1608778238296509
1772376786668007200,5.484007080078125,-4.6570945694476364,-2.845423332899809,-9.313480113843083,-2.4373772144317627,-0.8723925948143005,-1.7635546922683716
1772376786677955000,5.493955078125,-5.947016891086101,-2.4715613786906,-12.935759341621399,-2.303292751312256,-0.08015040308237076,-2.1864089965820312
1772376786687904000,5.503904052734375,-5.703592750126123,-1.064146357832849,-15.062725777119397,-2.0367274284362793,0.4764820337295532,-2.1985201835632324
1772376786697853400,5.513853515625,-3.8745302337944505,0.5967864741064608,-15.19205942851901,-1.6968098878860474,0.6805347800254822,-1.7409294843673706
1772376786707802400,5.52380224609375,-1.0290893652379511,1.5734506555803118,-13.959500331568718,-1.3170534372329712,0.5894747972488403,-0.9943041205406189
1772376786717751300,5.533751220703125,1.3485187413834034,1.8480188534751534,-12.357927889484166,-0.9312402606010437,0.4472614824771881,-0.21771062910556793
1772376786727700200,5.5437001953125,2.347462266943604,1.5879589272737502,-10.923590667170286,-0.5542390942573547,0.4501611292362213,0.3596743941307068
1772376786737649200,5.553649169921875,1.9947031603872776,0.9953368793703615,-9.469853163337707,-0.21636171638965607,0.6211587190628052,0.6772320866584778
1772376786747598000,5.56359814453125,0.8532716836262494,0.2860991342779249,-7.978024121519923,0.050666261464357376,0.887993335723877,0.7979661822319031
1772376786757547300,5.57354736328125,-0.1557739876229316,-0.46085627398602663,-6.2039966791898005,0.21809761226177216,1.155714750289917,0.8319563269615173
1772376786767496400,5.583496337890625,-0.5802123559243977,-0.996095004261285,-3.998066012570262,0.2777164578437805,1.334858775138855,0.8365536332130432
1772376786777445400,5.5934453125,-0.5698463716674596,-1.2120545074515043,-1.462364462402463,0.2569131851196289,1.4010592699050903,0.8478760719299316
1772376786787394300,5.603394287109375,-0.36513701515756547,-1.2597465252138673,1.024636477482319,0.20963600277900696,1.3687478303909302,0.8740242123603821
1772376786797343200,5.61334326171875,-0.06502568560745567,-1.2804782014667988,3.1054876430153846,0.18315033614635468,1.2683016061782837,0.9088687896728516
1772376786807292200,5.623292236328125,0.2095249583643861,-1.309839758899063,4.5848365579664705,0.22369936108589172,1.104343295097351,0.9548810124397278
1772376786817241000,5.633240966796875,0.3943240197405219,-1.3390890881285071,5.545988113009929,0.34255197644233704,0.9791712760925293,1.0034517049789429
1772376786827190300,5.643190185546875,0.392240126138553,-1.3587366224065422,6.057618369486928,0.4949203431606293,0.8862770795822144,1.0516690015792847
1772376786837139200,5.65313916015625,0.42025750242024656,-1.4737312211997806,6.466730500775575,0.6352569460868835,0.7567630410194397,1.0549325942993164
1772376786847088400,5.66308837890625,0.1836166649248451,-1.3908129917554557,7.014222928750515,0.7441421151161194,0.6444979906082153,1.0079630613327026
1772376786857037300,5.673037353515625,-0.08103019634117371,-1.1491251730687915,7.508883345726132,0.8127664923667908,0.6047891974449158,0.9368587136268616
1772376786866986200,5.682986328125,-0.27017125984383744,-0.9310983620852231,8.006634714454412,0.8242972493171692,0.6290308237075806,0.862578272819519
1772376786876935200,5.69293505859375,-0.26009355447636917,-0.7309975222840904,8.444248717606067,0.7600849866867065,0.6190873980522156,0.7955787181854248
1772376786886884000,5.702884033203125,-0.14071400033086537,-0.4934574709266424,8.77894010642171,0.6537883877754211,0.5284545421600342,0.7326962947845459
1772376786896833300,5.712833251953125,-0.08018571747420355,-0.2591260063521564,8.964760199674963,0.5317332744598389,0.3469686806201935,0.6908146142959595
1772376786906781200,5.72278125,0.05068573795193806,-0.014736235230416058,8.92504193727076,0.4071947932243347,0.09188926964998245,0.6868338584899902
1772376786916730000,5.732730224609375,0.26781686047110703,0.30586364599913357,8.651850434556604,0.25953343510627747,-0.18041016161441803,0.7148345708847046
1772376786926679000,5.742678955078125,0.4199102598851546,0.5848028985850513,8.043129923158883,0.06708577275276184,-0.4151327908039093,0.7532193064689636
1772376786936628200,5.752628173828125,0.49202396752480415,0.7175280921190976,6.982556455376744,-0.1553851217031479,-0.646295428276062,0.80033940076828
1772376786946577400,5.762577392578125,0.6550593609854578,0.5783667280577123,5.581300249409675,-0.2211039662361145,-0.806093692779541,0.8916085958480835
1772376786956526300,5.7725263671875,1.0806960722260177,0.37604572798907754,3.693739366880059,-0.08025603741407394,-0.39047226309776306,1.0212922096252441
1772376786966475300,5.782475341796875,1.3786563977546988,0.1736404106378555,0.7599778253138065,0.16061222553253174,-0.14691101014614105,1.111693024635315
1772376786976424200,5.792424072265625,0.7161442365452647,-0.2696151055321097,-0.9925824660956859,0.37742653489112854,-0.19022466242313385,1.159957766532898
1772376786986373000,5.802373046875,1.0650263555377721,-0.5837164185225964,-2.848863828742504,0.5125556588172913,-0.29248759150505066,1.150776743888855
1772376786996322000,5.812322021484375,1.4412285892628132,-1.4138137819841503,-3.8443262341886757,0.4770061671733856,-0.4642966389656067,0.9858406782150269
1772376787006271200,5.822271240234375,1.7882279632486402,-2.5437466171965,-4.426083335337043,0.2192898839712143,-0.8224008083343506,0.6312427520751953
1772376787016221000,5.832220947265625,1.6006595650233328,-3.4620600242495536,-4.642193352913856,-0.2934975326061249,-1.2946178913116455,0.1652015596628189
1772376787026169900,5.842169921875,0.8956658141762017,-3.804893510727584,-4.848976154696941,-0.9513571858406067,-1.7164053916931152,-0.35034045577049255
1772376787036118800,5.852118896484375,-0.3131070412561297,-3.3308547337591645,-5.652146056005359,-1.4656544923782349,-1.8289785385131836,-0.9059138894081116
1772376787046068000,5.86206787109375,-1.960168584231287,-2.2082257918193937,-7.884711047050357,-1.6497390270233154,-1.7746961116790771,-1.5169833898544312
1772376787056017000,5.872016845703125,-3.6209374577805398,-0.9322925403058528,-11.070498553705216,-1.4998480081558228,-1.5543123483657837,-2.05818510055542
1772376787065965800,5.8819658203125,-4.396630446359515,0.49133200320526954,-13.59453187791109,-1.0905482769012451,-1.1167469024658203,-2.296264410018921
1772376787075914800,5.891914794921875,-3.463172369405627,1.7479747171849012,-14.236862982487677,-0.5926471948623657,-0.6402385234832764,-2.144028425216675
1772376787085864000,5.901864013671875,-1.4709315074786542,2.7607565062224864,-13.153390869677066,-0.14960652589797974,-0.25741735100746155,-1.6455025672912598
1772376787095812900,5.911812744140625,0.5774781817201524,3.6306326301038263,-10.79377887686491,0.15928927063941956,0.039248134940862656,-0.9263910055160522
1772376787105761800,5.92176171875,2.159045289064944,4.189333265313506,-7.841236646983027,0.277427077293396,0.2682330310344696,-0.16806760430335999
1772376787115711000,5.9317109375,3.0425919186413286,4.150461098344624,-4.800999767035246,0.23295412957668304,0.5027971267700195,0.47019705176353455
1772376787125660000,5.941659912109375,3.2227064937293526,3.556128301000595,-2.1087240918427703,0.10062690079212189,0.784055769443512,0.9013157486915588
1772376787135608000,5.951608154296875,2.6160896766126154,2.702796484684944,0.005367664512991905,-0.07174939662218094,1.0817822217941284,1.1152746677398682
1772376787145557000,5.961556884765625,1.4719529594808816,1.8489321689277887,1.5418185228675603,-0.26853716373443604,1.3258678913116455,1.1276191473007202
1772376787155506000,5.971505859375,0.23946035189554093,1.030935869887471,2.772466233238578,-0.46555808186531067,1.4897912740707397,0.9808003902435303
1772376787165454800,5.981454833984375,-0.7693805905617773,0.305529007217288,3.736009651854634,-0.642657995223999,1.5904635190963745,0.7103424668312073
1772376787175403800,5.99140380859375,-1.5381959484562278,-0.3496900013092905,4.480120630472898,-0.7616850137710571,1.5883110761642456,0.34317779541015625
1772376787185352700,6.001352783203125,-1.9283688398666678,-0.8812077383000403,5.104917247402668,-0.7706190347671509,1.47955322265625,-0.0252987127751112
1772376787195302000,6.011302001953125,-1.9483485287085174,-1.1898854188065975,5.5464393639087675,-0.6705368757247925,1.265947937965393,-0.30779537558555603
1772376787205250800,6.021250732421875,-1.5935837814182041,-1.23421417068094,5.82564501234591,-0.49836885929107666,0.9543218612670898,-0.482034295797348
1772376787215200000,6.031199951171875,-1.0187141016960144,-1.0731517943263054,6.0194555198311805,-0.29472386837005615,0.6188027262687683,-0.5423048138618469
1772376787225149000,6.04114892578125,-0.4300431660385802,-0.7875133363626897,6.183551857054233,-0.09245982021093369,0.31382468342781067,-0.5253409743309021
1772376787235097900,6.051097900390625,0.016725070960074664,-0.4478190246932208,6.321108562397956,0.0973987951874733,0.05570179969072342,-0.46036356687545776
1772376787245046800,6.061046875,0.2894275297819637,-0.1712328380394727,6.350441039866209,0.3006063401699066,-0.07892745733261108,-0.36794236302375793
1772376787254995700,6.07099560546875,0.4337590812891721,0.058263242267817254,6.269204187637567,0.49039196968078613,-0.11336745321750641,-0.260648638010025
1772376787264945000,6.08094482421875,0.5374261938495561,0.20815248270109293,6.228721955123543,0.6420115828514099,-0.10237821191549301,-0.15844707190990448
1772376787274893800,6.090893798828125,0.5534186031535268,0.29658092693425714,6.424619790276885,0.7101733088493347,-0.07260380685329437,-0.07907821983098984
1772376787284843000,6.100843017578125,0.33605277682933954,0.44337307813502846,6.731772599303722,0.6706646084785461,-0.06965231895446777,-0.057008981704711914
1772376787294792000,6.1107919921875,-0.08058531125104054,0.5357887653734534,7.093194758656621,0.5047270655632019,-0.18874169886112213,-0.09963447600603104
1772376787304740900,6.120740966796875,-0.5120451208882033,0.5035037947751582,7.31819067800045,0.2521924078464508,-0.3892068564891815,-0.1546434462070465
1772376787314689800,6.130689697265625,-0.512363173861429,0.43361353533864017,7.150272736662626,-0.037603747099637985,-0.6302171349525452,-0.1895553469657898
1772376787324638700,6.140638671875,-0.07004783831813838,0.2983414338007569,6.1220122234642504,-0.30661463737487793,-0.8076335787773132,-0.18291015923023224
1772376787334588000,6.150587890625,0.36609000503346323,0.07056903548091649,4.302166448289156,-0.4516056478023529,-0.7572671175003052,-0.14141704142093658
1772376787344536800,6.160536865234375,0.5989649871893227,-0.27683519297875464,1.8000211307644842,-0.4352833926677704,-0.6429204940795898,-0.06985960900783539
1772376787354484700,6.170484619140625,0.8511184511151164,-0.6919209187842905,-1.0186053806245325,-0.3050742745399475,-0.5866686701774597,0.008415226824581623
1772376787364433700,6.18043359375,1.1368290244668722,-1.0684485850714147,-3.6384693150788543,-0.23022666573524475,-0.6598747372627258,0.04071476310491562
1772376787374382800,6.1903828125,1.3439179695896804,-1.4557893217958509,-5.564436792892217,-0.37186557054519653,-0.9085636734962463,-0.0042495159432291985
1772376787384332000,6.20033203125,1.2899921720042824,-1.952092683672905,-6.709371966925263,-0.7264437675476074,-1.1933406591415405,-0.15734241902828217
1772376787394281000,6.210281005859375,0.7310601391915231,-2.3638179200693963,-7.735931521424651,-1.1288847923278809,-1.3683838844299316,-0.46894770860671997
1772376787404230000,6.22022998046875,-0.7204807313796132,-2.142126010707021,-9.542034017929435,-1.4152820110321045,-1.4074434041976929,-0.9202961921691895
1772376787414178800,6.2301787109375,-2.788704251334071,-1.1958650046728552,-12.301438525021075,-1.5107706785202026,-1.3146913051605225,-1.4553550481796265
1772376787424127700,6.240127685546875,-4.6762341542035335,0.02011237531080842,-15.3370991830945,-1.352128505706787,-0.915174126625061,-1.8586061000823975
1772376787434076700,6.25007666015625,-5.371028436467051,1.2218714064583183,-17.520622787594796,-0.9607596397399902,-0.2984544634819031,-1.9446821212768555
1772376787444025900,6.26002587890625,-4.191929127025604,2.125993498812616,-18.1791509937346,-0.49996212124824524,0.26537102460861206,-1.6496448516845703
1772376787453975000,6.26997509765625,-2.0301678570002317,2.911335774746537,-17.09613363895416,-0.10169759392738342,0.6789194345474243,-1.0381180047988892
1772376787463924000,6.279924072265625,0.054382382246479385,3.540982754316926,-14.640317526406049,0.1889166682958603,0.9416711926460266,-0.26934337615966797
1772376787473873000,6.289872802734375,1.4096531551733613,3.7042110765337943,-11.56820257616043,0.3803127408027649,1.0937105417251587,0.44933435320854187
1772376787483821800,6.29982177734375,1.803066051418334,3.297276289284229,-8.526393916851282,0.541327178478241,1.2186776399612427,0.9736385941505432
1772376787493770800,6.309770751953125,1.3680422108903527,2.512432318261266,-5.800776528549194,0.7045802474021912,1.31368088722229,1.2768285274505615
1772376787503719700,6.3197197265625,0.4868714070672169,1.587954397229105,-3.321361513748765,0.8302176594734192,1.3206286430358887,1.4032630920410156
1772376787513668900,6.3296689453125,-0.3283211231313646,0.6210756967104971,-0.9162871619224547,0.9156995415687561,1.2158366441726685,1.41155207157135
1772376787523617800,6.33961767578125,-0.8787741544775665,-0.24050423492528497,1.4439911858439445,0.9633241891860962,1.0422558784484863,1.3374176025390625
1772376787533567000,6.34956689453125,-1.2663248806908727,-0.8190455888975411,3.5354403177589178,0.9921217560768127,0.8465750217437744,1.2128809690475464
1772376787543516000,6.359515869140625,-1.5063526572108268,-1.1790911261349917,5.2443485144466155,1.027653694152832,0.7142928242683411,1.0542888641357422
1772376787553464800,6.36946484375,-1.6386260153241454,-1.3127616376951337,6.441522409760951,1.104378342628479,0.7253351211547852,0.9298372268676758
1772376787563413800,6.379413818359375,-1.458259657432139,-1.2184382902044801,7.147298104766011,1.1656551361083984,0.7911478877067566,0.8190014958381653
1772376787573362000,6.38936181640625,-1.2961449955455957,-1.026801546561718,7.760543400111794,1.19140625,0.747036874294281,0.6962947845458984
1772376787583310800,6.399310791015625,-1.1595859960023314,-0.5688927972696721,8.319988131687044,1.1947898864746094,0.8063175082206726,0.5617389678955078
1772376787593259800,6.409259765625,-1.0617008643768726,0.09172259040772915,8.715470381551981,1.2468104362487793,0.9201210141181946,0.46812376379966736
1772376787603208700,6.419208740234375,-0.8451692603871226,0.47728228893429037,8.850472726237774,1.363771915435791,1.0021038055419922,0.42571985721588135
1772376787613157600,6.42915771484375,-0.6088397538632154,0.7251184011176228,8.847164332342148,1.49690580368042,0.9494107365608215,0.4046870172023773
1772376787623107000,6.439107177734375,-0.6502382975045591,1.0973374104253948,8.833366108614205,1.5661839246749878,0.8292572498321533,0.37850868701934814
1772376787633056000,6.449055908203125,-0.8089486308403313,1.6147626169167457,8.906362371242047,1.5473079681396484,0.7307815551757812,0.3589136600494385
1772376787643005000,6.4590048828125,-0.8112107305534183,2.0730840386629104,8.95819952598512,1.4535069465637207,0.6254082918167114,0.3879842162132263
1772376787652953900,6.468953857421875,-0.6718515058323741,2.255099478936195,9.004391952839493,1.2425097227096558,0.5227458477020264,0.4598650634288788
1772376787662902800,6.47890283203125,-0.5845221819475293,2.3665707259088755,9.038419894647598,0.8630794882774353,0.413562536239624,0.5503695011138916
1772376787672851700,6.488851806640625,-0.6011833208259195,2.420395255076885,9.002990853869914,0.35250887274742126,0.28238826990127563,0.6284536719322205
1772376787682801000,6.49880078125,-0.39420316983982917,2.276589718471467,8.702590441712736,-0.14226768910884857,0.08412312716245651,0.7137539982795715
1772376787692749800,6.508749755859375,0.08226729125492274,1.9530682507067918,7.85132198766768,-0.4439377784729004,-0.019476501271128654,0.832972526550293
1772376787702699000,6.518698974609375,0.832719163332507,1.6749699789896606,6.178462424960732,-0.5144292712211609,-0.006305281072854996,0.9879013299942017
1772376787712648000,6.52864794921875,1.4562873344458638,1.3197735622838138,4.178184094789624,-0.3458985686302185,0.13300174474716187,1.1968451738357544
1772376787722596900,6.538596923828125,2.31343315609172,0.8442331485807895,1.989592100983858,-0.05459326133131981,0.22199572622776031,1.44925057888031
1772376787732545800,6.5485458984375,3.0434704550415277,0.1360202895566821,0.4390332222998142,0.17558933794498444,0.05659717693924904,1.6482532024383545
1772376787742494700,6.55849462890625,3.4307132843494412,-0.6458151473000645,-0.5926794771790505,0.19473139941692352,-0.3727114796638489,1.664014458656311
1772376787752444000,6.56844384765625,3.160131087350845,-1.5241601165801286,-1.1968284428775309,-0.06208174675703049,-0.9492959380149841,1.4173685312271118
1772376787762392800,6.578392822265625,2.1765197170875967,-2.5552809876456855,-1.5527052430629729,-0.4947425127029419,-1.4466791152954102,0.9630347490310669
1772376787772342000,6.588342041015625,0.7430990250967443,-3.5098300756841896,-2.312517648681998,-0.9938769340515137,-1.7921779155731201,0.3864726126194
1772376787782289700,6.59828955078125,-0.9124865275304764,-3.9018092858642337,-4.024353130993247,-1.4403616189956665,-1.9025251865386963,-0.1969599723815918
1772376787792238800,6.60823876953125,-2.3702280793726445,-3.4956022283673285,-6.407802510988712,-1.6868685483932495,-1.7673434019088745,-0.7589591145515442
1772376787802188000,6.61818798828125,-3.34829189851135,-2.7244059666857123,-9.420012150847912,-1.7324321269989014,-1.433829426765442,-1.3115309476852417
1772376787812137000,6.628136962890625,-4.061104360285401,-1.7576950239494442,-12.292182036376,-1.603402853012085,-0.9137550592422485,-1.7099756002426147
1772376787822086000,6.6380859375,-3.6007477794498204,-0.9171654060617088,-13.82510355156064,-1.3600611686706543,-0.46959763765335083,-1.8206712007522583
1772376787832034800,6.648034912109375,-1.7429456369765102,-0.2071644945770502,-13.83241358231306,-1.1042141914367676,-0.2603461444377899,-1.6490331888198853
1772376787841983700,6.657983642578125,0.3884898336943239,0.5346899372860789,-12.64981357127428,-0.8655112385749817,-0.12384650856256485,-1.3026821613311768
1772376787851932700,6.6679326171875,1.7643745017133652,1.241275195108354,-10.760451776802539,-0.6456822156906128,0.03397507965564728,-0.8884247541427612
1772376787861881900,6.6778818359375,2.300328613716364,1.7707148106507955,-8.641987212190031,-0.45070680975914,0.19105669856071472,-0.49025389552116394
1772376787871831000,6.6878310546875,2.3617576265387235,1.9438135156273841,-6.487101088631153,-0.3007607161998749,0.32432660460472107,-0.17264263331890106
1772376787881780000,6.697780029296875,2.136403979798406,1.6981084241233766,-4.39309584249258,-0.1866922378540039,0.4568201005458832,0.017302380874753
1772376787891729000,6.70772900390625,1.6169446371309457,1.2385425552740692,-2.4022002576947212,-0.09132231026887894,0.5670970678329468,0.0844409391283989
1772376787901677800,6.717677734375,0.9788336344674229,0.8579470550261438,-0.5603010561436415,-0.02028658241033554,0.6215811371803284,0.050978709012269974
1772376787911626800,6.727626708984375,0.33397096558660266,0.5959880172051489,1.184873801189661,0.03470715880393982,0.6313685178756714,-0.029869534075260162
1772376787921575700,6.73757568359375,-0.1807934972628951,0.43782837655469775,2.742858445960283,0.08634454011917114,0.6145132184028625,-0.12302940338850021
1772376787931524900,6.74752490234375,-0.4476823927015066,0.3561100244194269,4.034143288123607,0.1432775855064392,0.5738139748573303,-0.2015300840139389
1772376787941474000,6.75747412109375,-0.4887394294288009,0.38788025042861696,4.998147894510627,0.24304810166358948,0.5167204141616821,-0.2516922950744629
1772376787951423000,6.767423095703125,-0.37164741996489464,0.4979914610944688,5.701142434364557,0.374216765165329,0.4633752107620239,-0.2530726194381714
1772376787961372000,6.777371826171875,-0.18578191666733473,0.6683836835913359,6.31776392814517,0.5283291339874268,0.41630223393440247,-0.23253750801086426
1772376787971320800,6.78732080078125,0.06347752458369359,0.816403623021394,6.8013412255704395,0.6770285964012146,0.38281965255737305,-0.18557240068912506
1772376787981269800,6.797269775390625,0.26617404343383383,0.9007932401925325,7.231519525763392,0.7897495031356812,0.32374128699302673,-0.13777004182338715
1772376787991218700,6.80721875,0.33010789695028214,0.9492565345883369,7.6742703072816125,0.871647834777832,0.26047658920288086,-0.08891942352056503
1772376788001166800,6.817166748046875,0.3662898384544998,1.0074310756593943,8.087552417731285,0.9114075899124146,0.22313663363456726,-0.03916211426258087
1772376788011115500,6.827115478515625,0.16559137982008978,1.0764344692587853,8.491468733942508,0.8796645998954773,0.19787734746932983,-0.018894929438829422
1772376788021064400,6.837064453125,-0.15513777207862584,1.2096341484367847,8.877489912500977,0.7566412091255188,0.18413464725017548,0.012409638613462448
1772376788031013400,6.847013427734375,-0.3089256273856386,1.2307773281000554,9.104926210734247,0.5164669156074524,0.13509494066238403,0.015512487851083279
1772376788040962600,6.856962646484375,-0.6789302851121872,1.099042606908083,9.13351225374937,0.1883859485387802,0.03610171005129814,-0.030473899096250534
1772376788050911500,6.866911376953125,-1.1662301101919264,0.9557993803605437,8.930681988984347,-0.16781318187713623,-0.11736588180065155,-0.12144029140472412
1772376788060860700,6.876860595703125,-1.3464287833668291,0.7965449302107095,8.197239119374752,-0.47448307275772095,-0.2911458909511566,-0.19689200818538666
1772376788070809600,6.8868095703125,-1.0222687254376708,0.47432373138964173,6.835080998086929,-0.6330415606498718,-0.4301477372646332,-0.21799781918525696
1772376788080758500,6.896758544921875,-0.44743192507177587,-0.03251125363484025,4.839109425199031,-0.6238436102867126,-0.4351876676082611,-0.16867835819721222
1772376788090707500,6.90670751953125,0.09332790671251713,-0.6389611897520721,2.494050273874402,-0.47323229908943176,-0.36923980712890625,-0.07177497446537018
1772376788100656400,6.916656494140625,0.5621048906952142,-1.3366538238056003,0.09591244331300258,-0.2588414251804352,-0.34977397322654724,0.03044513612985611
1772376788110605600,6.92660546875,0.9582090718507766,-1.9691639377221464,-1.9919623372465372,-0.07627002149820328,-0.46240225434303284,0.07515907287597656
1772376788120554500,6.936554443359375,1.010690808107704,-2.473871116937697,-3.5885710194438696,-0.0629650130867958,-0.7373198866844177,0.002431306755170226
1772376788130503400,6.94650341796875,0.42971484739966687,-2.733507849290967,-4.737866142252087,-0.28987565636634827,-1.0805422067642212,-0.20823565125465393
1772376788140452600,6.95645263671875,-0.5836208491936326,-2.8401106134444474,-5.790639749938249,-0.6934465169906616,-1.329785704612732,-0.5083757042884827
1772376788150401500,6.966401611328125,-1.690913398052752,-2.8922727623581883,-7.174096095320582,-1.099151849746704,-1.364964246749878,-0.8259935975074768
1772376788160350500,6.9763505859375,-2.4403281821675598,-2.742830388909578,-9.181823572453856,-1.2927969694137573,-1.2191051244735718,-1.0627994537353516
1772376788170299600,6.986299560546875,-2.641284908145666,-2.3569388280801475,-11.681551891964673,-1.1870348453521729,-0.9269299507141113,-1.1630020141601562
1772376788180248600,6.99624853515625,-2.3033713424131275,-1.880979750573635,-14.085638986319303,-0.8609657287597656,-0.5903900265693665,-1.111510992050171
1772376788190197500,7.006197509765625,-1.6722086975827812,-1.1847119616914539,-15.532364565563201,-0.4720475375652313,-0.3428952395915985,-0.9304717779159546
1772376788200146400,7.016146484375,-1.0447142198711632,-0.2583935273591429,-15.501300734257697,-0.14086301624774933,-0.23462478816509247,-0.655597984790802
1772376788210094300,7.02609423828125,-0.5647492311915382,0.6535489564225078,-14.289949260509013,0.09766753762960434,-0.18903812766075134,-0.3030942678451538
1772376788220043500,7.03604345703125,-0.23273743684869258,1.1189943848297,-12.588980040127039,0.3036394715309143,-0.029471900314092636,0.10670680552721024
1772376788229992700,7.04599267578125,-0.062086453817784784,1.080230062149465,-10.833062254983187,0.52443927526474,0.24267224967479706,0.5138381123542786
1772376788239941600,7.055941650390625,-0.1643544036373496,0.8626439806707202,-8.876213901215792,0.7369117140769958,0.5556545257568359,0.8689135909080505
1772376788249890600,7.065890625,-0.5708861265113577,0.6576799187473953,-6.471856757748126,0.9059311151504517,0.8642184734344482,1.1475094556808472
1772376788259839500,7.075839599609375,-0.9950834160659462,0.43387920053750273,-3.84892466789484,0.990276038646698,1.088239312171936,1.3383162021636963
1772376788269788400,7.085788330078125,-1.3507475233487785,0.19445903452187777,-1.0815513738811016,0.9736754894256592,1.1646462678909302,1.432249903678894
1772376788279737600,7.095737548828125,-1.696661294054985,-0.13793664457201957,1.588957290661335,0.8605422973632812,1.1159549951553345,1.4133836030960083
1772376788289686500,7.1056865234375,-2.032767225843668,-0.5123132703050971,3.9398534775763747,0.7144337892532349,1.010362982749939,1.2887111902236938
1772376788299635500,7.115635498046875,-2.3450877928972242,-0.7953241562440991,5.746348188269138,0.5481396913528442,0.9282640218734741,1.081244707107544
1772376788309584600,7.125584716796875,-2.637393745926022,-0.8365174596369266,6.963883903610706,0.36788442730903625,0.7902193069458008,0.8464327454566956
1772376788319533600,7.135533447265625,-2.6174709018379447,-0.5676277457699179,7.929435154917836,0.22395288944244385,0.7625716328620911,0.621626615524292
1772376788329482500,7.145482421875,-2.651046423703432,-0.47229105651825665,8.34741156066358,0.18266244232654572,0.616956889629364,0.43211525678634644
1772376788339431400,7.155431396484375,-2.114082257875055,0.13282003221064806,8.249301899567246,0.29808345437049866,0.25782355666160583,0.26937413215637207
1772376788349380600,7.165380615234375,-2.087232683263719,0.7868485888436436,7.6880550870060915,0.5081242918968201,0.02731204405426979,0.15181608498096466
1772376788359329500,7.17532958984375,-1.8085430215246974,1.0622298566870392,7.247938745644688,0.7190501689910889,0.08768999576568604,0.12661689519882202
1772376788369278500,7.185278564453125,-1.0964299401916562,1.1439553692154585,7.027502097040414,0.8834667801856995,0.3715142607688904,0.19740663468837738
1772376788379227600,7.1952275390625,-0.20622838277071714,1.1859944757826626,7.237853989481925,0.9623708128929138,0.7242230176925659,0.2795267701148987
1772376788389176600,7.205176513671875,0.27787158682178703,1.291135350690037,7.626780241832137,0.9392678737640381,1.0302397012710571,0.3449004292488098
1772376788399125500,7.21512548828125,0.277666054312326,1.6438707841098308,8.170576737898587,0.8408424258232117,1.2435638904571533,0.3860865533351898
1772376788409074400,7.225074462890625,0.25338209240529685,1.9841871732003986,8.630096867910027,0.70528244972229,1.2723305225372314,0.3916914165019989
1772376788419023600,7.235023681640625,0.19611553302463142,2.302058213987946,8.79486306721866,0.5814386606216431,0.974731981754303,0.40720951557159424
1772376788428971500,7.244971435546875,0.22111440173536537,2.3991817866563796,8.754236457797884,0.41484570503234863,0.5737558007240295,0.46470290422439575
1772376788438920400,7.25492041015625,0.5919838230650871,2.1520552840471265,8.716589740970731,0.30127522349357605,0.10879246890544891,0.6025131940841675
1772376788448869400,7.264869384765625,1.1803406147394329,1.8632117464318871,8.290819320347905,0.01832822524011135,-0.19594693183898926,0.7728383541107178
1772376788458818600,7.274818603515625,1.7946230711132287,1.196684942753613,7.6206094442427155,-0.3053766191005707,-0.48816418647766113,0.9655808210372925
1772376788468767500,7.284767578125,2.2752453181251884,0.2615641932845115,6.754133484193682,-0.5325586795806885,-0.8388587832450867,1.1669358015060425
1772376788478716700,7.294716552734375,2.654515268857777,-0.64383741748631,5.178754637029766,-0.6307703852653503,-1.0340522527694702,1.3002411127090454
1772376788488665600,7.30466552734375,2.571545309226215,-1.260833589798212,3.1974475493103265,-0.5793353915214539,-1.069440245628357,1.3361873626708984
1772376788498614500,7.314614501953125,2.1879301688961683,-1.7375031536616383,0.9390367538690566,-0.4501785337924957,-0.9403833150863647,1.2572510242462158
1772376788508563500,7.3245634765625,1.6683971764706074,-2.1306490695334968,-1.208176935365796,-0.335691899061203,-0.9326063394546509,1.0756666660308838
1772376788518512400,7.334512451171875,1.0461824657928198,-2.6111098423734305,-2.799144396805763,-0.354873389005661,-1.142439603805542,0.7586860060691833
1772376788528461600,7.344461669921875,0.16292128382800147,-3.1627871548175808,-3.9140778158068654,-0.6110973954200745,-1.5125025510787964,0.29510101675987244
1772376788538410500,7.354410400390625,-1.2509279895946384,-3.7698295038700103,-4.720467848205566,-1.0913970470428467,-1.8977912664413452,-0.2535651624202728
1772376788548359700,7.364359619140625,-2.510426239135861,-4.1262049012273545,-6.170562027099728,-1.5781028270721436,-2.0696113109588623,-0.8447496891021729
1772376788558308600,7.37430859375,-3.157626411053538,-4.294735129244625,-9.450697211968897,-1.7928955554962158,-1.666793704032898,-1.407597541809082
1772376788568257500,7.384257568359375,-3.701147889570892,-3.74653572204411,-13.065066105014084,-1.6859959363937378,-0.8064318895339966,-1.8284176588058472
1772376788578206500,7.39420654296875,-3.6595235012844203,-2.1662397306136785,-15.45062268642187,-1.4009805917739868,0.06775221973657608,-1.9906785488128662
1772376788588155400,7.4041552734375,-2.7885452613800763,-0.10839183952733873,-15.679638362801073,-1.0524359941482544,0.6678367257118225,-1.7962387800216675
1772376788598104600,7.4141044921875,-1.099070371697843,1.530161110560596,-14.041267929673195,-0.6942630410194397,0.9269100427627563,-1.281823754310608
1772376788608053500,7.424053466796875,0.8909560290500521,2.314177398587763,-11.571426798903941,-0.3649198114871979,0.986100435256958,-0.6330116987228394
1772376788618002400,7.43400244140625,2.0809724538251757,2.354999238319695,-8.915537611344456,-0.16357967257499695,0.9501726627349854,-0.048747140914201736
1772376788627950300,7.443950439453125,2.253334953481704,2.1162131324239075,-6.129219962885975,0.003631163388490677,0.9181519150733948,0.3376149535179138
1772376788637899500,7.4538994140625,1.7055737915679812,1.5978393930360675,-3.494023434743285,0.14848512411117554,0.9584001302719116,0.5403721332550049
1772376788647848700,7.4638486328125,0.9082060006670654,0.8568396783061325,-1.2711480630636214,0.2499193400144577,1.0167444944381714,0.5810567140579224
1772376788657797600,7.473797607421875,0.20263017561566082,0.14537307818308473,0.724159492957592,0.2762393057346344,1.0364623069763184,0.4725824296474457
1772376788667746600,7.48374658203125,-0.46795167560707773,-0.4423531605027616,2.704894333747029,0.24043813347816467,0.9949585795402527,0.24726462364196777
1772376788677695500,7.493695556640625,-1.0211536768678575,-0.8477817809730768,4.443894886359572,0.15109877288341522,0.8862072229385376,-0.033422645181417465
1772376788687644400,7.50364453125,-1.6597998823866247,-0.9923233767680824,5.999226970794797,0.04855003207921982,0.7580562233924866,-0.3059452474117279
1772376788697593300,7.51359326171875,-1.9843001320555804,-0.9730614808067679,7.186162380689382,-0.050433844327926636,0.6361547112464905,-0.5286067724227905
1772376788707542500,7.52354248046875,-1.8704840755224226,-0.7869333445176482,7.947823629045486,-0.12276503443717957,0.5230103135108948,-0.6901125907897949
1772376788717491700,7.53349169921875,-1.6385148100346325,-0.3987520653158426,8.402885610604285,-0.20256388187408447,0.3988683819770813,-0.7597774267196655
1772376788727440600,7.543440673828125,-1.2448869558647275,0.05593669901639223,8.727693903309106,-0.24724081158638,0.2806176543235779,-0.7678635716438293
1772376788737389600,7.5533896484375,-0.749190254643932,0.47610462345704435,8.927674039340019,-0.265740305185318,0.21698111295700073,-0.7266557812690735
1772376788747338500,7.56333837890625,-0.2548694448862225,0.7428459271185099,8.922712617540359,-0.24840953946113586,0.1889987587928772,-0.6342076063156128
1772376788757287400,7.573287353515625,0.22366543792504817,0.91393226935938,8.905933916696906,-0.21521125733852386,0.14675135910511017,-0.5061073899269104
1772376788767236400,7.583236328125,0.5044000860277563,1.0988785023875534,8.837837701070308,-0.17523588240146637,0.07466758042573929,-0.3608705699443817
1772376788777185500,7.593185546875,0.6356375982873141,1.3385852302595973,8.722735988640785,-0.12072780728340149,-0.049208611249923706,-0.22049999237060547
1772376788787134500,7.603134521484375,0.6003662322893738,1.489132934601605,8.511004624539613,-0.08100409060716629,-0.2486918866634369,-0.10630497336387634
1772376788797083600,7.613083740234375,0.49339850728102025,1.5168138454705475,8.08011788381636,-0.03249368816614151,-0.4856807589530945,-0.0021946842316538095
1772376788807032600,7.623032470703125,0.4006052189018577,1.3176346505589782,7.203126959493756,0.05459380894899368,-0.6989062428474426,0.07666950672864914
1772376788816981500,7.6329814453125,0.4129112678432837,0.9888787892721593,5.874418687865138,0.18290665745735168,-0.8955745100975037,0.14937517046928406
1772376788826929700,7.6429296875,0.5932680176567285,0.5777006653644144,4.293807785266638,0.31728309392929077,-0.9789823293685913,0.21369318664073944
1772376788836878600,7.652878662109375,0.6855333366390317,0.09919073433130979,2.555314013132453,0.43872204422950745,-0.9747053384780884,0.28270480036735535
1772376788846827500,7.66282763671875,0.7025443849336356,-0.507974510448426,0.8448778762251138,0.5114542841911316,-0.9679669737815857,0.36878320574760437
1772376788856776400,7.6727763671875,0.9132473558351397,-1.2610866877764462,-0.7388999659717083,0.4636548161506653,-1.0394749641418457,0.4473683834075928
1772376788866725400,7.682725341796875,1.27962260755077,-2.0483735219068824,-2.026856540495157,0.23508264124393463,-1.2622997760772705,0.4406931698322296
1772376788876674300,7.69267431640625,1.3012456796854734,-2.737312210009992,-3.4222090753763914,-0.16939544677734375,-1.604894995689392,0.27430903911590576
1772376788886623700,7.702623779296875,0.5568939876465127,-3.2729870666801926,-5.2463323817402125,-0.6609814167022705,-1.8652738332748413,-0.11968141794204712
1772376788896572700,7.71257275390625,-1.0501683205585925,-3.685965810269117,-8.001317903345823,-1.0829828977584839,-1.8048346042633057,-0.7362394332885742
1772376788906521600,7.722521484375,-3.3550551090359684,-3.8374294604122636,-11.571771666818856,-1.2745667695999146,-1.345321536064148,-1.4400995969772339
1772376788916470500,7.732470458984375,-5.347264699041843,-3.3008974023908375,-15.157105019515752,-1.1609989404678345,-0.6213761568069458,-1.9953579902648926
1772376788926419500,7.74241943359375,-5.77032878331542,-1.8888067909374833,-17.574205909222364,-0.8182408213615417,0.1006353348493576,-2.1708521842956543
1772376788936368400,7.752368408203125,-4.3530286205202335,-0.10989625274091959,-17.971376842826604,-0.3943262994289398,0.5951584577560425,-1.8865982294082642
1772376788946317300,7.7623173828125,-1.772759029829502,1.3775652415171264,-16.563312710410354,0.0839284211397171,0.815458357334137,-1.2541038990020752
1772376788956266500,7.7722666015625,0.7170166354656219,2.3462992145136,-14.315280101120472,0.43701738119125366,0.9384691715240479,-0.48992523550987244
1772376788966215700,7.782215576171875,2.164524012736976,2.712574659116566,-11.953486672616004,0.6225504875183105,1.0327718257904053,0.20573453605175018
