time,seconds_elapsed,accel_x,accel_y,accel_z,gyro_x,gyro_y,gyro_z
1772376768585914600,0.07091455078125,-0.01219305355362594,-0.06274228737801313,0.3976572558164596,0.009936859831213951,0.23064443469047546,0.21798448264598846
1772376768595863600,0.080863525390625,-0.0962567997712642,-0.13006415763124823,0.6121726976782084,0.0722082257270813,0.22407974302768707,0.2235478162765503
1772376768605812500,0.0908125,-0.21362068497911094,-0.12514964371323584,0.8695224881380796,0.15976008772850037,0.16786830127239227,0.20452052354812622
1772376768615761400,0.100761474609375,-0.2523533156131394,-0.13264262981712818,1.0867542032212019,0.24544543027877808,0.08595877885818481,0.17069731652736664
1772376768625710600,0.110710693359375,-0.24278872913327065,-0.11422361442074179,1.3104653434515,0.319734662771225,0.017182495445013046,0.13811415433883667
1772376768635659500,0.120659423828125,-0.2384267893304117,-0.07859948946237563,1.5510568913340568,0.3506385087966919,-0.002114503178745508,0.10730963200330734
1772376768645608700,0.130608642578125,-0.2997393178999424,-0.05068959214314818,1.8265385508120058,0.3207239508628845,-0.0006469488143920898,0.07628319412469864
1772376768655557600,0.1405576171875,-0.33876744261551645,0.02275704460069537,2.1326620167911052,0.23793265223503113,-0.017751101404428482,0.04863292723894119
1772376768665506600,0.150506591796875,-0.3243213129054755,0.09593933131992817,2.3339175795853135,0.14805306494235992,-0.03440897539258003,0.024890586733818054
1772376768675455500,0.16045556640625,-0.3566719691511243,0.16920637371316552,2.3036247326523065,0.07835520058870316,-0.03431523218750954,0.0026691709645092487
1772376768685404400,0.170404296875,-0.43062531330808995,0.2885257038377225,2.147335854309797,0.040494732558727264,-0.04132906347513199,-0.0241083987057209
1772376768695353600,0.180353515625,-0.5074476735627278,0.4174465366527438,1.8615414751321075,0.03420354798436165,-0.037703435868024826,-0.041582997888326645
1772376768705302500,0.190302490234375,-0.4951788513591513,0.46473348074555393,1.4913795444846152,0.0673234686255455,-0.0030444557778537273,-0.03737201541662216
1772376768715251700,0.200251708984375,-0.3553357521113008,0.4035049589313566,1.1914753914117813,0.11711206287145615,0.040949899703264236,-0.003805001499131322
1772376768725200600,0.21020068359375,-0.10060634588343091,0.24181188345775007,1.021551370948553,0.14143408834934235,0.06454137712717056,0.046724770218133926
1772376768735149600,0.220149658203125,0.2777027695935219,-0.112253775652498,0.953721112781763,0.12052933126688004,0.04350586235523224,0.09585369378328323
1772376768745098500,0.230098388671875,0.6676539080120623,-0.5829771444626152,1.008528223246336,0.02484593726694584,-0.045981165021657944,0.13575594127178192
1772376768755047700,0.240047607421875,0.9524618334356695,-0.989107775722444,0.9589210195124149,-0.15381887555122375,-0.21833615005016327,0.14690206944942474
1772376768764996600,0.24999658203125,0.934625001841411,-1.2833834213890134,0.7082932307839394,-0.42161670327186584,-0.4571441411972046,0.08125460147857666
1772376768774945500,0.259945556640625,0.4637151705484837,-1.4759711090810597,0.2140525005251169,-0.7345895171165466,-0.7300600409507751,-0.08897332102060318
1772376768784894500,0.26989453125,-0.420354679184407,-1.464471663814783,-0.7380950793296098,-1.0722273588180542,-0.9453641772270203,-0.3603419065475464
1772376768794843600,0.27984375,-1.5413338080905377,-1.16929366248101,-2.1355425406634807,-1.3835972547531128,-1.0311992168426514,-0.6839717030525208
1772376768804792600,0.28979248046875,-2.464001172569394,-0.7383911396667361,-3.8338632923632856,-1.562780499458313,-0.9520065784454346,-0.9961313605308533
1772376768814741500,0.299741455078125,-2.7734195884406563,-0.2915075691927224,-5.815153428947926,-1.5179057121276855,-0.6839447617530823,-1.2279936075210571
1772376768824690700,0.309690673828125,-2.406552461554855,0.07658383879102766,-7.630837992790341,-1.232886791229248,-0.22964367270469666,-1.302027940750122
1772376768834639600,0.3196396484375,-1.4844352783046662,0.42032684132941067,-8.670252937209606,-0.7944100499153137,0.2727043926715851,-1.1933414936065674
1772376768844588500,0.329588623046875,-0.3053548196941614,0.8397565876886248,-8.58589181548059,-0.35003504157066345,0.6619075536727905,-0.9242962598800659
1772376768854537500,0.339537353515625,0.7963937582369893,1.1839270218588411,-7.542994874164462,0.017222870141267776,0.9433144330978394,-0.5510838031768799
1772376768864486400,0.349486328125,1.6184341450363398,1.2940787106655538,-6.011299101382494,0.2576921582221985,1.1446857452392578,-0.1485772281885147
1772376768874435600,0.359435546875,1.9754164222456514,1.2757412360727787,-4.191161649784446,0.35946112871170044,1.2580112218856812,0.21735946834087372
1772376768884384500,0.369384521484375,1.859338119868934,1.0645433212611823,-2.3786112923145293,0.344094455242157,1.2933858633041382,0.4810275733470917
1772376768894333700,0.379333740234375,1.4400887715779245,0.6124209002856165,-0.8507096511185168,0.27687573432922363,1.3012454509735107,0.6346209049224854
1772376768904282600,0.38928271484375,0.8055013399306684,0.08237002097703516,0.17650047624409199,0.22598397731781006,1.3090918064117432,0.6810736656188965
1772376768914231600,0.3992314453125,0.11913535185977815,-0.4195609715234488,0.8569237033277749,0.23335853219032288,1.321122407913208,0.6494313478469849
1772376768924180500,0.409180419921875,-0.39982422459200023,-0.7686636744640767,1.4378911154031753,0.28450512886047363,1.2812761068344116,0.5736299753189087
1772376768934129400,0.41912939453125,-0.7037642821174115,-0.9393461120791733,2.087919204223156,0.3674119710922241,1.1607697010040283,0.4873685836791992
1772376768944078600,0.42907861328125,-0.7836827452238648,-0.9520181813213974,2.7524603870421647,0.48320528864860535,0.9916543364524841,0.4217819273471832
1772376768954027800,0.43902783203125,-0.7111162523154169,-0.8693448665488511,3.371699369844794,0.6200297474861145,0.8117409944534302,0.3870292603969574
1772376768963976700,0.448976806640625,-0.561564500208199,-0.7626663337454199,3.9593151338934898,0.7461614608764648,0.6025935411453247,0.38092494010925293
1772376768973925600,0.458925537109375,-0.3817690010067075,-0.6288933847241104,4.46586881775856,0.834683358669281,0.3942859172821045,0.38060271739959717
1772376768983874600,0.46887451171875,-0.2543039930231869,-0.4995679166309535,4.849479428043961,0.8729473352432251,0.2194446325302124,0.3811585605144501
1772376768993823200,0.4788232421875,-0.17854710657559333,-0.42408436723202464,5.1277130165785545,0.8541925549507141,0.05667462572455406,0.3730758726596832
1772376769003772200,0.488772216796875,-0.15864530527554452,-0.32352716685310007,5.313568765667081,0.7897817492485046,-0.10949025303125381,0.35797977447509766
1772376769013721300,0.498721435546875,-0.20553287478722632,-0.20467165484800934,5.309170238447189,0.6780924797058105,-0.2698032259941101,0.3255278170108795
1772376769023670500,0.50867041015625,-0.2763558119639754,-0.1196297112479806,5.040098446011543,0.5544166564941406,-0.34273362159729004,0.29356828331947327
1772376769033619500,0.518619384765625,-0.31951646990701554,-0.1271430094875395,4.581596553131938,0.4346247613430023,-0.34600213170051575,0.2799787223339081
1772376769043568400,0.528568359375,-0.304537804222852,-0.18985285590067505,4.0786856096833946,0.32740074396133423,-0.3544769585132599,0.27240434288978577
1772376769053517300,0.538517333984375,-0.23695399509780107,-0.28216464437320826,3.5169454606473445,0.22127297520637512,-0.41920506954193115,0.26342469453811646
1772376769063466200,0.54846630859375,-0.12373597752302884,-0.3646140872620046,2.9185283165991303,0.12088273465633392,-0.5460343956947327,0.2511309087276459
1772376769073415200,0.558415283203125,0.07922178607918322,-0.5733275648467242,2.1723820327609777,0.031596798449754715,-0.6695552468299866,0.23871178925037384
1772376769083364400,0.5683642578125,0.3348556759992614,-0.9321683294042944,1.2482570168197153,-0.04926450923085213,-0.7859444618225098,0.2200135588645935
1772376769093313300,0.578313232421875,0.6809452781964093,-1.4047567614339291,0.2864502127379179,-0.12209077924489975,-0.9389829635620117,0.18021048605442047
1772376769103262500,0.588262451171875,0.9868220759380608,-1.8367071858659385,-0.635599750494957,-0.19629064202308655,-1.1158519983291626,0.08353843539953232
1772376769113211400,0.59821142578125,0.9393659858234226,-2.0863914101339875,-1.480822494634986,-0.2955661118030548,-1.2911447286605835,-0.0956220030784607
1772376769123160300,0.608160400390625,0.29733843077067285,-2.072304140331596,-2.2036031004548073,-0.4850882291793823,-1.5205023288726807,-0.37525343894958496
1772376769133109200,0.618109130859375,-0.9419111402615904,-1.6127448473535477,-2.8604484680742024,-0.7983568906784058,-1.849120855331421,-0.7560465931892395
1772376769143058200,0.62805810546875,-2.3237619501434263,-0.8236978716827928,-3.734454823628068,-1.1543844938278198,-2.095996618270874,-1.1914660930633545
1772376769153007400,0.63800732421875,-3.1514597051173445,-0.09807605108767747,-4.9630654752135275,-1.3758282661437988,-2.0019567012786865,-1.59855055809021
1772376769162956300,0.647956298828125,-3.359628992822766,0.4532547860063612,-6.515951920062303,-1.3689404726028442,-1.5291965007781982,-1.8851104974746704
1772376769172905200,0.6579052734375,-3.013792525136471,1.0646982926271855,-7.784386632514,-1.1532663106918335,-0.8480116724967957,-1.9711170196533203
1772376769182854400,0.6678544921875,-2.1403020101502537,1.7410586541861295,-8.078927797248959,-0.8206529021263123,-0.15092074871063232,-1.834571361541748
1772376769192803300,0.67780322265625,-0.8909616550732403,2.3163643872380257,-7.359876441085338,-0.4744773507118225,0.4923357367515564,-1.4960294961929321
1772376769202752300,0.687752197265625,0.34017102580312636,2.701649652737379,-5.829186045953631,-0.18808580935001373,1.0355253219604492,-1.033017873764038
1772376769212701400,0.697701416015625,1.1962652560368179,2.939953966465592,-3.9048271723806858,-0.006109615322202444,1.4728124141693115,-0.5218380093574524
1772376769222650400,0.707650390625,1.608166433522105,2.8688448327586054,-1.9111223753809927,0.07254895567893982,1.8113784790039062,-0.03520448878407478
1772376769232599300,0.717599365234375,1.5675957920722663,2.5421701616600156,-0.18680092098414897,0.0852772668004036,2.0474581718444824,0.36661165952682495
1772376769242548200,0.72754833984375,1.1925622368004172,2.0080448725193736,1.211179624313116,0.07059960812330246,2.1956067085266113,0.6499572992324829
1772376769252497400,0.737497314453125,0.727247814361751,1.4721896908462047,2.2776398120462895,0.07432296872138977,2.2655482292175293,0.8381817936897278
1772376769262446300,0.7474462890625,0.262062023271434,1.00144564457424,3.1421833427280186,0.1168992668390274,2.2293365001678467,0.9399193525314331
1772376769272395300,0.757395263671875,-0.10724573823213576,0.5442081456072628,3.810304137599468,0.21208436787128448,2.0924322605133057,0.9859944581985474
1772376769282344400,0.767344482421875,-0.34916648889184,0.1013483507566154,4.336968881601095,0.3369092345237732,1.893223762512207,0.9899428486824036
1772376769292292400,0.777292236328125,-0.5407301672983914,-0.28930896316990257,4.821901685288548,0.4649023413658142,1.6328027248382568,0.9492044448852539
1772376769302241300,0.7872412109375,-0.762747436157614,-0.5599836607575416,5.268285854873061,0.5703926086425781,1.2793148756027222,0.8592513203620911
1772376769312190200,0.797190185546875,-0.9698073013164102,-0.6708158791743218,5.6687926549017424,0.625765860080719,0.8505963087081909,0.719987154006958
1772376769322139100,0.80713916015625,-1.1086701208226382,-0.7209260639943182,5.876527642843127,0.6217470169067383,0.3754306733608246,0.5385622382164001
1772376769332088300,0.81708837890625,-1.2187835234455764,-0.7217299277231097,5.792900680607557,0.5768200159072876,-0.07867825776338577,0.33594810962677
1772376769342037500,0.82703759765625,-1.2157298349633812,-0.6414594363085925,5.442251844203472,0.5152038931846619,-0.4310075044631958,0.1454336941242218
1772376769351986400,0.836986328125,-1.020094742399454,-0.54475891135782,4.870822075802088,0.45915311574935913,-0.6695351004600525,0.007767976261675358
1772376769361935400,0.846935302734375,-0.63394350772053,-0.3669555358216166,4.048787899547815,0.4233689308166504,-0.8067324161529541,-0.058219507336616516
1772376769371884300,0.85688427734375,-0.19237170685380697,-0.2077430251173675,3.2399194943368435,0.3802502155303955,-0.8789522647857666,-0.06373624503612518
1772376769381833200,0.866833251953125,0.3413044502798468,-0.15491934355497358,2.448202714934945,0.33330339193344116,-0.9407622218132019,-0.018743811175227165
1772376769391782400,0.876782470703125,0.9840049726907163,-0.33180706555098294,1.578771996733546,0.2897612452507019,-0.9760501980781555,0.06377770006656647
1772376769401731300,0.8867314453125,1.6744316343292593,-0.7296748953782022,0.6168558870583772,0.2686014473438263,-0.964984118938446,0.1708512306213379
1772376769411680300,0.89668017578125,2.2671949903994797,-1.2391349682092665,-0.4043155446618795,0.28881698846817017,-0.8920007348060608,0.266222208738327
1772376769421629400,0.90662939453125,2.628338040550053,-1.7663232976935803,-1.2782020732283592,0.29724517464637756,-0.8070806264877319,0.33051544427871704
1772376769431578400,0.916578369140625,2.5948525350555776,-2.156871013765782,-1.792712853577733,0.21484564244747162,-0.8316136598587036,0.30744847655296326
1772376769441527300,0.92652734375,1.919637398009002,-2.290278490475565,-1.8567559944212435,-0.05696406215429306,-1.0627026557922363,0.13605879247188568
1772376769451476200,0.936476318359375,0.22340550834722817,-2.0167688617229462,-1.8554326368629932,-0.5770027041435242,-1.5078867673873901,-0.22370870411396027
1772376769461425400,0.94642529296875,-1.8097464059650896,-1.4877807893402875,-2.392702361509204,-1.2383008003234863,-1.9572803974151611,-0.7490019202232361
1772376769471374300,0.956374267578125,-3.312836261987686,-1.0502908509597182,-3.8220840072423217,-1.7715082168579102,-2.0259103775024414,-1.3451133966445923
1772376769481323300,0.9663232421875,-4.003569286161661,-0.7489790230460465,-5.964851822984218,-1.956313133239746,-1.676594614982605,-1.881946086883545
1772376769491272200,0.976272216796875,-3.8021629167199134,-0.2610818165950477,-8.27829301625192,-1.775608777999878,-1.0385435819625854,-2.2626233100891113
1772376769501221400,0.986221435546875,-2.9935335809618233,0.5407058365747333,-9.59830710929334,-1.386388897895813,-0.3006335496902466,-2.3980729579925537
1772376769511170300,0.99617041015625,-1.6452173764131963,1.5582061785668133,-9.358940719291567,-0.9225439429283142,0.3346371650695801,-2.244006395339966
1772376769521119200,1.006119140625,-0.07673537609092891,2.4054534142717716,-7.958999687576293,-0.4822435677051544,0.8032800555229187,-1.817670464515686
1772376769531068400,1.016068359375,1.3287770990811287,2.975059766638279,-5.947220889225602,-0.11955805867910385,1.0997194051742554,-1.1910241842269897
1772376769541017300,1.026017333984375,2.2810075349137184,3.276729760339856,-3.7637393703013657,0.17096266150474548,1.2864326238632202,-0.49404624104499817
1772376769550966300,1.03596630859375,2.6175574110776183,3.281800487732887,-1.7035680047035215,0.37470194697380066,1.3916817903518677,0.15257778763771057
1772376769560915200,1.045915283203125,2.425527941790223,2.9634523309528826,0.10755553483366966,0.5106589794158936,1.4557687044143677,0.6676915884017944
1772376769570864400,1.055864501953125,1.8499679417163133,2.4283994055733085,1.6036445721834898,0.591997504234314,1.5152552127838135,1.0303832292556763
1772376769580813300,1.065813232421875,1.1826787753634154,1.8665302233301102,2.7781623990535733,0.6548516750335693,1.5582215785980225,1.2761023044586182
1772376769590762500,1.075762451171875,0.5849771591734141,1.3342752581059931,3.7235283559441563,0.7007707357406616,1.5699982643127441,1.4111067056655884
1772376769600711400,1.08571142578125,-0.017092077641561627,0.8426070086836814,4.584680490621924,0.7272417545318604,1.5295286178588867,1.4417691230773926
1772376769610660400,1.095660400390625,-0.6142424166243523,0.40166985245868564,5.3605204864561555,0.7084715366363525,1.4312204122543335,1.3751534223556519
1772376769620609300,1.105609375,-1.1021215028967708,0.08032017577514051,6.082508480593562,0.6330061554908752,1.2493280172348022,1.246922492980957
1772376769630558200,1.11555810546875,-1.3971233439460395,-0.19981120920479298,6.641385056892037,0.5240796804428101,0.9973686933517456,1.0888023376464844
1772376769640507100,1.125507080078125,-1.4667786255829036,-0.3860166485138237,6.95716190187931,0.40023544430732727,0.7005111575126648,0.9243873953819275
1772376769650456300,1.135456298828125,-1.4688126156285404,-0.4771215454146266,7.040479067513346,0.2858787775039673,0.3645307421684265,0.7442412972450256
1772376769660405500,1.145405517578125,-1.4793082906797528,-0.440918159263581,6.875501271280646,0.1835319995880127,0.015030934475362301,0.5718700885772705
1772376769670354400,1.1553544921875,-1.4709370604366063,-0.26762656206339597,6.492950399181247,0.09828369319438934,-0.28615206480026245,0.4098665118217468
1772376769680303400,1.165303466796875,-1.3963134888678788,-0.08577201144024729,5.887163603147864,0.028811577707529068,-0.49763891100883484,0.27344104647636414
1772376769690252300,1.175252197265625,-1.2898831586718558,0.07981763308048248,5.092457578802108,-0.020479539409279823,-0.6214261054992676,0.16833168268203735
1772376769700201200,1.185201171875,-1.0331754655078054,0.2144775940693915,4.190044628453254,-0.053910862654447556,-0.6978225111961365,0.10440003871917725
1772376769710150100,1.195150146484375,-0.660658642297238,0.3012836247324943,3.2637311625570056,-0.06529081612825394,-0.7699925899505615,0.0745723694562912
1772376769720099300,1.205099365234375,-0.215145264197886,0.3267912832155824,2.305233921414614,-0.043509792536497116,-0.8134706616401672,0.08915156126022339
1772376769730048500,1.215048583984375,0.2680447144102305,0.26346038229465485,1.3143728722840546,0.028959084302186966,-0.8324843049049377,0.13940860331058502
1772376769739997400,1.22499755859375,0.7193207476895302,0.12399375167638063,0.4242401423156261,0.11352460086345673,-0.8783460259437561,0.19023539125919342
1772376769749946400,1.2349462890625,0.9313497064977884,0.09088540893122553,-0.23540157802402972,0.1517454832792282,-0.9909607172012329,0.21454471349716187
1772376769759895300,1.244895263671875,0.7976976804424076,0.1960202924892306,-0.7697311575651168,0.1035957932472229,-1.1800615787506104,0.21479582786560059
1772376769769844200,1.25484423828125,0.6175508835852146,0.17783289389163254,-1.332531629309058,-0.03065415471792221,-1.3400880098342896,0.21870560944080353
1772376769779793200,1.264793212890625,0.49587607637569303,-0.054085664322227237,-2.082085091242194,-0.20353198051452637,-1.3744064569473267,0.2395700216293335
1772376769789742300,1.274742431640625,0.37188181324265895,-0.419473366305232,-2.979721913230419,-0.36394616961479187,-1.2912324666976929,0.26425403356552124
1772376769799691500,1.28469140625,0.11096223800461738,-0.7394681212484836,-3.8814059647828336,-0.4950999915599823,-1.1035078763961792,0.25983530282974243
1772376769809640400,1.294640380859375,-0.41353484310172495,-0.9562608603924513,-4.681800556159019,-0.6090382933616638,-0.8456856608390808,0.2012968808412552
1772376769819589400,1.30458935546875,-1.1679574454411863,-1.0542495254576205,-5.134869902595877,-0.7667945623397827,-0.628833532333374,0.06600283831357956
1772376769829538300,1.314538330078125,-2.0461152215860783,-0.9986747916214167,-5.149018254935741,-1.0389773845672607,-0.5286208987236023,-0.17760156095027924
1772376769839487200,1.3244873046875,-2.8712635843381284,-0.7405556242242455,-4.860169748884439,-1.4258761405944824,-0.5659696459770203,-0.5099186897277832
1772376769849436200,1.334436279296875,-3.2911823563233016,-0.4359027422543615,-4.7953427641868585,-1.825421929359436,-0.6399642825126648,-0.8774504065513611
1772376769859385300,1.34438525390625,-3.1020208436876535,-0.25306758309602734,-5.295475475093722,-2.056833505630493,-0.5872208476066589,-1.2013837099075317
1772376769869334300,1.354334228515625,-2.365455019751936,-0.08610460439547896,-6.260819221130013,-2.0264086723327637,-0.36405912041664124,-1.4046061038970947
1772376769879283500,1.364283447265625,-1.395830089265108,0.26049334918260575,-7.223647184953093,-1.7342042922973633,-0.01891278848052025,-1.4371263980865479
1772376769889232400,1.374232421875,-0.3696921211786568,0.8597937058061361,-7.588875166329741,-1.2702120542526245,0.3562549650669098,-1.2507469654083252
1772376769899181300,1.384181396484375,0.7006393550299108,1.448314455870539,-7.040739764276147,-0.7547145485877991,0.7005583047866821,-0.8563216328620911
1772376769909130200,1.394130126953125,1.6810289867676793,1.8470204900875686,-5.73824963748753,-0.2806367576122284,0.9570952653884888,-0.3143097758293152
1772376769919079400,1.404079345703125,2.333160185346752,1.965943514370918,-3.956999842688441,0.10929063707590103,1.133733868598938,0.27304807305336
1772376769929028400,1.4140283203125,2.51770236761868,1.8569860037848351,-2.0522616153866053,0.40991172194480896,1.246610403060913,0.7984064221382141
1772376769938977300,1.423977294921875,2.275212292638421,1.4977125468984245,-0.2028594908595085,0.6173851490020752,1.3349286317825317,1.2001087665557861
1772376769948926200,1.43392626953125,1.6891935885228215,1.045922280486673,1.4139870927244425,0.741963267326355,1.4242510795593262,1.4857674837112427
1772376769958875400,1.44387548828125,1.0806453649520873,0.6003345219768583,2.7889474124401805,0.8022432923316956,1.4729465246200562,1.6693594455718994
1772376769968824300,1.45382421875,0.4503557766292244,0.17523524208124727,3.977662106966972,0.8124333024024963,1.4732003211975098,1.756443977355957
1772376769978773200,1.463773193359375,-0.17468626642897725,-0.24199805367961524,4.98076070638001,0.7893545627593994,1.4316751956939697,1.7586443424224854
1772376769988722400,1.473722412109375,-0.7030646824806929,-0.6627815527353436,5.8379480290800325,0.7369507551193237,1.358136773109436,1.6887638568878174
1772376769998672100,1.483672119140625,-1.1299081391625105,-1.0137118364293127,6.498460687035322,0.6826119422912598,1.2327587604522705,1.5583510398864746
1772376770008621300,1.493621337890625,-1.4285750055253505,-1.2384665674284099,6.94198128388226,0.6147506237030029,1.0502504110336304,1.387597918510437
1772376770018570200,1.5035703125,-1.5412733100749552,-1.354486563746631,7.203793314447998,0.5398184061050415,0.794030487537384,1.1863162517547607
1772376770028519200,1.513519287109375,-1.5040604546204208,-1.426524210475385,7.28816495757103,0.4839690029621124,0.4556979835033417,0.9794579148292542
1772376770038468000,1.523468017578125,-1.3876589116387068,-1.389360308729112,7.090168688833713,0.4542478322982788,0.10063014924526215,0.7568750381469727
1772376770048417000,1.5334169921875,-1.2782462046310306,-1.2898407808348535,6.604454963901639,0.44155654311180115,-0.220700204372406,0.5273550152778625
1772376770058366200,1.5433662109375,-1.240189737959206,-1.1384532646678387,5.968773964864015,0.45031028985977173,-0.5277193784713745,0.3130682706832886
1772376770068315400,1.5533154296875,-1.1510617671545593,-0.8688435659632087,5.143287017807364,0.4807118773460388,-0.8171964287757874,0.12380514293909073
1772376770078264300,1.563264404296875,-1.0226384355328977,-0.5847349479153752,4.060798070815205,0.5494063496589661,-1.0074800252914429,-0.008023071102797985
1772376770088212200,1.573212158203125,-0.6632782502111048,-0.4154145924337208,2.8937837514430282,0.6541748642921448,-1.0461699962615967,-0.07183906435966492
1772376770098161200,1.5831611328125,-0.11875796991474925,-0.3273727363653481,1.861158613294363,0.7504445910453796,-0.9927288293838501,-0.061359647661447525
1772376770108110000,1.593110107421875,0.7140995059099048,-0.40685879940390585,1.0907634388625622,0.801675021648407,-0.9572781920433044,0.04667787253856659
1772376770118059300,1.603059326171875,1.9516011007636784,-0.670124535909295,0.49618309649825093,0.7862984538078308,-0.9580063819885254,0.26409074664115906
1772376770128008200,1.61300830078125,3.232833043207228,-1.1947197801604865,0.11811083111763,0.67563396692276,-1.018916368484497,0.5354777574539185
1772376770137957000,1.62295703125,4.0702003976717585,-1.855707069890201,-0.1774140839576721,0.4403040111064911,-1.182508945465088,0.7593134045600891
1772376770147906300,1.63290625,3.983982249899208,-2.327299622750282,-0.4616062886357307,0.07044847309589386,-1.492064356803894,0.826783299446106
1772376770157855200,1.642855224609375,2.544204297836125,-2.3733481110893186,-0.9456517880946397,-0.45744097232818604,-1.962713360786438,0.6583550572395325
1772376770167804200,1.65280419921875,-0.05428231027233414,-2.239111051687598,-2.02175950961709,-1.1447207927703857,-2.4889020919799805,0.2340325117111206
1772376770177753000,1.662753173828125,-2.745189811517298,-2.2628080074869095,-4.073585071673989,-1.7849732637405396,-2.827648639678955,-0.42830029129981995
1772376770187702300,1.672702392578125,-4.7001904915913935,-2.395672901752591,-7.216335400635003,-2.061913251876831,-2.6966073513031006,-1.2317092418670654
1772376770197651200,1.682651123046875,-5.569317550671101,-2.2458998350448907,-10.948801096272469,-1.8586907386779785,-2.0160794258117676,-1.9914261102676392
1772376770207600000,1.69260009765625,-5.4267246047258375,-1.4734315076008437,-13.644641770470141,-1.3196507692337036,-1.0015453100204468,-2.5669729709625244
1772376770217549000,1.702549072265625,-4.360762721903622,-0.13857939945496617,-14.033650440406799,-0.7101491093635559,-0.05819213017821312,-2.801419258117676
1772376770227498200,1.712498291015625,-2.512222474902868,1.2969561657980084,-12.185958042407036,-0.20327739417552948,0.603857159614563,-2.624124765396118
1772376770237447200,1.722447265625,-0.30592429014518857,2.3865888470649717,-9.132079590597748,0.14500334858894348,0.9911657571792603,-2.078474283218384
1772376770247396400,1.732396240234375,1.5919287076875566,3.1762925330787897,-5.91305733833909,0.3476179838180542,1.1467005014419556,-1.292741298675537
1772376770257345300,1.74234521484375,2.7251033013001082,3.6214769714847206,-3.058249506500363,0.42888569831848145,1.1868243217468262,-0.4378085732460022
1772376770267294200,1.752294189453125,3.1812370037436484,3.5976802085727453,-0.7238035191267729,0.4243561923503876,1.1877470016479492,0.333445280790329
1772376770277243100,1.7622431640625,3.040881315331161,3.1302246093869206,1.095827151992917,0.37243324518203735,1.219139575958252,0.918451726436615
1772376770287192000,1.772192138671875,2.4336396443143484,2.3854028521507975,2.4151906721711156,0.3163960874080658,1.306122899055481,1.3106306791305542
1772376770297141200,1.782141357421875,1.7009125217586756,1.698301608607918,3.269264246764779,0.28713780641555786,1.4119694232940674,1.5442860126495361
1772376770307090200,1.792090087890625,1.0050953261882065,1.128697375133261,3.9026357998162506,0.2926532030105591,1.507392406463623,1.6579811573028564
1772376770317039400,1.802039306640625,0.3827194335993379,0.6105117787286639,4.479705035409331,0.33514004945755005,1.5651994943618774,1.673809289932251
1772376770326988300,1.81198828125,-0.1596742647307925,0.15216346897557376,5.011424140191078,0.4014924168586731,1.5863615274429321,1.615273356437683
1772376770336937200,1.821937255859375,-0.590542026758939,-0.24132161572277544,5.508664636787772,0.48497405648231506,1.5568774938583374,1.502217411994934
1772376770346886100,1.83188623046875,-0.914945684185624,-0.5324563330151141,6.000551497396827,0.5658508539199829,1.5109717845916748,1.3498622179031372
1772376770356835000,1.8418349609375,-1.1139988415647297,-0.7213077567882835,6.464895102041959,0.6318837404251099,1.454028844833374,1.1763991117477417
1772376770366784000,1.851783935546875,-1.2391776383072137,-0.7981779382400214,6.947209247663617,0.6694308519363403,1.3418139219284058,0.9926647543907166
1772376770376733200,1.861733154296875,-1.3344167124032973,-0.7417340203538536,7.337414433908462,0.6505045890808105,1.1631336212158203,0.8146703839302063
1772376770386682400,1.871682373046875,-1.4511439802080393,-0.6200745568439364,7.724948939639329,0.5500536561012268,0.8682523369789124,0.6331741213798523
1772376770396631300,1.88163134765625,-1.4547273916527628,-0.525798336430639,7.97806737613976,0.3659757375717163,0.48220887780189514,0.4320901930332184
1772376770406580200,1.891580322265625,-1.1846624965265393,-0.5582800717100501,7.794440993538498,0.11965224891901016,-0.11699303239583969,0.22562675178050995
1772376770416529200,1.901529052734375,-1.3532134750708937,-0.38610271936208007,7.434331085827946,-0.1410321444272995,-0.7883903980255127,0.030108315870165825
1772376770426478000,1.91147802734375,-1.1981604221336544,-0.1695019956588745,6.4876125452846285,-0.34203824400901794,-1.2976672649383545,-0.13959842920303345
1772376770436427000,1.921427001953125,-0.5937297168843447,-0.23437808019518852,4.856964230841398,-0.4398660659790039,-1.611443042755127,-0.26297563314437866
1772376770446376200,1.931376220703125,-0.12033490037526935,-0.4006415323242545,3.2042817792445417,-0.4145311415195465,-1.7624839544296265,-0.349026620388031
1772376770456325400,1.941325439453125,0.35701153983641415,-0.43684082682207226,1.5445517472237347,-0.2991975247859955,-1.7967991828918457,-0.41109368205070496
1772376770466274300,1.9512744140625,0.6496413545247167,-0.30220190862119195,0.06009820261001587,-0.150210440158844,-1.7394496202468872,-0.4419426918029785
1772376770476223200,1.96122314453125,0.9245495249636471,-0.18159633807837963,-1.1763830362200736,-0.021603066474199295,-1.5897889137268066,-0.4100116491317749
1772376770486172200,1.971172119140625,1.2881519509650765,-0.24133330616056917,-2.1930390363425016,0.01952785812318325,-1.436452865600586,-0.31305208802223206
1772376770496121000,1.98112109375,1.6885794021472333,-0.4976775728397071,-2.909754058513045,-0.05345997214317322,-1.4075599908828735,-0.16919511556625366
1772376770506070000,1.991070068359375,1.9085282672345638,-0.7668670003056526,-3.4405174700051546,-0.21033987402915955,-1.5181370973587036,-0.06618670374155045
1772376770516019200,2.001019287109375,1.596366982395947,-0.9206531020469964,-4.126001487609744,-0.4294224977493286,-1.7101906538009644,-0.07160281389951706
1772376770525968400,2.010968505859375,0.5689679083324969,-0.9178644942417741,-5.079787482321262,-0.683600664138794,-1.9568177461624146,-0.21831636130809784
1772376770535917300,2.020917236328125,-0.8838578144174069,-0.9323132908329367,-6.457428419423103,-0.957044243812561,-2.20491361618042,-0.5052484273910522
1772376770545866200,2.0308662109375,-2.2943965933188797,-0.9512298804879188,-8.096333690080046,-1.1939616203308105,-2.305518388748169,-0.9040631651878357
1772376770555815200,2.040815185546875,-3.4567537345349786,-0.8696537133023142,-9.831756384205818,-1.3302865028381348,-2.1321935653686523,-1.3460352420806885
1772376770565764000,2.05076416015625,-4.1636821067065,-0.5398322686105966,-11.260727695572376,-1.314221739768982,-1.6537516117095947,-1.7487506866455078
1772376770575713300,2.06071337890625,-4.321989923655987,0.0420695017054677,-12.100592127549648,-1.1572118997573853,-0.9779257774353027,-2.0096850395202637
1772376770585662200,2.070662109375,-3.9284944636940953,0.7699008150435984,-12.031347326409817,-0.9417456388473511,-0.2262328863143921,-2.0617001056671143
1772376770595611100,2.080611083984375,-3.038838411326706,1.498959624350071,-10.853315938460826,-0.742892324924469,0.44853782653808594,-1.899743676185608
1772376770605560300,2.090560302734375,-1.8744778213337063,2.125992622029781,-8.984267448699473,-0.5893091559410095,0.9622349739074707,-1.545419454574585
1772376770615509200,2.10050927734375,-0.6253828923851251,2.552584003646672,-6.912601460140943,-0.45917806029319763,1.3522342443466187,-1.0407100915908813
1772376770625458200,2.110458251953125,0.49409050813317296,2.648823486956954,-4.946701200389862,-0.32486313581466675,1.6587324142456055,-0.4688396751880646
1772376770635407000,2.120406982421875,1.291808719906956,2.5596678244277835,-3.2086914123803374,-0.16798104345798492,1.9242578744888306,0.0751304030418396
1772376770645356300,2.130356201171875,1.6490934871941805,2.3084205886267126,-1.7075293095499275,0.014349618926644325,2.150838851928711,0.5390770435333252
1772376770655305200,2.14030517578125,1.6004446070984004,1.9405188579961656,-0.3777291510313749,0.2212255895137787,2.3121063709259033,0.9265168309211731
1772376770665254100,2.150254150390625,1.3637778314441442,1.6153279957145452,0.8765759137809276,0.42864295840263367,2.4114413261413574,1.239808440208435
1772376770675203000,2.160203125,1.0315989369060843,1.3000550085961817,2.0534277365565297,0.6326715350151062,2.4438745975494385,1.4806321859359741
1772376770685152300,2.17015234375,0.5802108946196735,1.0257104633893817,3.143163585937023,0.8195008039474487,2.416146755218506,1.640182375907898
1772376770695101200,2.18010107421875,0.07776804360691457,0.7640796346094458,4.176865413406491,0.9866881966590881,2.346815347671509,1.7248231172561646
1772376770705050000,2.190050048828125,-0.42958468168135727,0.5671333863817155,5.090577756404876,1.1335186958312988,2.2517545223236084,1.753853440284729
1772376770714999300,2.199999267578125,-0.8548351335506885,0.4167124502245336,5.882685580950975,1.2543524503707886,2.137068033218384,1.729696273803711
1772376770724947200,2.209947265625,-1.2233810803689062,0.2936404165029526,6.635384939694404,1.3319261074066162,1.9988842010498047,1.658268690109253
1772376770734896000,2.219896240234375,-1.548070568999648,0.21563655484616756,7.267830025550722,1.3600795269012451,1.9052902460098267,1.5281386375427246
1772376770744845000,2.229844970703125,-1.6785041444651783,-0.012967325861752033,7.583563615918159,1.3332735300064087,1.7216397523880005,1.367927074432373
1772376770754794200,2.239794189453125,-2.1605964640296995,0.024081863463670014,7.9230492532730095,1.2383497953414917,1.3822845220565796,1.1894482374191284
1772376770764743200,2.2497431640625,-2.5451763577386735,0.25036402322575446,8.40157160539627,1.0477492809295654,0.9355875849723816,0.9985618591308594
1772376770774692400,2.2596923828125,-2.3861421262107787,0.28094270136281846,8.63115426800847,0.7678226232528687,0.3914967179298401,0.7886982560157776
1772376770784641300,2.269641357421875,-2.076346547590196,0.1283560385391116,8.546144326981901,0.4723065495491028,-0.11124365031719208,0.5927031636238098
1772376770794590200,2.279590087890625,-1.5695717683203518,-0.08933116522654891,7.841967299345135,0.24109980463981628,-0.492259681224823,0.435853511095047
1772376770804539100,2.2895390625,-1.1244191863574087,-0.23728461529165504,6.630908671063184,0.10792044550180435,-0.7238872647285461,0.3247232437133789
1772376770814488000,2.299488037109375,-0.9081472562171519,-0.19690949641391634,5.17197827476263,0.05098091810941696,-0.8321048617362976,0.2695781886577606
1772376770824437200,2.309437255859375,-0.5866259492937476,-0.13466302972882985,3.8044039736449715,0.029714779928326607,-0.9503047466278076,0.2665160894393921
1772376770834386200,2.31938623046875,0.0022189181584864855,-0.14483765613213181,2.574391054046154,0.0011164045426994562,-1.1264585256576538,0.315478652715683
1772376770844335000,2.329335205078125,0.7447560715887696,-0.33855069459229703,1.4685364290356635,-0.05803745985031128,-1.4077951908111572,0.3898676633834839
1772376770854284300,2.3392841796875,1.375253165182471,-0.6539882246226072,0.3578191664248705,-0.12038549035787582,-1.7936667203903198,0.44606444239616394
1772376770864233200,2.349233154296875,1.5701405081190167,-0.9229375597223639,-0.9688234048455953,-0.16256330907344818,-2.1713736057281494,0.44583168625831604
1772376770874182100,2.35918212890625,1.150832853769511,-1.1179382999055087,-2.700679346400499,-0.1661386638879776,-2.381389856338501,0.35999545454978943
1772376770884131000,2.369131103515625,0.200712304496672,-1.2977525768727063,-4.783879705408215,-0.1376713365316391,-2.2639060020446777,0.19626565277576447
1772376770894080300,2.379080322265625,-0.871439866066724,-1.4995479456320404,-6.761855018356442,-0.09436744451522827,-1.842298150062561,-0.005326639860868454
1772376770904029200,2.389029296875,-1.6482444691494107,-1.6026890250243246,-8.192603276267647,-0.02767256833612919,-1.2666263580322266,-0.19175563752651215
1772376770913978000,2.39897802734375,-1.934199591846764,-1.6275053402423858,-8.97612447425425,0.03288843855261803,-0.6636890172958374,-0.3133542835712433
1772376770923927300,2.40892724609375,-1.857870677664876,-1.5222795635305344,-8.9767960899055,0.030660968273878098,-0.15588781237602234,-0.3751281797885895
1772376770933876200,2.418876220703125,-1.617273869085312,-1.2488038370475172,-8.099746713393927,-0.10879674553871155,0.13242793083190918,-0.4143136739730835
1772376770943825200,2.4288251953125,-1.3117764260500668,-0.850462252228707,-6.641961395475268,-0.4040696620941162,0.1718810647726059,-0.45350182056427
1772376770953774300,2.4387744140625,-1.0879468470718712,-0.5324377744451165,-5.330179708728194,-0.7553113698959351,0.07524260878562927,-0.49752599000930786
1772376770963723300,2.44872314453125,-0.85059428111054,-0.4043013700060546,-4.8011266082853075,-0.9795668125152588,0.05234421789646149,-0.5266972184181213
1772376770973672200,2.458672119140625,-0.523022989965789,-0.3828691442683339,-5.161772522568702,-0.9794663190841675,0.1911071091890335,-0.5327460765838623
1772376770983621000,2.46862109375,-0.3346045873150229,-0.2783884868353605,-5.800737950104475,-0.7600737810134888,0.4545762836933136,-0.5009700059890747
1772376770993569800,2.47856982421875,-0.2644976894531399,-0.014918606059998273,-5.913506251150369,-0.4214455485343933,0.787297248840332,-0.40488433837890625
1772376771003519000,2.48851904296875,-0.09784848940949886,0.249518220051378,-5.163893167984486,-0.07114028930664062,1.09321928024292,-0.24654266238212585
1772376771013468000,2.498468017578125,0.15271502931057473,0.40462651030719277,-3.677279230466485,0.22388994693756104,1.3198596239089966,-0.042400747537612915
1772376771023417000,2.5084169921875,0.3580062134295702,0.5139873409971595,-1.7891794187545775,0.4412347972393036,1.445939540863037,0.18193168938159943
1772376771033366000,2.518365966796875,0.4186779050786048,0.5945157526955008,0.10255436554551124,0.589200496673584,1.4696859121322632,0.4002523124217987
1772376771043315000,2.52831494140625,0.40720253480765967,0.6242144331276417,1.8572078298419712,0.6877965927124023,1.4209518432617188,0.5925183892250061
1772376771053264000,2.538263916015625,0.3007840777125209,0.608446224500984,3.345966378173232,0.7545880675315857,1.3146735429763794,0.7530060410499573
1772376771063212800,2.548212890625,0.1404725197251886,0.5107667715154588,4.526609409925341,0.7969893217086792,1.1956936120986938,0.866968035697937
1772376771073161700,2.55816162109375,-0.11106719621643424,0.3909877149246633,5.448412704920768,0.8165113925933838,1.0642460584640503,0.9227102398872375
1772376771083111200,2.568111083984375,-0.42451442921236154,0.28337358177155253,6.201935070484876,0.7980386018753052,0.9301305413246155,0.9225832223892212
1772376771093060000,2.57806005859375,-0.7059837847977877,0.15198299784213304,6.820806973540782,0.7525877356529236,0.7889871001243591,0.8634612560272217
1772376771103009000,2.588009033203125,-0.9694380296126007,0.039058921712636946,7.289225864800811,0.6749334335327148,0.6248400211334229,0.7644172310829163
1772376771112958000,2.5979580078125,-1.157464912195131,-0.03649813131392002,7.638809117799997,0.5871828198432922,0.44622838497161865,0.6399104595184326
1772376771122907000,2.607906982421875,-1.244083822788298,-0.07061053653508424,7.768356704211235,0.5052892565727234,0.25498491525650024,0.50852370262146
1772376771132855800,2.617855712890625,-1.271437985920906,-0.017201017908751965,7.663232780438661,0.4304814636707306,0.07433642446994781,0.3883481025695801
1772376771142804700,2.6278046875,-1.3019558737814425,0.11988514731377363,7.410461549940705,0.3586863875389099,-0.07411563396453857,0.28156787157058716
1772376771152754000,2.63775390625,-1.2535108456946908,0.2691957110762596,7.0453142325848335,0.3058876097202301,-0.20011937618255615,0.20287226140499115
1772376771162703000,2.647703125,-1.0546695775005965,0.4299661187469959,6.507035623157024,0.26965877413749695,-0.3151029348373413,0.15758255124092102
1772376771172652000,2.657652099609375,-0.7675572475921362,0.5600114255473018,5.915237020465732,0.25060591101646423,-0.42048558592796326,0.13644562661647797
1772376771182601000,2.66760107421875,-0.5063587458148598,0.6797521959543228,5.28149195792675,0.24539674818515778,-0.554818332195282,0.13821955025196075
1772376771192550000,2.6775498046875,-0.27772848855666815,0.6799716839239001,4.5241222692847245,0.246867835521698,-0.6893389821052551,0.1525345891714096
1772376771202498800,2.687498779296875,0.06326477688215673,0.5912766246438026,3.634873920935392,0.25715163350105286,-0.7468405961990356,0.17378263175487518
1772376771212448000,2.697447998046875,0.4220231238532811,0.3919543679997325,2.7334190019637346,0.24436523020267487,-0.7941058874130249,0.21849460899829865
1772376771222397000,2.70739697265625,0.9036044251557439,0.031190672555565832,1.9093822537153957,0.18361932039260864,-0.8678144216537476,0.27406173944473267
1772376771232346000,2.71734619140625,1.498569017597288,-0.4769651858091354,1.1246803215116261,0.07890638709068298,-0.9690614938735962,0.3284793198108673
1772376771242295000,2.727294921875,2.0063854148745537,-0.96119627096802,0.3693722415745258,-0.05967466160655022,-1.1015229225158691,0.3771701753139496
1772376771252244000,2.737243896484375,2.3236424154169857,-1.3978729932695626,-0.5105290172368288,-0.2383577674627304,-1.3256382942199707,0.40354472398757935
1772376771262193000,2.74719287109375,2.2377844792589543,-1.7367597879484296,-1.4823609562486408,-0.5088992118835449,-1.7088991403579712,0.36666980385780334
1772376771272141800,2.757141845703125,1.4663038476780057,-1.8378224536314605,-2.609382287928462,-0.8653002381324768,-2.190676212310791,0.21733613312244415
1772376771282091000,2.767091064453125,0.11623784031998366,-1.9551836354255676,-4.406016114342212,-1.2079395055770874,-2.522048234939575,-0.08463063836097717
1772376771292040000,2.7770400390625,-1.4167746776163577,-2.2675499413169917,-7.135004440382122,-1.401343822479248,-2.504126787185669,-0.5617460012435913
1772376771301988900,2.78698876953125,-2.7613062490597367,-2.4062566934786735,-10.29669912378788,-1.390467643737793,-2.0572190284729004,-1.1443804502487183
1772376771311936800,2.796936767578125,-3.4428508813887833,-2.12715172893703,-12.896154476463794,-1.2026406526565552,-1.207436442375183,-1.6660157442092896
1772376771321886000,2.806885986328125,-3.392282431407273,-1.3539073025539516,-14.119295756727457,-0.932766854763031,-0.21004560589790344,-2.0167109966278076
1772376771331835100,2.816835205078125,-2.7933839335829016,-0.08734978215098381,-13.588719392240046,-0.7033436894416809,0.6544778347015381,-2.102496385574341
1772376771341784000,2.8267841796875,-1.6729685760393738,1.1421515346638857,-11.542918497300148,-0.5749537944793701,1.2861305475234985,-1.892689824104309
1772376771351733000,2.83673291015625,-0.2558091003565118,2.0152318614140152,-8.802271297648549,-0.5380328297615051,1.7042913436889648,-1.447858214378357
1772376771361682000,2.846681884765625,0.9726965199518948,2.6011548500701784,-5.956066458982229,-0.5424795150756836,1.942570447921753,-0.8697680234909058
1772376771371630800,2.856630859375,1.7059347338348627,2.8808178868860006,-3.4309909322470427,-0.5513750910758972,2.0514183044433594,-0.2593802511692047
1772376771381579800,2.866579833984375,2.0950641075417398,2.847618212595582,-1.3985709124058485,-0.5111216306686401,2.063462734222412,0.30142635107040405
1772376771391529000,2.876529052734375,2.0921493891388177,2.5352304255247113,0.19829028324782846,-0.41129395365715027,2.0158629417419434,0.7598296403884888
1772376771401478100,2.88647802734375,1.8087017192177473,2.0273359945751723,1.4497732763767242,-0.25951719284057617,1.9271847009658813,1.1049031019210815
1772376771411427000,2.896427001953125,1.3840905516326427,1.4929302810579537,2.430007717552781,-0.06600551307201385,1.7859677076339722,1.3489689826965332
1772376771421376000,2.9063759765625,0.8795978919506072,1.0525412602350115,3.242022019574046,0.14816297590732574,1.6020327806472778,1.4943128824234009
1772376771431325000,2.916324951171875,0.34516375605650246,0.6021826340615749,4.0017759730041025,0.355774462223053,1.3952091932296753,1.5455939769744873
1772376771441273900,2.92627392578125,-0.266653406182304,0.20012378228530286,4.7695022204875945,0.5253693461418152,1.1814950704574585,1.5087640285491943
1772376771451222800,2.936222900390625,-0.8477154377385974,-0.07539587111547588,5.552833448860049,0.6224122047424316,0.9731144309043884,1.390712022781372
1772376771461172000,2.946171875,-1.4096663069158792,-0.30672756935209033,6.285788242691755,0.6331602334976196,0.7359117269515991,1.2072314023971558
1772376771471121000,2.956120849609375,-1.9088857023701071,-0.40569983862712977,6.9307415124654765,0.5617995858192444,0.49132832884788513,0.9918464422225952
1772376771481070000,2.966070068359375,-2.2074451628357172,-0.4321932932771742,7.411705412521958,0.4151659309864044,0.27884748578071594,0.7865670323371887
1772376771491019000,2.97601904296875,-2.3473104373827574,-0.41101387325674293,7.649944844320416,0.24429377913475037,0.12831924855709076,0.604377269744873
1772376771500968000,2.985968017578125,-2.3722429263263938,-0.37918563345000145,7.507536022770404,0.08822508901357651,0.068526491522789,0.4411896765232086
1772376771510916900,2.995916748046875,-2.324457092800736,-0.2506944242238998,7.0933695307016364,-0.03553575277328491,0.06670673191547394,0.31163230538368225
1772376771520865800,3.00586572265625,-2.208976902447641,-0.007543254986405372,6.594725597047805,-0.12334071099758148,0.08074825257062912,0.2260231226682663
1772376771530815000,3.01581494140625,-1.981957514452189,0.24197905671820044,6.023536067143082,-0.18688704073429108,0.07630818337202072,0.17668500542640686
1772376771540764000,3.025763916015625,-1.6837053663700818,0.40026057018265127,5.479639617833495,-0.23218314349651337,0.014050939120352268,0.1632208675146103
1772376771550713000,3.035713134765625,-1.350403970608115,0.39890900944322344,4.75341617808342,-0.2423141747713089,-0.05260199308395386,0.16481612622737885
1772376771560662000,3.045662109375,-1.0410880652632564,0.33070597244128586,3.871653801575303,-0.2454489767551422,-0.15080180764198303,0.18238551914691925
1772376771570611000,3.05561083984375,-0.6450038309171795,0.18753084269389508,3.081995123746991,-0.2375209927558899,-0.3258436322212219,0.22452037036418915
1772376771580560000,3.065559814453125,-0.10825294251330196,-0.06524053393453359,2.2384616478681565,-0.19371066987514496,-0.5897791385650635,0.28170138597488403
1772376771590509000,3.075509033203125,0.4404636934943497,-0.3815994165934622,1.2564929302453993,-0.11017013341188431,-0.8882218599319458,0.3476260304450989
1772376771600458000,3.0854580078125,0.9425125402208417,-0.7348106508314609,0.19755144757926463,-0.02788165584206581,-1.2105549573898315,0.4079069495201111
1772376771610407000,3.095406982421875,1.3238807053416966,-1.2173092131093144,-0.7376181094676256,-0.004472578875720501,-1.5955836772918701,0.4423995316028595
1772376771620355800,3.10535595703125,1.4642708805456757,-1.6263444797694682,-1.566752473115921,-0.08405821770429611,-2.0161566734313965,0.4312973618507385
1772376771630305000,3.115304931640625,1.102755051559955,-1.8737420544050634,-2.3855244327038525,-0.2891395092010498,-2.4443960189819336,0.32118967175483704
1772376771640254000,3.12525390625,-0.13027526136497034,-1.823638883847743,-3.63657546415627,-0.5595417022705078,-2.7734763622283936,0.059838227927684784
1772376771650203000,3.135202880859375,-2.06825413428843,-1.725807893562317,-5.777925814315676,-0.8347985148429871,-2.837172269821167,-0.3524266481399536
1772376771660152000,3.145152099609375,-3.7798032008737326,-1.8342703141078351,-8.456129709535837,-0.9967600107192993,-2.4875645637512207,-0.8684974908828735
1772376771670101000,3.15510107421875,-4.725903609518706,-1.911392716754973,-11.144496686851978,-1.0079264640808105,-1.7903932332992554,-1.3969453573226929
1772376771680050000,3.1650498046875,-4.732867311051487,-1.485026814457029,-12.948565047180653,-0.851067841053009,-0.8826513290405273,-1.796617865562439
1772376771689998800,3.174998779296875,-3.8788101030707356,-0.6295126856662333,-13.427655554580687,-0.5993734002113342,-0.002626377623528242,-1.9697439670562744
1772376771699947800,3.18494775390625,-2.5497341671735048,0.40848128603920336,-12.445642413294314,-0.3671031892299652,0.6736072301864624,-1.8806369304656982
1772376771709897000,3.19489697265625,-1.1174478860400616,1.393542708980292,-10.229752662718296,-0.213278129696846,1.0779777765274048,-1.5549057722091675
1772376771719846000,3.204845947265625,0.16695523378551005,2.111504808602482,-7.509884047201275,-0.12560926377773285,1.2471702098846436,-1.0802754163742065
1772376771729795000,3.214795166015625,1.0301832248892635,2.504477559864521,-4.874560677808523,-0.07360915094614029,1.268799066543579,-0.5667945742607117
1772376771739744000,3.224743896484375,1.3213964873105286,2.513483288618922,-2.667114930450916,-0.021091347560286522,1.2271806001663208,-0.10459549725055695
1772376771749693000,3.23469287109375,1.2010220951750874,2.233150681978464,-0.9216875596612691,0.05557950958609581,1.1771607398986816,0.24976706504821777
1772376771759641900,3.244641845703125,0.8647123113773763,1.7556204096324741,0.4287175799906254,0.15941190719604492,1.1365517377853394,0.48511621356010437
1772376771769590800,3.2545908203125,0.4853848583038896,1.2264438289403914,1.4726725059270858,0.29207050800323486,1.1161972284317017,0.6153560280799866
1772376771779540000,3.2645400390625,0.10931556677613406,0.7369168293304741,2.3874124384075404,0.44445231556892395,1.1047896146774292,0.6734494566917419
1772376771789489200,3.2744892578125,-0.20562617909386752,0.3711097328916192,3.2829356292426586,0.6005268692970276,1.070532202720642,0.6708391308784485
1772376771799438000,3.28443798828125,-0.5067968084385618,0.1181007481150329,4.229882717844844,0.7245212197303772,1.0078017711639404,0.6157124638557434
1772376771809387000,3.294386962890625,-0.8039074948679655,-0.05342354715168476,5.1878556428521865,0.8058372139930725,0.9028509259223938,0.5344238877296448
1772376771819336000,3.3043359375,-1.0638814232863485,-0.15227482039555906,6.087889589110016,0.8301984667778015,0.743546724319458,0.42038413882255554
1772376771829284900,3.314284912109375,-1.2286655966430902,-0.20711875573918223,6.864234611856937,0.795434296131134,0.5430811643600464,0.3010258674621582
1772376771839233800,3.32423388671875,-1.2670891430616378,-0.24260171866118907,7.452511470162868,0.7000070810317993,0.3183721601963043,0.16811338067054749
1772376771849182700,3.3341826171875,-1.2422083843052387,-0.2634893161281943,7.785300824749469,0.5501023530960083,0.08804716169834137,0.04789605364203453
1772376771859132200,3.344132080078125,-1.0597074255373329,-0.31861718297973274,7.8264967584908005,0.400889128446579,-0.09907825291156769,-0.051244910806417465
1772376771869081000,3.3540810546875,-0.7325841338884085,-0.378133640179038,7.4552832729637615,0.29164788126945496,-0.23430927097797394,-0.1265403777360916
1772376771879030000,3.364030029296875,-0.48972456800863146,-0.3417817854680121,6.727568717873096,0.23305515944957733,-0.34499794244766235,-0.17844006419181824
1772376771888979000,3.37397900390625,-0.30538623774573204,-0.14437339962124823,5.877824696916341,0.2242652028799057,-0.43721672892570496,-0.19989539682865143
1772376771898926800,3.3839267578125,-0.1611188192496076,0.09035890083909034,5.057526550674438,0.23342567682266235,-0.5027830004692078,-0.2001473307609558
1772376771908876000,3.3938759765625,-0.083019790122658,0.24688933285251258,4.291854897633194,0.246291846036911,-0.5792520046234131,-0.17807751893997192
1772376771918825000,3.403824951171875,0.03432531731948256,0.2953082035847008,3.5467087307482954,0.24681010842323303,-0.6924257278442383,-0.14997370541095734
1772376771928774000,3.41377392578125,0.2308843928605318,0.2713618030689657,2.774249025002122,0.23945069313049316,-0.8371070623397827,-0.12238690257072449
1772376771938722800,3.423722900390625,0.5315541234783828,0.15731778299883006,1.8639041126102207,0.2502114772796631,-0.9891248345375061,-0.093852199614048
1772376771948672000,3.433672119140625,0.9461454898957162,-0.06660057024136186,0.7410831552296876,0.3040189743041992,-1.1053000688552856,-0.05052992329001427
1772376771958621000,3.443620849609375,1.2430363595619798,-0.29021511822938917,-0.4978916539818048,0.38392820954322815,-1.1475297212600708,0.025243133306503296
1772376771968570000,3.453570068359375,1.5101912124603987,-0.5807257122740149,-1.7124153280258179,0.4608094096183777,-1.1159206628799438,0.14923778176307678
1772376771978519000,3.46351904296875,1.8652318540826438,-1.0329863726764916,-2.645637842658162,0.497060626745224,-1.0601730346679688,0.2934282720088959
1772376771988468000,3.473468017578125,2.1989877156138418,-1.4920245643898844,-3.138872610744834,0.474496066570282,-1.0795824527740479,0.4154493808746338
1772376771998417400,3.48341748046875,2.063749077954143,-1.7671698315203188,-3.372126655346155,0.357750803232193,-1.2464343309402466,0.44660598039627075
1772376772008366300,3.493366455078125,1.169133211222291,-1.829697599364817,-3.5321710868299006,0.08099881559610367,-1.587957739830017,0.33416154980659485
1772376772018315300,3.503315185546875,-0.4290481271192431,-1.7569699245452879,-3.9185388868689537,-0.38962090015411377,-2.035959482192993,0.07058821618556976
1772376772028264200,3.51326416015625,-2.205766708229482,-1.8174027659371494,-5.036639829990268,-0.9319194555282593,-2.309485673904419,-0.32661154866218567
1772376772038213400,3.52321337890625,-3.595748071466386,-2.0343699848651884,-7.133582298624515,-1.3244832754135132,-2.08351469039917,-0.8249073624610901
1772376772048162300,3.533162353515625,-4.4474008486539125,-2.0345774901360274,-9.593819150224327,-1.4390040636062622,-1.3736330270767212,-1.3556506633758545
1772376772058111500,3.543111572265625,-4.649669387882947,-1.5343807740822433,-11.508091514068841,-1.283463716506958,-0.40582242608070374,-1.7894375324249268
1772376772068060400,3.553060302734375,-4.058120960560441,-0.5584457836657762,-12.137571320378779,-0.9842672944068909,0.5657690763473511,-2.0045788288116455
1772376772078009300,3.56300927734375,-2.6662600671872494,0.47342663641944527,-11.031729554849862,-0.7152443528175354,1.316900610923767,-1.9438016414642334
1772376772087958300,3.572958251953125,-0.9323653132811188,1.2903589594900606,-8.680152984455228,-0.5390813946723938,1.794535517692566,-1.6215952634811401
1772376772097907200,3.5829072265625,0.6520777148261666,1.870519877488166,-5.881459254026413,-0.4510650336742401,2.0166399478912354,-1.1296857595443726
1772376772107856400,3.5928564453125,1.8066539929077028,2.258972667107731,-3.210966371574998,-0.4012719988822937,2.071563720703125,-0.5686949491500854
1772376772117805300,3.602805419921875,2.371073590286076,2.384220072107017,-0.99595048122406,-0.3401676416397095,2.01714825630188,-0.03129349276423454
1772376772127754200,3.612754150390625,2.477326518088579,2.216010015954822,0.7032213343471289,-0.24387851357460022,1.9098718166351318,0.4248538315296173
1772376772137703400,3.622703369140625,2.2349987940631806,1.8381145684458313,1.9427777428388595,-0.1022992730140686,1.7595646381378174,0.7836945056915283
1772376772147652400,3.63265234375,1.8233860781304536,1.4021556390248238,2.8621698850393296,0.08392661809921265,1.5954090356826782,1.0446428060531616
1772376772157601300,3.642601318359375,1.3248152097128332,0.9914747971147299,3.5748739180028437,0.2934904992580414,1.4339019060134888,1.199358582496643
1772376772167550200,3.65255029296875,0.7822648412499577,0.5686955211319029,4.199595716130733,0.5102694630622864,1.2707476615905762,1.2556203603744507
1772376772177499400,3.66249951171875,0.1810257716488093,0.22314707660675048,4.858090020000934,0.6979120373725891,1.1069930791854858,1.2075260877609253
1772376772187448300,3.6724482421875,-0.40843737383224066,-0.06681479751393199,5.597663939711452,0.8359103202819824,0.9236364960670471,1.0538856983184814
1772376772197397200,3.682397216796875,-0.965474386678636,-0.31118133389055724,6.386161172544956,0.8946114778518677,0.6986779570579529,0.8451460599899292
1772376772207346400,3.692346435546875,-1.3491905031651257,-0.4524972456373274,7.146004557824134,0.8584957718849182,0.4461691081523895,0.6367719173431396
1772376772217295400,3.70229541015625,-1.4649050867959856,-0.4494808204255998,7.834252779445052,0.7402807474136353,0.2317926436662674,0.45992740988731384
1772376772227244300,3.712244384765625,-1.4066818842776119,-0.3051192573726177,8.292839427998661,0.5674296617507935,0.08443409949541092,0.32802659273147583
1772376772237193500,3.722193359375,-1.265297437339276,-0.06115268009901046,8.498339788755773,0.36795464158058167,-0.016451507806777954,0.2364998757839203
1772376772247142400,3.732142333984375,-1.1362168839178979,0.22701120468899608,8.422219841149449,0.15028350055217743,-0.08766588568687439,0.1753387153148651
1772376772257091300,3.74209130859375,-0.9526788371872156,0.46566988481283184,8.110616482454537,-0.05380251631140709,-0.1459033489227295,0.14680559933185577
1772376772267040300,3.752040283203125,-0.7857488109081983,0.5978674012109637,7.553335066393017,-0.2330901324748993,-0.23960918188095093,0.13264279067516327
1772376772276989200,3.7619892578125,-0.5557329445105046,0.5990230009868741,6.729134067493677,-0.34591975808143616,-0.35447266697883606,0.13593338429927826
1772376772286938400,3.7719384765625,-0.20365619419515132,0.488328437475115,5.627941004553437,-0.3701046109199524,-0.5158564448356628,0.1496342420578003
1772376772296887300,3.78188720703125,-0.011299429182149469,0.32181466384679075,4.3892257230609655,-0.3345806896686554,-0.7113000154495239,0.1542004942893982
1772376772306836500,3.79183642578125,0.04173069820515811,0.1864857175551355,3.0749650789797305,-0.2435910999774933,-0.9641285538673401,0.14955508708953857
1772376772316785400,3.801785400390625,0.21720427908692508,-0.04013458812013268,1.737722787761688,-0.11732237786054611,-1.1962571144104004,0.1481095254421234
1772376772326734300,3.811734375,0.6607356530562043,-0.43201895962357517,0.3035854719340801,0.03681064769625664,-1.3346858024597168,0.1730867624282837
1772376772336683300,3.821683349609375,1.1455950992465018,-0.9212044523194431,-1.0563117186844349,0.16767971217632294,-1.4334888458251953,0.22050674259662628
1772376772346632200,3.831632080078125,1.4817768727503715,-1.3592299588814376,-2.1477397589355705,0.22464436292648315,-1.548892617225647,0.2562890350818634
1772376772356581000,3.8415810546875,1.5458639988660812,-1.751366259319335,-2.9954572425007817,0.1688668429851532,-1.686362385749817,0.23137328028678894
1772376772366530300,3.8515302734375,1.2188770469479262,-2.0104471113555133,-3.7388375687569377,0.007469988893717527,-1.8327126502990723,0.12027409672737122
1772376772376479500,3.8614794921875,0.3263304973034188,-2.0812756745554504,-4.590198377260566,-0.28277885913848877,-1.980600118637085,-0.10642482340335846
1772376772386428400,3.871428466796875,-1.0914781630031765,-1.974642076872289,-5.7466562313050025,-0.6503429412841797,-2.0391745567321777,-0.42763450741767883
1772376772396377300,3.88137744140625,-2.6144191130518912,-1.835303018156439,-7.291026776742934,-1.0108810663223267,-1.884909749031067,-0.8247509598731995
1772376772406326300,3.891326171875,-3.7249101656913757,-1.6859493459045887,-9.139905169656872,-1.2111351490020752,-1.4263533353805542,-1.2326730489730835
1772376772416275200,3.901275146484375,-4.082847113277018,-1.4169915352374314,-10.956568223142623,-1.1736303567886353,-0.7125412225723267,-1.5676119327545166
1772376772426224000,3.91122412109375,-3.6653257578223943,-0.8542701200790703,-12.02958908456564,-0.9389878511428833,0.06040363758802414,-1.7630841732025146
1772376772436173300,3.92117333984375,-2.6610645443707703,-0.018281506621837616,-11.76926875386238,-0.6427676677703857,0.7158741354942322,-1.7518850564956665
1772376772446122500,3.93112255859375,-1.3501939811192452,0.8518408471055329,-10.196742373520136,-0.3978842794895172,1.1651663780212402,-1.4600188732147217
1772376772456071400,3.941071533203125,-0.011530278795957565,1.535707346510887,-7.956914113473892,-0.24741967022418976,1.3876161575317383,-1.228586196899414
1772376772466020400,3.951020263671875,0.9956425112534314,2.0400128130577504,-5.571645116835832,-0.1573730856180191,1.4720776081085205,-0.594377875328064
1772376772475968300,3.96096826171875,1.5606057870544492,2.288592144823819,-3.458739939916134,-0.09131097793579102,1.4793802499771118,-0.26333656907081604
1772376772485917400,3.97091748046875,1.7161470619000494,2.293053800407797,-1.7450865945279597,-0.010921208187937737,1.4609063863754272,0.3335686922073364
1772376772495866400,3.980866455078125,1.560699602817744,2.142849210415035,-0.38777123709619044,0.09580203890800476,1.4359437227249146,0.5262218117713928
1772376772505815300,3.990815185546875,1.20409434222728,1.835549394132942,0.6932143195956945,0.22393164038658142,1.4330065250396729,0.9409473538398743
1772376772515764200,4.00076416015625,0.8286740526601671,1.4897927136845885,1.583652754512429,0.3698398470878601,1.4183660745620728,0.9676461219787598
1772376772525713200,4.010713134765625,0.42737686943877484,1.1760570191361008,2.3824083465099335,0.5292776823043823,1.3858708143234253,1.2268643379211426
1772376772535662300,4.020662353515625,0.009575710662081837,0.9201590349197387,3.1712159604668617,0.680081844329834,1.3197503089904785,1.1231073141098022
1772376772545611300,4.030611328125,-0.38419272102229296,0.6837161311492324,3.9822640478044744,0.799089252948761,1.2224299907684326,1.2511998414993286
1772376772555560400,4.040560546875,-0.7217703327987343,0.5111591318339109,4.737015078380703,0.8781169652938843,1.0543938875198364,1.0487008094787598
1772376772565509400,4.05050927734375,-0.9589429390832781,0.3687668230272829,5.468892598369718,0.9033536911010742,0.8525803089141846,1.088518500328064
1772376772575458300,4.060458251953125,-1.0595534770846367,0.28945012520626184,6.065743808275461,0.877892255783081,0.618596076965332,0.8382760882377625
1772376772585407200,4.0704072265625,-1.1448889237385242,0.19990020266249775,6.51802814181447,0.795666515827179,0.36741751432418823,0.8344879150390625
1772376772595356200,4.080356201171875,-1.1609044581897556,0.14075988529920577,6.785419433817267,0.6751009225845337,0.10780512541532516,0.563824474811554
1772376772605305300,4.090305419921875,-1.1338877103179692,0.1392950734436512,6.770652072796225,0.53923100233078,-0.11598876118659973,0.5298542976379395
1772376772615254500,4.100254638671875,-1.0801179800771177,0.1506926657706499,6.510270951816439,0.4356215000152588,-0.282548189163208,0.2718659043312073
1772376772625203500,4.110203369140625,-1.0352557058479637,0.222692903098464,6.012612522068619,0.356267511844635,-0.3733319044113159,0.2547757923603058
1772376772635152400,4.12015234375,-0.9349819255203008,0.377242244297266,5.417925796720385,0.31609293818473816,-0.42242249846458435,0.0725998505949974
1772376772645101300,4.130101318359375,-0.8161571009144186,0.5209469508767127,4.8187201326429845,0.2911626994609833,-0.4464750587940216,0.11404044181108475
1772376772655050200,4.14005029296875,-0.6561245059989392,0.6214087280571461,4.203281711167097,0.28076598048210144,-0.4612713158130646,0.01729259267449379
1772376772664999200,4.149999267578125,-0.5043265824001282,0.6710229460537434,3.558795474383235,0.2802920937538147,-0.4618545174598694,0.10084878653287888
1772376772674948000,4.159947998046875,-0.32820980824399737,0.5217120900303125,2.844723660197854,0.2845073342323303,-0.44667717814445496,0.05412682518362999
1772376772684897500,4.1698974609375,-0.07074694933108985,0.19868629682809114,2.1342320425868033,0.27779898047447205,-0.4617431163787842,0.14709824323654175
1772376772694846500,4.179846435546875,0.2736151714863255,-0.2427896424487233,1.416143978497386,0.2620040476322174,-0.5201020240783691,0.11937447637319565
1772376772704795400,4.18979541015625,0.5668612183768302,-0.7040007942870259,0.68192077216506,0.23129701614379883,-0.6411517858505249,0.16820566356182098
1772376772714744300,4.199744384765625,0.7729953469928353,-1.1366773410364985,-0.09377309319674969,0.17428991198539734,-0.8005877733230591,0.09086214005947113
1772376772724693200,4.209693359375,0.9689512690089642,-1.5836296658977864,-0.8361176466643809,0.08120410144329071,-1.0535808801651,0.06302638351917267
1772376772734642200,4.21964208984375,1.1718510918788612,-2.023358176985383,-1.6264403413593769,-0.028166595846414566,-1.315468430519104,-0.04412830248475075
1772376772744591400,4.22959130859375,1.3887626350969076,-2.456813306891918,-2.592494866013527,-0.10480562597513199,-1.547497034072876,-0.11021246761083603
1772376772754540300,4.239540283203125,1.3622557364434003,-2.7313097547248004,-3.7884991330266,-0.14451122283935547,-1.6598795652389526,-0.2043624073266983
1772376772764489500,4.249489501953125,0.9332729296453297,-2.667225405088067,-4.898067225602269,-0.1930159032344818,-1.7963025569915771,-0.29444119334220886
1772376772774438400,4.2594384765625,0.09417546345256268,-2.2952917885929343,-5.679557210022211,-0.30578720569610596,-1.9537380933761597,-0.4158957004547119
1772376772784387300,4.26938720703125,-1.0509829979423433,-1.8671368109211324,-6.314587636196613,-0.500959575176239,-2.1994030475616455,-0.6071422696113586
1772376772794336300,4.279336181640625,-2.254248707325756,-1.4985168490186334,-6.9688143457502125,-0.7324721813201904,-2.281223773956299,-0.8087382316589355
1772376772804285200,4.28928515625,-3.057880088666081,-1.2278034268558025,-7.588180754324793,-0.9228281378746033,-2.100144624710083,-1.0902190208435059
1772376772814234400,4.299234375,-3.3876503876924513,-0.94718995744735,-7.967420894441008,-1.0258913040161133,-1.5939929485321045,-1.2822476625442505
1772376772824183300,4.309183349609375,-3.276661079017818,-0.5118251945272088,-8.00406398718357,-1.0258185863494873,-0.9206218123435974,-1.4718009233474731
1772376772834132500,4.319132568359375,-2.706138488589227,-0.010044131891429423,-7.56204035089612,-0.9465448260307312,-0.16776801645755768,-1.5102365016937256
1772376772844081400,4.329081298828125,-1.8592228229261933,0.44010304348841306,-6.67899670240581,-0.8121827244758606,0.543928861618042,-1.4373834133148193
1772376772854030300,4.3390302734375,-0.9176692639306188,0.8783268491014837,-5.417080578067899,-0.6410908699035645,1.1573089361190796,-1.2475801706314087
1772376772863979300,4.348979248046875,-0.04106083611957729,1.2911349122986198,-3.898740545943379,-0.429038941860199,1.6374152898788452,-0.9633200168609619
1772376772873928200,4.35892822265625,0.6197045544877648,1.6385292769514024,-2.19858030385673,-0.21200676262378693,1.9738069772720337,-0.6157490015029907
1772376772883877400,4.36887744140625,1.1022039935484529,1.877975308060646,-0.41234395281672476,-0.00242425873875618,2.178713798522949,-0.23592914640903473
1772376772893826300,4.378826416015625,1.352768215521425,1.9380888543702661,1.321224053353071,0.18855182826519012,2.2415754795074463,0.14212653040885925
1772376772903775200,4.388775146484375,1.3947333800695836,1.896058369500935,2.892562100693583,0.34804490208625793,2.197101354598999,0.48162078857421875
1772376772913724400,4.398724365234375,1.3117204580791293,1.7773542486652731,4.201270955866575,0.4830532968044281,2.0843851566314697,0.7655465006828308
1772376772923673300,4.40867333984375,1.064321787464991,1.6110926962323486,5.258407434937357,0.5926446914672852,1.9188883304595947,0.9847570657730103
1772376772933622300,4.418622314453125,0.7327254420552403,1.3620479389116167,6.129643156734109,0.6618828773498535,1.6966036558151245,1.1239131689071655
1772376772943571500,4.428571533203125,0.3830493231408298,1.0210866760462523,6.789315856733918,0.6890333890914917,1.4270187616348267,1.1745471954345703
1772376772953519400,4.438519287109375,0.05068009366244077,0.6974196623310447,7.302161918741464,0.6572240591049194,1.1297334432601929,1.1472935676574707
1772376772963468300,4.44846826171875,-0.2575140411108732,0.4009712026700377,7.640944960784911,0.5786899924278259,0.8268390893936157,1.0483319759368896
1772376772973417200,4.458417236328125,-0.5502248120808974,0.10403028331696987,7.717814265453815,0.45890259742736816,0.5192480087280273,0.8815549612045288
1772376772983366100,4.4683662109375,-0.82392700426355,-0.16933277657181023,7.583995577594638,0.3163118064403534,0.21418160200119019,0.6680384278297424
1772376772993314600,4.478314453125,-1.0582950014561414,-0.3555781094998121,7.220755555164813,0.19157174229621887,-0.048413537442684174,0.4275277554988861
1772376773003263700,4.488263671875,-1.1850757535025476,-0.4534852337613702,6.600027210587263,0.09216544777154922,-0.27448248863220215,0.17900815606117249
1772376773013212700,4.498212646484375,-1.3289210375964642,-0.46398061655163764,5.822696099412441,0.02696514129638672,-0.46650758385658264,-0.05081677809357643
1772376773023161600,4.50816162109375,-1.2621382426559924,-0.389612773309648,4.872289225745201,-0.01744910329580307,-0.6278508305549622,-0.23612487316131592
1772376773033110500,4.518110595703125,-1.0368372759509832,-0.21311843454539775,3.9176433993339534,-0.04898838698863983,-0.7664023041725159,-0.37193357944488525
1772376773043059700,4.528059814453125,-0.7855169018484651,-0.03452624671906233,2.947718170726299,-0.0599658228456974,-0.8993778228759766,-0.45357292890548706
1772376773053008600,4.538008544921875,-0.41407874072007833,0.0470908369988203,1.8298206412225961,-0.030540289357304573,-0.9535830020904541,-0.48001065850257874
1772376773062957600,4.54795751953125,0.045181368381995705,0.011491992612183094,0.6927946328788995,0.02367701381444931,-0.9182333946228027,-0.45792722702026367
1772376773072906800,4.55790673828125,0.5476434538181871,-0.11169219624698161,-0.28541327090561386,0.06391870975494385,-0.8369321227073669,-0.39278870820999146
1772376773082855700,4.567855712890625,1.128962163549289,-0.35624534123688933,-1.048985905840993,0.04811018332839012,-0.7726042866706848,-0.2735256850719452
1772376773092804600,4.5778046875,1.71457455188632,-0.7478709156736731,-1.631044620284438,-0.02880137413740158,-0.7560191750526428,-0.10673323273658752
1772376773102753500,4.58775341796875,2.2118305383130905,-1.2781596953913568,-2.154908335390687,-0.14974534511566162,-0.7796297669410706,0.056750018149614334
1772376773112702700,4.59770263671875,2.4659882547333836,-1.8346993531748652,-2.7611960666835307,-0.287941575050354,-0.8863540887832642,0.16912342607975006
1772376773122651600,4.607651611328125,2.309318706510216,-2.268522439610958,-3.475748357862234,-0.42774760723114014,-1.0948975086212158,0.1897229105234146
1772376773132600600,4.6176005859375,1.724280976255983,-2.523130530147254,-4.320495885705948,-0.5803068280220032,-1.385229468345642,0.0928107500076294
1772376773142549500,4.627549560546875,0.5693868278643116,-2.506382224442065,-5.214486460146308,-0.7806853652000427,-1.8075783252716064,-0.12392019480466843
1772376773152498700,4.637498779296875,-1.067551124775037,-2.1624816932544113,-6.185587162274122,-0.999657928943634,-2.1883749961853027,-0.42991259694099426
1772376773162447600,4.647447509765625,-2.7896263346150514,-1.7425281422168015,-7.44558897742331,-1.152062177658081,-2.317173480987549,-0.7998340725898743
1772376773172396500,4.657396484375,-4.091682746161521,-1.3168328326568006,-8.749119553175568,-1.1680762767791748,-2.0212254524230957,-1.164565920829773
1772376773182345700,4.667345703125,-4.550146352857351,-0.9466577502667903,-9.694402507957816,-1.0663286447525024,-1.3075693845748901,-1.4790791273117065
1772376773192294700,4.677294677734375,-4.262128452411294,-0.6703384709209204,-10.198930823475122,-0.8715518712997437,-0.3472400903701782,-1.700528621673584
1772376773202243600,4.68724365234375,-3.4028760138750074,-0.32137656469047066,-9.948232892119885,-0.6349732279777527,0.6496894359588623,-1.7879871129989624
1772376773212192500,4.697192626953125,-2.2041436370722947,0.43527518494054673,-8.485484398835897,-0.4000699520111084,1.5021255016326904,-1.6883676052093506
1772376773222141400,4.707141357421875,-0.7746233135208487,1.3444552913367747,-6.155744981718063,-0.2010217010974884,2.0570943355560303,-1.3633434772491455
1772376773232090600,4.717090576171875,0.7353841398704797,2.116687764198333,-3.5018536899775263,-0.05683070421218872,2.2793691158294678,-0.8576266765594482
1772376773242039800,4.727039794921875,1.9608368388816713,2.5954461170345544,-0.9768126500338316,0.028554946184158325,2.2574334144592285,-0.2479713410139084
1772376773251988700,4.73698876953125,2.6076056336447593,2.7269752326518297,1.113536996206641,0.09346257150173187,2.083197832107544,0.35616782307624817
1772376773261937700,4.746937744140625,2.613244808575511,2.6194202823400494,2.687423558986187,0.14872629940509796,1.846109390258789,0.8587192893028259
1772376773271886600,4.756886474609375,2.1369658514648675,2.3311279488667846,3.743735862192511,0.21402141451835632,1.5735028982162476,1.2222650051116943
1772376773281835500,4.76683544921875,1.5476102580115199,1.9288921330884097,4.345736709946394,0.309212327003479,1.311655044555664,1.4560459852218628
1772376773291784400,4.776784423828125,1.0247308777675033,1.4324761046171188,4.6216322109222405,0.4306628704071045,1.091741919517517,1.5506596565246582
1772376773301733600,4.786733642578125,0.47090581270493564,0.8677093012362718,4.726710541987419,0.5579273104667664,0.918342649936676,1.5072989463806152
1772376773311682800,4.796682861328125,-0.1051721468284726,0.3650821431651711,4.784986789867282,0.6889753341674805,0.790864884853363,1.3488733768463135
1772376773321631700,4.8066318359375,-0.6372887995604425,0.053572161842137575,4.959966340154409,0.8053534030914307,0.6789010763168335,1.123318076133728
1772376773331580700,4.81658056640625,-1.077100824213028,-0.0776088709898293,5.199537897339463,0.886028528213501,0.5353177785873413,0.8818596005439758
1772376773341529600,4.826529541015625,-1.3196633799076078,-0.037709552930295466,5.522036159536242,0.9063302874565125,0.37316054105758667,0.6547092199325562
1772376773351478500,4.836478515625,-1.4326254499599336,0.08824205481559037,5.900756075170636,0.8463114500045776,0.204445019364357,0.462532639503479
1772376773361426700,4.8464267578125,-1.443712368902564,0.3081657854616642,6.1070724284857505,0.737597644329071,0.07706625014543533,0.3097134232521057
1772376773371375600,4.856375732421875,-1.3351473647654055,0.491964309759438,6.0973752103358505,0.6059491038322449,-0.0059024011716246605,0.2122451663017273
1772376773381324500,4.866324462890625,-1.0690081917155534,0.5905374967142939,5.916514785316586,0.47085040807724,-0.07905854284763336,0.15267200767993927
1772376773391273500,4.8762734375,-0.7515739349100738,0.6706564508289098,5.5136804191231725,0.3269249200820923,-0.1552518606185913,0.10475882142782211
1772376773401222700,4.88622265625,-0.4698262738399207,0.7085536352857947,4.938026311025023,0.19401675462722778,-0.23569028079509735,0.06846442073583603
1772376773411171600,4.896171630859375,-0.22080128066558388,0.6979346261158585,4.227306729876995,0.0741603821516037,-0.3036099374294281,0.045342590659856796
1772376773421120800,4.906120849609375,-0.030613201461173592,0.689927260749042,3.4308307732492684,-0.042886171489953995,-0.38288626074790955,0.023784324526786804
1772376773431069700,4.916069580078125,0.08839026764724403,0.6312757498160004,2.5124773264467715,-0.1363239884376526,-0.4740428030490875,0.019211411476135254
1772376773441018600,4.9260185546875,0.28944603355303405,0.4538157808899879,1.3362199624329805,-0.1544996201992035,-0.5000419616699219,0.0363929383456707
1772376773450967600,4.935967529296875,0.5615729757755994,0.12492284922003745,0.057820905327796934,-0.09820227324962616,-0.47113892436027527,0.07919686287641525
1772376773460916500,4.94591650390625,0.7703020893208682,-0.1898646924689412,-1.1492740800201893,0.01752731390297413,-0.4333869516849518,0.13847766816616058
1772376773470865700,4.95586572265625,0.9065785455957055,-0.4449833628758788,-2.141160965067148,0.1321399211883545,-0.4101575016975403,0.20687030255794525
1772376773480814600,4.965814697265625,1.0128173718076199,-0.6744760091170668,-2.7598843995630737,0.2014641910791397,-0.4596009850502014,0.287114679813385
1772376773490763800,4.975763671875,0.9785147047113627,-0.8965665624082088,-3.1043150921046734,0.19960051774978638,-0.5496022701263428,0.3671746253967285
1772376773500712700,4.985712646484375,0.7985016172364353,-1.1777049324735998,-3.3066935214489694,0.12941156327724457,-0.6478984951972961,0.41558581590652466
1772376773510661600,4.99566162109375,0.4449343361023813,-1.4513605455681682,-3.490412843030691,-0.00743788480758667,-0.7484413385391235,0.4059576988220215
1772376773520610600,5.005610595703125,-0.03156133249886334,-1.703602783755958,-3.7652936140060422,-0.19283829629421234,-0.871323823928833,0.31664595007896423
1772376773530559500,5.0155595703125,-0.745015453177318,-1.8689350925147532,-4.173225595599413,-0.40662407875061035,-1.0226640701293945,0.1426813304424286
1772376773540508400,5.02550830078125,-1.6002591675288975,-1.8222899534568189,-4.793648235228657,-0.6142018437385559,-1.1391586065292358,-0.09746342897415161
1772376773550457600,5.03545751953125,-2.2649238305971027,-1.7068550635501742,-5.618381149047613,-0.7572269439697266,-1.1181073188781738,-0.35233327746391296
1772376773560406800,5.04540673828125,-2.4814827609851955,-1.5714453071072696,-6.547381662070751,-0.7584596276283264,-0.9124195575714111,-0.5758086442947388
1772376773570355700,5.055355712890625,-2.3222265572696923,-1.2659037326693534,-7.238484104079007,-0.6283754110336304,-0.5621105432510376,-0.7256109714508057
1772376773580304600,5.0653046875,-1.8593688072681427,-0.7807192923083901,-7.263779288855194,-0.40380099415779114,-0.160127654671669,-0.7633287906646729
1772376773590253600,5.075253662109375,-1.2011411915101111,-0.14833178185820578,-6.473290005421638,-0.1623944789171219,0.19191107153892517,-0.6637478470802307
1772376773600202500,5.085202392578125,-0.4578889851456508,0.45789749724566936,-5.041718740689754,0.06529386341571808,0.46425774693489075,-0.437070369720459
1772376773610151400,5.0951513671875,0.2634021127687767,0.9087158498853445,-3.254250802028179,0.25763455033302307,0.650410532951355,-0.13328143954277039
1772376773620100600,5.1051005859375,0.6783228938035667,1.2446318120598792,-1.373918117186427,0.4030786156654358,0.7653306722640991,0.18310028314590454
1772376773630049800,5.1150498046875,0.7814116584867239,1.4129074807941913,0.4223503830462694,0.5025449991226196,0.8046424388885498,0.474799245595932
1772376773639998700,5.124998779296875,0.6710797177422791,1.4855363714143632,2.0149135892450807,0.5394797921180725,0.7915055751800537,0.7068322896957397
1772376773649947600,5.13494775390625,0.4620261945482343,1.401894796131551,3.373938088682294,0.5227519273757935,0.7385534048080444,0.8630964756011963
1772376773659896600,5.144896484375,0.1435012746955268,1.2375532519757746,4.47814027031064,0.45387640595436096,0.6577770113945007,0.9434409737586975
1772376773669845500,5.154845458984375,-0.25449940599743276,1.0366808432802557,5.3088411526232955,0.3423812985420227,0.5573022961616516,0.928756058216095
1772376773679794400,5.16479443359375,-0.6259895530413836,0.778619397419691,5.8820402687847615,0.19642676413059235,0.4594077169895172,0.8329525589942932
1772376773689743600,5.17474365234375,-0.9553734100334346,0.48960138002038,6.181882462537288,0.049283646047115326,0.3752387762069702,0.6791414618492126
1772376773699692800,5.18469287109375,-1.1429084174457937,0.25883418379873036,6.230498317146301,-0.0688130185008049,0.29210537672042847,0.490775465965271
1772376773709641700,5.194641845703125,-1.1915899577021598,0.10753770691603422,6.049647828999161,-0.12356174737215042,0.20224152505397797,0.29801908135414124
1772376773719590700,5.204590576171875,-1.1103018867429346,0.036629064217209815,5.7378352114677424,-0.12185805290937424,0.0932277962565422,0.1308346539735794
1772376773729539600,5.21453955078125,-0.9581483546394854,0.060380526682734484,5.324152703523636,-0.06652235984802246,-0.03811691328883171,-0.007378336973488331
1772376773739487700,5.22448779296875,-0.7127806053310632,0.19321751002818344,4.852527709698677,0.024533720687031746,-0.14012698829174042,-0.10210048407316208
1772376773749436700,5.234436767578125,-0.5188781452460214,0.42518560647219417,4.417065916144848,0.11117833107709885,-0.23005369305610657,-0.16348181664943695
1772376773759385600,5.244385498046875,-0.4254090399645269,0.7013914885714649,4.112928071025014,0.17633956670761108,-0.30659976601600647,-0.1854386180639267
1772376773769334500,5.25433447265625,-0.2749864415732212,0.9263643193006516,3.8349341364651917,0.20388543605804443,-0.35015708208084106,-0.17274999618530273
1772376773779283500,5.264283447265625,-0.07153925048625097,0.9861486336559057,3.5000089388936755,0.19941700994968414,-0.3610752522945404,-0.13826502859592438
1772376773789232600,5.274232666015625,0.10364742147922515,0.9877475932851433,3.1371833424836395,0.15652386844158173,-0.3475317358970642,-0.1044655293226242
1772376773799181800,5.284181884765625,0.16198106210213153,0.9372633144557475,2.707345234030485,0.09167605638504028,-0.3223405182361603,-0.07627265155315399
1772376773809130800,5.294130859375,0.2591781018655747,0.7551686714664101,2.1371254259407517,0.04002591222524643,-0.275733083486557,-0.052171047776937485
1772376773819079700,5.30407958984375,0.47430809542909264,0.43093934769332404,1.511005451452732,-0.014275102876126766,-0.2549690306186676,-0.018472185358405113
1772376773829028600,5.314028564453125,0.7996374893985688,0.05817571011483669,0.891888633725047,-0.0656871646642685,-0.31144508719444275,0.04278584569692612
1772376773838977500,5.3239775390625,1.2899153073757885,-0.4137243012592196,0.29554186621010303,-0.12543897330760956,-0.4725709855556488,0.1321880966424942
1772376773848926500,5.333926513671875,1.8051241529919206,-1.009374610942602,-0.3374100001245737,-0.18640032410621643,-0.7159370183944702,0.22922010719776154
1772376773858875400,5.34387548828125,2.17842496618703,-1.6203557607486843,-1.155606205651164,-0.22738870978355408,-0.9745410084724426,0.30292555689811707
1772376773868824800,5.353824951171875,2.130849414411187,-2.170682243105769,-2.1076988404482604,-0.26654383540153503,-1.2290343046188354,0.30658021569252014
1772376773878773800,5.363773681640625,1.4139267408393323,-2.4796198897227644,-3.0932758116960524,-0.3707466721534729,-1.4761143922805786,0.20499862730503082
1772376773888722700,5.37372265625,0.08105630802996457,-2.537873925770819,-4.04529245864749,-0.5909136533737183,-1.7138962745666504,-0.015336673706769943
1772376773898671600,5.383671630859375,-1.5271476079583166,-2.4349466352596876,-5.118596228665113,-0.9002610445022583,-1.9100247621536255,-0.348268061876297
1772376773908620500,5.39362060546875,-3.0590786508008834,-2.2472809141397474,-6.546243013429641,-1.177199125289917,-1.871204137802124,-0.7551037669181824
1772376773918569500,5.403569580078125,-4.009443731153011,-2.1421993682041762,-8.344833234608172,-1.2954597473144531,-1.5097458362579346,-1.1659141778945923
1772376773928518700,5.4135185546875,-4.23070864727497,-1.852195262376964,-9.999778370440005,-1.1910555362701416,-0.8362898230552673,-1.5083165168762207
1772376773938467600,5.423467529296875,-3.72587111967802,-1.246422787129879,-10.891662912511825,-0.9337562918663025,-0.02589859813451767,-1.7101068496704102
1772376773948416800,5.433416748046875,-2.6172753792658447,-0.3840200678691268,-10.4454155210495,-0.6299865245819092,0.6982977390289307,-1.700238823890686
1772376773958365700,5.44336572265625,-1.2306814665101469,0.5748677800260484,-8.774978801575303,-0.3736628293991089,1.219209909439087,-1.4708443880081177
1772376773968314600,5.453314697265625,0.18089096628800033,1.3719428715907036,-6.415705831459165,-0.1835826337337494,1.515236258506775,-1.053144097328186
1772376773978263600,5.463263671875,1.3468112068131566,1.9503100380398333,-3.909657076755166,-0.05385200306773186,1.6266852617263794,-0.5195492506027222
1772376773988212500,5.47321240234375,2.059531314128637,2.3045798414200545,-1.7095862420797348,0.051119688898324966,1.6100809574127197,0.030768731608986855
1772376773998162200,5.483162109375,2.2059137154847384,2.4430497160859406,0.13210662324428557,0.13817410171031952,1.5480823516845703,0.5187947154045105
1772376774008111400,5.493111328125,1.9500003875687717,2.3214124644078313,1.522756679522991,0.21423983573913574,1.5156738758087158,0.9078609347343445
1772376774018060300,5.503060302734375,1.5158305335216222,2.0728100440271198,2.5069191077977417,0.29868289828300476,1.520787000656128,1.1903986930847168
1772376774028009200,5.51300927734375,0.9800012169420719,1.7589552531436086,3.3160581466436385,0.3935990333557129,1.5285447835922241,1.3740808963775635
1772376774037958100,5.522958251953125,0.4052528985772282,1.4036252731859684,4.006744409066439,0.4802156984806061,1.5009212493896484,1.4540226459503174
1772376774047907300,5.5329072265625,-0.129021936835628,1.0468810425162314,4.654670557171106,0.5359597206115723,1.4232419729232788,1.4280529022216797
1772376774057856300,5.542856201171875,-0.5855517076583578,0.7016667983815074,5.3014323376715184,0.5514423847198486,1.2917793989181519,1.2952048778533936
1772376774067804400,5.552804443359375,-0.993111020014435,0.3082815207958221,5.844111227884889,0.5398440361022949,1.0886832475662231,1.059205412864685
1772376774077753300,5.56275341796875,-1.2971858829006553,-0.06105827981382608,6.256608909958601,0.5393128395080566,0.8526516556739807,0.8072996735572815
1772376774087702300,5.572702392578125,-1.4723368442319333,-0.2916457355543971,6.438632533538341,0.5270271301269531,0.6223356127738953,0.5631168484687805
1772376774097651200,5.582651123046875,-1.4998361149236559,-0.3706231184184551,6.590138853779435,0.4861735701560974,0.39383557438850403,0.35513967275619507
1772376774107600100,5.59260009765625,-1.4446609017990528,-0.26597587224692104,6.727147862112521,0.4127800464630127,0.16978488862514496,0.1783510446548462
1772376774117549000,5.602549072265625,-1.3955162010103463,-0.021755027951300143,6.767243725657463,0.2964150011539459,-0.03813234344124794,0.045595090836286545
1772376774127498200,5.612498291015625,-1.2941774948649107,0.2737386152029037,6.69891487031877,0.14041608572006226,-0.2307734340429306,-0.056037794798612595
1772376774137447400,5.622447509765625,-1.132341869115457,0.5351084549590945,6.40077597335279,-0.03727293759584427,-0.4088873565196991,-0.12233428657054901
1772376774147396400,5.632396240234375,-0.9213407189849764,0.6213982066631317,5.749562474140524,-0.2063269317150116,-0.5487794876098633,-0.17673814296722412
1772376774157345300,5.64234521484375,-0.6548688799146563,0.5251742131829261,4.777111526447534,-0.307422935962677,-0.6461132168769836,-0.23474392294883728
1772376774167294200,5.652294189453125,-0.3737797923510894,0.3150073219195008,3.490344453969598,-0.3413718640804291,-0.7218604683876038,-0.29766589403152466
1772376774177243100,5.6622431640625,-0.05869500301489606,0.03439122216254473,2.144482802966237,-0.3175671696662903,-0.7809960842132568,-0.3417220115661621
1772376774187192300,5.6721923828125,0.46740675507541746,-0.2226326973438263,0.9387123442202806,-0.23215988278388977,-0.8195109367370605,-0.3563057482242584
1772376774197141200,5.682141357421875,1.0129819147195667,-0.4325821464642882,-0.1282803429543972,-0.12666502594947815,-0.9113356471061707,-0.31643569469451904
1772376774207090200,5.692090087890625,1.6803306292399762,-0.6654425155729055,-0.9997650710761546,-0.05934271216392517,-1.0999157428741455,-0.20950205624103546
1772376774217039400,5.702039306640625,2.361533900785446,-1.0277183691456913,-1.6677508413910864,-0.0399165078997612,-1.3264756202697754,-0.05512528121471405
1772376774226988300,5.71198828125,2.833032053360343,-1.5268804814547299,-2.2887457279503343,-0.08144956827163696,-1.5905916690826416,0.09259040653705597
1772376774236937200,5.721937255859375,2.791848394578695,-1.9957471164822578,-2.9766642792254685,-0.1963213086128235,-1.8531146049499512,0.15291573107242584
1772376774246886100,5.73188623046875,1.9591455247938632,-2.311132039542496,-3.8308909985542297,-0.41992804408073425,-2.099735975265503,0.061259035021066666
1772376774256835300,5.74183544921875,0.26862032234109934,-2.392754383957386,-4.979180159190297,-0.7770797610282898,-2.328099250793457,-0.19857914745807648
1772376774266784300,5.7517841796875,-1.7818819552227854,-2.3477162417046724,-6.45187721503675,-1.1823614835739136,-2.337003707885742,-0.5893152356147766
1772376774276733200,5.761733154296875,-3.4327626180946824,-2.284036819607019,-8.397768705981969,-1.4943042993545532,-2.0828323364257812,-1.0711288452148438
1772376774286682000,5.77168212890625,-4.399856422668695,-2.038768950476497,-10.414220756840706,-1.5884004831314087,-1.5058128833770752,-1.5439316034317017
1772376774296631300,5.78163134765625,-4.590564872485399,-1.3949913003534078,-11.765514954286813,-1.4624919891357422,-0.6997233033180237,-1.910057544708252
1772376774306580200,5.791580322265625,-4.042757094950974,-0.5496206721752882,-12.108082191044092,-1.2014532089233398,0.12018224596977234,-2.0829403400421143
1772376774316529200,5.801529052734375,-2.842815196228027,0.4012546957865357,-11.18688387620449,-0.9001100063323975,0.8001907467842102,-2.01607608795166
1772376774326478300,5.811478271484375,-1.2525262185715138,1.2081361649639903,-9.307415114715695,-0.605609655380249,1.2680988311767578,-1.7164902687072754
1772376774336427300,5.82142724609375,0.22791735974848268,1.9091630580067633,-7.0382274891942735,-0.33766669034957886,1.5582009553909302,-1.232810139656067
1772376774346376200,5.831376220703125,1.3607292575284837,2.4472572507783767,-4.788950432801246,-0.0823342427611351,1.705683946609497,-0.6448760032653809
1772376774356325000,5.8413251953125,2.078582343818247,2.7465374267339704,-2.723696064850688,0.15713000297546387,1.745694875717163,-0.03741162270307541
1772376774366274300,5.8512744140625,2.3269519783563912,2.8073130902141332,-0.9416203406214714,0.3818981349468231,1.7366700172424316,0.5098008513450623
1772376774376223200,5.86122314453125,2.157584568862617,2.6462559745565057,0.587363250592351,0.5791864395141602,1.7413760423660278,0.9509537220001221
1772376774386171400,5.87117138671875,1.6614270451970397,2.314394986861199,1.91373869535923,0.7550352215766907,1.7521096467971802,1.2778102159500122
1772376774396120300,5.881120361328125,1.0960570882912724,1.958333477758616,3.0568431468337773,0.8886674046516418,1.7376627922058105,1.4924103021621704
1772376774406069200,5.8910693359375,0.5360569878555834,1.5843300692521034,4.0922260592579836,0.9787997007369995,1.7029130458831787,1.602953553199768
1772376774416018200,5.90101806640625,0.0644643893297296,1.2071795948915183,5.027456406581401,1.03357994556427,1.6236145496368408,1.60738205909729
1772376774425967000,5.910967041015625,-0.4220231603858992,0.8397074878498911,5.849018289148807,1.0487309694290161,1.495746374130249,1.52413010597229
1772376774435916300,5.920916259765625,-0.8574252961743623,0.5012440331496298,6.5309840694993735,1.0220959186553955,1.311385989189148,1.3636701107025146
1772376774445865200,5.930865234375,-1.1668543065048753,0.2725581732466817,7.041451711937785,0.9717168807983398,1.0726360082626343,1.1300077438354492
1772376774455814100,5.940814208984375,-1.459743027857691,0.11819500226974487,7.402811327448487,0.9103865623474121,0.7898056507110596,0.8916921615600586
1772376774465763300,5.950763427734375,-1.6385246007762848,0.07426262930184602,7.549933148995041,0.8159053325653076,0.4924868941307068,0.6674222946166992
1772376774475712300,5.960712158203125,-1.6996264274708925,0.12280424963086843,7.524120662346482,0.7016723155975342,0.2096547782421112,0.47729817032814026
1772376774485661200,5.9706611328125,-1.6668661675110459,0.26943682635575533,7.29920365345776,0.5751399397850037,-0.00504207331687212,0.31967097520828247
1772376774495610000,5.980610107421875,-1.5770057177133858,0.5183940515235066,6.774197198057174,0.4776758551597595,-0.13599039614200592,0.19161246716976166
1772376774505559300,5.990559326171875,-1.472306595224142,0.7513155031695962,5.954356147933006,0.41683700680732727,-0.18874682486057281,0.1019720584154129
1772376774515508200,6.00050830078125,-1.1690211291499435,0.8202814873680472,5.110673034450412,0.4034546911716461,-0.16382859647274017,0.06661556661128998
1772376774525457200,6.01045703125,-0.5792971042430028,0.693649788403511,4.311835609388351,0.41959238052368164,-0.0759006068110466,0.0743991881608963
1772376774535406300,6.02040625,-0.018565036270953714,0.5105655498549342,3.7169916476517915,0.43567955493927,0.00887312926352024,0.10821231454610825
1772376774545355300,6.030355224609375,0.5492537385590374,0.274885154889524,3.377602456408739,0.4371831715106964,-0.01273815706372261,0.16198766231536865
1772376774555304200,6.04030419921875,1.1531901574853807,-0.032686756332218646,3.163843385872245,0.39401647448539734,-0.16020718216896057,0.24925656616687775
1772376774565253400,6.05025341796875,1.8197886381603776,-0.44311932256966824,2.986012537807226,0.30946987867355347,-0.3968349099159241,0.36420977115631104
1772376774575202300,6.060202392578125,2.376769902231544,-0.9791627202913165,2.7837790698915716,0.15606175363063812,-0.7096496820449829,0.47334468364715576
1772376774585151200,6.070151123046875,2.47329623965919,-1.4412114919975398,2.497825116237998,-0.09190411865711212,-1.0976139307022095,0.5272872447967529
1772376774595100200,6.08010009765625,2.0789638904817402,-1.7361799422338604,2.0599153450101615,-0.46666133403778076,-1.5803842544555664,0.5121960639953613
1772376774605049000,6.090049072265625,1.1536381204485893,-1.858103609637916,1.2668173403829335,-0.9935413599014282,-2.1498780250549316,0.39953798055648804
1772376774614998300,6.099998291015625,-0.3337099765628576,-1.8301245926052332,-0.23255028024613855,-1.5068925619125366,-2.5675671100616455,0.17673994600772858
1772376774624947200,6.109947265625,-1.9839982264995575,-1.9491729968339204,-3.051551470166445,-1.7755120992660522,-2.613223075866699,-0.17595845460891724
1772376774634896400,6.119896484375,-3.3531080666214224,-2.2363059311389923,-6.836537626636028,-1.7561240196228027,-2.3599650859832764,-0.6246637105941772
1772376774644845300,6.12984521484375,-4.0936943782448765,-2.337166059987247,-10.175786094731091,-1.5191903114318848,-1.7025070190429688,-1.0796443223953247
1772376774654794200,6.139794189453125,-4.081588345387578,-2.0286103984251618,-11.863337030613422,-1.1832739114761353,-0.7530887126922607,-1.4569963216781616
1772376774664743200,6.1497431640625,-3.5353187372058628,-1.2217093477644025,-11.773753205800055,-0.8986620903015137,0.10770085453987122,-1.662004828453064
1772376774674692000,6.159692138671875,-2.618391816075146,-0.15698153678178786,-10.121764581686257,-0.7681674361228943,0.6434170007705688,-1.6341437101364136
1772376774684640300,6.16964013671875,-1.395047122193873,0.7928571816086769,-7.67334384008646,-0.7705091834068298,0.9017007350921631,-1.3819395303726196
1772376774694589200,6.179589111328125,-0.20477964526712894,1.4629440158560871,-5.258098222857713,-0.8406152725219727,0.9552593231201172,-0.96628737449646
1772376774704538400,6.189538330078125,0.5948585017185658,1.8801503140121698,-3.445699256557226,-0.8881558775901794,0.9206717610359192,-0.4817632734775543
1772376774714487300,6.1994873046875,0.8135431920889764,2.0734666082397104,-2.255288864028454,-0.8666629791259766,0.9143511056900024,-0.017122551798820496
1772376774724436200,6.209436279296875,0.6839678408879787,1.9759592969506978,-1.5711995156526564,-0.7462736964225769,0.9913936853408813,0.36283648014068604
1772376774734385200,6.21938525390625,0.37788269762527193,1.610563996183127,-1.1051537832647562,-0.5464527606964111,1.1347620487213135,0.6204798221588135
1772376774744334300,6.229334228515625,0.018167670983821153,1.058983860503137,-0.661336833819747,-0.3039008378982544,1.307904839515686,0.7642814517021179
1772376774754283300,6.239283203125,-0.2679080276195891,0.593488893865794,0.0028407763838768003,-0.04255492985248566,1.4744480848312378,0.8337035775184631
1772376774764232200,6.249232177734375,-0.4724254234876483,0.2704034794308245,0.8815741604596375,0.20160314440727234,1.5750216245651245,0.8537617325782776
1772376774774181000,6.25918115234375,-0.5834153166841716,0.09409428797513246,1.9781646980404852,0.41372284293174744,1.5839216709136963,0.8490849137306213
1772376774784130300,6.26913037109375,-0.5803055141005665,-0.004054974479228258,3.1539830861151215,0.5765296220779419,1.4749410152435303,0.8371396064758301
1772376774794079200,6.279079345703125,-0.6138664959840476,-0.05205211266800761,4.3347582198143,0.6790965795516968,1.245235800743103,0.8142352104187012
1772376774804028200,6.289028076171875,-0.7076839397791773,-0.01614434846267104,5.398126871272921,0.6899995803833008,0.912793755531311,0.7616457939147949
1772376774813977300,6.298977294921875,-0.8473706428889185,-0.029412703097611664,6.251979496592283,0.6419016718864441,0.5407736897468567,0.6826803088188171
1772376774823926300,6.30892626953125,-0.9749307818099856,-0.14373437106534837,6.789257404544949,0.5635115504264832,0.2113209217786789,0.5923333764076233
1772376774833875200,6.318875244140625,-1.0479203224360942,-0.2863534743651748,6.869976370379328,0.479658842086792,-0.05099998787045479,0.4779599905014038
1772376774843824000,6.32882421875,-1.1139827672127633,-0.35181013526842,6.609426907095313,0.40527594089508057,-0.25629881024360657,0.34562620520591736
1772376774853773300,6.338773193359375,-1.2447760428361594,-0.30670521138980983,6.098574649253488,0.3546079397201538,-0.38010650873184204,0.2093946784734726
1772376774863722200,6.34872216796875,-1.285075612259656,-0.17281418894678352,5.449523881033063,0.28993815183639526,-0.43188315629959106,0.09721808135509491
1772376774873671200,6.358671142578125,-1.235619799695164,0.05769932477474212,4.87665501973927,0.192641943693161,-0.4533824026584625,0.007923007011413574
1772376774883620400,6.368620361328125,-1.1088855171389878,0.22636837674081325,4.342662124806642,0.06452657282352448,-0.4675450921058655,-0.05841819941997528
1772376774893569300,6.3785693359375,-0.9524123682707547,0.3250539380289614,3.766194946759939,-0.05965208262205124,-0.488136351108551,-0.09553849697113037
1772376774903518200,6.388518310546875,-0.598965096787177,0.30015286713689565,3.070808543822169,-0.12068827450275421,-0.5126992464065552,-0.10037612915039062
1772376774913467100,6.398467041015625,0.06960690788391512,0.10164090396240354,2.154005833593011,-0.09669341892004013,-0.5597392320632935,-0.05964675545692444
1772376774923416000,6.408416015625,0.7875256843876093,-0.21979572035223244,1.2894564576923846,-0.021482018753886223,-0.7027078866958618,0.022823087871074677
1772376774933365200,6.418365234375,1.4236474859952926,-0.5172980729803442,0.6593436141759157,0.04393450915813446,-1.007859706878662,0.13384878635406494
1772376774943314400,6.428314453125,1.9310409816853702,-0.8619266261816024,0.2375759994536638,0.06364776194095612,-1.413362979888916,0.2476387321949005
1772376774953263400,6.438263427734375,2.2905323191061613,-1.3635560053870082,-0.25626608687639235,0.02698902226984501,-1.8216097354888916,0.32152000069618225
1772376774963212300,6.44821240234375,2.2890026253208515,-1.9943673525616525,-1.024897174245119,-0.07368113100528717,-2.1763529777526855,0.31320375204086304
1772376774973161200,6.4581611328125,1.8479688768535851,-2.50474059471488,-2.099463511544466,-0.1966579407453537,-2.379403591156006,0.22292277216911316
1772376774983109000,6.468109130859375,1.0668951450843362,-2.801520478287339,-3.45615401507616,-0.3755195736885071,-2.462942123413086,0.06903120130300522
1772376774993058300,6.478058349609375,-0.17229644868299365,-2.7255247415825723,-4.7988954882323736,-0.6277533173561096,-2.4670627117156982,-0.19632361829280853
1772376775003007000,6.488007080078125,-2.003188080137968,-2.326243830087036,-6.330825654292107,-0.9129453897476196,-2.3930461406707764,-0.5689302086830139
1772376775012956000,6.497955810546875,-3.7631577710211275,-2.018718242225051,-8.202900798398256,-1.1335864067077637,-2.1743431091308594,-0.9895198345184326
1772376775022904800,6.50790478515625,-4.626974740993976,-1.8203513866096734,-10.052874000811576,-1.1900070905685425,-1.6825790405273438,-1.375938057899475
1772376775032853800,6.517853759765625,-4.608505310584604,-1.3858863490082323,-11.227477752399444,-1.069271206855774,-0.9561291933059692,-1.6589200496673584
1772376775042802700,6.527802734375,-4.012060635653138,-0.6758771080866456,-11.448837361067532,-0.8309592008590698,-0.19384513795375824,-1.7877144813537598
1772376775052752000,6.537751953125,-2.937271010991931,0.14915186606943606,-10.608707556152343,-0.5575517416000366,0.4716144800186157,-1.7141262292861938
1772376775062700800,6.54770068359375,-1.5833279064722359,0.9640371934823692,-8.814880019330978,-0.29907917976379395,0.9553004503250122,-1.4375410079956055
1772376775072650000,6.55764990234375,-0.2998866174161434,1.5996582790262996,-6.55803223542273,-0.09228634089231491,1.2342036962509155,-1.0104646682739258
1772376775082599000,6.567598876953125,0.7129090540163219,2.0380505730740723,-4.342047207778692,0.08480348438024521,1.3575462102890015,-0.5107563138008118
1772376775092547800,6.5775478515625,1.2927489233665168,2.2289023768842218,-2.323392678439617,0.2620822787284851,1.4132994413375854,-0.016060715541243553
1772376775102496800,6.587496826171875,1.3863276630349457,2.176140654642135,-0.6188356626987457,0.45183491706848145,1.4390175342559814,0.3959878087043762
1772376775112446000,6.597446044921875,1.1105785117272287,1.9691355884104966,0.7331839264124631,0.6321805715560913,1.4667139053344727,0.701136589050293
1772376775122395000,6.607394775390625,0.6705421767994761,1.695162726060301,1.7923071953862904,0.8030186295509338,1.5236235857009888,0.8970240354537964
1772376775132343800,6.61734375,0.20227496896982192,1.3831789897456765,2.7422446979761124,0.9346579313278198,1.597934603691101,0.9784354567527771
1772376775142293000,6.62729296875,-0.17290888149291275,1.0048886977002025,3.684196462509036,1.0086275339126587,1.6245808601379395,0.9197244644165039
1772376775152242000,6.637241943359375,-0.5103179317694158,0.6012738486535847,4.639368358621001,1.0180259943008423,1.5654597282409668,0.6994019746780396
1772376775162190800,6.64719091796875,-0.8309414130702615,0.15649010000303387,5.547596132728457,0.9908620119094849,1.3890390396118164,0.41735589504241943
1772376775172139800,6.657139892578125,-0.8834813092552125,-0.24986235731393097,6.194987443304061,0.9221921563148499,1.139192819595337,0.17483673989772797
1772376775182089000,6.6670888671875,-0.6644425447501242,-0.49068596038669343,6.6709794001668685,0.8036343455314636,0.8724117279052734,-0.00758686289191246
1772376775192038000,6.677037841796875,-0.5991828677237033,-0.3024728345170617,7.047671609365939,0.6490585207939148,0.6078205704689026,-0.1471562534570694
1772376775201986800,6.68698681640625,-0.6729138013016432,0.2482429394185543,7.1278791185468435,0.4890401363372803,0.3906056880950928,-0.23197926580905914
1772376775211935700,6.696935791015625,-0.7651515746898949,0.7832695613130927,6.86749390591383,0.3435792624950409,0.2447296530008316,-0.28193536400794983
1772376775221885000,6.706885009765625,-0.6677669399324804,1.0550319080069661,6.3533998896718025,0.21278797090053558,0.14485684037208557,-0.3182630240917206
1772376775231833900,6.716833740234375,-0.46457547717224806,1.0397057440593838,5.692778510645032,0.10124437510967255,0.07795457541942596,-0.3530351221561432
1772376775241782800,6.72678271484375,-0.1969968824364245,0.9064294925138354,4.912037883287668,0.029815195128321648,0.038115549832582474,-0.3943096101284027
1772376775251732000,6.73673193359375,0.1223980617164634,0.7750526448488235,4.076602958190441,-0.0026321648620069027,-0.013885239139199257,-0.4260298013687134
1772376775261681000,6.746680908203125,0.5120706937208771,0.6605474370077252,3.281023073619604,-0.03372963145375252,-0.1193123310804367,-0.413280189037323
1772376775271628800,6.75662890625,1.0961555071644484,0.5767267057657242,2.7095284232884644,-0.04720918834209442,-0.24709127843379974,-0.3521493673324585
1772376775281577700,6.76657763671875,1.6685808624744414,0.39201574279814955,2.1244529913723467,-0.07900014519691467,-0.4624565839767456,-0.25125497579574585
1772376775291527000,6.77652685546875,2.212422512856871,0.0801066791549325,1.539209801673889,-0.13112488389015198,-0.7512109875679016,-0.12240350991487503
1772376775301475800,6.786475830078125,2.5639029777795077,-0.3424982631742954,0.8149351579040288,-0.1902739554643631,-1.0487923622131348,-0.0036683313082903624
1772376775311425000,6.796425048828125,2.682655906192958,-0.8571902453094721,-0.15685703361928463,-0.24234440922737122,-1.3084595203399658,0.08122384548187256
1772376775321374000,6.8063740234375,2.4567867111459374,-1.4031047564432024,-1.2882991043508052,-0.30882465839385986,-1.5460283756256104,0.08897178620100021
1772376775331323000,6.816322998046875,1.730015720515698,-1.6736983516186474,-2.366622748357057,-0.4478800296783447,-1.8011555671691895,0.004691445734351873
1772376775341271800,6.826271728515625,0.30251017085276544,-1.6239052699238061,-3.372113795864582,-0.7448093891143799,-2.057058334350586,-0.1968456655740738
1772376775351220700,6.836220703125,-1.6011412110604344,-1.4239097901932893,-4.501438143789768,-1.1428050994873047,-2.1667563915252686,-0.5451172590255737
1772376775361170000,6.846169921875,-3.4421021088480948,-1.2519823209531604,-6.2542930342316625,-1.4923095703125,-2.009063959121704,-0.9783832430839539
1772376775371118800,6.856118896484375,-4.474639568713307,-1.254160395644605,-8.52061708701551,-1.6584042310714722,-1.5464590787887573,-1.4438655376434326
1772376775381067800,6.86606787109375,-4.690693472188711,-1.0237810296967624,-10.478861863577364,-1.5811251401901245,-0.8014903664588928,-1.8340522050857544
1772376775391017000,6.876016845703125,-4.20862950193584,-0.3638159226216376,-11.54190844347477,-1.324758768081665,0.06805705279111862,-2.055495500564575
1772376775400966000,6.8859658203125,-3.1158345572456714,0.49682928544729943,-11.24990001208782,-1.0120482444763184,0.826465368270874,-2.0278379917144775
1772376775410914800,6.895914794921875,-1.542248877108842,1.3205451311782002,-9.662967505252361,-0.7068396210670471,1.3251242637634277,-1.71665620803833
1772376775420863700,6.90586376953125,0.10886493693180381,1.9636846295282244,-7.378397017160058,-0.4295012354850769,1.5609055757522583,-1.1906211376190186
1772376775430813000,6.91581298828125,1.4291720946356654,2.3928436696760356,-4.995111887815594,-0.1757061779499054,1.603516697883606,-0.5441856980323792
1772376775440761900,6.925761962890625,2.1303455565422773,2.516020113620162,-2.828876102724671,0.06964711844921112,1.5485844612121582,0.08984321355819702
1772376775450710800,6.935710693359375,2.2154854075588286,2.3568666396267712,-1.0097393526017666,0.3040101230144501,1.4640926122665405,0.6130417585372925
1772376775460660000,6.945659912109375,1.8088060563750563,2.0443892745763064,0.4481313055127859,0.5134821534156799,1.397280216217041,0.9879392385482788
1772376775470609000,6.95560888671875,1.2232795196905732,1.652631890453398,1.6111574320316313,0.6906068921089172,1.3641852140426636,1.2250463962554932
1772376775480557800,6.965557861328125,0.6752605105582624,1.2015177697375417,2.6273019755005835,0.8376504182815552,1.3535696268081665,1.3340855836868286
1772376775490507000,6.975507080078125,0.24866536608170717,0.7889668961718678,3.555712121415138,0.953966498374939,1.3467007875442505,1.3327083587646484
1772376775500456000,6.9854560546875,-0.17774302365109323,0.4601967140987515,4.495011325612664,1.0298599004745483,1.2986749410629272,1.1920287609100342
1772376775510404900,6.99540478515625,-0.6360829309020191,0.15423866781443357,5.465500617843866,1.0812394618988037,1.146071434020996,0.9913153648376465
1772376775520353800,7.005353759765625,-0.9707445091012865,-0.06185892867222428,6.4143777977257965,1.0675101280212402,0.8726310729980469,0.8035337328910828
1772376775530302700,7.015302734375,-0.9934605641044676,-0.12388210799545049,7.299144616746902,1.0194766521453857,0.5472952127456665,0.6626962423324585
1772376775540252000,7.025251953125,-0.8957607259180397,-0.008413315819203853,8.02165283536613,0.9268149137496948,0.2395419031381607,0.5561058521270752
1772376775550200800,7.035200927734375,-0.9068652535825967,0.2550330379500985,8.511461136135459,0.7735942006111145,-0.0409851148724556,0.4691588282585144
1772376775560149000,7.04514892578125,-0.9250818782746791,0.4687769109174609,8.7954616176337,0.5561284422874451,-0.2772330939769745,0.37380754947662354
1772376775570098000,7.055097900390625,-0.8930386074777692,0.517113948585093,8.858299474340678,0.28806865215301514,-0.43166422843933105,0.26912662386894226
1772376775580046800,7.065046875,-0.8036052239857614,0.4352577954143286,8.583943019500374,0.018720246851444244,-0.495890349149704,0.1706826090812683
1772376775589995800,7.074995849609375,-0.6053308689594269,0.3022852029904723,7.990140675771236,-0.27332964539527893,-0.5300262570381165,0.07385207712650299
1772376775599944700,7.08494482421875,-0.43679212884213775,0.20782295848578214,7.302145552128553,-0.5448580384254456,-0.5448334217071533,-0.003955099731683731
1772376775609894000,7.094893798828125,-0.21017425258597358,0.11074702435135841,6.385131244975328,-0.7729276418685913,-0.5892904996871948,-0.07321318984031677
1772376775619842800,7.1048427734375,0.024686925817886365,-0.01706117104664445,5.225469626453519,-0.9386191368103027,-0.7402432560920715,-0.12197354435920715
1772376775629792000,7.1147919921875,0.34028891656175253,-0.13335808461010457,3.8791011949717995,-0.9891886711120605,-0.9190599918365479,-0.1456446796655655
1772376775639741000,7.124740966796875,0.7521291576400398,-0.29363018736988306,2.1888801630973815,-0.9418560266494751,-1.0682317018508911,-0.15538598597049713
1772376775649689900,7.13468994140625,1.1505194039061666,-0.6406465124905109,0.4493108706861734,-0.8306280374526978,-1.1988266706466675,-0.15920193493366241
1772376775659638800,7.144638671875,1.4668056597203016,-0.9702548989534377,-1.2176099496215582,-0.687605619430542,-1.3512380123138428,-0.1562359780073166
1772376775669588000,7.154587890625,1.6039862252280115,-1.2156643685117363,-2.7282179261893034,-0.5519816279411316,-1.511535406112671,-0.15316534042358398
1772376775679537000,7.164536865234375,1.436392109017074,-1.352017543284595,-4.1126492540836335,-0.44638752937316895,-1.6042560338974,-0.16679859161376953
1772376775689485800,7.17448583984375,0.926042540000379,-1.4417926528863607,-5.431390258449316,-0.39152583479881287,-1.5322264432907104,-0.2056654691696167
1772376775699434800,7.184434814453125,0.26815248563364147,-1.505823518770188,-6.568526156908273,-0.3952108323574066,-1.327080488204956,-0.2636885344982147
1772376775709384000,7.194384033203125,-0.31371618613041935,-1.4873840451076625,-7.413069686612486,-0.4562748670578003,-1.1082439422607422,-0.3426223695278168
1772376775719332900,7.204332763671875,-0.8007751151263713,-1.2985054410666226,-7.948212920624017,-0.5595139265060425,-0.9330308437347412,-0.42317208647727966
1772376775729281800,7.21428173828125,-1.0652582645975053,-1.0814530280731618,-8.23129745632112,-0.7126139402389526,-0.850882887840271,-0.4953058362007141
1772376775739231000,7.22423095703125,-1.121084927368164,-0.8851670703850686,-8.330744503501057,-0.9005220532417297,-0.8325625061988831,-0.5737000107765198
1772376775749180000,7.234179931640625,-1.0834722589410841,-0.6640735653072595,-8.498377782678604,-1.0362366437911987,-0.7420658469200134,-0.6387370228767395
1772376775759128800,7.24412890625,-1.084424298968911,-0.334756416875869,-8.832325659650564,-1.0429906845092773,-0.48953744769096375,-0.6664445400238037
1772376775769077800,7.254077880859375,-1.1703927097640932,0.08920140136703848,-9.127889153170585,-0.9087549448013306,-0.11990751326084137,-0.6175463795661926
1772376775779026700,7.264026611328125,-1.0719789511546491,0.5170027432955802,-8.97002615737915,-0.6745933294296265,0.27238062024116516,-0.4651701748371124
1772376775788975900,7.273975830078125,-0.6070249595262109,0.8444174191065132,-8.152069021305442,-0.3874526619911194,0.6016958951950073,-0.20987018942832947
1772376775798924800,7.2839248046875,-0.008549801680445671,1.0342737821385264,-6.782295164316892,-0.0738510712981224,0.8180478811264038,0.1137976124882698
1772376775808874000,7.2938740234375,0.45415071193277834,1.0563445980407298,-5.119872239950299,0.24343183636665344,0.9593818783760071,0.4476433992385864
1772376775818823000,7.303822998046875,0.6308452494442462,1.0194333558812736,-3.3008506406396627,0.5343182682991028,1.066894769668579,0.7229050397872925
1772376775828771800,7.313771728515625,0.4392370012436062,0.9165846835643052,-1.4901029486775397,0.7795537710189819,1.1387062072753906,0.9099183082580566
1772376775838720800,7.323720703125,0.024691738990321753,0.8584235864967107,0.21536241407990456,0.966575026512146,1.1923943758010864,1.007017731666565
1772376775848669700,7.333669677734375,-0.3302392317123711,0.7928501673460007,1.8239204772680997,1.1047065258026123,1.2381954193115234,1.0378854274749756
1772376775858617900,7.343617919921875,-0.5772169735006988,0.7302654086172581,3.2916929361939427,1.194239854812622,1.243220567703247,1.0181736946105957
1772376775868566800,7.35356689453125,-0.7191208412032574,0.7635689816735685,4.629472403028607,1.264566421508789,1.2017581462860107,0.9657988548278809
1772376775878516000,7.363515869140625,-0.7779176058258861,0.8643636440701782,5.828066102012992,1.3022323846817017,1.0965496301651,0.897125244140625
1772376775888465000,7.37346484375,-0.8201656059034168,0.9887110314898192,6.849529210156202,1.2807459831237793,0.9447863698005676,0.82291579246521
1772376775898413800,7.383413818359375,-0.7943595489956438,1.087059615908563,7.699109564983845,1.2064528465270996,0.792338490486145,0.7431511878967285
1772376775908362800,7.39336279296875,-0.7230280047096311,1.13805929691419,8.281062480965256,1.0978212356567383,0.6441963911056519,0.6698522567749023
1772376775918312000,7.40331201171875,-0.581343661509268,1.1277801872231066,8.621725345405936,0.9454432129859924,0.5535597205162048,0.5725235342979431
1772376775928260900,7.4132607421875,-0.681546824286133,1.305881961183995,8.821930522364378,0.7475855946540833,0.4519948661327362,0.43120431900024414
1772376775938209800,7.423209716796875,-0.735341981229186,1.4803350033789873,8.961506750836968,0.5165092349052429,0.3066938519477844,0.28055539727211
1772376775948159000,7.433158935546875,-0.581167939616181,1.5400681720688938,8.790552802804111,0.27448830008506775,0.15257218480110168,0.16159556806087494
1772376775958108000,7.44310791015625,-0.35423940824195743,1.526589389553666,8.233860000285505,0.06739690154790878,0.04424039646983147,0.07877073436975479
1772376775968056800,7.453056884765625,-0.1598417302521877,1.5001926732763646,7.377913617557287,-0.09898153692483902,-0.03927874192595482,0.02508092112839222
1772376775978005800,7.463005859375,0.07154975361395627,1.5068714203879237,6.408655328425764,-0.2336120456457138,-0.14040562510490417,-0.00921819731593132
1772376775987955000,7.472954833984375,0.32278939063046125,1.470820156058669,5.403899024933576,-0.32539108395576477,-0.22830797731876373,-0.007882414385676384
1772376775997904000,7.48290380859375,0.7115687453232705,1.2172656662285328,4.354038674345612,-0.39119085669517517,-0.3102148175239563,0.04141535982489586
1772376776007852500,7.4928525390625,1.1164118209905922,0.7639983130015432,3.2859792347222565,-0.46254056692123413,-0.44161728024482727,0.12738285958766937
1772376776017801500,7.502801513671875,1.439213888439536,0.28255875825732946,2.093390913632512,-0.5393991470336914,-0.6483126878738403,0.23636473715305328
1772376776027750400,7.51275048828125,1.5603195174589752,-0.24793255829513072,0.6277595583885908,-0.5821459293365479,-0.835259735584259,0.33995628356933594
1772376776037699600,7.522699462890625,1.3532196125507354,-0.8413969022415578,-1.260788581612706,-0.5613506436347961,-0.8854116201400757,0.4171445369720459
1772376776047648500,7.5326484375,0.8971148439407348,-1.4708813847266138,-3.302890037512779,-0.5062751173973083,-0.7842455506324768,0.4382149279117584
1772376776057597400,7.542597412109375,0.3793811560221016,-2.083687850263715,-5.011221895617246,-0.456969678401947,-0.6101387739181519,0.4003804624080658
1772376776067546600,7.552546630859375,0.06283917188122869,-2.636736158800125,-6.248810218906402,-0.4411160945892334,-0.4080120027065277,0.324486643075943
1772376776077495600,7.56249560546875,0.0002702683087438345,-3.132695383414626,-6.934415817064046,-0.4804520606994629,-0.29669347405433655,0.22429242730140686
1772376776087444500,7.572444580078125,-0.031173209964111444,-3.388095208850503,-7.077516128009557,-0.6235652565956116,-0.3915728032588959,0.09026465564966202
1772376776097393400,7.582393310546875,-0.4350751323238015,-3.278820010617375,-6.875571998429298,-0.8991957902908325,-0.6870681047439575,-0.11534309387207031
1772376776107342600,7.592342529296875,-1.4289379936188458,-2.871564905372262,-6.915860169675946,-1.2720754146575928,-1.0254603624343872,-0.4116569459438324
1772376776117291500,7.60229150390625,-2.49981658231616,-2.4940122799515723,-7.803599867027997,-1.5128811597824097,-1.1285403966903687,-0.7444716095924377
1772376776127240400,7.612240478515625,-3.0178447231367227,-2.2089140663444993,-9.54163069782555,-1.411061406135559,-0.926837682723999,-1.036049485206604
1772376776137188400,7.622188232421875,-2.9246529369592666,-1.6896211662851273,-11.37239709546566,-0.962405800819397,-0.41883838176727295,-1.19527006149292
1772376776147137300,7.63213720703125,-2.2252327484607695,-0.805517487347871,-12.024276949632167,-0.3417503535747528,0.17266370356082916,-1.1383997201919556
1772376776157086500,7.64208642578125,-1.0447057443037628,0.17452026221230624,-10.937330438709258,0.2439458817243576,0.6496638059616089,-0.8556356430053711
1772376776167035600,7.65203564453125,0.21404051782637834,1.0161061111547052,-8.504680682215094,0.669329047203064,1.0078412294387817,-0.4021940231323242
1772376776176984600,7.661984619140625,1.2032763769079,1.6095660711869597,-5.385369096508622,0.9021889567375183,1.2502621412277222,0.11537216603755951
1772376776186933500,7.67193359375,1.6751210778981447,2.0254713697470725,-2.2024457471132277,0.9805986285209656,1.3833165168762207,0.5842415690422058
1772376776196882400,7.68188232421875,1.7025858617983758,2.2039571745894846,0.5886819319754839,0.9735753536224365,1.4535243511199951,0.9493367075920105
1772376776206831400,7.691831298828125,1.4728059230484067,2.128245223262161,2.7926380836516618,0.931337833404541,1.4678643941879272,1.19312584400177
1772376776216780500,7.701780517578125,1.2557431347914039,1.962943894163519,4.418316792988777,0.8960930109024048,1.4126030206680298,1.3272889852523804
1772376776226729500,7.7117294921875,1.0814050972782074,1.8001864043287932,5.590748461234569,0.889374852180481,1.2928147315979004,1.3650254011154175
1772376776236678700,7.7216787109375,0.8981362228777259,1.58495200054273,6.426652172887325,0.8902252316474915,1.0982155799865723,1.329491376876831
1772376776246627600,7.731627685546875,0.6670601068373769,1.4016523656778037,7.075176871407032,0.8851645588874817,0.8499202132225037,1.2413091659545898
1772376776256576500,7.741576416015625,0.3836091489806771,1.2857993964895604,7.534034153595567,0.8536417484283447,0.608855128288269,1.107263207435608
1772376776266525400,7.751525390625,0.09011563013512641,1.1822482749916612,7.847088880142569,0.8224305510520935,0.4060187041759491,0.9627211093902588
1772376776276474400,7.761474365234375,-0.059457201292738314,1.1959227262094616,8.019374953562021,0.7890390753746033,0.24505563080310822,0.8374840617179871
