time,seconds_elapsed,accel_x,accel_y,accel_z,gyro_x,gyro_y,gyro_z
1772376822503439000,0.069439208984375,-0.8726981955647468,0.32542978560402985,2.0051696093440055,-0.47423112392425537,0.7873522043228149,0.5428038239479065
1772376822513387300,0.07938720703125,-1.2291069106698036,0.07910203215703368,2.53142869515419,-0.6692211031913757,0.767308235168457,0.5725886225700378
1772376822523336200,0.089336181640625,-1.0141397795177995,-0.14864026328548788,3.312183935558796,-0.922577440738678,0.4528452754020691,0.6863102316856384
1772376822533285000,0.09928515625,-0.29819654543735086,-0.04509849413782358,4.011284975105524,-1.2552521228790283,0.02483639121055603,0.8499545454978943
1772376822543234300,0.109234375,0.7183354629792272,0.34017551931515333,4.560426923853159,-1.591994047164917,-0.35636043548583984,0.9844018220901489
1772376822553183200,0.119183349609375,1.1563025173522532,0.1731716240823269,4.420372556474804,-1.838106393814087,-0.6016812324523926,1.0446971654891968
1772376822563132200,0.129132080078125,0.9790642283529043,-0.20402619655132292,3.5076667601704594,-1.892470121383667,-0.657173216342926,0.930475115776062
1772376822573080300,0.139080322265625,0.44949214553721245,-0.4323559364929795,1.880931235256791,-1.7250449657440186,-0.5519583821296692,0.6453879475593567
1772376822583029200,0.149029296875,-0.4490218246117234,-0.7751872310139238,-0.13165829495489598,-1.3855839967727661,-0.43827560544013977,0.2922486960887909
1772376822592978200,0.158978271484375,-1.2190436356864869,-0.9492160564474761,-1.9621002829462288,-1.010794997215271,-0.39252275228500366,0.08759461343288422
1772376822602927000,0.168927001953125,-1.2515854305900633,-0.9232033710516989,-2.969076600575447,-0.7399299144744873,-0.4140746295452118,0.043478090316057205
1772376822612876300,0.178876220703125,-0.640201910528168,-0.5826497391391545,-2.9775702881544825,-0.609207034111023,-0.5055912137031555,0.07132783532142639
1772376822622825200,0.1888251953125,-0.15896467342302203,-0.11581862852722406,-2.2896055596500635,-0.5441601276397705,-0.6009979844093323,0.10652721673250198
1772376822632773000,0.198773193359375,0.09631978200487792,-0.013536796312779188,-1.7175123589038848,-0.5173050165176392,-0.7090032696723938,0.14369803667068481
1772376822642722000,0.20872216796875,0.26931835107523944,-0.21931728918552398,-1.465790345197916,-0.49250298738479614,-0.8125942945480347,0.16154660284519196
1772376822652671200,0.218671142578125,0.2898055145151913,-0.4344730017121881,-1.4549708450198173,-0.429523766040802,-0.8430715203285217,0.16418659687042236
1772376822662620400,0.228620361328125,0.19162516280282288,-0.6336324690099805,-1.9017507359236479,-0.3284260332584381,-0.7537186145782471,0.17270411550998688
1772376822672569300,0.2385693359375,-0.025526395149598827,-0.6915224209859967,-2.523188690075278,-0.22780033946037292,-0.6211879849433899,0.17947493493556976
1772376822682518300,0.248518310546875,-0.22443916224390267,-0.5708707462791354,-2.8950439806371926,-0.12365155667066574,-0.49614208936691284,0.18913204967975616
1772376822692466200,0.258466064453125,-0.29663088528951626,-0.45845228158421814,-2.917097407013178,-0.036785099655389786,-0.4844875633716583,0.1913190335035324
1772376822702415000,0.2684150390625,-0.2387646247163415,-0.5798621542472392,-2.7191519916802642,-0.008907882496714592,-0.6404678225517273,0.17748482525348663
1772376822712364300,0.2783642578125,-0.036237525882665066,-0.7296214116252958,-2.346466680034995,0.08543326705694199,-0.8732587695121765,0.14076809585094452
1772376822722313200,0.288313232421875,0.13987619779985397,-0.9750035547852516,-2.4862287864685055,0.2533160448074341,-1.0540521144866943,0.07995469123125076
1772376822732262100,0.29826220703125,0.022422625014558432,-1.2395384344436227,-3.572991172996163,0.43060240149497986,-1.1542037725448608,-0.03192364424467087
1772376822742211300,0.30821142578125,-0.20174875313863158,-1.2405036262139677,-4.701666117101907,0.5936089754104614,-1.1230528354644775,-0.18232516944408417
1772376822752159200,0.3181591796875,-0.42313663805313406,-1.304769469897449,-5.812247186112404,0.6582965850830078,-0.9712260365486145,-0.3259851336479187
1772376822762108400,0.3281083984375,-0.39729887083284554,-1.3707437249340115,-6.392316772565246,0.5182701349258423,-0.7980024218559265,-0.412244588136673
1772376822772057300,0.338057373046875,-0.21321298096105454,-1.140923015782237,-6.023059681802987,0.22942984104156494,-0.660195529460907,-0.4301133155822754
1772376822782006300,0.34800634765625,0.07525580505765975,-0.7573917543433606,-5.339608046808839,-0.12475167214870453,-0.603558361530304,-0.4288376569747925
1772376822791955200,0.357955078125,0.19572803154438734,-0.5295345272842794,-5.075471957209706,-0.44868072867393494,-0.5828839540481567,-0.42736974358558655
1772376822801904000,0.367904052734375,0.07267711367607116,-0.26586364404410123,-5.294800936833024,-0.6977999210357666,-0.54062819480896,-0.4173072874546051
1772376822811852300,0.377852294921875,-0.1550814022488892,0.11569748636558651,-5.7761868616938585,-0.9093795418739319,-0.5441113114356995,-0.3216207027435303
1772376822821801200,0.38780126953125,-0.19158530571646987,0.5533525521799921,-6.0449395051777355,-0.9887354969978333,-0.3834441602230072,-0.17016196250915527
1772376822831750100,0.397750244140625,0.06864858881235122,0.7910365420527756,-5.7875891301959745,-0.8081622123718262,-0.1439969539642334,-0.06651067733764648
1772376822841699000,0.407698974609375,-0.12577756635323167,1.027320382804051,-5.925139990320801,-0.39147546887397766,0.07769918441772461,0.021477527916431427
1772376822851648300,0.417648193359375,-0.3760837219119072,1.16017336743623,-5.81417493930459,0.2085762619972229,0.35626423358917236,0.11957293748855591
1772376822861597200,0.42759716796875,-0.3617349516291171,1.2276917831748724,-5.275287258067727,0.8252874612808228,0.7172946333885193,0.16771571338176727
1772376822871545300,0.43754541015625,-0.4181641103375703,1.1964480652578173,-4.209347879338265,1.243153691291809,0.9398376941680908,0.2703198194503784
1772376822881494300,0.447494384765625,-0.069708326998353,0.8749052771549671,-2.257265132537484,1.4310270547866821,0.8987963199615479,0.2635148763656616
1772376822891443200,0.457443115234375,-0.25317338155806063,0.5978270692005753,0.7042226203441619,1.4296001195907593,0.8433434367179871,0.18052038550376892
1772376822901392100,0.46739208984375,-0.7419390414066612,0.9134825528305024,3.4352672943919895,1.2812308073043823,0.818783700466156,0.15623444318771362
1772376822911341300,0.47734130859375,-0.44488574772030115,1.1420433981142937,5.735573696276545,1.0727654695510864,0.7988640666007996,0.17139022052288055
1772376822921290200,0.487290283203125,0.07889799748491495,1.2127836985088885,7.462063726884126,0.8631517291069031,0.743973970413208,0.18530933558940887
1772376822931238100,0.497238037109375,0.49347011121250683,1.3193800329215823,8.497438456001877,0.6844858527183533,0.6792532801628113,0.22945629060268402
1772376822941187000,0.50718701171875,0.9000717940501868,1.4230411906652152,9.108867057314514,0.5359745621681213,0.6448177695274353,0.2897529900074005
1772376822951136300,0.51713623046875,1.2251355958860366,1.5071376701086758,9.489697096970676,0.42252153158187866,0.6351880431175232,0.34912577271461487
1772376822961085400,0.52708544921875,1.381733320982009,1.5562342939719558,9.77658453208208,0.3254091143608093,0.615532398223877,0.39414939284324646
1772376822971034400,0.537034423828125,1.3922292882941663,1.5435621516644953,10.173311229050158,0.2167329639196396,0.6066944003105164,0.4118700921535492
1772376822980983300,0.5469833984375,1.2996955276340245,1.3623413689002395,10.69006598893404,0.0950576588511467,0.569337785243988,0.3957122266292572
1772376822990931200,0.55693115234375,1.1117380570258946,1.1653935863025486,11.272018320393562,-0.05499042570590973,0.4804944694042206,0.34286314249038696
1772376823000880000,0.566880126953125,0.7359377551652491,1.0996649765901267,11.817377243471144,-0.2963721752166748,0.3123634159564972,0.2338045835494995
1772376823010829300,0.576829345703125,0.24729935669181868,1.093337381003797,12.424998269194363,-0.6401844024658203,0.11600536853075027,0.09908431023359299
1772376823020778200,0.5867783203125,-0.20479849609807133,1.0632764431305228,13.012689436566829,-1.065032958984375,-0.0839051604270935,-0.03165360167622566
1772376823030727200,0.59672705078125,-0.4457601924672723,1.0404901724353433,13.124379879248142,-1.4711612462997437,-0.3053398132324219,-0.1296113133430481
1772376823040675000,0.606675048828125,-0.4489847805369645,1.109132039245963,12.355192327040433,-1.817446231842041,-0.538798987865448,-0.1603069007396698
1772376823050624300,0.616624267578125,-0.24078166362717746,1.2743963973350823,10.660645833182334,-2.1265084743499756,-0.7278176546096802,-0.12685465812683105
1772376823060573400,0.626573486328125,-0.04739902616515755,1.576161229713261,8.56828309355378,-2.3952887058258057,-0.8874217867851257,-0.08769934624433517
1772376823070522400,0.6365224609375,-0.11310513178482651,1.8409367862597106,6.09329232493639,-2.5468873977661133,-0.9717922806739807,-0.07290974259376526
1772376823080471300,0.64647119140625,-0.4365273038934916,1.9312340200394391,2.8982652807712554,-2.507575273513794,-0.9433144330978394,-0.041234154254198074
1772376823090420200,0.656420166015625,-0.7562988445401191,1.9742016396284103,-1.1443261022239923,-2.3018722534179688,-0.8888058662414551,0.007471335586160421
1772376823100369200,0.666369140625,-0.86901804574728,1.9658201802521942,-4.955798699080944,-1.9573968648910522,-0.798495888710022,0.03535017743706703
1772376823110317300,0.6763173828125,-1.017967155786231,1.7188878850407898,-8.536593239304423,-1.5848674774169922,-0.7452550530433655,0.03579838573932648
1772376823120266200,0.686266357421875,-0.9555566576458513,1.1559347069531678,-11.142972253763675,-1.2411352396011353,-0.6656251549720764,0.006867546588182449
1772376823130215200,0.696215087890625,-0.8185802364081144,0.516087747342512,-13.007203114110231,-0.9209984540939331,-0.5824548602104187,0.00795198604464531
1772376823140164000,0.7061640625,-0.5364331276915967,0.18760832837689667,-14.367611176860331,-0.6981102228164673,-0.47988325357437134,0.04369393736124039
1772376823150113300,0.71611328125,-0.3171762634564191,0.23066914267465471,-15.154245538431406,-0.5777236223220825,-0.3394973874092102,0.07947111129760742
1772376823160062200,0.726062255859375,-0.33450171146243807,0.3332894861284643,-15.350034652513264,-0.5523725152015686,-0.2914122939109802,0.14672456681728363
1772376823170010400,0.73601025390625,-0.5379136485729367,0.31595322446748614,-15.543839899301528,-0.4074912667274475,-0.028354555368423462,0.13220448791980743
1772376823179959300,0.745959228515625,-0.5340991317860782,0.28759514498934147,-15.366432829606532,-0.17098119854927063,0.05535630136728287,0.1126227155327797
1772376823189908200,0.755908203125,-1.3292229431524871,0.8820795526985079,-15.94561218922138,0.20465153455734253,0.18775881826877594,0.17944781482219696
1772376823199857200,0.765857177734375,-1.2224834739420563,0.885603196780011,-15.851121887665986,0.6845492124557495,0.3382613956928253,0.22344531118869781
1772376823209806000,0.77580615234375,-1.3128741581588983,0.6536695140622556,-15.39329277948141,1.2142668962478638,0.47750478982925415,0.2612108290195465
1772376823219754200,0.785754150390625,-1.6307289784640073,0.5610866900959983,-13.971424578118324,1.6707024574279785,0.588714063167572,0.2879880964756012
1772376823229703200,0.795703125,-1.647290529425442,0.3033659839645028,-11.374103899383543,1.9529842138290405,0.6483273506164551,0.26707613468170166
1772376823239652000,0.805652099609375,-1.703360499432683,0.009541589196771384,-7.952662885770201,2.0445613861083984,0.7042051553726196,0.20895874500274658
1772376823249601000,0.81560107421875,-1.7811771679542958,-0.2173711600864306,-4.337299136468768,1.992599606513977,0.7477811574935913,0.14389079809188843
1772376823259550200,0.82555029296875,-1.656044183114916,-0.2671040908255614,-1.1707628582507372,1.8777660131454468,0.7626776695251465,0.10801726579666138
1772376823269499400,0.83549951171875,-1.3082616959273814,-0.04854947484191507,1.391348559936881,1.7595731019973755,0.7584711909294128,0.11588957160711288
1772376823279447300,0.845447265625,-0.8302246431030332,0.3138427351195365,3.2912685733020304,1.7179632186889648,0.7190336585044861,0.1715000569820404
1772376823289396200,0.855396240234375,-0.36305637295860793,0.8290278345338999,4.643021035909652,1.7357187271118164,0.6635594964027405,0.25670042634010315
1772376823299345200,0.86534521484375,-0.09732146986071019,1.380023302193731,5.740436918398737,1.7622368335723877,0.6008671522140503,0.33315426111221313
1772376823309294300,0.87529443359375,0.007827661418356,1.7622865895234048,6.943165525230765,1.740781307220459,0.5512199401855469,0.36669331789016724
1772376823319243300,0.8852431640625,-0.06656101454910822,1.8335681571878493,8.335869591429828,1.6792453527450562,0.5289083123207092,0.35089603066444397
1772376823329192200,0.895192138671875,-0.23856550368135793,1.7411134531132877,9.670210900509357,1.5554957389831543,0.525553286075592,0.32108354568481445
1772376823339140000,0.90514013671875,-0.2675012551832944,1.6176754356235266,10.88717495344281,1.3563811779022217,0.476438969373703,0.258035272359848
1772376823349089000,0.915089111328125,-0.23991120093557983,1.51440809950307,12.224528303819895,1.1325418949127197,0.41675859689712524,0.18064644932746887
1772376823359038500,0.92503857421875,-0.18829022796014322,1.489223827755451,13.244157766795158,0.8909282088279724,0.24023154377937317,0.0753738060593605
1772376823368987400,0.9349873046875,-0.10381309690233319,1.4333371053606272,13.995759393429756,0.630195677280426,-0.026440883055329323,-0.09418407082557678
1772376823378936300,0.944936279296875,-0.2674377980256453,1.4883375464402138,14.504305127894877,0.3219650983810425,-0.2082151174545288,-0.21929720044136047
1772376823388885200,0.95488525390625,-0.15267624080330133,1.5584581075012682,14.738165321695803,-0.11363644897937775,-0.2542409300804138,-0.22543472051620483
1772376823398833200,0.964833251953125,0.6201203687470406,1.725315872261673,15.027391428887844,-0.6382316946983337,-0.3446235656738281,-0.10943324863910675
1772376823408782300,0.9747822265625,1.4835134872846305,2.0498482706345618,15.080688134789465,-1.1470855474472046,-0.5133318901062012,0.018212059512734413
1772376823418731300,0.984731201171875,1.6865004039160907,2.2122122311070562,14.056117123758792,-1.5983909368515015,-0.627168595790863,0.09625078737735748
1772376823428680200,0.99468017578125,1.1621673177324234,2.0917029605455695,11.889323704785108,-1.9548841714859009,-0.6537482738494873,0.12438948452472687
1772376823438629000,1.004629150390625,0.4972773214757442,1.6990306535348296,9.062543697556853,-2.1913669109344482,-0.6063166260719299,0.13140639662742615
1772376823448578000,1.014578125,0.10230733198188245,1.109148698119819,5.570963564312458,-2.3063418865203857,-0.5721448063850403,0.12210611253976822
1772376823458526200,1.024526123046875,-0.1821214213984087,0.7257874594856053,1.9021791904687881,-2.229799509048462,-0.5383703112602234,0.11519207805395126
1772376823468475400,1.034475341796875,-0.3031724341537803,0.5436377253081649,-2.1374270392358303,-2.0343663692474365,-0.5373958349227905,0.11441603302955627
1772376823478424300,1.04442431640625,-0.2586144766334444,0.2893963491924107,-6.234206524014472,-1.7888879776000977,-0.5448980331420898,0.08214850723743439
1772376823488373200,1.054373291015625,-0.28593280126769094,0.15706906893476844,-9.819473241215944,-1.4855637550354004,-0.5260301232337952,0.015446970239281654
1772376823498322200,1.064322265625,-0.5118110564040019,0.13588902785982937,-13.07266605862379,-1.109017014503479,-0.3405907154083252,-0.04288211837410927
1772376823508271000,1.07427099609375,-0.576779312735796,0.09703859779872,-16.135717412447928,-0.7613110542297363,-0.18707013130187988,-0.06762820482254028
1772376823518219300,1.08421923828125,-0.3411802759109065,-0.0204879488912411,-17.960629823362826,-0.43867647647857666,-0.08282089978456497,-0.06651057302951813
1772376823528168200,1.094168212890625,-0.07621803768593817,0.1258276251731906,-18.779224672818184,-0.17666485905647278,0.013757036998867989,-0.0198298878967762
1772376823538117000,1.1041171875,0.09749942024350165,0.49080611616764214,-18.734162711298463,0.0649661049246788,0.15915337204933167,0.06701090186834335
1772376823548066000,1.114066162109375,0.030297157781943678,0.7834389265306293,-18.160613466525078,0.30786794424057007,0.3522016704082489,0.16188867390155792
1772376823558015200,1.12401513671875,-0.3536770981840789,0.970835475320369,-17.274508676898478,0.5883417129516602,0.5347532629966736,0.22429810464382172
1772376823567964400,1.13396435546875,-0.9212490221135318,0.9245375422649085,-15.920190163195132,0.8944920301437378,0.6976507902145386,0.2323046326637268
1772376823577912300,1.143912353515625,-1.569901438666135,0.6459419885501265,-14.092035993880033,1.1975091695785522,0.7925684452056885,0.16090178489685059
1772376823587861200,1.153861328125,-2.1954390832215545,0.13337839674577115,-11.544328364098071,1.4568889141082764,0.8428350687026978,0.03196857124567032
1772376823597810200,1.16381005859375,-2.69260242292881,-0.24563166094161568,-8.434934361293912,1.6528621912002563,0.8870382905006409,-0.0840301513671875
1772376823607759400,1.17375927734375,-2.6883327827855945,-0.4197366203512996,-5.050633284029364,1.7448416948318481,0.8795042634010315,-0.16349276900291443
1772376823617708300,1.183708251953125,-2.2614003326460717,-0.3937462929178029,-1.594223832887411,1.7315887212753296,0.8383510112762451,-0.20354466140270233
1772376823627656200,1.19365625,-1.717498914900422,-0.07112316223233937,1.7712094622999428,1.6465798616409302,0.7806975841522217,-0.1950923204421997
1772376823637605000,1.203605224609375,-1.1027611890397966,0.27087358116060495,4.696953117105364,1.5275510549545288,0.7157074809074402,-0.1413094401359558
1772376823647554000,1.213553955078125,-0.45731896670535205,0.5841456037200987,6.989218251353502,1.4243186712265015,0.6479697227478027,-0.03759690001606941
1772376823657503200,1.223503173828125,0.15159984374344349,0.903237418474257,8.675117912897466,1.332513689994812,0.6058074831962585,0.09382859617471695
1772376823667452400,1.233452392578125,0.5444146279647946,1.1864395892016588,9.952593425416946,1.2342145442962646,0.5930717587471008,0.20752905309200287
1772376823677401300,1.2434013671875,0.5796916930511593,1.3179009002797304,11.106508609241246,1.124167561531067,0.562458872795105,0.30316606163978577
1772376823687349200,1.253349365234375,0.45913628179300575,1.3126456101000308,12.15299334591627,1.0029326677322388,0.4607628285884857,0.3443654179573059
1772376823697298200,1.263298095703125,0.3467905535407364,1.290259590768814,13.121945930099487,0.8338462710380554,0.2838180959224701,0.31992802023887634
1772376823707247400,1.273247314453125,0.11957692161481827,1.156902675202489,14.170496367132662,0.585663378238678,0.08255316317081451,0.22926069796085358
1772376823717196300,1.2831962890625,-0.2503765539137646,1.05743020132035,15.187245306235551,0.24741767346858978,-0.0836682990193367,0.08545879274606705
1772376823727145200,1.293145263671875,-0.6326338864266872,1.1444259093366562,15.839935307741165,-0.11670355498790741,-0.2629341781139374,-0.06869828701019287
1772376823737094100,1.30309423828125,-0.8453188249256461,1.3745913402728736,15.879622005963325,-0.494141161441803,-0.4746357798576355,-0.1901819407939911
1772376823747042300,1.313042236328125,-0.6650523472115397,1.5982580568395555,15.361658454811572,-0.8116751909255981,-0.6715840101242065,-0.240118607878685
1772376823756991200,1.3229912109375,-0.21660954633047802,1.8582181759282945,14.091398865020274,-1.0487112998962402,-0.8137355446815491,-0.22124753892421722
1772376823766940200,1.332940185546875,0.24905252050207927,2.2427928089402616,11.98346563129425,-1.2236328125,-0.8684467077255249,-0.16164253652095795
1772376823776889300,1.342889404296875,0.5423404885718599,2.4235928820744155,9.529856088879704,-1.3664813041687012,-0.8570742011070251,-0.09213580191135406
1772376823786838300,1.35283837890625,0.5998918562432751,2.383077185682207,7.0864037833422415,-1.4467524290084839,-0.8567298650741577,-0.047005873173475266
1772376823796787200,1.362787109375,0.4417626107310876,2.177754227318615,4.514667627719044,-1.4909363985061646,-0.9002866744995117,-0.04017520323395729
1772376823806735400,1.3727353515625,0.15071058501983062,1.7896422139607369,1.8242840498834847,-1.4850934743881226,-0.9672515988349915,-0.06929261237382889
1772376823816684300,1.382684326171875,-0.1546175110641867,1.2792603501096367,-0.8765911113500594,-1.4285951852798462,-1.021693229675293,-0.11764269322156906
1772376823826633200,1.39263330078125,-0.17648301365263758,0.654857335607335,-3.7908138397097586,-1.353157639503479,-1.041489839553833,-0.15523986518383026
1772376823836582100,1.40258203125,-0.11079502821154892,0.09557349368222057,-6.581676145860553,-1.3050330877304077,-0.8873380422592163,-0.17038695514202118
1772376823846531000,1.412531005859375,-0.09721103175617754,-0.3833856424231082,-9.20154709457755,-1.3194701671600342,-0.6363111734390259,-0.17902465164661407
1772376823856479200,1.422479248046875,-0.10987484462670981,-0.7336918759346008,-11.574156516128777,-1.2616065740585327,-0.3894039988517761,-0.16980643570423126
1772376823866428200,1.43242822265625,-0.24120883953068403,-0.8134764104630797,-13.690406327301263,-1.0944948196411133,-0.1918555200099945,-0.14286324381828308
1772376823876377300,1.44237744140625,-0.26547311035655435,-0.6331800490673631,-16.015081446766853,-0.7839590311050415,-0.06424218416213989,-0.09164512157440186
1772376823886326300,1.452326171875,-0.32341588849835096,-0.2740449229394086,-17.784634958553312,-0.370696097612381,-0.029487665742635727,-0.018724845722317696
1772376823896275200,1.462275146484375,-0.32805027030073103,0.03135300524411723,-18.88447251523137,0.07343710958957672,-0.014919511042535305,0.032788895070552826
1772376823906224000,1.47222412109375,-0.52235791365318,0.0645972675949335,-18.930512966394424,0.47545990347862244,0.03387732058763504,0.044876717031002045
1772376823916172300,1.48217236328125,-1.0912396780721842,0.014552530960272998,-17.943337327778337,0.7995114326477051,0.16866081953048706,0.04846883565187454
1772376823926121200,1.492121337890625,-1.6055550819799302,-0.11018347218446432,-16.03444081175327,1.0674670934677124,0.3504524230957031,0.05567535012960434
1772376823936070100,1.502070068359375,-1.836773529100418,-0.26930538199581205,-13.586388318943976,1.3248310089111328,0.514728844165802,0.05900846794247627
1772376823946019000,1.51201904296875,-1.8826205035179853,-0.4279707071460783,-10.962703364896774,1.5537456274032593,0.6062217354774475,0.03980547934770584
1772376823955968300,1.52196826171875,-1.7536752669140696,-0.5961011952560394,-8.102719591724872,1.7354055643081665,0.6162972450256348,0.018829593434929848
1772376823965917400,1.53191748046875,-1.5439637182027102,-0.6670598876416682,-5.035547943100333,1.828064203262329,0.5603010654449463,-0.00411300640553236
1772376823975865000,1.541864990234375,-1.2343781290709972,-0.5852305494125932,-1.924647042864561,1.851204514503479,0.46353691816329956,-0.036165427416563034
1772376823985814300,1.551814208984375,-0.930253727954626,-0.379741367636621,0.907526932361722,1.8120133876800537,0.36288297176361084,-0.06010804325342178
1772376823995763200,1.56176318359375,-0.7158026565659791,-0.06244315830096602,3.314239114522934,1.7336859703063965,0.2917419373989105,-0.08320717513561249
1772376824005712400,1.57171240234375,-0.566221751429513,0.33073563692718744,5.340536267569661,1.6284503936767578,0.2752878665924072,-0.0943162813782692
1772376824015661300,1.581661376953125,-0.43677609102278947,0.7657140308782457,6.930172188144922,1.506479024887085,0.2998049557209015,-0.09964951872825623
1772376824025610200,1.5916103515625,-0.27720762475403027,1.1473634240932762,8.244601174530386,1.3711518049240112,0.3216649889945984,-0.07963719964027405
1772376824035558100,1.60155810546875,-0.08764842717084102,1.3873007458508013,9.378662487849592,1.2105567455291748,0.32455071806907654,-0.0644911527633667
1772376824045507300,1.61150732421875,0.08187533279526978,1.5658587391465901,10.446427912962436,1.0372411012649536,0.2877807021141052,-0.06343574076890945
1772376824055456500,1.62145654296875,0.1311019579800777,1.5973814201354979,11.339973666244745,0.828704297542572,0.2436460703611374,-0.09644501656293869
1772376824065405400,1.631405517578125,0.03923632410615682,1.5576543899029491,12.038756725883482,0.5670133233070374,0.1872270107269287,-0.16716179251670837
1772376824075354400,1.641354248046875,-0.21316806410709394,1.6245236940830945,12.64735156507492,0.2653883993625641,0.13210071623325348,-0.2680850625038147
1772376824085302300,1.65130224609375,-0.44720439992621536,1.7793626658782362,13.00364454484582,-0.08149363845586777,0.09785912930965424,-0.3520422875881195
1772376824095251200,1.661251220703125,-0.566313923224993,1.8606968410015106,12.970512675094604,-0.4779943525791168,0.05982774868607521,-0.41737231612205505
1772376824105200400,1.671200439453125,-0.35939686407037075,2.1194876240499316,12.619161243379116,-0.8518555164337158,0.058283913880586624,-0.4420342743396759
1772376824115149300,1.6811494140625,-0.2001368609625846,2.155198842769861,11.81559795883894,-1.153554081916809,0.07034137845039368,-0.4459395110607147
1772376824125098500,1.691098388671875,0.047984287840360774,2.1891629255615173,10.334449885511397,-1.3916889429092407,0.08286462724208832,-0.433358758687973
1772376824135047400,1.70104736328125,0.10287804454192519,2.14851936500594,8.67369752470553,-1.5549771785736084,0.08110621571540833,-0.4196358919143677
1772376824144995300,1.710995361328125,0.06243863738947548,2.187655005216598,6.8678586475729935,-1.6132583618164062,0.004545663483440876,-0.4106607735157013
1772376824154944500,1.720944580078125,-0.037380896364664656,2.2192716480992734,4.808424948599934,-1.5569114685058594,-0.13969361782073975,-0.40543895959854126
1772376824164893400,1.7308935546875,-0.0441761870945571,1.8856991803109644,2.497453360316157,-1.4439319372177124,-0.35174140334129333,-0.3920621871948242
1772376824174842400,1.74084228515625,0.15154833275191484,1.3940537272423505,0.2693395034611225,-1.3106356859207153,-0.5375385880470276,-0.38140127062797546
1772376824184791300,1.750791259765625,0.2793280327077955,0.9803871475197374,-1.8001222530514,-1.1403331756591797,-0.6294119954109192,-0.3681586980819702
1772376824194740200,1.760740234375,0.27219421703880653,0.5255722725898027,-4.063387502786517,-0.9909968972206116,-0.6490774750709534,-0.34177955985069275
1772376824204688400,1.7706884765625,0.3947084890134632,-0.028137422464787957,-6.137517835631966,-0.8912751078605652,-0.5722524523735046,-0.2886074185371399
1772376824214637300,1.78063720703125,0.6744927410561591,-0.6287551452971994,-7.75980573348701,-0.8113704919815063,-0.46673282980918884,-0.23849594593048096
1772376824224586200,1.790586181640625,0.8396917788241058,-1.1259613012328744,-9.110855600783228,-0.780324399471283,-0.4197850227355957,-0.18971270322799683
1772376824234535400,1.800535400390625,0.8511973615702241,-1.48084266064018,-10.241155515742301,-0.7630157470703125,-0.3981768786907196,-0.1603584587574005
1772376824244484400,1.810484375,0.7785738047122955,-1.738359039838612,-11.234414858186245,-0.7168972492218018,-0.3968160152435303,-0.1531333029270172
1772376824254432500,1.8204326171875,0.5748598159153014,-1.8315138550065457,-12.381817299115657,-0.6274884939193726,-0.3725281059741974,-0.16034092009067535
1772376824264381400,1.83038134765625,0.16754055939279497,-1.5444633382879196,-13.476491189420223,-0.4591865539550781,-0.27694937586784363,-0.15979497134685516
1772376824274330400,1.840330322265625,-0.29838892620429397,-0.8327662904098629,-14.391338089406489,-0.17325761914253235,-0.07762693613767624,-0.13613732159137726
1772376824284279300,1.850279296875,-0.6208027980532497,-0.04166943300459534,-15.063376934504507,0.26182863116264343,0.18853017687797546,-0.07485612481832504
1772376824294228200,1.860228271484375,-0.7631916727937758,0.546469222407043,-15.194738876861333,0.781730055809021,0.3885042667388916,0.013490951620042324
1772376824304177400,1.870177490234375,-0.6267123874232172,0.8673036430448293,-14.277946688026189,1.27364182472229,0.49847549200057983,0.08968506008386612
1772376824314125300,1.880125244140625,-0.40879367645662273,0.8669182969890534,-12.020101125252246,1.6598211526870728,0.5262965559959412,0.14398795366287231
1772376824324074200,1.89007421875,-0.28446082901898767,0.6647313716288655,-8.757495751854776,1.9320611953735352,0.5031909942626953,0.17809240520000458
1772376824334023400,1.9000234375,-0.22483417117716742,0.5594081989571452,-5.290028900125622,2.095428466796875,0.42054057121276855,0.19671809673309326
1772376824343972400,1.909972412109375,-0.17642655249135566,0.6036971302777528,-2.0574919172555206,2.1750543117523193,0.3091471791267395,0.19749175012111664
1772376824353921500,1.919921630859375,-0.15632614161297678,0.7788131664261222,0.8623305308073759,2.191488027572632,0.22739540040493011,0.19104547798633575
1772376824363870500,1.929870361328125,-0.19689930381346493,1.1540247816786169,3.3389486083656545,2.1496922969818115,0.21469105780124664,0.18886356055736542
1772376824373818400,1.939818359375,-0.2224542172380723,1.6458973215013741,5.404121727773547,2.0704667568206787,0.27339500188827515,0.21688072383403778
1772376824383767300,1.949767333984375,-0.12283528408994897,2.061037773168832,7.151219662123918,1.9571512937545776,0.33842751383781433,0.27010053396224976
1772376824393716200,1.95971630859375,0.10485545469527133,2.347219836489856,8.670070566380023,1.8035823106765747,0.3816535770893097,0.32897114753723145
1772376824403665400,1.96966552734375,0.3304093275822699,2.4389266448065636,10.018563734930753,1.6146979331970215,0.3700438141822815,0.3543987572193146
1772376824413614300,1.9796142578125,0.3832586550425738,2.348460191939771,11.257103659856318,1.399621605873108,0.2018861472606659,0.18871141970157623
1772376824423562200,1.989562255859375,-0.5385042348772288,2.2613711065515876,12.356326299506424,1.224196195602417,0.2885003685951233,0.10158265382051468
1772376824433511200,1.99951123046875,-0.6552360327266157,2.157060252727568,12.81928634083867,0.9403511881828308,0.26446533203125,0.039176199585199356
1772376824443460400,2.00946044921875,0.15575678075980395,2.0729165731415153,13.439434839701653,0.6267586350440979,0.02457098662853241,-0.12936460971832275
1772376824453409500,2.019409423828125,-0.2845763999563642,2.0736656379431486,14.175794473540781,0.29841646552085876,-0.05310750752687454,-0.35388100147247314
1772376824463358500,2.0293583984375,-0.8325405918952077,2.2038833787009118,14.097959538710116,-0.15561683475971222,-0.06390555948019028,-0.44865676760673523
1772376824473307400,2.039307373046875,-0.18867672479338943,2.4917940193802117,14.188231930309533,-0.7058234810829163,-0.08925243467092514,-0.46357136964797974
1772376824483255300,2.04925537109375,0.48697526930049057,2.5266701024502516,14.246898054289817,-1.279727578163147,-0.20408180356025696,-0.4199219048023224
1772376824493204500,2.05920458984375,0.9459754670910536,2.4705928259193897,13.665043922507762,-1.8334474563598633,-0.40835076570510864,-0.35803136229515076
1772376824503153400,2.0691533203125,1.1101515184868127,2.4569208589196205,12.455827122700214,-2.298880100250244,-0.6668640375137329,-0.27150365710258484
1772376824513102300,2.079102294921875,1.1320700664367527,2.4623627577126026,10.3928202414155,-2.5929312705993652,-0.9759395122528076,-0.16238559782505035
1772376824523051300,2.08905126953125,1.0464091141555458,2.418301936059445,7.391495568186044,-2.6953647136688232,-1.11861252784729,-0.09111619740724564
1772376824532999200,2.098999267578125,0.6391891532890498,2.063784149267524,3.5711405766934154,-2.6729984283447266,-1.1007304191589355,-0.0870685800909996
1772376824542948400,2.1089482421875,-0.1978914931885898,1.6436013195186852,-0.24923253497779368,-2.539381504058838,-0.975570023059845,-0.1500837653875351
1772376824552897500,2.1188974609375,-1.1877490643650293,1.361510178773105,-3.9036505298167463,-2.3451244831085205,-0.7751717567443848,-0.26059451699256897
1772376824562846500,2.128846435546875,-2.0072525530979037,1.1417625353462992,-7.115866609191894,-2.1098785400390625,-0.5605760812759399,-0.37438875436782837
1772376824572795400,2.13879541015625,-2.2770938686013222,0.873254879599437,-9.848639714467526,-1.800822377204895,-0.37621375918388367,-0.4155105650424957
1772376824582744300,2.148744384765625,-1.774811432314664,0.48908736608363684,-12.208660872602461,-1.4918514490127563,-0.29721295833587646,-0.37135857343673706
1772376824592692500,2.1586923828125,-0.77938358672522,0.04461882086209953,-14.039530730617045,-1.2070165872573853,-0.2684146463871002,-0.2547469437122345
1772376824602641400,2.168641357421875,0.04176518499664962,-0.25377503724563866,-14.944097059607506,-0.9636921286582947,-0.19779187440872192,-0.10726744681596756
1772376824612590300,2.17859033203125,0.4754960631046444,-0.4397475445816293,-15.526513501447438,-0.7753757238388062,-0.07202016562223434,0.01873275451362133
1772376824622539300,2.188539306640625,0.2457938292333856,-0.6504877422209828,-15.616993982839583,-0.6208149194717407,0.12195383012294769,0.09226156771183014
1772376824632488200,2.19848828125,-0.35900698796994984,-0.8264282464947551,-15.296933176922797,-0.46368226408958435,0.36512696743011475,0.13100625574588776
1772376824642437400,2.208437255859375,-1.0145283404439687,-0.9853492999717592,-14.648955590891838,-0.23292946815490723,0.574615478515625,0.14587627351284027
1772376824652385500,2.218385498046875,-1.4710150941088795,-1.0925377550587057,-13.843397917664051,0.07211782038211823,0.710609495639801,0.14189434051513672
1772376824662334500,2.22833447265625,-1.6923925306946037,-1.1392721798352896,-12.630153762036562,0.41262131929397583,0.7997066378593445,0.12588661909103394
1772376824672283400,2.238283447265625,-1.8477867982849479,-1.152286413578689,-10.921888539427519,0.7445318698883057,0.8458696007728577,0.08482563495635986
1772376824682232300,2.248232421875,-1.9153810557387767,-1.1571871912322937,-8.767133933293819,1.048771619796753,0.8024624586105347,0.02042480930685997
1772376824692181200,2.25818115234375,-1.9213168755285441,-1.0626105265676975,-6.3099301657795905,1.323654055595398,0.6664285063743591,-0.07156363129615784
1772376824702129400,2.26812939453125,-1.9380828630208968,-0.8703570392660797,-3.7647652062177657,1.5428484678268433,0.5248029232025146,-0.13489173352718353
1772376824712078300,2.278078369140625,-1.7422747519776225,-0.4786117839723825,-1.2391186015963553,1.69961678981781,0.4296181797981262,-0.1400940716266632
1772376824722027300,2.28802734375,-1.1908595976009964,0.062406114226207135,1.096768816757202,1.828596591949463,0.350173681974411,-0.0985647439956665
1772376824731976200,2.29797607421875,-0.6939511094376445,0.5595476074278354,3.0865766063183546,1.9033489227294922,0.28188464045524597,-0.025764405727386475
1772376824741925400,2.30792529296875,-0.26840291673075406,0.9395020332932472,4.958575178056955,1.8938816785812378,0.2538764476776123,0.05084967613220215
1772376824751874600,2.31787451171875,0.02567743469257839,1.1695774478584526,6.758831871142983,1.7930554151535034,0.25298815965652466,0.09666665643453598
1772376824761822500,2.327822509765625,0.06329358285153285,1.2874462869137524,8.439589493623375,1.616614818572998,0.26963722705841064,0.09924885630607605
1772376824771771400,2.337771484375,-0.12477745853313243,1.432159439883381,9.904475583457947,1.385666847229004,0.2987765073776245,0.0503193736076355
1772376824781720300,2.34772021484375,-0.3508481583684683,1.5748028008416295,11.096107626736163,1.116288661956787,0.3003893196582794,-0.03468526527285576
1772376824791669200,2.357669189453125,-0.4945466544028371,1.7013687410935758,12.074849783527851,0.8102880120277405,0.2872350215911865,-0.13995081186294556
1772376824801618400,2.367618408203125,-0.47976504566073414,1.861658379510045,12.901972807353735,0.44840383529663086,0.22533437609672546,-0.24342581629753113
1772376824811566300,2.37756640625,-0.31746348289996384,2.031997556645423,13.557131829321383,0.047476381063461304,0.13801223039627075,-0.31945765018463135
1772376824821515300,2.387515380859375,0.049433746863156554,2.1622825174205005,13.95992586350441,-0.3692076504230499,0.020924482494592667,-0.3343295156955719
1772376824831464200,2.397464111328125,0.5926144125862046,2.286029162468016,13.896582395362854,-0.773845374584198,-0.10185788571834564,-0.2944144904613495
1772376824841413400,2.407413330078125,1.082032873787731,2.4411123182825745,13.28902332895994,-1.1545534133911133,-0.23905915021896362,-0.23932728171348572
1772376824851362600,2.417362548828125,1.3179133213698864,2.5303365160033104,12.154651049995422,-1.4649133682250977,-0.3628899157047272,-0.18015970289707184
1772376824861311500,2.4273115234375,1.3015813413806259,2.486664839798212,10.48847607961893,-1.6815199851989746,-0.5297023057937622,-0.11656475812196732
1772376824871259400,2.43725927734375,1.2778649502284825,2.3447810650356113,8.31692114533186,-1.8122323751449585,-0.6305391192436218,-0.07512856274843216
1772376824881208300,2.447208251953125,1.063220329029113,2.090214475553483,5.858199374470114,-1.9194777011871338,-0.6849868893623352,-0.0793246403336525
1772376824891157500,2.457157470703125,0.5777446506366133,1.7289480912841855,3.443441833019256,-2.0220212936401367,-0.7060897350311279,-0.12353819608688354
1772376824901106400,2.4671064453125,-0.02651093550780788,1.3543816420674324,1.0004512997746466,-2.0916085243225098,-0.6106209754943848,-0.16233059763908386
1772376824911055400,2.477055419921875,-0.4380706243453547,1.0103410448219627,-1.6935592363864183,-2.0813441276550293,-0.37596142292022705,-0.19550228118896484
1772376824921004300,2.48700439453125,-0.6500421904105693,0.8209045146372169,-4.745185525354743,-1.952280044555664,-0.07671612501144409,-0.20087173581123352
1772376824930952200,2.4969521484375,-0.6683570878453552,0.6771298115614801,-7.733902061423659,-1.6425819396972656,0.23933491110801697,-0.1495814472436905
1772376824940901400,2.5069013671875,-0.3118053475404158,0.4906352896453812,-10.55168160059452,-1.2068657875061035,0.46328413486480713,-0.029912831261754036
1772376824950850300,2.516850341796875,0.392527418647334,0.2338554445605725,-12.740606187355517,-0.767329216003418,0.5394489169120789,0.12303640693426132
1772376824960799500,2.526799560546875,1.0789982553321869,-0.1579498703572899,-13.554753994274138,-0.45628607273101807,0.45243149995803833,0.222701758146286
1772376824970748400,2.53674853515625,1.3699829696945844,-0.6073939389690757,-13.079909453880786,-0.3172067701816559,0.24202603101730347,0.2565271854400635
1772376824980696300,2.5466962890625,1.1811109415248036,-1.0298564040876925,-11.85636485351324,-0.29533103108406067,-0.0016633281484246254,0.21593208611011505
1772376824990645500,2.5566455078125,0.726502695082873,-1.3689536266468465,-10.752834287536144,-0.31341445446014404,-0.197234109044075,0.13112956285476685
1772376825000594400,2.566594482421875,0.12067681828127241,-1.4652246741391717,-10.243877049660682,-0.3367730677127838,-0.2218441218137741,0.049031492322683334
1772376825010543400,2.57654345703125,-0.4527508916048333,-1.2423223660737275,-10.184128391140698,-0.31277504563331604,-0.016236362978816032,0.004452838562428951
1772376825020492300,2.5864921875,-0.8813761536695063,-0.7496162249710411,-10.371101746082305,-0.2200528085231781,0.32142794132232666,0.031220270320773125
1772376825030441200,2.596441162109375,-0.9666644001808017,-0.2419183212406002,-10.363919141101837,-0.055384472012519836,0.6376267075538635,0.12422221153974533
1772376825040389400,2.606389404296875,-0.7535390975032001,0.011375385061767882,-9.65308440914154,0.17455391585826874,0.8288291096687317,0.23227837681770325
1772376825050337500,2.616337646484375,-0.5940154750231653,0.11673695808169432,-8.397530221050976,0.4446493089199066,0.8868768215179443,0.3126372694969177
1772376825060286500,2.626286376953125,-0.6186104756407439,0.11364197860788554,-6.687087654402852,0.7429510354995728,0.8328761458396912,0.34333768486976624
1772376825070235400,2.6362353515625,-0.8735572966121137,0.08990231617800891,-4.729626137173176,1.0438991785049438,0.706072211265564,0.30317822098731995
1772376825080184600,2.6461845703125,-1.296060532132536,0.04992927529513835,-2.6959230917841195,1.3214695453643799,0.5593528151512146,0.22555294632911682
1772376825090132500,2.656132568359375,-1.5414039507173,0.053957727093622086,-0.6049252107679843,1.5535002946853638,0.3875361979007721,0.13519755005836487
1772376825100081400,2.666081298828125,-1.526909269157797,0.16055121196210384,1.4528162973344325,1.6921095848083496,0.17110666632652283,0.02223849482834339
1772376825110030300,2.6760302734375,-1.5405045176595449,0.35566739521846175,3.5430461165875196,1.7510355710983276,0.05269426107406616,-0.07453341782093048
1772376825119979300,2.685979248046875,-1.3615779833123087,0.6225039759479463,5.457018620702624,1.7015571594238281,0.01808408834040165,-0.1394391804933548
1772376825129928700,2.6959287109375,-1.0127575313791632,0.8174654070340096,7.1279925157934425,1.5667821168899536,0.017182238399982452,-0.18661579489707947
1772376825139877600,2.705877685546875,-0.7104715246710925,1.0329064393080771,8.578314073702693,1.3623954057693481,0.03540438413619995,-0.2192528247833252
1772376825149825500,2.715825439453125,-0.47141905945669854,1.2356314901329577,9.883391878896951,1.0869683027267456,0.06996894627809525,-0.25301653146743774
1772376825159774500,2.7257744140625,-0.25909853382334114,1.3046550497375429,10.97375082861185,0.7547116279602051,0.11980388313531876,-0.2861417233943939
1772376825169723400,2.735723388671875,-0.07486757292505353,1.3412621943838894,11.777031204557417,0.38989952206611633,0.13492056727409363,-0.3207089304924011
1772376825179672600,2.745672607421875,0.037761867639422415,1.4237652671560643,12.305989612454175,0.021351607516407967,0.1015695333480835,-0.35214996337890625
1772376825189621500,2.75562158203125,0.18406718517132103,1.586619349233061,12.526790418195723,-0.3503205180168152,0.0004333239048719406,-0.35938987135887146
1772376825199569400,2.7655693359375,0.45959546026997267,1.7940093231290577,12.331480612063407,-0.6608690619468689,-0.15750651061534882,-0.3337433636188507
1772376825209518300,2.775518310546875,0.8033660084024071,2.042597130462527,11.606969236928224,-0.9260698556900024,-0.3528454601764679,-0.2826244831085205
1772376825219467500,2.785467529296875,1.1124600146248935,2.204512324254215,10.440816502821445,-1.1155383586883545,-0.5453799962997437,-0.19745047390460968
1772376825229416400,2.79541650390625,1.3900227181605993,2.292780974815786,8.857726058366895,-1.2144089937210083,-0.7387170791625977,-0.1015646755695343
1772376825239365600,2.80536572265625,1.5549305178970099,2.3330191694408655,6.923976256114244,-1.2011197805404663,-0.8570243120193481,-0.002263920148834586
1772376825249314600,2.815314453125,1.6130577126950025,2.148589653763175,4.725554357689619,-1.1281832456588745,-0.9119222164154053,0.07463318854570389
1772376825259262500,2.825262451171875,1.451683201651275,1.8241643690265714,2.570422734937072,-1.0503166913986206,-0.8915066719055176,0.13560600578784943
1772376825269211600,2.835211669921875,1.148021449610591,1.4660139248207211,0.5748597428500652,-1.008803129196167,-0.8297955393791199,0.21623806655406952
1772376825279160600,2.84516064453125,1.0261739892479032,1.1095176044974475,-1.093145365563035,-1.0309611558914185,-0.7793545126914978,0.2900393307209015
1772376825289109500,2.855109619140625,0.8506132780719547,0.6627950698040426,-2.461100774952769,-1.0610181093215942,-0.684150218963623,0.32398465275764465
1772376825299058400,2.865058349609375,0.5703418270342052,-0.08691668796334415,-4.002359325850009,-1.0291815996170044,-0.5836595296859741,0.2799024283885956
1772376825309006300,2.87500634765625,0.07085588046512566,-0.9538686314936726,-5.811010922315717,-0.9708279967308044,-0.5069464445114136,0.17426860332489014
1772376825318955500,2.88495556640625,-0.5231955335211008,-1.5421087379857896,-7.473137494084239,-0.8875507116317749,-0.48950138688087463,0.04288048669695854
1772376825328904400,2.894904541015625,-0.8055924522802234,-1.7836482342429458,-8.754175082999467,-0.7943943738937378,-0.5351698398590088,-0.09087792038917542
1772376825338853600,2.904853515625,-0.7762076601028441,-1.8625683339618144,-9.753558461281656,-0.7221976518630981,-0.602703869342804,-0.19985872507095337
1772376825348802600,2.914802490234375,-0.594909866579622,-1.8016618837088345,-10.378550893044471,-0.6664259433746338,-0.6409772634506226,-0.2678605020046234
1772376825358751500,2.92475146484375,-0.3101834819596261,-1.5464480823643505,-10.971356626951694,-0.5755301713943481,-0.6397846937179565,-0.27241185307502747
1772376825368699600,2.93469970703125,0.005781213749945164,-1.2145904556699096,-11.6804564979434,-0.429989755153656,-0.5682049989700317,-0.23181365430355072
1772376825378648600,2.944648681640625,0.16246632486842572,-0.712997462952137,-12.309727045416832,-0.23953460156917572,-0.4221838414669037,-0.15207675099372864
1772376825388597500,2.954597412109375,0.03325662864204496,-0.10803948242571204,-12.648602441918849,-0.019602520391345024,-0.20569027960300446,-0.06299442797899246
1772376825398546400,2.96454638671875,-0.2662983091343194,0.36638906104527413,-12.546848871362208,0.2731150984764099,0.03046445921063423,0.020523902028799057
1772376825408495400,2.974495361328125,-0.6946328811567276,0.7268399642132222,-12.01916238309741,0.6205329895019531,0.23091579973697662,0.10302570462226868
1772376825418443500,2.984443603515625,-1.011425259862095,0.9839866333164274,-10.907311732542514,0.9940440058708191,0.3976656496524811,0.16532956063747406
1772376825428392400,2.994392333984375,-1.0740923631120471,0.9577023644376546,-9.183899209684133,1.3457309007644653,0.5199065804481506,0.19335684180259705
1772376825438341400,3.00434130859375,-1.0885597913384437,0.6677434129264205,-7.02980452876389,1.6410763263702393,0.6220260262489319,0.19861605763435364
1772376825448290600,3.01429052734375,-1.1855103455275295,0.5632441238582134,-4.405280785804987,1.8346688747406006,0.6872124075889587,0.19641126692295074
1772376825458239500,3.024239501953125,-1.107387387535721,0.5978500116847455,-1.5335966379672288,1.9006239175796509,0.7401863932609558,0.18203206360340118
1772376825468188400,3.0341884765625,-1.0116725126214325,0.5969724981978536,1.3629343663573263,1.8622379302978516,0.7946042418479919,0.1668497622013092
1772376825478136600,3.044136474609375,-0.9425995609171688,0.6443667020574212,4.1369080815494055,1.7374478578567505,0.8155041933059692,0.16063393652439117
1772376825488085500,3.05408544921875,-0.8319532204613089,0.7350828919015825,6.419204779490828,1.5638587474822998,0.8141326308250427,0.1673697978258133
1772376825498034400,3.064034423828125,-0.6117366808811202,0.7779395984619856,8.252928857892751,1.3560380935668945,0.7615770101547241,0.18847668170928955
1772376825507983400,3.0739833984375,-0.3299766352534294,0.6758645408660173,9.70881272610426,1.1241029500961304,0.6626493334770203,0.18769681453704834
1772376825517932300,3.083932373046875,-0.24477184750819578,0.4878500063084066,10.842497607326507,0.8722511529922485,0.5283711552619934,0.158471018075943
1772376825527880400,3.09388037109375,-0.2969617246790789,0.48046574127599595,11.67466037888527,0.6293424963951111,0.3725658655166626,0.0913664773106575
1772376825537829400,3.103829345703125,-0.4140813710685819,0.5825619877904653,12.154959677553176,0.4280831217765808,0.19008181989192963,0.014554791152477264
1772376825547778300,3.1137783203125,-0.4184966667601838,0.7408949391812085,12.191024678146839,0.25495609641075134,0.0038612959906458855,-0.061260685324668884
1772376825557727500,3.1237275390625,-0.329054625037685,0.9344251684203744,12.014168228071927,0.056580692529678345,-0.17491403222084045,-0.11763900518417358
1772376825567676700,3.1336767578125,-0.15576743001798166,1.190158317463845,11.842370230430364,-0.16221371293067932,-0.318484902381897,-0.13226230442523956
1772376825577624600,3.14362451171875,0.20748669400243086,1.4667866627588868,11.542288382703065,-0.424688458442688,-0.42985615134239197,-0.09894775599241257
1772376825587573500,3.153573486328125,0.5952782615005969,1.6849841541342436,10.885492699444294,-0.6990670561790466,-0.47951051592826843,-0.039417847990989685
1772376825597522400,3.1635224609375,0.8424236880060285,1.8732403884932398,9.99010804029703,-0.9555577039718628,-0.5220076441764832,0.03835897147655487
1772376825607471400,3.173471435546875,1.011658191835135,1.932709353289008,8.78354555439055,-1.1672589778900146,-0.5447659492492676,0.12366747856140137
1772376825617420500,3.183420654296875,1.1668281491503119,1.8142837571337818,7.2076160876065485,-1.3394958972930908,-0.5605241060256958,0.1841265708208084
1772376825627369500,3.193369384765625,1.0859227938983589,1.6846756727069616,5.462840458723902,-1.448007583618164,-0.5313943028450012,0.19825609028339386
1772376825637317400,3.2033173828125,0.7891570849817245,1.3686325779989361,3.497074054485559,-1.5196335315704346,-0.4977668523788452,0.19301845133304596
1772376825647266300,3.213266357421875,0.48038025494962927,0.8065186272144317,1.3752958352804183,-1.5906012058258057,-0.485531747341156,0.14482934772968292
1772376825657215500,3.223215576171875,0.13263201709156855,0.5171445629190653,-0.5160878204077481,-1.600874662399292,-0.49098989367485046,0.10270372778177261
1772376825667164700,3.23316455078125,-0.057396615501120685,0.23534345462862402,-2.6827684266567227,-1.4926267862319946,-0.4887866973876953,0.09005939960479736
1772376825677113600,3.243113525390625,0.21793372587263582,-0.3676331428222358,-5.170601141190528,-1.274579405784607,-0.4845197796821594,0.10838647931814194
1772376825687062500,3.2530625,0.6508906969986855,-1.0537035820126532,-7.71321758531332,-1.039447546005249,-0.49843260645866394,0.12126709520816803
1772376825697010400,3.263010498046875,0.7874480891067535,-1.596389924880117,-9.661921211069822,-0.8637915849685669,-0.5252439975738525,0.0916396975517273
1772376825706959400,3.27295947265625,0.5855072109295055,-1.8405922106057404,-10.916657068514823,-0.7766880393028259,-0.5639142394065857,0.033161062747240067
1772376825716908500,3.282908447265625,0.26527667446900155,-1.9027007301248609,-11.817400624346732,-0.7219060063362122,-0.5810271501541138,-0.03413941711187363
1772376825726857500,3.292857421875,-0.09087412035223096,-1.714292081683129,-12.747926739501953,-0.649274468421936,-0.5237520337104797,-0.08317118883132935
1772376825736806400,3.302806396484375,-0.4967121618736535,-1.1097775706078856,-13.83595812305212,-0.48893511295318604,-0.32020077109336853,-0.10075763612985611
1772376825746754300,3.31275439453125,-1.0502538799501955,-0.16358115424253045,-14.951123012721538,-0.18813718855381012,-0.016478650271892548,-0.06413111090660095
1772376825756703500,3.322703369140625,-1.4155444051690398,0.7975760268241167,-15.825137551581859,0.3012905716896057,0.31632405519485474,0.039295680820941925
1772376825766652700,3.332652587890625,-1.4097987011238933,1.4528222886838018,-16.053642355829478,0.8906810879707336,0.5540050268173218,0.1759641468524933
1772376825776601600,3.3426015625,-1.1921647619154303,1.647539681880921,-15.238485664129255,1.456545352935791,0.6693374514579773,0.27438393235206604
1772376825786550500,3.352550537109375,-1.062364004460722,1.4012006763875484,-13.013912256360053,1.9273051023483276,0.6931654810905457,0.31871840357780457
1772376825796498400,3.36249853515625,-1.1861031968541442,0.9469139169849454,-9.83175404611826,2.239421844482422,0.6685287952423096,0.29730045795440674
1772376825806447600,3.372447509765625,-1.507480492196977,0.6477783371318131,-6.196182206046581,2.405949831008911,0.6115501523017883,0.23216523230075836
1772376825816396500,3.382396484375,-1.7389198885917663,0.37657282060310243,-2.677835061907768,2.440859079360962,0.551425039768219,0.15165334939956665
1772376825826345500,3.392345458984375,-1.7328009673200546,0.22648228544406593,0.4159177196502685,2.392822742462158,0.5000101327896118,0.09698212146759033
1772376825836294400,3.40229443359375,-1.5486106672257185,0.34525092288330195,2.989658200833201,2.295349359512329,0.4768403470516205,0.08020154386758804
1772376825846243300,3.412243408203125,-1.1733473217859864,0.6158548933222889,5.050737913447618,2.152100086212158,0.44742968678474426,0.09650451689958572
1772376825856191500,3.42219140625,-0.6956178736060857,0.8575159701324999,6.717455320137739,1.986761450767517,0.39641737937927246,0.09923798590898514
1772376825866140700,3.432140625,-0.577020537613146,1.1244956125944852,8.207570543774962,1.807296633720398,0.36949867010116577,0.09158798307180405
1772376825876089600,3.442089599609375,-0.5580430846164003,1.3461623875156044,9.340140741753578,1.6189038753509521,0.344602108001709,0.06226551532745361
1772376825886038500,3.45203857421875,-0.533493603640981,1.4915455487012863,10.189532880532742,1.4035847187042236,0.3389703333377838,0.006313299760222435
1772376825895987500,3.461987548828125,-0.6093458402218297,1.669610790044069,10.930154847991465,1.165493369102478,0.320087730884552,-0.07825644314289093
1772376825905935600,3.471935546875,-0.6696709469228983,1.842839258880168,11.624386820197104,0.9022789597511292,0.26961416006088257,-0.17607390880584717
1772376825915884500,3.481884521484375,-0.6396956415064633,1.9670523523956536,12.235132699942588,0.5778872966766357,0.2034902721643448,-0.28435245156288147
1772376825925833500,3.49183349609375,-0.6145738405358045,2.156588835823536,12.78500763913989,0.2012997567653656,0.10050079971551895,-0.37392541766166687
1772376825935782400,3.501782470703125,-0.37141061553433535,2.413267302893102,13.207945466685294,-0.2173592746257782,-0.05825582146644592,-0.4224679172039032
1772376825945731300,3.5117314453125,0.07116364037320018,2.644953367525339,13.35142922399044,-0.6430575847625732,-0.21667462587356567,-0.4073898196220398
1772376825955680300,3.52168017578125,0.6167461430735885,2.849706417046487,13.105629586070775,-1.0227162837982178,-0.3611401617527008,-0.3496895134449005
1772376825965628400,3.53162841796875,1.1456710140269248,2.909883530111611,12.205410930895805,-1.3560593128204346,-0.4875202178955078,-0.2639109790325165
1772376825975577600,3.54157763671875,1.4752749435104429,2.880165852718055,10.88492103703618,-1.6429661512374878,-0.5830560922622681,-0.1362009346485138
1772376825985526500,3.551526611328125,1.7349544920921325,2.7676889358341694,9.404114909014105,-1.8529720306396484,-0.6763889193534851,0.03323398530483246
1772376825995475500,3.561475341796875,1.9979326438277958,2.602618200621009,7.618732544454931,-1.9822921752929688,-0.7441133856773376,0.182082861661911
1772376826005424400,3.57142431640625,2.0187895538955924,2.232876541212201,5.571783648523688,-2.083003520965576,-0.8302586078643799,0.29858291149139404
1772376826015372500,3.58137255859375,1.6708759876742958,1.679050234040618,3.6096564775705335,-2.20151686668396,-0.9295401573181152,0.36162418127059937
1772376826025321500,3.591321533203125,0.9061888156257569,1.31381260805279,1.7059493468821048,-2.32124662399292,-0.9462225437164307,0.3581838011741638
1772376826035270400,3.6012705078125,-0.0954244771329686,0.996607922219485,-0.3733773855626583,-2.3700454235076904,-0.8450109362602234,0.2757483124732971
1772376826045219300,3.61121923828125,-1.1683183877080678,0.5993791940134018,-3.0332594421505927,-2.238308906555176,-0.6524248123168945,0.1591896116733551
1772376826055169000,3.6211689453125,-2.0139120109871027,0.2210847007168457,-6.3476668989777565,-1.914186716079712,-0.44913291931152344,0.06946558505296707
1772376826065117200,3.6311171875,-2.0578876385748384,-0.17621753111686556,-9.557406359106302,-1.4357019662857056,-0.3659362196922302,0.04546007141470909
1772376826075066000,3.641066162109375,-1.4690505160376428,-0.4620070514563471,-12.126355514359474,-0.9066188931465149,-0.40783119201660156,0.06552139669656754
1772376826085015000,3.65101513671875,-0.7456761090431362,-0.5503930813198908,-13.643327765262127,-0.4322337806224823,-0.5244834423065186,0.09738849103450775
1772376826094964000,3.6609638671875,-0.24614530955217778,-0.7117847261615097,-14.155067327332496,-0.09675296396017075,-0.6152884364128113,0.09851474314928055
1772376826104913000,3.670912841796875,-0.22598989881724119,-1.0216481093212961,-13.848877225857972,0.05435723811388016,-0.6224005818367004,0.07994895428419113
1772376826114862000,3.680862060546875,-0.5628115045946092,-1.217733649066463,-13.035749994158744,0.05586725100874901,-0.5391789674758911,0.03257797658443451
1772376826124810200,3.690810302734375,-1.0764474018055945,-1.1957663666039704,-11.994947979295253,-0.009455807507038116,-0.32875844836235046,-0.027219358831644058
1772376826134759200,3.70075927734375,-1.7251961914047598,-0.9818591928336768,-11.209977167022227,-0.033522527664899826,-0.024981236085295677,-0.06924857199192047
1772376826144708000,3.7107080078125,-2.1373647876545787,-0.6388450160264969,-10.816430269134043,0.0664312019944191,0.2687135338783264,-0.0779227763414383
1772376826154657000,3.720656982421875,-2.1622188045345245,-0.2431626952785067,-10.506581060630083,0.2995864450931549,0.4900973439216614,-0.060110755264759064
1772376826164606200,3.730606201171875,-1.9167654958344995,-0.017532679282221943,-9.955800112503766,0.6091541647911072,0.626924991607666,-0.050363343209028244
1772376826174554000,3.74055419921875,-1.6857374567195773,0.0418237833160907,-8.821862717825173,0.9203692674636841,0.6785283088684082,-0.052127156406641006
1772376826184503000,3.7505029296875,-1.5890107744142412,0.11648246273081748,-7.007851055631041,1.1761168241500854,0.6717342138290405,-0.07993559539318085
1772376826194452000,3.760451904296875,-1.468106220924854,0.12740520408768205,-4.814572365313768,1.3725491762161255,0.6339588761329651,-0.13216017186641693
1772376826204401000,3.77040087890625,-1.3959002318918705,0.10241656451001763,-2.5457190863132477,1.5021252632141113,0.6117544770240784,-0.18806470930576324
1772376826214350300,3.780350341796875,-1.246490007147193,0.18189174082837997,-0.4232400253623724,1.565938949584961,0.594077467918396,-0.225909024477005
1772376826224299300,3.79029931640625,-1.0598767907548696,0.4191504179611802,1.623151821208,1.5711652040481567,0.5848296880722046,-0.24304592609405518
1772376826234247200,3.8002470703125,-0.8203822443287819,0.7608481784075498,3.5584681421250104,1.529308795928955,0.5666351914405823,-0.24674372375011444
1772376826244196000,3.810196044921875,-0.5535570617761463,1.0261128336451948,5.252147790020704,1.4645406007766724,0.5438703298568726,-0.23768892884254456
1772376826254145000,3.82014501953125,-0.29693470880798994,1.1946321018770336,6.692883773460983,1.3666104078292847,0.5283473134040833,-0.22937427461147308
1772376826264094200,3.83009423828125,-0.0955855311798863,1.286542616072297,7.946421361032128,1.2326226234436035,0.49944376945495605,-0.22627249360084534
1772376826274043100,3.840043212890625,0.06109808210125193,1.3494104295261204,9.028440352424978,1.0796117782592773,0.4511258006095886,-0.23894594609737396
1772376826283991000,3.849990966796875,0.1366374716069549,1.3702528726771472,9.975193379759787,0.9096508026123047,0.3836114704608917,-0.27430102229118347
1772376826293940000,3.85993994140625,0.12815878066765143,1.4056145473070443,10.744276887071132,0.702217698097229,0.2955034673213959,-0.32205548882484436
1772376826303889200,3.86988916015625,0.11066289886501617,1.4189017527729273,11.404040772485732,0.42630067467689514,0.18389077484607697,-0.3682117462158203
1772376826313838000,3.879838134765625,0.1892274905439466,1.4709632177911698,12.022782911682128,0.09904161095619202,0.04467163234949112,-0.4047876000404358
1772376826323787300,3.889787353515625,0.3500254072761163,1.638097023013979,12.511288897681235,-0.2876336872577667,-0.1254570335149765,-0.4086398780345917
1772376826333735200,3.899735107421875,0.6232881851281971,1.86273097717762,12.663767277824878,-0.6859709024429321,-0.30089253187179565,-0.3648380637168884
1772376826343684000,3.90968408203125,1.0335360424485056,2.049919874566048,12.290272987884283,-1.0320945978164673,-0.44544869661331177,-0.2787427008152008
1772376826353633300,3.91963330078125,1.4209673070006072,2.1601595339171586,11.14700779289007,-1.2835429906845093,-0.5349195003509521,-0.15951620042324066
1772376826363582200,3.929582275390625,1.6669528228811918,2.1487623799815774,9.407476494401692,-1.453656792640686,-0.6200445294380188,-0.01574053056538105
1772376826373531100,3.93953125,1.8755577255249023,1.9972586900889873,7.410429985758662,-1.5663796663284302,-0.6091745495796204,0.1316518634557724
1772376826383480000,3.94947998046875,1.8461615351706742,1.8129926944099366,5.318159600588679,-1.6310338973999023,-0.5867494940757751,0.23976759612560272
1772376826393428000,3.959427978515625,1.5425465448811648,1.5868540347717701,3.314682182115316,-1.703896403312683,-0.6372089385986328,0.2995651364326477
1772376826403377200,3.969377197265625,1.0988826671060175,1.1599978647388518,1.4285913721382617,-1.802598237991333,-0.7152658700942993,0.30192601680755615
1772376826413326000,3.979326171875,0.5314297299137338,0.9365158570893108,-0.3885305310308933,-1.8727219104766846,-0.7612985968589783,0.2380647510290146
1772376826423275000,3.98927490234375,-0.1918123194053769,0.7872301355071365,-2.494848146253824,-1.8162026405334473,-0.7307616472244263,0.11699189990758896
1772376826433224200,3.99922412109375,-0.8155158804014324,0.48716662715412673,-5.278517326030135,-1.5255900621414185,-0.6000680923461914,0.0017787599936127663
1772376826443172000,4.009172119140625,-1.0517170843705534,0.07372636700067668,-8.692004165768623,-1.0541059970855713,-0.5013220310211182,-0.04925762489438057
1772376826453121300,4.019121337890625,-0.46706301967166364,-0.3470975736632943,-11.995128012037277,-0.5740566253662109,-0.5227367281913757,-0.030040251091122627
1772376826463070200,4.0290703125,0.3933371275950223,-0.7112578527431934,-13.445847044831513,-0.2364674210548401,-0.6195164322853088,0.01350647397339344
1772376826473019100,4.03901904296875,0.9919495019543916,-0.7697948704510926,-13.985097714161872,-0.10096471756696701,-0.715964674949646,0.04802503436803818
1772376826482968000,4.048968017578125,0.9897737653505057,-0.7355784203335642,-13.495207580327987,-0.12092612683773041,-0.6969816088676453,0.04912365972995758
1772376826492916200,4.058916259765625,0.4446851836469024,-0.6430971935782581,-13.14148532782793,-0.16385895013809204,-0.5129281282424927,0.03322512283921242
1772376826502865200,4.068865234375,-0.4555032955855131,-0.295753627530951,-13.208726387929916,-0.07080519199371338,-0.22335243225097656,0.02596522681415081
1772376826512814000,4.07881396484375,-1.2130325587034225,0.269095684767887,-13.74673319467902,0.22952187061309814,0.10758207738399506,0.04250292107462883
1772376826522763000,4.088762939453125,-1.6234721392035483,0.8631712194152176,-14.303617720377444,0.6969825029373169,0.41192781925201416,0.1063925176858902
1772376826532712200,4.098712158203125,-1.6116117516703903,1.1652603883769364,-14.185660033994912,1.2610623836517334,0.621228814125061,0.1816617101430893
1772376826542661000,4.1086611328125,-1.3841596713460982,1.2504840452194212,-13.063830425739287,1.8240389823913574,0.7174320220947266,0.2335379719734192
1772376826552609300,4.118609375,-1.258065586389601,1.1692214009623974,-10.873075116419791,2.2792105674743652,0.6854234933853149,0.18771909177303314
1772376826562558200,4.12855810546875,-1.4175687506034969,0.9401443497847766,-7.8068083076804875,2.605501890182495,0.6533883213996887,0.08420618623495102
1772376826572507100,4.138507080078125,-1.8864977833427488,0.6323612800303846,-4.474802650320529,2.7090065479278564,0.5604370832443237,-0.03120882250368595
1772376826582456000,4.1484560546875,-1.6472525355026124,0.8970366641379892,-0.8992039251744747,2.694661855697632,0.4853394329547882,-0.15232495963573456
1772376826592405000,4.158405029296875,-1.6206351622119546,1.155120029569417,2.378494387936592,2.5974180698394775,0.4471435844898224,-0.22862452268600464
1772376826602353200,4.168353271484375,-1.184634001084417,1.3135866903424263,4.672116782012582,2.4545679092407227,0.4517834782600403,-0.22823065519332886
1772376826612302000,4.178302001953125,-0.3884006941061467,1.6675271156378089,6.582331394898891,2.269001007080078,0.4654771685600281,-0.18605923652648926
1772376826622251000,4.1882509765625,0.23862072273362425,1.9833407855041323,8.262143260961771,2.0468618869781494,0.4543032944202423,-0.1301184892654419
1772376826632200000,4.198199951171875,0.758803813098371,2.2234499566972254,9.64334861254692,1.8122268915176392,0.4227871894836426,-0.06560952961444855
1772376826642149000,4.208149169921875,1.1585307878609745,2.406807459229231,10.73993388943076,1.5696583986282349,0.3898795545101166,-0.004212117753922939
1772376826652098300,4.218098388671875,1.3319669811636208,2.521090841013193,11.56794421748519,1.2979602813720703,0.3728012442588806,0.018354443833231926
1772376826662046200,4.228046142578125,1.252307899645716,2.65415461885184,12.309119142651557,0.9990463256835938,0.34501463174819946,0.0008194878464564681
1772376826671995100,4.2379951171875,1.1165659155737608,2.735579394868016,13.006961122047901,0.6517810225486755,0.32988467812538147,-0.04721115529537201
1772376826681944000,4.247944091796875,0.951953226326406,2.6992729867339134,13.5212211425066,0.23976491391658783,0.32960590720176697,-0.1015089675784111
1772376826691893000,4.25789306640625,0.9189663910690694,2.654642110107839,13.826900371849536,-0.2104179710149765,0.30621880292892456,-0.12966124713420868
1772376826701842200,4.26784228515625,1.1492814596090466,2.6684257207885382,13.84164785912633,-0.6631721258163452,0.2528786063194275,-0.12051735073328018
1772376826711790000,4.2777900390625,1.5842149184398353,2.640833657246828,13.398990601110457,-1.0816107988357544,0.12960141897201538,-0.05697379633784294
1772376826721739000,4.287739013671875,2.068443665511161,2.63571967523396,12.377184378618,-1.4093104600906372,-0.028048528358340263,0.08361639082431793
1772376826731688000,4.29768798828125,2.587212833957374,2.801880543771386,10.83389344511032,-1.6611953973770142,-0.2470293492078781,0.2990693151950836
1772376826741636900,4.307636962890625,2.9606437032729387,3.043982496216893,8.939902237272262,-1.8987023830413818,-0.4215196371078491,0.5223727822303772
1772376826751586300,4.31758642578125,2.8781325933247803,2.835928651584685,6.8144485444247715,-2.1925652027130127,-0.46583595871925354,0.7195098400115967
1772376826761536000,4.327535888671875,1.3435989667683839,2.0969646804660558,2.2873802848160265,-2.4466440677642822,-0.4000323414802551,0.8625697493553162
1772376826771484200,4.337484130859375,0.3038045945774764,1.407424665468931,-0.8981827654331922,-2.5457167625427246,-0.2551689147949219,0.9226474165916443
1772376826781433000,4.34743310546875,-0.5529391490735114,0.35277883417010303,-4.641146474209427,-2.4317078590393066,-0.021187912672758102,0.899131715297699
1772376826791382000,4.357382080078125,-0.9162471221730113,-0.9044424103498458,-8.109821532684563,-2.1402745246887207,0.19833113253116608,0.8018022179603577
1772376826801331000,4.3673310546875,-1.0767076601769774,-2.3014514802664516,-10.602319900941849,-1.7693620920181274,0.2636414170265198,0.649875283241272
1772376826811280100,4.377280029296875,-1.3262997491821646,-3.1821196317970752,-11.773975324118137,-1.4880433082580566,0.16824404895305634,0.43836620450019836
1772376826821228000,4.38722802734375,-1.6756620529070496,-3.190006877915561,-11.850346616137028,-1.4194669723510742,-0.05893086642026901,0.180278941988945
1772376826831177000,4.397177001953125,-2.2013107517339288,-2.3674536462232467,-11.921464225411414,-1.4915534257888794,-0.17103902995586395,-0.06080477684736252
1772376826841126100,4.407126220703125,-2.3823830659382046,-1.2350466759823262,-12.795670487451552,-1.4991174936294556,-0.1034957766532898,-0.19642427563667297
1772376826851075000,4.417074951171875,-2.1605067399196325,-0.08819518346656113,-14.252649749684332,-1.3149287700653076,0.16585873067378998,-0.2102399468421936
1772376826861024300,4.427024169921875,-1.5954253176316617,0.6725891724571585,-15.474249061203002,-0.8831552863121033,0.5766051411628723,-0.08232996612787247
1772376826870973200,4.43697314453125,-0.8689440306629985,0.7667115174829959,-15.678461135715246,-0.2975112795829773,0.9745437502861023,0.13074208796024323
1772376826880921000,4.446921142578125,-0.5283419930314645,0.38780101117994636,-14.16492353543639,0.28246498107910156,1.2219932079315186,0.30767279863357544
1772376826890870000,4.4568701171875,-0.7499464067734778,-0.1205222031082958,-11.227363186109065,0.7542229294776917,1.3008776903152466,0.39021801948547363
1772376826900819000,4.46681884765625,-1.151507611225918,-0.48498968497384337,-7.720227171814441,1.090855598449707,1.2223470211029053,0.38051149249076843
1772376826910768000,4.47676806640625,-1.468613147533685,-0.7824420975130051,-4.4468291862457985,1.3253461122512817,1.0226216316223145,0.30108511447906494
1772376826920717000,4.486717041015625,-1.570804963377118,-0.918500088731572,-1.595031057617068,1.4525797367095947,0.7916977405548096,0.18153266608715057
1772376826930665000,4.4966650390625,-1.3950778095930814,-0.838969967355579,0.8358172024130821,1.512845754623413,0.5947985053062439,0.087917760014534
1772376826940614100,4.5066142578125,-1.0258005528256295,-0.5284873563189059,2.800792748534679,1.5146607160568237,0.4575941860675812,0.051626451313495636
1772376826950563000,4.51656298828125,-0.5914847144365311,-0.1312237759951502,4.444515648606419,1.4749246835708618,0.4055916965007782,0.06402160227298737
1772376826960512300,4.52651220703125,-0.16495342897642404,0.21844496333040295,5.8876803204983466,1.3970551490783691,0.3995354175567627,0.1289648413658142
1772376826970461200,4.536461181640625,0.08467756726704537,0.583690991820395,7.143750641417503,1.2811919450759888,0.4328579604625702,0.20549103617668152
1772376826980409000,4.5464091796875,0.23738708928544072,0.825604435956478,8.279348662784695,1.137956142425537,0.43644407391548157,0.2766263782978058
1772376826990358000,4.55635791015625,0.2501123134870082,0.8991951573461293,9.24597309628129,0.9661535620689392,0.40972885489463806,0.31929636001586914
1772376827000307200,4.56630712890625,0.15476049973145126,0.9263732332594692,10.013306545054911,0.7849043607711792,0.3609714210033417,0.3287680745124817
1772376827010256100,4.576256103515625,0.09755407304018736,1.0128390721827745,10.54970591660738,0.6002932190895081,0.33729618787765503,0.3283206522464752
1772376827020205000,4.586205078125,-0.02242678973302245,1.103199726587534,10.945195765256882,0.3838725686073303,0.26192182302474976,0.2846274971961975
1772376827030154200,4.596154296875,-0.35494024998769164,1.2848365428067743,11.230084720027445,0.15102680027484894,0.18614450097084045,0.20248442888259888
1772376827040102000,4.606101806640625,-0.3670161069024354,1.5351616953268645,11.02600942363739,-0.09381543844938278,0.12120440602302551,0.13957008719444275
1772376827050050600,4.616050537109375,-0.31305173087231813,1.8209950913406907,10.539752677869796,-0.34589987993240356,0.06528495252132416,0.10719669610261917
1772376827059999500,4.62599951171875,-0.20882066428624094,2.063416923390329,9.865297419279813,-0.6078702211380005,-0.04825771600008011,0.08889390528202057
1772376827069948400,4.635948486328125,-0.08776815369352697,2.2246252840869127,9.02635068666935,-0.8763624429702759,-0.28411126136779785,0.10913658887147903
1772376827079897300,4.6458974609375,0.08124989437330514,2.2596621106766164,7.871959702026843,-1.1695431470870972,-0.5221865177154541,0.15986673533916473
1772376827089845500,4.655845458984375,-0.01213222674448043,2.216706181525439,6.087832305964827,-1.432586431503296,-0.690007746219635,0.20561690628528595
1772376827099794400,4.66579443359375,-0.29912626403551545,2.160454132949561,3.643857437857985,-1.6235228776931763,-0.7865981459617615,0.2501908540725708
1772376827109743600,4.67574365234375,-0.39774782017674293,2.068504748048633,0.7221183425188065,-1.6653342247009277,-0.7884953618049622,0.3234999477863312
1772376827119692500,4.685692626953125,-0.38064354064073413,1.683798013089597,-2.4105308636665344,-1.5397124290466309,-0.6856667995452881,0.4181893765926361
1772376827129641500,4.695641357421875,-0.4286920802231878,1.0146794393524528,-5.298497453263401,-1.2902226448059082,-0.47246184945106506,0.4948383569717407
1772376827139589600,4.705589599609375,-0.5086224529631436,0.25018764374554153,-7.536008668538927,-0.9700723886489868,-0.22366072237491608,0.5210341811180115
1772376827149538600,4.71553857421875,-0.548712580887042,-0.5560073775377125,-9.035826955544948,-0.6178581714630127,-0.03659895807504654,0.4765804708003998
1772376827159487500,4.725487548828125,-0.41120384287089107,-1.4450707977741957,-9.55800666308701,-0.32849910855293274,-0.005939565598964691,0.3798704445362091
1772376827169436400,4.7354365234375,-0.08186090241111814,-2.2516651205733416,-9.065510730668901,-0.21382790803909302,-0.13369885087013245,0.24026991426944733
1772376827179385300,4.74538525390625,0.09952737327399663,-2.7829461261987682,-8.217009403249621,-0.31451159715652466,-0.3551485240459442,0.07837463915348053
1772376827189334300,4.755334228515625,0.010806430633971466,-2.7518235504433513,-7.75937494085431,-0.5940220952033997,-0.5125083327293396,-0.07063908129930496
1772376827199282400,4.765282470703125,-0.4374280521254986,-1.9547224476546048,-8.12264302033484,-0.9520872831344604,-0.5634485483169556,-0.20428386330604553
1772376827209231400,4.7752314453125,-0.8899648260556161,-0.8094741890843957,-9.392682829895614,-1.2458373308181763,-0.4042537808418274,-0.2858943045139313
1772376827219180500,4.7851806640625,-0.8658696647189557,0.4537914866989478,-11.498927379882335,-1.2335067987442017,-0.06532324105501175,-0.24725429713726044
1772376827229129500,4.79512939453125,-0.5305970419492573,1.6238330814704298,-13.72545776693821,-0.8104878664016724,0.3465191721916199,-0.07127102464437485
1772376827239078400,4.805078369140625,-0.1577999770252034,2.0969071050599215,-14.77414848922491,-0.053152162581682205,0.6889181733131409,0.1756628453731537
1772376827249026600,4.815026611328125,-0.06343373110773973,1.7458042412780224,-13.707708175235986,0.7533630132675171,0.833997368812561,0.3697707951068878
1772376827258975500,4.8249755859375,-0.4145471619494259,0.9832968974865972,-10.432142197978497,1.3684017658233643,0.8348257541656494,0.4373321235179901
1772376827268924400,4.83492431640625,-1.051300320263207,0.40826081168893724,-6.348868091461062,1.7685846090316772,0.7442074418067932,0.4012497365474701
1772376827278873300,4.844873291015625,-1.577185019803047,0.12191402279287576,-2.4334143111258744,1.9688776731491089,0.6130073666572571,0.299049973487854
1772376827288822500,4.854822509765625,-1.7290291936963795,0.0023451018214225767,1.0558400095194578,1.9806925058364868,0.48844462633132935,0.18357877433300018
1772376827298770400,4.8647705078125,-1.4984531361326574,0.03987842140197754,3.9919817242205142,1.8826526403427124,0.39079567790031433,0.10673683881759644
1772376827308719400,4.87471923828125,-0.8910018409531563,0.32077231518700716,6.257073604860901,1.7063168287277222,0.3640085458755493,0.12981899082660675
1772376827318668500,4.88466845703125,-0.16605919826123863,0.5419985797990113,7.902990800106525,1.5079044103622437,0.35698437690734863,0.21515408158302307
1772376827328617500,4.894617431640625,0.05001169288158416,0.3633164486669004,9.089715197598933,1.3145124912261963,0.3075249493122101,0.29678770899772644
1772376827338566700,4.904566650390625,0.06950896850135177,0.2076525703549385,9.998170935243367,1.1126492023468018,0.276864230632782,0.36157575249671936
1772376827348514600,4.9145146484375,-0.0032260859070345755,0.21268369638994336,10.774393792915344,0.9127632975578308,0.2522587478160858,0.39913803339004517
1772376827358463500,4.92446337890625,-0.2561787373865023,0.15201675398126244,11.244578524804115,0.7359464764595032,0.18472473323345184,0.39020007848739624
1772376827368412400,4.934412353515625,-0.60711541428864,0.1011810313656926,11.525095255839824,0.601692795753479,0.07193455100059509,0.3259183168411255
1772376827378361300,4.944361328125,-0.9674432025335729,0.15059402770176528,11.850969716471432,0.44481903314590454,-0.11854175478219986,0.21137171983718872
1772376827388310500,4.954310546875,-1.258106795182824,0.3729574065849185,12.25094518610239,0.23441970348358154,-0.36131125688552856,0.050899479538202286
1772376827398259500,4.964259521484375,-1.3547816011704503,0.7284371702767908,12.44876726731658,-0.042027853429317474,-0.588279664516449,-0.1072457805275917
1772376827408207400,4.974207275390625,-1.2352592958196997,1.2017808045879006,12.103713474440575,-0.3626900315284729,-0.7709205746650696,-0.21471337974071503
1772376827418156300,4.98415625,-1.1730620751038192,1.677443967887759,11.314825196462868,-0.7196718454360962,-0.9173862338066101,-0.3104991018772125
1772376827428105500,4.99410546875,-1.090885384741798,2.022747497741133,9.96504374166727,-1.0495506525039673,-0.9580353498458862,-0.3766072988510132
1772376827438054700,5.0040546875,-0.9991555608756839,2.374984041728079,8.099061069217324,-1.3240201473236084,-0.9414991736412048,-0.3830535113811493
1772376827448003600,5.014003662109375,-0.8959356440935283,2.7726351600646972,5.993417407733202,-1.5196218490600586,-0.85698002576828,-0.3454478085041046
1772376827457951500,5.023951416015625,-0.6852172564271837,2.969973841676116,3.6267327000558374,-1.5595239400863647,-0.6920843720436096,-0.2605820596218109
1772376827467900400,5.033900390625,-0.14773140481226146,2.8488439549982547,1.1570996590793132,-1.4050430059432983,-0.5407566428184509,-0.10528329759836197
1772376827477849600,5.043849609375,0.4549391588967293,2.4788813463151453,-1.3180197043538093,-1.0779697895050049,-0.4439796209335327,0.09969209879636765
1772376827487798500,5.053798583984375,0.6585439882308244,1.7759417515188454,-2.836190809652209,-0.7052401304244995,-0.32236772775650024,0.27808794379234314
1772376827497747500,5.06374755859375,0.7548789678048342,0.7182276917558162,-3.908725933384895,-0.38229671120643616,-0.21192149817943573,0.39810359477996826
1772376827507695400,5.0736953125,0.7687818940162658,-0.6581007014427334,-4.162143060570955,-0.2211911827325821,-0.1890968680381775,0.4404928684234619
1772376827517644300,5.083644287109375,0.9088474403757602,-2.016410403674096,-3.999239732524752,-0.25033921003341675,-0.2938201427459717,0.41105490922927856
1772376827527593500,5.093593505859375,1.1716586380466818,-3.415566860882938,-4.012831035503745,-0.4582154452800751,-0.48598024249076843,0.3142988085746765
1772376827537542700,5.103542724609375,1.411696789830178,-4.510041136962175,-4.531867768844962,-0.7780808806419373,-0.7270734906196594,0.19343656301498413
1772376827547491600,5.11349169921875,1.1441466540038585,-4.763676583074033,-5.650246359863877,-1.2148957252502441,-0.928083598613739,0.05514845624566078
1772376827557439500,5.123439453125,-0.014285641918703913,-3.9486248130530117,-7.255826868546008,-1.7930914163589478,-1.0352100133895874,-0.1353396624326706
1772376827567388400,5.133388427734375,-1.701464456553012,-2.243856054257601,-9.68978478502929,-2.3712639808654785,-0.9491280913352966,-0.3871553838253021
1772376827577337600,5.143337646484375,-2.8515684115260838,-0.25169733592243865,-13.774064269196986,-2.587714433670044,-0.6155957579612732,-0.6092504858970642
1772376827587286500,5.15328662109375,-2.6946441578894853,1.7646718772247432,-18.904214157533644,-2.1615865230560303,-0.04570460319519043,-0.6420323848724365
1772376827597235500,5.1632353515625,-1.6204095367625355,3.2469451551899313,-22.697342703926562,-1.173982858657837,0.502345085144043,-0.42503663897514343
1772376827607183400,5.173183349609375,-0.3720848250014707,3.463200426456332,-23.16677223353386,-0.040672000497579575,0.8196247816085815,-0.10745040327310562
1772376827617132500,5.183132568359375,0.1618120256781578,2.570850897221267,-20.040206731176376,0.8589280843734741,0.915992021560669,0.10733014345169067
1772376827627081500,5.19308154296875,-0.3743239822303876,1.630940283127129,-15.082140087163447,1.445595622062683,0.8642478585243225,0.16816048324108124
1772376827637030700,5.20303076171875,-1.2375438996255397,1.0281502577569335,-10.124014990961552,1.7668263912200928,0.7718431353569031,0.11988179385662079
1772376827646979600,5.2129794921875,-1.68020714899078,0.5972765226457267,-5.921023202651739,1.9254103899002075,0.693696141242981,0.016710933297872543
1772376827656928500,5.222928466796875,-1.5768714238092303,0.3321689576659351,-2.4794646991610527,1.9988387823104858,0.6071797609329224,-0.07204251736402512
1772376827666876700,5.232876708984375,-1.0410839736100286,0.22110114039499312,0.33595161800980566,2.050306797027588,0.5089594721794128,-0.10350510478019714
1772376827676825600,5.24282568359375,-0.4180589329300448,0.2526395669423044,2.6460224580615757,2.0881996154785156,0.3909221291542053,-0.08977439999580383
1772376827686774500,5.2527744140625,0.028464279798977074,0.29957901277169585,4.560744903761148,2.109598398208618,0.32243070006370544,-0.02675788477063179
1772376827696723500,5.262723388671875,0.5863395701004191,0.4650261070165783,6.185792329457402,2.0981740951538086,0.3190038204193115,0.1034608855843544
1772376827706672400,5.27267236328125,0.8315364563539623,0.5705355960406363,7.665045967340469,2.0206754207611084,0.31709033250808716,0.24724549055099487
1772376827716620500,5.28262060546875,0.6180519649751484,0.5383363309644162,8.953494124773144,1.9169048070907593,0.29883041977882385,0.3349662721157074
1772376827726569500,5.292569580078125,0.14933440129579975,0.5296745933420955,10.004592492723464,1.7765746116638184,0.25961244106292725,0.34702080488204956
1772376827736518400,5.302518310546875,-0.32542368465680627,0.5896800031021237,10.875890173840522,1.6084315776824951,0.20341630280017853,0.2867644727230072
1772376827746467600,5.312467529296875,-0.7095911616399884,0.726580290363729,11.567508164155482,1.415067195892334,0.11988093703985214,0.1810377836227417
1772376827756416500,5.32241650390625,-0.9867620893791318,0.9244009102731943,12.007653147089481,1.2008804082870483,-0.059973493218421936,0.03839531168341637
1772376827766364700,5.33236474609375,-1.3482739728420972,1.1942821193955837,12.041498133546114,1.0062235593795776,-0.2253962755203247,-0.1404029279947281
1772376827776313600,5.342313720703125,-1.1551683256905525,1.4354030979797243,11.841626718586683,0.7937822937965393,-0.21783749759197235,-0.2814737558364868
1772376827786262500,5.352262451171875,-0.6803611946981399,1.8946825511030851,11.805492744410037,0.5033073425292969,-0.14385968446731567,-0.3464048206806183
1772376827796211500,5.36221142578125,-0.2754963090578094,2.367800121573359,11.820657580316066,0.1308792233467102,-0.21204246580600739,-0.34897518157958984
1772376827806160400,5.372160400390625,0.020851779518241527,2.581105456992984,11.155033278435468,-0.20406733453273773,-0.324348509311676,-0.312165230512619
1772376827816108500,5.382108642578125,0.21663289067344738,2.4615216307133436,9.825630594801902,-0.4833533465862274,-0.4109577238559723,-0.25469332933425903
1772376827826057500,5.392057373046875,0.25455336467437445,2.382913665683567,8.115915173384547,-0.7176108360290527,-0.4544287919998169,-0.1498500108718872
1772376827836006400,5.40200634765625,0.014107508872821927,2.5771385991886255,6.0410962737530465,-0.8713284730911255,-0.38145342469215393,-0.02958749234676361
1772376827845955300,5.411955322265625,-0.39006975982952863,2.5362258663028476,3.7194489776760338,-0.9419544339179993,-0.2107357531785965,0.06259995698928833
1772376827855904500,5.421904541015625,-0.7008531439110637,2.067160055441409,1.3440396962732075,-0.8975781798362732,0.059571523219347,0.127921923995018
1772376827865852700,5.431852783203125,-0.9372276586204766,1.473088100990653,-1.0802753625959158,-0.7335564494132996,0.32883068919181824,0.14468757808208466
1772376827875801600,5.441801513671875,-1.0024505838330835,0.8042340234085917,-3.2249241697788236,-0.47040078043937683,0.43612685799598694,0.10674381256103516
1772376827885750500,5.45175048828125,-0.4861731591373682,0.03775543789863586,-5.009946468853951,-0.07868839055299759,0.41519415378570557,0.05389231815934181
1772376827895699500,5.461699462890625,0.5889905230006203,-1.105167227268219,-6.552906562972068,0.3621140420436859,0.218450665473938,0.033335570245981216
1772376827905648400,5.4716484375,1.7638725435405969,-2.458752750521898,-6.957528981626034,0.6881341934204102,-0.11694410443305969,0.024316245689988136
1772376827915597300,5.481597412109375,2.6544471720576284,-3.6526977469176054,-6.196278652158379,0.7712442874908447,-0.5480511784553528,0.0189106073230505
1772376827925545500,5.49154541015625,3.0410008500576016,-4.402289202773571,-4.723281152060627,0.4592951834201813,-1.051632285118103,0.04076051339507103
1772376827935494400,5.501494384765625,2.2931406019084153,-4.391748227275908,-3.1114082652360198,-0.39117011427879333,-1.5808593034744263,0.03461667150259018
1772376827945443300,5.511443359375,-0.180391784594208,-3.4312408153548835,-2.804157841053605,-1.5916656255722046,-1.864650845527649,-0.13713112473487854
1772376827955392500,5.521392578125,-3.1916081756323575,-1.8731395584672688,-5.4312096411854025,-2.5966427326202393,-1.633184552192688,-0.4434953033924103
1772376827965341400,5.531341552734375,-4.879325700253248,-0.009760931035876273,-10.402700999438762,-2.999631643295288,-0.9483767151832581,-0.722545325756073
1772376827975289600,5.54128955078125,-4.784166705656052,2.0075942061424255,-15.328116250693798,-2.6460020542144775,0.004314647987484932,-0.8147382140159607
1772376827985238500,5.551238525390625,-3.2684190281122922,3.3604821025207636,-18.01207827104926,-1.7014797925949097,0.8559852838516235,-0.6557280421257019
1772376827995187500,5.5611875,-1.2597861265718937,3.2511762168884277,-16.956360426604746,-0.6224880814552307,1.2777912616729736,-0.36858198046684265
1772376828005136400,5.571136474609375,0.10062653928808868,2.1972072619378564,-12.599313218092918,0.2503081262111664,1.1941437721252441,-0.1320011466741562
1772376828015085600,5.58108544921875,0.3527900862164795,1.3446813551776111,-7.081914070707559,0.8125919699668884,0.7060714364051819,-0.015461335889995098
1772376828025033500,5.591033447265625,-0.06042407356351614,0.7867290541172027,-2.0921891366273164,1.0564478635787964,0.12236244231462479,-0.020963158458471298
1772376828034982400,5.600982421875,-0.7961578305892646,0.2320070402149111,1.6771160511076448,1.027132272720337,-0.29932060837745667,-0.14154133200645447
1772376828044931300,5.610931396484375,-1.392221251118183,-0.14259250755384564,4.130345069772005,0.8197106122970581,-0.44688767194747925,-0.33582931756973267
1772376828054881300,5.62088134765625,-1.4571649940632283,-0.22076368860155343,5.56819936029613,0.5190767645835876,-0.3164951205253601,-0.5156456828117371
1772376828064830200,5.630830322265625,-0.8523412709083408,-0.16097075254842638,6.297026845064759,0.20750290155410767,-0.006145491264760494,-0.6070384383201599
1772376828074778400,5.6407783203125,0.15160711373444646,-0.12366291228681801,6.630835605826974,-0.037900734692811966,0.3087453246116638,-0.5861775279045105
1772376828084727300,5.650727294921875,0.8457283555746078,-0.1636355878435075,6.789985134297609,-0.17031283676624298,0.5015275478363037,-0.5300660729408264
1772376828094676200,5.66067626953125,1.5656553255289791,-0.09922843599319457,6.697612555548548,-0.17738375067710876,0.6278776526451111,-0.39981842041015625
1772376828104625200,5.670625244140625,1.868789108172804,-0.0725153472431004,6.8732719047933815,-0.12526088953018188,0.6116248965263367,-0.28901174664497375
1772376828114574000,5.680573974609375,1.2912411491520701,0.04760375495702028,7.072247832217812,0.0013081426732242107,0.4972776174545288,-0.25826019048690796
1772376828124522200,5.690522216796875,0.6058516048979014,0.29527824683785436,7.180061725726723,0.14054912328720093,0.36428573727607727,-0.30009207129478455
1772376828134471200,5.70047119140625,0.0774134762818925,0.47679260572120546,7.513118206816912,0.2557322084903717,0.2902345657348633,-0.3905769884586334
1772376828144420000,5.710420166015625,-0.19323426023358478,0.617563158544898,7.83235425234735,0.3266766667366028,0.2643084228038788,-0.4929278492927551
1772376828154369300,5.720369384765625,-0.17023418239094315,0.8389780045315622,8.121925227454303,0.3492240905761719,0.27314090728759766,-0.5757079720497131
1772376828164318200,5.730318115234375,0.05585219907071441,1.1487376350559293,8.340123741742968,0.36159926652908325,0.2801831066608429,-0.6125421524047852
1772376828174266400,5.740266357421875,0.479006007454358,1.392242001645267,8.366503799146413,0.3904242217540741,0.21482731401920319,-0.5885785222053528
1772376828184215300,5.75021533203125,1.2715410079039633,1.587761358875036,8.143104209083319,0.47474604845046997,0.07147148996591568,-0.4758109748363495
1772376828194164200,5.760164306640625,1.9013091296359896,1.6880248370043933,7.860837419509887,0.5694984197616577,-0.1124383956193924,-0.2944878041744232
1772376828204113200,5.770113037109375,2.0689630132101473,1.4947328004352747,7.680529952198267,0.6295292377471924,-0.3088712990283966,-0.11976178735494614
1772376828214062300,5.780062255859375,1.7059608911894262,1.0787487375505267,7.523271936562657,0.6009519696235657,-0.49825242161750793,-0.013052119873464108
1772376828224011300,5.79001123046875,1.1298021215047687,0.6867084448330104,7.173352583476901,0.4475407898426056,-0.5927648544311523,0.04699577018618584
1772376828233959200,5.799959228515625,0.6660341247905045,0.38371275548562406,6.317759836491942,0.19248239696025848,-0.6072567701339722,0.07626526802778244
1772376828243908000,5.809908203125,0.30406978485230357,-0.03645648412927985,4.980130007261038,-0.15220868587493896,-0.6242836713790894,0.07632705569267273
1772376828253857000,5.81985693359375,-0.030427634027507155,-0.4698053771823644,3.0260768371701237,-0.5448182821273804,-0.6128548979759216,0.037067677825689316
1772376828263806500,5.829806396484375,-0.28087920767255126,-0.9053022420495748,0.2149889045923948,-0.8548898696899414,-0.5424976348876953,-0.02976701222360134
1772376828273755400,5.83975537109375,-0.37970834214985366,-1.3271588502295315,-3.3207413360238074,-1.005506992340088,-0.47390735149383545,-0.1141413077712059
1772376828283703300,5.849703369140625,-0.2852006510682404,-1.5636509999692438,-7.131569789758324,-0.9507306814193726,-0.41187700629234314,-0.18520750105381012
1772376828293652200,5.85965234375,-0.015468641158193349,-1.606938499162346,-10.678306577557326,-0.7219112515449524,-0.3599814474582672,-0.22314994037151337
1772376828303601200,5.86960107421875,0.26125169326923786,-1.5557560089357196,-13.30435533812642,-0.44564589858055115,-0.3478015065193176,-0.2472270429134369
1772376828313550300,5.87955029296875,0.18069741647727786,-1.4376092297218739,-14.788085829162597,-0.2502255439758301,-0.32855692505836487,-0.28905990719795227
1772376828323499300,5.889499267578125,-0.011644041368737815,-1.159215774450451,-15.389965680885314,-0.17338509857654572,-0.27738136053085327,-0.32805418968200684
1772376828333447200,5.899447265625,-0.09548062776699662,-0.770706140077114,-15.474653550350665,-0.2207198292016983,-0.19496051967144012,-0.34447166323661804
1772376828343396000,5.90939599609375,-0.24175383312758056,-0.3514228164512664,-15.461277351427077,-0.3236917555332184,-0.12524642050266266,-0.35535386204719543
1772376828353345300,5.91934521484375,-0.3161111549755558,0.060432183804735536,-15.497784250569342,-0.44326791167259216,-0.042236328125,-0.3416953682899475
1772376828363294200,5.929294189453125,-0.34140535337105393,0.5849188531149179,-15.716525201171637,-0.5048854947090149,0.1409207135438919,-0.2779044210910797
1772376828373243400,5.939243408203125,-0.35442349610459056,1.2580880904823541,-15.945684669935702,-0.40191522240638733,0.40716809034347534,-0.16084986925125122
1772376828383191300,5.94919140625,-0.3302350669939071,1.5962462786257265,-15.744161396116017,-0.1014544665813446,0.7201744914054871,-0.0002463557757437229
1772376828393140200,5.95914013671875,-0.2124575412175618,1.3830378277093172,-14.528511348390579,0.33795520663261414,1.0100287199020386,0.16678409278392792
1772376828403089400,5.96908935546875,-0.04878794150659814,0.8774132413879037,-11.932695228999853,0.7850357294082642,1.151381015777588,0.29370182752609253
1772376828413038300,5.979038330078125,-0.042213956244033755,0.3272939720407128,-8.247493973362445,1.1410622596740723,1.1238386631011963,0.3650614619255066
1772376828422987300,5.9889873046875,-0.10590955772493034,-0.04115151007771492,-4.315023591774702,1.3602948188781738,0.9413658380508423,0.3985957205295563
1772376828432935200,5.99893505859375,-0.1016822040871717,-0.14941256283223628,-0.646002486565709,1.4326773881912231,0.7056770324707031,0.41256147623062134
1772376828442884000,6.008884033203125,0.061347682081302625,-0.03778568690642714,2.350449612191319,1.4113984107971191,0.5115946531295776,0.4284594655036926
1772376828452833300,6.018833251953125,0.2064337143507786,0.15187763777151703,4.412488525226712,1.3395553827285767,0.4271787703037262,0.46321985125541687
1772376828462782200,6.0287822265625,0.296689702804666,0.4220893940225243,5.915421729382873,1.2615740299224854,0.438886821269989,0.5115306973457336
1772376828472731400,6.0387314453125,0.30995175556298343,0.7679774457655847,7.132025716832279,1.1951287984848022,0.48023363947868347,0.5567622780799866
1772376828482679000,6.048678955078125,0.14118346273982896,0.9564756721869111,8.189441597366333,1.1426862478256226,0.5133204460144043,0.5815789699554443
1772376828492628200,6.058628173828125,-0.12499123828113079,1.0483601751580833,9.119273885038494,1.1094963550567627,0.4883134663105011,0.570298969745636
1772376828502577400,6.068577392578125,-0.2143407428819686,1.2472159833341836,9.825415490746497,1.0945677757263184,0.4058614671230316,0.5736261010169983
1772376828512526300,6.0785263671875,-0.11634736510906368,1.3349367907546459,10.27166755838394,1.141966700553894,0.13723374903202057,0.5619311928749084
1772376828522475300,6.088475341796875,-0.417540535079129,1.4977777210891245,10.561029274654388,1.2132717370986938,0.0635259747505188,0.4875269830226898
1772376828532423200,6.098423095703125,-0.6391945601165294,1.8392516096517442,11.216875694364308,1.196362853050232,-0.000668652355670929,0.4112624526023865
1772376828542372400,6.108372314453125,-0.6382439083281904,2.2034031939685343,11.78314530352354,1.1441092491149902,-0.03609535098075867,0.3334640860557556
1772376828552321300,6.1183212890625,-0.5485272509153932,2.4320544209495187,12.329840443640947,1.048500657081604,-0.1008884608745575,0.25762611627578735
1772376828562270200,6.128270263671875,-0.40410449572708457,2.6294991932839156,12.895077787142991,0.8844872713088989,-0.21211591362953186,0.19936147332191467
1772376828572219100,6.13821923828125,-0.2378290243666619,2.85781432017833,13.354564599406718,0.6497324705123901,-0.29809558391571045,0.15216894447803497
1772376828582168300,6.148168212890625,-0.0029927703415043652,3.0050568454951048,13.623949695575236,0.32335197925567627,-0.31662559509277344,0.14637869596481323
1772376828592116200,6.1581162109375,0.19738991860831157,3.08747063254863,13.762490735781192,-0.11986193060874939,-0.3622014820575714,0.1804041862487793
1772376828602065400,6.1680654296875,0.12991441042963414,2.9129709747329353,13.341644327557086,-0.6130524277687073,-0.38100898265838623,0.21223722398281097
1772376828612014300,6.178014404296875,-0.19872275638096035,2.4947911553695796,12.245172447919845,-1.1127005815505981,-0.32701995968818665,0.21446706354618073
1772376828621963300,6.18796337890625,-0.728623340498656,2.040895879502594,10.800594402098655,-1.6420246362686157,-0.2337651252746582,0.16585078835487366
1772376828631911200,6.1979111328125,-1.2740994602151214,1.6229250267148017,8.923237518197297,-2.149406909942627,-0.0737285315990448,0.0741446390748024
1772376828641860400,6.2078603515625,-1.1661827639188618,1.2428019662842154,5.607320825850963,-2.467106580734253,0.14156566560268402,0.015418742783367634
1772376828651809300,6.217809326171875,-1.054553988296911,0.5954486496314406,1.7538965084493159,-2.5644643306732178,0.07736541330814362,-0.00871029868721962
1772376828661758200,6.22775830078125,-0.5999176117390393,0.47841202361658214,-2.544962130466103,-2.3130943775177,-0.09342976659536362,0.008564029820263386
1772376828671707100,6.23770703125,-0.10534246189408003,0.3381869758464396,-7.087688562455773,-1.7651004791259766,-0.32308387756347656,0.09250139445066452
1772376828681656000,6.247656005859375,0.13423640181459487,-0.03187763190641999,-10.345776750689744,-1.153960943222046,-0.5914413332939148,0.16327758133411407
1772376828691604200,6.257604248046875,-0.09193948456142097,-0.5884526532642543,-12.126769355857371,-0.6497286558151245,-0.828048586845398,0.17662492394447327
1772376828701553400,6.267553466796875,-0.56883036302533,-1.1714166459843516,-13.066746020925045,-0.32911446690559387,-0.9527337551116943,0.13644634187221527
1772376828711502300,6.27750244140625,-0.9470543483689426,-1.6380007230326532,-13.431398832762241,-0.191407710313797,-0.9283955693244934,0.0753428190946579
1772376828721451300,6.287451171875,-1.058717026260495,-2.044124047768861,-13.48725574454069,-0.19486582279205322,-0.8158844709396362,0.008344609290361404
1772376828731400200,6.297400146484375,-0.9056322777215391,-2.501426063339412,-13.549393928545713,-0.2512500286102295,-0.6701122522354126,-0.03946946561336517
1772376828741348400,6.307348388671875,-0.6750899032317101,-2.8030282525017856,-13.27315472869873,-0.3861159384250641,-0.503252387046814,-0.06377773731946945
1772376828751297300,6.31729736328125,-0.5484488884495571,-2.6402339377880093,-12.879755130326748,-0.5260153412818909,-0.3869551122188568,-0.04111433029174805
1772376828761246200,6.32724609375,-0.6861626475185155,-1.9930840347528456,-12.718871325409411,-0.6294935345649719,-0.27537983655929565,0.006049985531717539
1772376828771195100,6.337195068359375,-1.2381065019443631,-1.233367490723729,-12.672497696769236,-0.6697974801063538,-0.07565783709287643,0.05334494262933731
1772376828781144000,6.34714404296875,-1.9861822925403714,-0.5739006885595619,-12.37424189542532,-0.6113219261169434,0.20131412148475647,0.06987038999795914
1772376828791092200,6.35709228515625,-2.4600164868474006,-0.2425311376430094,-11.630678613817691,-0.44572845101356506,0.4594078063964844,0.06594645977020264
1772376828801041200,6.367041259765625,-2.4533158201649785,-0.3417953025367111,-10.150170007437467,-0.21155987679958344,0.663867175579071,0.05182105675339699
1772376828810990300,6.376990234375,-2.1881080096811054,-0.5149078168429434,-8.213730235448478,0.10012611746788025,0.7350777983665466,0.03420795127749443
1772376828820939300,6.386939208984375,-1.8000874739989636,-0.49754269441366195,-5.946946748459339,0.4374048113822937,0.6970252394676208,0.018209541216492653
1772376828830888200,6.39688818359375,-1.42775068353042,-0.43959260974824427,-3.2548908534973857,0.7193406224250793,0.5659846663475037,-0.002545441035181284
1772376828840836400,6.40683642578125,-1.0575303737591952,-0.34466347838416694,-0.41615562005937096,0.9185424447059631,0.390274316072464,-0.03397313877940178
1772376828850785300,6.416785400390625,-0.832544829678908,-0.12211889771521091,2.112988763549924,1.0299848318099976,0.2373410165309906,-0.07443021237850189
1772376828860734200,6.426734130859375,-0.5870179077534005,0.274709798322618,4.325533879873157,1.065161943435669,0.15611115097999573,-0.11847170442342758
1772376828870683100,6.43668310546875,-0.2713844898248091,0.6458532873533666,6.1664177669018505,1.036151647567749,0.11353795230388641,-0.15391805768013
1772376828880632000,6.446632080078125,0.09262711976571009,0.9272755889266728,7.63341456528008,0.9740890264511108,0.11314167082309723,-0.17906390130519867
1772376828890580200,6.456580322265625,0.4746948297243565,1.2827850171044468,8.66972336037755,0.9148147702217102,0.14294391870498657,-0.18130837380886078
1772376828900529200,6.466529052734375,0.8332358076177537,1.4980676439464091,9.410530036753416,0.8637497425079346,0.184303879737854,-0.17413941025733948
1772376828910478300,6.476478271484375,1.1840641653072088,1.817468524649739,9.84896470863819,0.8518674969673157,0.19625110924243927,-0.14139752089977264
1772376828920427300,6.48642724609375,1.6268581283800303,2.21602799000293,10.306014064621925,0.8540521264076233,0.15830905735492706,-0.0802697241306305
1772376828930376200,6.496376220703125,1.8095900463595986,2.3282944790065287,10.876189449048042,0.8679777979850769,0.009551803581416607,-0.0265858955681324
1772376828940324400,6.506324462890625,1.836621115017682,2.472626962095499,11.565904236090182,0.8028371334075928,-0.14862452447414398,0.00858860183507204
1772376828950273300,6.516273193359375,1.7681630803413688,2.7388448264047502,12.284863822317122,0.6067749261856079,-0.1778385490179062,0.03710651025176048
1772376828960222200,6.52622216796875,1.5368457028910516,2.939218053406477,12.820681010067462,0.2945813536643982,-0.1544376164674759,0.04598762094974518
1772376828970171100,6.536171142578125,1.293519761608541,3.165205906397104,12.942625135737657,-0.08541896939277649,-0.17353597283363342,0.03630392998456955
1772376828980120000,6.5461201171875,1.2512629206374286,3.3188416398823257,12.364218514060973,-0.46493300795555115,-0.23360571265220642,0.042300570756196976
1772376828990068200,6.556068115234375,1.3715221619606017,3.546077447107434,10.974987676930427,-0.7476177215576172,-0.2965722680091858,0.08793777972459793
1772376829000017200,6.56601708984375,1.3214913259871304,3.614795594024658,8.924775395289062,-0.884814977645874,-0.32343319058418274,0.14311182498931885
1772376829009966000,6.575966064453125,1.2743319537967444,3.3323078551769254,6.415282637611031,-0.8860264420509338,-0.3162113130092621,0.21997208893299103
1772376829019915300,6.585915283203125,1.222047055286169,2.9501684864878652,4.427836316484212,-0.8066959381103516,-0.20482246577739716,0.31721794605255127
1772376829029864200,6.5958642578125,1.1942802196994424,2.5418214943528175,2.9828806695222854,-0.774383544921875,-0.1326235830783844,0.4208272695541382
1772376829039812400,6.605812255859375,1.186058407864347,2.0167659391134976,2.1244494842410084,-0.8228378891944885,-0.13414238393306732,0.5256311297416687
1772376829049760800,6.6157607421875,1.1689860578365623,1.4886492427378892,0.7745370965421199,-0.8537307977676392,-0.18562422692775726,0.6291955709457397
1772376829059709700,6.625709716796875,1.0171080547388642,0.8017008516691625,-1.371708039921522,-0.8003389835357666,-0.3019936978816986,0.7185259461402893
1772376829069659000,6.635658935546875,0.6277865925259888,0.0696219638891518,-3.900833718830347,-0.6481201648712158,-0.38834697008132935,0.7485885620117188
1772376829079607800,6.64560791015625,0.2097169555388391,-0.6796398216210305,-6.237268249672651,-0.4216287136077881,-0.3926604986190796,0.741102397441864
1772376829089555700,6.6555556640625,-0.15310312444586305,-1.4679700273245573,-7.978831930771469,-0.2236357182264328,-0.2854439616203308,0.7002575397491455
1772376829099504600,6.665504638671875,-0.29235508940014987,-2.1353854504056273,-8.858113596379756,-0.07761698961257935,-0.18198762834072113,0.6336393356323242
1772376829109453600,6.67545361328125,-0.10476064341813325,-2.6846006105199454,-9.264996945703029,0.02283371612429619,-0.21331417560577393,0.5763853192329407
1772376829119402800,6.68540283203125,0.3961846625132486,-3.245938023974001,-9.468604040059446,0.07999473810195923,-0.36398330330848694,0.5453872084617615
1772376829129352000,6.69535205078125,0.6844323165945708,-3.6942052308261393,-9.752508659967779,0.08010371029376984,-0.596053957939148,0.5349519848823547
1772376829139299600,6.705299560546875,0.42831842460520564,-3.7553093956083057,-10.140669188642502,-0.0001242849975824356,-0.8159024119377136,0.5050782561302185
1772376829149248800,6.715248779296875,-0.36569618341028687,-3.651837915217876,-10.79993038523197,-0.17037302255630493,-0.8651803135871887,0.4344724714756012
1772376829159197700,6.72519775390625,-1.4440771105617285,-3.3227123438358306,-11.796472402608394,-0.3691108822822571,-0.7228884100914001,0.33292001485824585
1772376829169147000,6.73514697265625,-2.5177196110144258,-2.5785785688638687,-12.860610869395732,-0.4835817217826843,-0.4638008177280426,0.21805162727832794
1772376829179095800,6.745095703125,-3.2319244039297104,-1.6216266574673355,-13.925464790976047,-0.4110957980155945,-0.16793003678321838,0.13972966372966766
1772376829189043700,6.755043701171875,-3.3411697915464638,-0.7636696655690669,-14.392467385697364,-0.13751251995563507,0.0706334188580513,0.11499293148517609
1772376829198992600,6.76499267578125,-3.2464804602876303,-0.21075287445783614,-13.804111032414436,0.26163408160209656,0.2314060628414154,0.1258184164762497
1772376829208941800,6.77494189453125,-3.2829794683843847,0.04973842889815568,-11.929234859412908,0.6542290449142456,0.3501323461532593,0.1060720831155777
1772376829218890800,6.784890869140625,-3.438327558745444,-0.04282061233371496,-9.029633946123719,0.938946545124054,0.47015807032585144,0.025735702365636826
1772376829228839700,6.794839599609375,-3.502803830309212,-0.16377879570648074,-5.597693165805936,1.0812551975250244,0.5941652059555054,-0.10056008398532867
1772376829238787600,6.80478759765625,-3.179251382884383,-0.09858604643642901,-2.28724350669384,1.1300442218780518,0.65538090467453,-0.2308562994003296
1772376829248736500,6.814736572265625,-2.320345565828681,-0.017303163108974694,0.635946371975541,1.1032384634017944,0.6526210308074951,-0.31469613313674927
1772376829258686000,6.82468603515625,-1.233489801929146,0.19150179215148092,2.9181419476300476,1.0866975784301758,0.5870531797409058,-0.3383503258228302
1772376829268635000,6.834634765625,-0.26801267530415207,0.5372245703302323,4.593859822377563,1.087717890739441,0.48123931884765625,-0.3100200295448303
1772376829278583800,6.844583740234375,0.4211586159784347,0.9448563999332487,5.893453643202782,1.1164318323135376,0.36236459016799927,-0.25276979804039
1772376829288531700,6.85453173828125,0.8187189142264425,1.362350575120002,6.861081700783967,1.1736042499542236,0.2520987391471863,-0.17806954681873322
1772376829298480600,6.864480712890625,1.0385178494490683,1.7412417556680737,7.685263410460949,1.2255157232284546,0.18308745324611664,-0.1200331375002861
1772376829308429800,6.874429931640625,1.0316052935816347,2.074050837868452,8.547531397426129,1.247979998588562,0.14326131343841553,-0.08724895119667053
1772376829318378800,6.884378662109375,0.9317145942874252,2.321106028807163,9.391303942757844,1.2262980937957764,0.12217599898576736,-0.0809931829571724
1772376829328327700,6.89432763671875,0.8626325824938714,2.5466893926501273,10.18690487011671,1.142027497291565,0.13482490181922913,-0.10352359712123871
1772376829338275600,6.904275634765625,0.8710656259268522,2.838244235050678,10.839951429975033,1.0016274452209473,0.1548103243112564,-0.1350564956665039
1772376829348224500,6.914224609375,1.1018219354283063,3.239705559325218,11.246804384160042,0.825617790222168,0.1807587444782257,-0.1433897614479065
1772376829358174000,6.924174072265625,1.4214295176848768,3.3852924263894555,11.372076777470111,0.6152432560920715,0.23328374326229095,-0.13919875025749207
1772376829368123000,6.934122802734375,1.525533743020892,3.4586651211142536,11.208501833772658,0.437931090593338,0.26251015067100525,-0.11801030486822128
1772376829378071800,6.94407177734375,1.6783631285592913,3.858922330296039,10.843465575575827,0.32930901646614075,0.133378803730011,-0.059476956725120544
1772376829388019700,6.954019775390625,1.9981633838437496,4.0945156314998865,10.777633213227986,0.15504901111125946,-0.09719979763031006,0.03076210990548134
1772376829397969000,6.963968994140625,2.1121143188029525,3.8455274266719814,10.695948617231846,-0.09462766349315643,-0.2891356647014618,0.12901437282562256
1772376829407917800,6.973917724609375,1.9413779590435325,3.5346351388558745,9.98899043444395,-0.3502114713191986,-0.41352108120918274,0.23159518837928772
1772376829417866800,6.98386669921875,1.5086045277908444,3.3098063927724954,8.755473890638351,-0.6044629216194153,-0.4494923949241638,0.31002315878868103
1772376829427815700,6.993815673828125,0.9320742213800549,3.0747941063269972,7.340559161674976,-0.8505898118019104,-0.3397368788719177,0.37254682183265686
1772376829437763600,7.003763671875,0.27464937337227163,2.6998849811524153,5.521047733020782,-0.998390257358551,-0.18078424036502838,0.4023713171482086
1772376829447712800,7.013712646484375,-0.25466679845359175,2.0679604120388624,3.1162510290920733,-0.9932633638381958,-0.03114140033721924,0.40432605147361755
1772376829457661700,7.02366162109375,-0.4772102466113865,1.135832999166846,0.9542477670043706,-0.8569267988204956,0.06054963916540146,0.402649849653244
1772376829467611000,7.03361083984375,-0.39996947828158735,0.2750543739765882,-0.8841840506970882,-0.6513436436653137,0.02640417590737343,0.4209557771682739
1772376829477559800,7.043559814453125,-0.3073371160851791,-0.6411570923611521,-2.1013713909924028,-0.4659050405025482,-0.10327418893575668,0.4403502345085144
1772376829487507700,7.0535078125,-0.20223343138303607,-1.6792612464427947,-2.914877977398038,-0.37301239371299744,-0.27384981513023376,0.4401782751083374
1772376829497457000,7.063456787109375,-0.20051190482005476,-2.8241677789032456,-3.699179512107372,-0.37752220034599304,-0.44366124272346497,0.4110320806503296
1772376829507405800,7.07340576171875,-0.41069720852300523,-3.8220845917642112,-4.569987948402762,-0.4887072741985321,-0.6136078238487244,0.3365975022315979
1772376829517354800,7.083354736328125,-0.8354892125677317,-4.406958363628387,-5.678488119485974,-0.6935440301895142,-0.766584575176239,0.22153590619564056
1772376829527303700,7.0933037109375,-1.4647835062429309,-4.554182768766582,-7.0296344328939915,-0.9927229881286621,-0.861049473285675,0.0643119066953659
1772376829537251600,7.10325146484375,-2.2519898224830626,-4.317931295914947,-8.760707115116714,-1.3316051959991455,-0.853049099445343,-0.12331844866275787
1772376829547200800,7.11320068359375,-2.9990365622922774,-3.803811852970719,-10.946156719243525,-1.622504472732544,-0.7436580657958984,-0.32961323857307434
1772376829557149700,7.123149658203125,-3.2962995532065626,-3.1145500703930855,-13.74179281566739,-1.6642156839370728,-0.5697536468505859,-0.5142416954040527
1772376829567098600,7.1330986328125,-3.0276053619116543,-2.2397208541490135,-16.790440381085872,-1.3499994277954102,-0.3558741807937622,-0.5991239547729492
1772376829577047800,7.1430478515625,-2.4532728578060863,-1.2087423141635953,-18.826945039892195,-0.7870833277702332,-0.1095815896987915,-0.5678911805152893
1772376829586996000,7.152995849609375,-2.0402318626359106,-0.3148604607947171,-18.7721788459599,-0.19012482464313507,0.16186800599098206,-0.4700677692890167
1772376829596945000,7.16294482421875,-1.719431052006781,0.13636574199348686,-16.613302191460132,0.25459402799606323,0.4380125105381012,-0.34569841623306274
1772376829606893800,7.172893798828125,-1.560269540837407,-0.0033415655128657814,-13.35972943482399,0.5265358090400696,0.7024651169776917,-0.24986054003238678
1772376829616842800,7.1828427734375,-1.5801029530763626,-0.4060124117076397,-9.976676896315812,0.6652023792266846,0.9421507120132446,-0.20594316720962524
1772376829626791700,7.192791748046875,-1.6976714940108357,-0.7051312596216798,-6.793551302346587,0.7414800524711609,1.1386969089508057,-0.22183732688426971
1772376829636739800,7.20273974609375,-1.6860208037056028,-0.7739220333836972,-4.005613359209895,0.8019425868988037,1.2425801753997803,-0.26723942160606384
1772376829646688800,7.212688720703125,-1.463979496383667,-0.6020914486467838,-1.59088738194108,0.8861648440361023,1.2432823181152344,-0.31600743532180786
1772376829656637700,7.2226376953125,-1.101275918918103,-0.2926927603892982,0.6026046588659286,0.9826983213424683,1.1486375331878662,-0.3565253019332886
1772376829666586600,7.232586669921875,-0.6414607514828443,0.11486425041183829,2.614956288668513,1.0769519805908203,0.9714537858963013,-0.36121025681495667
1772376829676535800,7.242535888671875,-0.06418894252236933,0.5691412190727889,4.354345548337697,1.1686511039733887,0.7385931015014648,-0.3257122039794922
1772376829686483700,7.252483642578125,0.5264044490976258,1.1282983658783137,5.651427678602934,1.2883327007293701,0.5131468772888184,-0.23981964588165283
1772376829696433000,7.262432861328125,0.8089303645312785,1.6823583356752991,6.742794344055652,1.3860472440719604,0.3542296290397644,-0.13987919688224792
1772376829706381800,7.2723818359375,0.7374428259659558,2.0302321544080972,7.8088050344556565,1.4274115562438965,0.2818397879600525,-0.08466501533985138
1772376829716330800,7.282330810546875,0.5497286991270258,2.188327789911628,8.747122826400398,1.4235504865646362,0.26606589555740356,-0.08296485245227814
1772376829726279700,7.29227978515625,0.39762470525372773,2.3551783942788838,9.532342644998431,1.3812589645385742,0.2521899938583374,-0.12294340133666992
1772376829736227800,7.302227783203125,0.48310540559720244,2.6011805690333247,10.259672000163793,1.2915594577789307,0.20013903081417084,-0.18078193068504333
1772376829746176800,7.3121767578125,0.7568742332752794,2.9577582109645006,10.822132864689827,1.1725201606750488,0.1402697116136551,-0.2310696691274643
1772376829756125700,7.322125732421875,0.7615493124142289,3.3355081125229593,11.294753883814812,0.9893451929092407,0.02814212255179882,-0.3242928385734558
1772376829766074600,7.33207470703125,0.8952862402740865,3.679955463938415,11.566622028970718,0.754183828830719,0.03752465546131134,-0.38227248191833496
1772376829776023600,7.3420234375,1.5897233065977692,4.016826534880697,11.47709431825876,0.46159669756889343,0.07779697328805923,-0.34564709663391113
1772376829785971700,7.3519716796875,1.9050996079601346,4.175467237046361,11.40438096422553,0.13483725488185883,0.10802420228719711,-0.2639698386192322
1772376829795921000,7.3619208984375,1.888071316269785,4.234600101755559,10.938784729170798,-0.17486414313316345,0.11809440702199936,-0.1643817126750946
1772376829805869800,7.371869873046875,1.895521924536675,4.224017917464673,10.075443560016154,-0.44708237051963806,0.032317910343408585,-0.03191712871193886
1772376829815818800,7.38181884765625,1.8822960938692093,4.084727812457085,9.090167033019661,-0.6785829663276672,-0.12362242490053177,0.12052061408758163
1772376829825767700,7.391767578125,1.6682000464633107,3.5271322158798575,7.702079520705341,-0.8555753231048584,-0.2810271382331848,0.2624577283859253
1772376829835715800,7.4017158203125,1.1514680098678916,2.766276146426797,5.909256192490458,-0.9478785991668701,-0.39422106742858887,0.3749539256095886
1772376829845664800,7.411664794921875,0.35893593202773477,2.011334269453585,4.021687711176276,-0.9681974649429321,-0.4724554717540741,0.43375352025032043
1772376829855613700,7.42161376953125,-0.44312071080915627,1.1181655327901243,1.94285139259696,-0.9150210618972778,-0.48466289043426514,0.4264681935310364
1772376829865562600,7.431562744140625,-1.0311885294742882,0.09938976403474807,-0.23267770601809024,-0.7937700152397156,-0.41994473338127136,0.37338078022003174
1772376829875511600,7.441511474609375,-1.2014449967622756,-0.9257824277594685,-2.2927321672379968,-0.6255189776420593,-0.28202706575393677,0.3350384533405304
1772376829885459700,7.451459716796875,-0.9733039112605154,-1.9710010900214314,-3.811778886327147,-0.4746769666671753,-0.15984590351581573,0.30980122089385986
1772376829895408600,7.46140869140625,-0.6737699066743255,-3.0151074071273207,-4.761512390777469,-0.4126399755477905,-0.07521358132362366,0.2830987870693207
1772376829905357800,7.47135791015625,-0.4700171933021396,-3.9694761701628565,-5.359965775182843,-0.4640778601169586,-0.0578237846493721,0.21838408708572388
1772376829915306800,7.481306640625,-0.3451613083710894,-4.787594049756229,-5.9203691226571795,-0.613229513168335,-0.16057544946670532,0.1093105897307396
1772376829925255700,7.491255615234375,-0.19497978872666133,-5.296721091240644,-6.705020785978436,-0.8190662264823914,-0.41153374314308167,-0.00908498466014862
1772376829935203800,7.501203857421875,-0.2636180570743978,-5.285636218124628,-7.7358099408715955,-1.1069386005401611,-0.7454515099525452,-0.1503227949142456
1772376829945152800,7.51115283203125,-0.7530182154342532,-4.63066190507412,-9.249328251928091,-1.4122095108032227,-1.0258482694625854,-0.3102872669696808
1772376829955101700,7.521101806640625,-1.4516206578090787,-3.515898289681971,-11.638331174397468,-1.6035698652267456,-1.055928111076355,-0.47241759300231934
1772376829965050600,7.531050537109375,-1.9415129836000502,-2.186210797757655,-14.459972649693489,-1.5497075319290161,-0.7426061034202576,-0.5479146838188171
1772376829974999600,7.54099951171875,-2.0306229072913524,-0.7994612560488283,-16.531567326581477,-1.2563632726669312,-0.2211541086435318,-0.4941768944263458
1772376829984947700,7.55094775390625,-1.7511276282578705,0.21400486199110746,-17.017286312210558,-0.8098480701446533,0.37460824847221375,-0.3479652404785156
1772376829994896600,7.560896728515625,-1.2680864835359156,0.595042260787636,-15.697096862602233,-0.3593144118785858,0.7930486798286438,-0.16778162121772766
1772376830004845600,7.570845458984375,-0.8189572530269622,0.3550675296291709,-12.984420788937806,0.026221556589007378,1.0027152299880981,-0.021752670407295227
1772376830014794800,7.580794677734375,-0.6676585841871797,-0.062268824647366994,-9.848922623062133,0.33569687604904175,1.0628150701522827,0.07048964500427246
1772376830024743700,7.59074365234375,-0.8207162255235015,-0.2466328738734126,-6.700396048787236,0.5493029356002808,1.042235255241394,0.09157931059598923
1772376830034691800,7.60069189453125,-1.012544619280845,-0.2811339861512184,-3.730643740907311,0.6810330152511597,0.9612941145896912,0.0741148293018341
1772376830044640800,7.610640869140625,-1.0588516854908316,-0.23410817721262572,-1.0755986029565334,0.7399450540542603,0.8600682616233826,0.03413727506995201
1772376830054590500,7.620590576171875,-0.9672300712395459,-0.05740267991572618,1.1689648689180612,0.7438066005706787,0.7469038963317871,-0.0037413982208818197
1772376830064539400,7.630539306640625,-0.6677184246156365,0.14137290263101457,2.9589333922237158,0.7231231927871704,0.6566082239151001,-0.009852872230112553
1772376830074488300,7.64048828125,-0.3372096917795017,0.3704572603322565,4.308083563378453,0.6980186104774475,0.5905522704124451,0.023874199017882347
1772376830084436500,7.6504365234375,-0.03943539034221321,0.5569741036780178,5.399566548687219,0.6845008730888367,0.5257136821746826,0.08723904192447662
1772376830094385400,7.660385498046875,0.07611972841061651,0.7120353399217129,6.26865765967071,0.6876399517059326,0.4606582522392273,0.14734391868114471
1772376830104334600,7.67033447265625,-0.042245753321517254,0.8683125278264283,6.994448553222417,0.6870953440666199,0.4071238338947296,0.175931915640831
1772376830114283500,7.680283447265625,-0.300285718002636,1.0279641606003045,7.6037606007725,0.6877049207687378,0.3713948726654053,0.15583249926567078
1772376830124232400,7.690232421875,-0.5885066484738141,1.2235410932362079,8.163656583246588,0.6741915941238403,0.3426930606365204,0.10070022195577621
1772376830134180600,7.7001806640625,-0.7904056968033313,1.3955173700541257,8.674168064826727,0.6424365639686584,0.32364320755004883,0.018984321504831314
1772376830144129500,7.710129638671875,-0.8911739095844328,1.5377984735712409,9.122755881935358,0.5857320427894592,0.3070160150527954,-0.07580404728651047
1772376830154078500,7.720078369140625,-0.8454355831731111,1.7562533007085321,9.509340539595485,0.4998680055141449,0.29081016778945923,-0.16508013010025024
1772376830164027400,7.73002734375,-0.7242394263260066,1.945409844908118,9.853196647119521,0.3733710050582886,0.2549837827682495,-0.2316664606332779
