time,seconds_elapsed,accel_x,accel_y,accel_z,gyro_x,gyro_y,gyro_z
1772376871535447800,0.05744775390625,2.780289474210143,1.2851914937242865,0.2682458630055189,-1.4800485372543335,-0.05021688714623451,-0.8872128129005432
1772376871545396700,0.067396728515625,3.43474473182261,1.4394792613774536,0.10708499471247196,-1.4004186391830444,-0.23816175758838654,-0.7241450548171997
1772376871555345700,0.077345703125,3.6949767997205254,1.3538307301864028,-0.269452316185832,-1.2841352224349976,-0.34630611538887024,-0.571085512638092
1772376871565293800,0.0872939453125,3.599410977888107,1.303571784545481,-0.6237298644810915,-1.1647779941558838,-0.3755178153514862,-0.4256715476512909
1772376871575242800,0.09724267578125,3.394927685219049,1.3940645408973098,-0.6218874514847994,-1.1029654741287231,-0.37033969163894653,-0.30328574776649475
1772376871585190700,0.107190673828125,3.1912142078787085,1.3796739042341708,-0.2361170328170061,-1.1054288148880005,-0.37054821848869324,-0.21615619957447052
1772376871595140000,0.11714013671875,3.0188965702772137,1.1117166489116848,0.15450141040384768,-1.1059958934783936,-0.37282970547676086,-0.13697102665901184
1772376871605089000,0.127089111328125,2.800755923655629,0.8481677115507423,0.41225218288004395,-1.1130894422531128,-0.360788494348526,-0.06919118016958237
1772376871615037000,0.137036865234375,2.586362646868825,0.8047577550217508,0.6417331386834383,-1.0970386266708374,-0.3393782079219818,-0.013036231510341167
1772376871624985900,0.14698583984375,2.372714927752316,0.8592156136572361,0.8436655778259038,-1.0378503799438477,-0.3361493945121765,0.03193816915154457
1772376871634934800,0.156934814453125,2.1788088509380814,0.8076493848100305,0.8631003461360931,-0.934630811214447,-0.29588717222213745,0.05401913449168205
1772376871644883000,0.166883056640625,1.9264666595071553,0.5832261507876217,0.7612918305218219,-0.8229455351829529,-0.24067585170269012,0.06938210874795914
1772376871654831900,0.176831787109375,1.7156828053891657,0.4537707727044821,1.0236229165256023,-0.7432587146759033,-0.19955268502235413,0.08187354356050491
1772376871664779800,0.18677978515625,1.5894488735705614,0.32338951194807886,1.5190648392677306,-0.6907707452774048,-0.16350679099559784,0.08997887372970581
1772376871674729000,0.19672900390625,1.5110659494683145,0.10569164065793156,1.959569303163886,-0.6606983542442322,-0.10085330903530121,0.0970236212015152
1772376871684678000,0.206677978515625,1.3852588647596538,-0.1472274738781154,2.417471476584673,-0.6635103821754456,-0.0383361354470253,0.10806988179683685
1772376871694625800,0.216625732421875,1.2469962031036614,-0.2747213426299393,2.9718320367634297,-0.6813833713531494,0.004634159617125988,0.13021597266197205
1772376871704574700,0.22657470703125,1.1816006978031248,-0.34561274193301794,3.536810437068343,-0.6917057633399963,-0.0028607752174139023,0.17415866255760193
1772376871714524000,0.23652392578125,1.1342253447744994,-0.44675519485399123,4.036906907618046,-0.6800131797790527,-0.06935559213161469,0.21372953057289124
1772376871724471800,0.246471923828125,0.9686368692975491,-0.6452446539357304,4.404532013264298,-0.6508992314338684,-0.17258237302303314,0.24108046293258667
1772376871734420700,0.256420654296875,0.6344304144546389,-0.8609301624901592,4.731384963539242,-0.6052627563476562,-0.296148419380188,0.25319740176200867
1772376871744369000,0.266368896484375,0.07385996678508817,-1.0079850562803447,4.991665546754002,-0.546693742275238,-0.39635756611824036,0.23608554899692535
1772376871754317800,0.27631787109375,-0.6799678845316172,-1.104173978447169,5.085108385083079,-0.48606419563293457,-0.46005916595458984,0.17575295269489288
1772376871764267000,0.28626708984375,-1.3363266376778482,-1.2159263073835522,5.226840914806723,-0.49840104579925537,-0.5699039697647095,0.08390825241804123
1772376871774214700,0.296214599609375,-1.8348761710464954,-1.289741119852662,5.477451167878508,-0.6473713517189026,-0.773802638053894,-0.015878954902291298
1772376871784163800,0.306163818359375,-2.1536495675012466,-1.2173035870861262,5.43970040615499,-0.8822488188743591,-0.96417236328125,-0.10686478763818741
1772376871794113000,0.316113037109375,-2.177711411090195,-1.1895311985414474,4.566427041050791,-1.0959274768829346,-1.0664026737213135,-0.17173263430595398
1772376871804061000,0.32606103515625,-1.9849187023453414,-1.2613221039675175,2.5624703146278858,-1.1538901329040527,-1.0135947465896606,-0.18083852529525757
1772376871814009900,0.336009765625,-1.6806534314535557,-1.1898609419524668,-0.38989129799008365,-0.9967131018638611,-0.8653949499130249,-0.13172556459903717
1772376871823958000,0.3459580078125,-1.025541098171845,-1.0303446259960531,-3.6528263417333364,-0.6035069227218628,-0.5407881140708923,-0.02551816590130329
1772376871833907000,0.355906982421875,-0.3280782542861998,-0.9013984395440667,-6.6257829986125225,-0.058249473571777344,-0.1358509063720703,0.12508559226989746
1772376871843856000,0.36585595703125,0.30912695864401757,-0.6966054964039474,-8.523275492569804,0.4804893732070923,0.21359311044216156,0.2904183566570282
1772376871853803800,0.3758037109375,1.2409271123230456,-0.8220485701058059,-9.011992490971087,0.8402256965637207,0.31872010231018066,0.46246689558029175
1772376871863753000,0.3857529296875,2.3705144950985906,-1.4821552045434712,-8.233844218194484,0.9235810041427612,0.07950141280889511,0.6066818237304688
1772376871873702000,0.395701904296875,3.4653017826497554,-2.4292474007047713,-6.900816329801082,0.719392716884613,-0.44675445556640625,0.7171685099601746
1772376871883649800,0.40564990234375,4.103201919041574,-3.470822591897845,-5.945515838873386,0.2750566005706787,-1.0228564739227295,0.7686663269996643
1772376871893598700,0.4155986328125,3.894837401024997,-4.302740741045773,-6.269491187885404,-0.272263765335083,-1.5009543895721436,0.7211028337478638
1772376871903547000,0.425546875,2.654455939885974,-4.42648928578943,-7.957115189003944,-0.8513849377632141,-1.9881913661956787,0.5172716379165649
1772376871913495800,0.435495849609375,0.43560025217644865,-3.645712418074906,-10.221888505214451,-1.453691005706787,-2.515474557876587,0.25439390540122986
1772376871923444700,0.44544482421875,-1.7303350155979393,-2.545464527030289,-12.910077787876128,-1.8731769323349,-2.557410955429077,-0.01630602963268757
1772376871933392600,0.455392578125,-3.3432314002513883,-1.036446011611074,-16.205231093657016,-1.809152364730835,-2.18721866607666,-0.40866193175315857
1772376871943342000,0.465342041015625,-5.308838230013847,0.8518811791159212,-19.69442696211338,-1.2766048908233643,-1.324682354927063,-0.7518405914306641
1772376871953291000,0.475291015625,-5.164905559897423,1.8316873118773103,-21.34904008951187,-0.41548827290534973,-0.28443989157676697,-0.8700038194656372
1772376871963239000,0.485239013671875,-3.598711597447097,2.10912171285823,-21.02590937463045,0.5846397280693054,0.6377888321876526,-0.7834494709968567
1772376871973187800,0.495187744140625,-1.8524270253062247,2.180630221146345,-18.33262072300315,1.3928422927856445,1.1831872463226318,-0.6115100383758545
1772376871983136000,0.505135986328125,-0.3741106682732701,1.860803808507323,-13.21118021082282,1.867842435836792,1.468595027923584,-0.46941521763801575
1772376871993085000,0.5150849609375,0.5058826527357101,1.2857551189564167,-7.253346742168069,1.9915883541107178,1.5185226202011108,-0.4376053810119629
1772376872003033900,0.525033935546875,0.8092453487645834,0.553555600471422,-1.730988511070609,1.8480761051177979,1.308685541152954,-0.4845353662967682
1772376872012982000,0.53498193359375,1.1606055483084172,-0.24139197754524647,3.0262545318245886,1.5524131059646606,0.9221624135971069,-0.5657060146331787
1772376872022931000,0.544930908203125,1.3969146696314214,-0.7603205012716352,6.268250832435489,1.28304922580719,0.5863016247749329,-0.6027079820632935
1772376872032879900,0.5548798828125,1.6866396662563086,-0.5612533884324133,7.718544917815923,1.1116223335266113,0.5845972895622253,-0.6059606671333313
1772376872042827800,0.564827880859375,1.8344824955537915,0.3649168696008622,8.251876718491316,1.009500503540039,0.7707304358482361,-0.5567523837089539
1772376872052776700,0.574776611328125,1.9234294837683439,1.2365880602054298,8.55384891000986,1.0050855875015259,0.998112142086029,-0.43819791078567505
1772376872062724900,0.584724853515625,2.112915113791823,1.6302105075478552,8.817778078860044,1.089365005493164,1.1685116291046143,-0.2807249426841736
1772376872072673800,0.594673828125,2.154290788014233,1.6841713764466344,9.205734609395265,1.241326093673706,1.2163699865341187,-0.1260180026292801
1772376872082622700,0.604622802734375,1.8280609380736945,1.82760325743407,9.943054028177261,1.4232689142227173,1.1199188232421875,0.005969850346446037
1772376872092570000,0.614570068359375,1.351639796013385,1.9361703073978422,10.844272215783596,1.5938299894332886,0.922044038772583,0.10298578441143036
1772376872102519000,0.62451904296875,0.832274853631109,1.976116387208551,11.701868703806399,1.7127434015274048,0.7127289175987244,0.16760659217834473
1772376872112468000,0.634468017578125,0.2920064586255699,1.954380794610083,12.442053448891638,1.7792816162109375,0.5603026151657104,0.19533924758434296
1772376872122416000,0.644416015625,-0.2528308334643952,1.936213562017679,13.031267880308627,1.7222620248794556,0.47269341349601746,0.17597781121730804
1772376872132365300,0.654365234375,-0.8013057148717343,1.8802397458612918,13.51972710455656,1.5593351125717163,0.4836336374282837,0.11174558103084564
1772376872142313000,0.66431298828125,-1.3109293077014386,1.7306112021908162,13.83914610543847,1.2643182277679443,0.5484185218811035,0.022546466439962387
1772376872152262100,0.67426220703125,-1.6734719955168664,1.6458011676505206,14.014627760028839,0.8214828968048096,0.5977588295936584,-0.05135592445731163
1772376872162211000,0.684211181640625,-1.8207284032285211,1.583783687415719,13.787283816254138,0.30518731474876404,0.6359512209892273,-0.10011334717273712
1772376872172159200,0.6941591796875,-1.8146240950040518,1.2790841167598963,12.668069358932971,-0.16987693309783936,0.6261403560638428,-0.14137892425060272
1772376872182108200,0.704108154296875,-1.7177160647824405,0.7278039869397879,10.589011506557464,-0.532728374004364,0.5209017992019653,-0.17436857521533966
1772376872192057000,0.71405712890625,-1.491492795600742,0.3077493136152625,7.738067364409566,-0.6609050035476685,0.3553597033023834,-0.1868664175271988
1772376872202005200,0.724005126953125,-1.0577793070189654,-0.05324672928005457,3.8573108034461736,-0.4320864677429199,0.23485565185546875,-0.14497488737106323
1772376872211954200,0.7339541015625,-0.34115693156793714,-0.6063727792277932,-0.44857729571461674,0.03836628049612045,0.1574009209871292,-0.07956012338399887
1772376872221902000,0.743902099609375,0.3159154497403651,-1.3193150048613547,-3.7340620249181984,0.4781077206134796,0.018271267414093018,-0.03732585906982422
1772376872231851000,0.75385107421875,0.8621772399418055,-1.9870733961611986,-5.20491491420269,0.6974983811378479,-0.20963172614574432,-0.019995136186480522
1772376872241800200,0.76380029296875,1.3596623589493333,-2.7692905258119103,-5.307669770756363,0.6193564534187317,-0.5106828808784485,-0.05095465108752251
1772376872251748000,0.773748046875,1.50879435127452,-3.5435230864495035,-5.014041629213095,0.2639152705669403,-0.7641773819923401,-0.10538703203201294
1772376872261697000,0.783697021484375,1.3417360955059527,-3.9655020058348773,-5.052790754324198,-0.22251750528812408,-0.7977124452590942,-0.16632680594921112
1772376872271646000,0.79364599609375,1.135626736005023,-4.189551291978359,-6.0894455863803625,-0.6819319725036621,-0.6413054466247559,-0.2293076068162918
1772376872281594000,0.803593994140625,0.9489313942871987,-4.263522537118196,-7.780595423537492,-1.0657427310943604,-0.47394147515296936,-0.3105548024177551
1772376872291543000,0.81354296875,0.6918823403395712,-4.150091972771286,-9.045213792571426,-1.4198120832443237,-0.5250834226608276,-0.4511479139328003
1772376872301491000,0.823490966796875,0.14388997261901385,-3.8225451950132845,-9.422218136459588,-1.7947242259979248,-0.7421364188194275,-0.649176836013794
1772376872311440100,0.833440185546875,-0.5495143622566014,-3.040890667681396,-9.409302540785074,-2.1546289920806885,-0.8582675457000732,-0.8447461724281311
1772376872321389300,0.843389404296875,-1.0108143614221363,-1.940184949866682,-9.504422372415661,-2.458735227584839,-0.7552365064620972,-0.9721168875694275
1772376872331337200,0.853337158203125,-1.131684501185268,-0.6632480742685496,-9.309465032982827,-2.662459373474121,-0.48578956723213196,-0.9943974614143372
1772376872341286100,0.8632861328125,-0.9875302972726523,0.5373455663613975,-8.808951798325776,-2.7242085933685303,-0.12772037088871002,-0.9304941296577454
1772376872351235000,0.873235107421875,-0.7735700781408696,1.3407884393922984,-8.140431775003671,-2.6533291339874268,0.277880996465683,-0.8372241258621216
1772376872361183200,0.883183349609375,-0.7892016547758132,1.7935773614525794,-7.404175601539015,-2.436979293823242,0.7037822008132935,-0.7471003532409668
1772376872371132200,0.893132080078125,-0.8684129925262183,2.06899998421967,-6.4977171751916405,-2.0857272148132324,1.0617263317108154,-0.6461297869682312
1772376872381080000,0.903080078125,-0.841763981988281,2.1732855574719605,-5.060528070577979,-1.6894201040267944,1.210217833518982,-0.5664565563201904
1772376872391029000,0.913029052734375,-0.7921993022218347,2.1410595505192873,-3.0486890664726496,-1.2972965240478516,1.111269235610962,-0.5207530856132507
1772376872400978200,0.922978271484375,-0.629749636227265,1.8660612906441092,-0.9755237792670726,-0.9181005954742432,0.8249698877334595,-0.489101380109787
1772376872410926000,0.932926025390625,-0.4764678672788664,1.5176827372595667,0.8615268132090568,-0.5457972884178162,0.4620821475982666,-0.44657865166664124
1772376872420875000,0.942875,-0.2642142694018781,1.2133606216140091,2.242045351573825,-0.1819269359111786,0.11874395608901978,-0.3609311282634735
1772376872430824000,0.952823974609375,-0.1288326430749148,0.9104072370383888,3.3396628941148516,0.14767946302890778,-0.09235280752182007,-0.24104294180870056
1772376872440772000,0.962772216796875,-0.19368746562749145,0.7060301812227815,4.204706191012263,0.4195413291454315,-0.16291379928588867,-0.13559746742248535
1772376872450721000,0.972720947265625,-0.5118637729719281,0.4979325705140829,5.035857739701867,0.6325848698616028,-0.1015009880065918,-0.0671975389122963
1772376872460669000,0.9826689453125,-0.9031807198509574,0.34454419938605274,5.839663016304374,0.8158204555511475,0.06594792753458023,-0.03593069314956665
1772376872470618000,0.9926181640625,-1.2201725666511802,0.265375933592394,6.614160365357995,0.9502313137054443,0.28212040662765503,-0.015648696571588516
1772376872480567300,1.0025673828125,-1.2723913411229848,0.16045907669924198,7.549254519081115,1.0427937507629395,0.47573620080947876,-0.0019459330942481756
1772376872490515000,1.012514892578125,-1.064978132481873,0.08820486461035906,8.588297707578539,1.0950191020965576,0.5637341737747192,0.024183008819818497
1772376872500464000,1.022464111328125,-0.7489016469608992,0.10935827340669929,9.578624503701924,1.1107605695724487,0.5420805215835571,0.05320587009191513
1772376872510413000,1.0324130859375,-0.501778870678693,0.09877265504971146,10.38317679927945,1.0714043378829956,0.44792988896369934,0.08638862520456314
1772376872520361200,1.042361328125,-0.38454708741791543,0.018500117808580397,11.083145269310474,0.951232373714447,0.32632195949554443,0.10263736546039581
1772376872530310100,1.05231005859375,-0.46863867149055,-0.03930347105823457,11.698168680244683,0.7569510340690613,0.14915990829467773,0.07176517695188522
1772376872540258000,1.062258056640625,-0.8869395599503069,-0.19518121131658553,11.910741755867004,0.49051353335380554,0.07206965982913971,0.06080440804362297
1772376872550207200,1.072207275390625,-0.8195216819766908,0.31833909669071436,11.739419559043645,0.16737699508666992,0.02223975956439972,0.08824997395277023
1772376872560156200,1.08215625,-0.7148373186651616,0.6099141050964594,11.303965948796272,-0.15406309068202972,-0.07035302370786667,0.12591320276260376
1772376872570104000,1.09210400390625,-0.9957036668561399,0.44791839341446754,10.09525885207653,-0.44656896591186523,-0.1429126113653183,0.14185741543769836
1772376872580053000,1.102052978515625,-1.0428068518798799,0.19402816882394253,8.21424870636463,-0.6714348793029785,-0.18189649283885956,0.14978404343128204
1772376872590002200,1.112002197265625,-1.1229225911241023,-0.17349121142551302,5.71320287451446,-0.7249180674552917,-0.12833572924137115,0.13624396920204163
1772376872599950000,1.1219501953125,-1.299496351800114,-0.5729502559669315,2.5556781702697275,-0.6327292919158936,-0.03585665673017502,0.0835525244474411
1772376872609899000,1.13189892578125,-1.321087129100412,-0.9900008521046489,-0.4695230531096458,-0.4542982578277588,-0.008934571407735348,-0.004524035379290581
1772376872619847200,1.14184716796875,-0.8224818469565361,-1.5965356169611216,-3.1537574606657026,-0.1888841837644577,-0.11416911333799362,-0.08834543824195862
1772376872629796000,1.151796142578125,0.2090526464112103,-2.4027833182796834,-5.615151665607095,0.12414483726024628,-0.3897584080696106,-0.15480205416679382
1772376872639745000,1.1617451171875,1.0838653499118982,-2.9213574025452136,-7.410214881703257,0.3707577884197235,-0.7976665496826172,-0.2540298402309418
1772376872649693000,1.17169287109375,1.38991896552518,-3.2201597318559885,-8.296154251635073,0.4675469398498535,-1.1895380020141602,-0.3924964666366577
1772376872659642000,1.18164208984375,1.4157403661325574,-3.597852058008313,-8.63677093884647,0.3769872188568115,-1.4740853309631348,-0.5421022176742554
1772376872669591300,1.19159130859375,1.3145229482792318,-3.892289470107853,-8.6443013343513,0.09654516726732254,-1.5793828964233398,-0.6961170434951782
1772376872679539200,1.201539306640625,0.895120747514069,-3.8699978510618207,-8.398049861010909,-0.40061721205711365,-1.4940181970596313,-0.8815092444419861
1772376872689488100,1.211488037109375,0.1347466711579822,-3.611420272372663,-7.973834853136539,-1.1374008655548096,-1.3092916011810303,-1.1202472448349
1772376872699436300,1.221436279296875,-0.8103297099351883,-3.08792802092731,-7.490097981235384,-1.9942517280578613,-1.067834734916687,-1.4198132753372192
1772376872709385200,1.23138525390625,-1.4938763297364115,-2.153008054727316,-7.878594025474786,-2.689152956008911,-0.7133165001869202,-1.6832894086837769
1772376872719334100,1.241334228515625,-1.28442956944108,-0.8380309329397976,-9.530407293021678,-2.9505791664123535,-0.251648485660553,-1.764420747756958
1772376872729282000,1.251281982421875,-0.18354591950988397,0.607780819394812,-11.528679544067382,-2.7922723293304443,0.18991003930568695,-1.6298435926437378
1772376872739231200,1.261231201171875,1.1158321944717318,1.747915388213098,-12.440254290515183,-2.425677537918091,0.464816153049469,-1.334587812423706
1772376872749180200,1.27118017578125,2.1734372409023344,2.397459492908418,-11.508356887006759,-2.034717321395874,0.5324071049690247,-0.9596303701400757
1772376872759128000,1.281128173828125,2.7654934716165065,2.5078704171732067,-9.316714273458718,-1.685478687286377,0.4610445201396942,-0.5987430214881897
1772376872769077000,1.291076904296875,2.7205767637863754,2.168532809986919,-6.814282540208101,-1.3749780654907227,0.3081393241882324,-0.2871919274330139
1772376872779025200,1.301025146484375,2.236916610383242,1.577582494688034,-4.631262209054827,-1.1127557754516602,0.17152580618858337,-0.02919819764792919
1772376872788974000,1.31097412109375,1.5008192807421088,0.9414915266100317,-2.83510769059062,-0.8981494903564453,0.13487334549427032,0.15453770756721497
1772376872798923000,1.320923095703125,0.5392403671320527,0.5228563646946102,-1.3615648315697908,-0.6969351768493652,0.24653995037078857,0.2458319365978241
1772376872808871000,1.330870849609375,-0.30902284068241714,0.24761611275710163,-0.24528525865674017,-0.4477272033691406,0.4217188358306885,0.2678527534008026
1772376872818820000,1.340820068359375,-0.7441061563126743,0.018555793518573043,0.6086328331142664,-0.09429802000522614,0.5497391223907471,0.25644776225090027
1772376872828769300,1.350769287109375,-0.6911313758417964,-0.10533128291293978,1.4971949527651072,0.33284929394721985,0.564995288848877,0.25477927923202515
1772376872838717200,1.36071728515625,-0.30089851613873614,-0.1208922785297036,2.6084499755144117,0.7553526163101196,0.48770371079444885,0.28356486558914185
1772376872848666000,1.370666015625,0.2669284237314015,-0.11955913022980093,3.908899536386132,1.1289340257644653,0.3573727309703827,0.36606886982917786
1772376872858614300,1.3806142578125,0.883974645730108,-0.040580651387199754,5.302466941416263,1.4144905805587769,0.17981445789337158,0.5043050050735474
1772376872868563200,1.390563232421875,1.3870008861213923,0.012326032283529638,6.731824621751904,1.5943293571472168,-0.011830510571599007,0.6647939682006836
1772376872878512000,1.40051220703125,1.5284142668932676,-0.07116283665560186,8.023952929002046,1.664555549621582,-0.15546196699142456,0.8131618499755859
1772376872888460000,1.4104599609375,1.3489742300659417,-0.27087438487820326,9.04512845237553,1.639377236366272,-0.23537993431091309,0.9130346775054932
1772376872898409200,1.4204091796875,0.76523516132012,-0.47974886171091347,9.837110604715347,1.507584571838379,-0.21638652682304382,0.9502965807914734
1772376872908357000,1.430357177734375,0.03144187083765864,-0.5894341751148924,10.442053351140022,1.2957499027252197,-0.14369012415409088,0.9186985492706299
1772376872918306000,1.44030615234375,-0.6859605490751564,-0.6209247439324855,10.869951431441306,1.0099562406539917,-0.059354472905397415,0.8387147188186646
1772376872928255000,1.4502548828125,-1.2294631767615676,-0.5536356799703092,11.048037715572118,0.6843807101249695,0.015586751513183117,0.7444471120834351
1772376872938203100,1.460203125,-1.3466846578240395,-0.4714630081962794,10.813832653856277,0.3284479081630707,0.01331241149455309,0.6533344984054565
1772376872948152000,1.470152099609375,-1.5706947810009122,-0.3127963678717613,10.272020609605311,-0.017205366864800453,-0.06363178044557571,0.537329912185669
1772376872958101000,1.48010107421875,-1.760233602516353,0.029028160759434103,9.146916509723663,-0.2940963804721832,-0.13639813661575317,0.4468921720981598
1772376872968049200,1.490049072265625,-1.5653094347007572,0.29121483332384374,7.250699442529678,-0.4921324551105499,-0.3123679459095001,0.39867404103279114
1772376872977998000,1.499998046875,-1.4347253448486328,0.5714654242366553,4.882009824770689,-0.49372902512550354,-0.5433667898178101,0.37463581562042236
1772376872987946000,1.509946044921875,-1.2489371080383658,0.946751566030085,2.0139766006559134,-0.2473200559616089,-0.6639926433563232,0.3670664131641388
1772376872997895000,1.51989501953125,-0.9534828470464796,1.2394960566066204,-1.0237824910014868,0.24273353815078735,-0.616489589214325,0.38137373328208923
1772376873007844000,1.529843994140625,-0.6639179363541304,1.5397719656012951,-3.9445109479933973,0.9386675953865051,-0.394531786441803,0.4275815784931183
1772376873017792300,1.539792236328125,-0.3230414291627705,1.614828521759808,-6.241327754196524,1.663591742515564,-0.0993422344326973,0.4787963032722473
1772376873027741200,1.5497412109375,0.14256193888564594,1.1296215773060918,-7.004774132403731,2.1796090602874756,0.09842419624328613,0.48380962014198303
1772376873037690000,1.559690185546875,0.7354240334894507,-0.004986263979971408,-6.103442547550797,2.3277339935302734,0.11826632916927338,0.42406001687049866
1772376873047638300,1.56963818359375,1.7894281328186392,-1.5527116728037595,-4.234406917271018,2.0957400798797607,-0.026856865733861923,0.374612957239151
1772376873057587200,1.579587158203125,3.195745421567559,-3.2153406411364673,-2.436186113926768,1.5164436101913452,-0.25999265909194946,0.3698885142803192
1772376873067535000,1.58953515625,4.028367042809725,-4.534084568111599,-0.9926245516717433,0.6656842231750488,-0.52860027551651,0.35843896865844727
1772376873077484000,1.599484130859375,3.9569191786676643,-5.075505274957418,-0.19798048664629458,-0.2857833206653595,-0.7465453743934631,0.29283520579338074
1772376873087433200,1.60943310546875,3.0332968515515324,-4.66101349645704,-0.377232891947031,-1.2320866584777832,-0.9095532298088074,0.15632101893424988
1772376873097382000,1.6193818359375,1.542568026060611,-3.7830402830988166,-1.4012363322228192,-2.157111406326294,-1.0108615159988403,-0.07284080982208252
1772376873107330800,1.629330810546875,-0.2627769300751388,-2.782098569458723,-3.034516164213419,-3.0127861499786377,-1.0049731731414795,-0.4523928165435791
1772376873117279700,1.63927978515625,-2.1945479796007272,-1.4586599087961016,-5.359459579226375,-3.5156378746032715,-0.8143308162689209,-0.9365506768226624
1772376873127228000,1.649227783203125,-3.2612846461877223,0.22856033382713795,-8.80959711049199,-3.4817519187927246,-0.4333396553993225,-1.285129427909851
1772376873137176800,1.6591767578125,-2.866227343736589,1.9144319383203983,-12.348252883166074,-2.9986281394958496,0.021425742655992508,-1.3130794763565063
1772376873147124700,1.669124755859375,-1.3568334191337228,3.2527930044353006,-14.25489080660939,-2.395930051803589,0.3354294002056122,-1.0081621408462524
1772376873157074000,1.679073974609375,0.4271082450978458,3.6664483321115373,-13.64425247889161,-1.7268812656402588,0.7302451133728027,-0.6410720348358154
1772376873167022800,1.68902294921875,1.5542612403333187,3.5340345426142212,-11.62570082540512,-1.167407751083374,0.8192716836929321,-0.2981836497783661
1772376873176971000,1.698970947265625,1.4555587279103694,2.79200738453269,-9.22027108426988,-0.7605831027030945,0.7461149096488953,0.07483945786952972
1772376873186920000,1.708919921875,1.528138518691808,1.6987784323394297,-6.497196950709819,-0.47279390692710876,0.6592526435852051,0.415062814950943
1772376873196867800,1.718867919921875,1.0413368523925541,1.0583983887653796,-4.268645286959409,-0.29381802678108215,0.5449641346931458,0.6552620530128479
1772376873206817000,1.728817138671875,-0.05313957911115139,0.49352870953194794,-2.3898089781552554,-0.13086456060409546,0.4772863984107971,0.7905654907226562
1772376873216766000,1.738765869140625,-0.9608416123114526,-0.10672222581468523,-1.2307611076176166,0.08936368674039841,0.49509018659591675,0.8300950527191162
1772376873226713900,1.7487138671875,-1.6024866343200206,-0.6751741474490612,-0.5609498754411936,0.3974357545375824,0.541304886341095,0.7848240733146667
1772376873236662800,1.758662841796875,-2.1639454821966586,-1.123475914157927,0.11301672284901142,0.8049995303153992,0.5881959199905396,0.6778161525726318
1772376873246611700,1.76861181640625,-2.371492400220036,-1.2275256328277289,0.8689683613866567,1.2599159479141235,0.6115732192993164,0.5549708008766174
1772376873256559900,1.778559814453125,-2.290179267884791,-1.0756777326073497,2.0022230344980954,1.6869490146636963,0.5570369958877563,0.4277784526348114
1772376873266508800,1.7885087890625,-2.002563518498838,-0.8394482523918151,3.4879520058751106,2.051474094390869,0.4198085069656372,0.32391002774238586
1772376873276457000,1.79845703125,-1.5030295041374861,-0.4862340590117499,5.114224589452147,2.326976776123047,0.23346687853336334,0.24597634375095367
1772376873286406000,1.808406005859375,-0.9788898946993052,-0.11360927278152666,6.6587137928336855,2.493234395980835,0.034447647631168365,0.20223237574100494
1772376873296354800,1.818354736328125,-0.49933615370169276,0.2341735705990344,8.013427443334459,2.5455644130706787,-0.12684430181980133,0.177107572555542
1772376873306302700,1.828302734375,-0.12609339083675294,0.4245321109995246,9.13509513902664,2.4749815464019775,-0.2144034206867218,0.18913324177265167
1772376873316251600,1.838251708984375,0.159094638211932,0.5540690298862755,10.054648609268664,2.3056998252868652,-0.20581260323524475,0.24216343462467194
1772376873326201000,1.848201171875,0.3379823931850493,0.6278212254479527,10.720898349571227,2.0476837158203125,-0.13782700896263123,0.3193364441394806
1772376873336149000,1.85814892578125,0.311977671900019,0.6033089346777647,11.158170991939306,1.713037371635437,-0.05903632193803787,0.3860243856906891
1772376873346098000,1.868097900390625,0.08211219202475621,0.5564680538520217,11.406858167994022,1.3387786149978638,0.03278322517871857,0.42702555656433105
1772376873356046000,1.878046142578125,-0.31757081573195756,0.5305013995550573,11.385174743974208,0.9597339630126953,0.11693352460861206,0.4299134910106659
1772376873365995000,1.8879951171875,-0.7125627247966826,0.525352638489753,11.081031638157366,0.5531984567642212,0.10713130235671997,0.41375815868377686
1772376873375944000,1.89794384765625,-1.0802880759470164,0.4835742286853492,10.454297915685176,0.13670536875724792,-0.004968605469912291,0.4010700583457947
1772376873385891800,1.907891845703125,-1.30634811739102,0.5159475351542234,9.306550022318959,-0.20118719339370728,-0.22657422721385956,0.40628349781036377
1772376873395840800,1.9178408203125,-1.2372836412541568,0.5217125284217298,7.337562317946553,-0.3718220591545105,-0.5196018815040588,0.4416068494319916
1772376873405789000,1.927788818359375,-1.2178739343199878,0.29669191302806136,4.509609759807587,-0.29437679052352905,-0.6032653450965881,0.42782923579216003
1772376873415737900,1.93773779296875,-1.5275412834510207,-0.20566475753858685,1.0121487518310546,0.035008836537599564,-0.37162095308303833,0.35007452964782715
1772376873425686800,1.947686767578125,-1.5377262851178646,-0.7577145565569401,-2.2672920210331675,0.5849475860595703,0.020368754863739014,0.27576974034309387
1772376873435635000,1.957635009765625,-0.7832829322513193,-1.4775621776647865,-5.0161494151473045,1.2001926898956299,0.42647525668144226,0.3095759153366089
1772376873445584000,1.967583984375,0.8359824029121548,-2.5528958460748195,-6.15976006257832,1.5845270156860352,0.5560929775238037,0.4501892328262329
1772376873455532800,1.97753271484375,2.3765613740473985,-3.6705578132569787,-5.2404760569274424,1.5167810916900635,0.3831733763217926,0.6092475652694702
1772376873465480700,1.987480712890625,3.2418793962329624,-4.523509105822444,-3.111491851866245,0.9868542551994324,0.059910476207733154,0.7185444235801697
1772376873475430000,1.997429931640625,3.322098303590715,-5.099095409381389,-1.1068991656273603,0.12845702469348907,-0.24294127523899078,0.7981092929840088
1772376873485377800,2.007377685546875,2.6944436668813228,-5.069906724298,-0.16225860040187834,-0.9015879034996033,-0.5096564292907715,0.7897148728370667
1772376873495326700,2.01732666015625,1.1989438275963067,-4.284931820371747,-0.5559487061530352,-1.8837251663208008,-0.7404595613479614,0.5952407717704773
1772376873505276000,2.02727587890625,-0.7833380965046585,-3.1897108175784346,-2.3800913017392156,-2.576780080795288,-0.7985193133354187,0.27277353405952454
1772376873515224000,2.03722412109375,-2.01191206934154,-2.1784379717990756,-5.458084788629412,-2.8167450428009033,-0.5500215888023376,-0.030194085091352463
1772376873525173000,2.047173095703125,-2.0380396132886407,-1.4837410124301909,-8.926156035992502,-2.6373202800750732,-0.05173632875084877,-0.18475602567195892
1772376873535122000,2.057121826171875,-1.345754683497548,-0.7939980222068727,-11.222462554585933,-2.2576098442077637,0.5267032980918884,-0.1724727302789688
1772376873545069800,2.06706982421875,-0.4623831182271242,0.09534673572164028,-11.24887592973709,-1.8919482231140137,0.9295091032981873,-0.052335307002067566
1772376873555019000,2.07701904296875,0.12626304831523447,0.8432257251039147,-9.164255182537437,-1.664725422859192,1.0203828811645508,0.09997646510601044
1772376873564967000,2.086966796875,0.2627146602275781,1.1441546911798417,-6.165009653669595,-1.604056477546692,0.8357552289962769,0.20597782731056213
1772376873574915800,2.096915771484375,-0.21754138382049276,1.0820012365404517,-3.3169740924447773,-1.7368569374084473,0.5284762382507324,0.16987068951129913
1772376873584864800,2.10686474609375,-1.3316982472248375,0.9090313455753027,-1.0138719223618506,-2.0252833366394043,0.11564511060714722,-0.03855528309941292
1772376873594813000,2.11681298828125,-2.6065862274691463,0.9313708954162895,0.5191273342341184,-2.345466375350952,-0.18755283951759338,-0.37326961755752563
1772376873604761900,2.126761962890625,-3.7147882923886177,1.0889102122113108,0.719729986077547,-2.626102924346924,-0.21104365587234497,-0.7867975831031799
1772376873614709800,2.136709716796875,-4.316822457890212,1.3447133577510715,-0.05361877746284008,-2.7122247219085693,0.011694086715579033,-1.1421362161636353
1772376873624659000,2.146658935546875,-3.480237193714082,1.683356114540994,-1.6819745970547197,-2.4630448818206787,0.3009152412414551,-1.2752794027328491
1772376873634607900,2.15660791015625,-1.491815159422904,1.9820564447820186,-3.5601275997698303,-1.8666319847106934,0.5416106581687927,-1.1502423286437988
1772376873644555800,2.1665556640625,0.6923288419980556,2.1138130855448543,-4.814789807456732,-1.0519115924835205,0.6606643199920654,-0.8009271025657654
1772376873654504700,2.176504638671875,2.541758365988731,2.0469201082281767,-5.002274619051814,-0.1703254133462906,0.6327149868011475,-0.33850571513175964
1772376873664453600,2.18645361328125,3.7063475040405987,1.7297993012860415,-4.187521831977367,0.6609488725662231,0.5159528851509094,0.12446922808885574
1772376873674401800,2.19640185546875,3.8830066779777406,1.1998057051226496,-2.5526269660055636,1.3327723741531372,0.36943674087524414,0.48655498027801514
1772376873684351000,2.20635107421875,3.1724750206172465,0.7514553500317037,-0.36302550289630886,1.7784699201583862,0.26775988936424255,0.6968348622322083
1772376873694298600,2.216298583984375,1.976219993713498,0.42038646256215867,1.9583108275353907,1.9895992279052734,0.2803662121295929,0.7575847506523132
1772376873704248000,2.226248046875,0.836036544252187,0.11336356352530419,4.121754351559281,2.0017318725585938,0.40499013662338257,0.7203857898712158
1772376873714197000,2.236197021484375,0.01838657443150878,-0.2412131869122386,5.856324228248,1.8962024450302124,0.5482890009880066,0.6342157125473022
1772376873724145000,2.246144775390625,-0.457010156484507,-0.5302144723724573,7.0884998788386575,1.7453100681304932,0.6167009472846985,0.5113047957420349
1772376873734093800,2.25609375,-0.7023174443099648,-0.6152605806909501,7.931042590114473,1.5760345458984375,0.6757205724716187,0.38301631808280945
1772376873744042000,2.2660419921875,-0.7076341823533177,-0.7363599261000752,8.462831253001093,1.3950564861297607,0.6528841257095337,0.2677091956138611
1772376873753991000,2.275990966796875,-0.6318355756558478,-0.8086672566156834,8.791291053950786,1.228642225265503,0.5173124670982361,0.18511660397052765
1772376873763939800,2.28593994140625,-0.43783283353410657,-0.6391177685532718,8.804796432211994,1.0802381038665771,0.2647438049316406,0.12384571880102158
1772376873773888000,2.295887939453125,-0.29031207579784096,-0.3855754806175828,8.477911917755007,0.9792341589927673,-0.09587375074625015,0.07676476240158081
1772376873783837000,2.3058369140625,-0.26379480188079174,-0.10899424413358792,7.636616576191782,0.9411607980728149,-0.48321375250816345,0.0276454146951437
1772376873793785900,2.315785888671875,-0.4037358450777829,0.05404675708394497,6.210933200454711,0.9490717649459839,-0.8802473545074463,-0.035070694983005524
1772376873803733800,2.325733642578125,-0.5504547849118709,0.0237077694542706,4.6601545415401455,1.0152249336242676,-1.2567957639694214,-0.08661937713623047
1772376873813682700,2.3356826171875,-0.6394739615797996,0.04249108811840415,2.794951621291041,1.157119870185852,-1.5820844173431396,-0.14905665814876556
1772376873823630800,2.345630859375,-0.7012564640149473,0.08833462846986949,0.44704935549497604,1.5036849975585938,-1.7257652282714844,-0.21221627295017242
1772376873833579800,2.355579833984375,-0.7214514761079103,0.11747545582354069,-2.24207282410264,2.0649900436401367,-1.7093178033828735,-0.24548767507076263
1772376873843528700,2.36552880859375,-0.5944770646529272,-0.07418941793516277,-4.670966442933678,2.752873420715332,-1.6205395460128784,-0.2580236494541168
1772376873853476900,2.375476806640625,-0.29317617825837805,-0.593209930793941,-6.05899316497147,3.326744318008423,-1.5830587148666382,-0.24355843663215637
1772376873863426000,2.385426025390625,0.2934479992033914,-1.372680099824071,-5.8482741927832365,3.4861576557159424,-1.6596628427505493,-0.2204613983631134
1772376873873373700,2.395373779296875,1.0446313638933002,-2.2857953537121416,-4.17783688878715,3.1598997116088867,-1.861427664756775,-0.19858086109161377
1772376873883323000,2.405322998046875,1.2107892367560416,-3.252978297874331,-2.263846849015355,2.4142560958862305,-2.1025261878967285,-0.22138647735118866
1772376873893271800,2.415271728515625,0.5225242101307958,-3.9898324372321365,-1.045652962026,1.4478451013565063,-2.200317144393921,-0.3089970350265503
1772376873903220000,2.425219970703125,-0.6579702069308608,-4.182850333034992,-1.1850000579178332,0.5475245714187622,-2.0587821006774902,-0.42004722356796265
1772376873913169000,2.4351689453125,-1.584306688376516,-3.8468142516121264,-2.7755513397723433,-0.12721708416938782,-1.6462578773498535,-0.5176640748977661
1772376873923117800,2.445117919921875,-2.0761935489855707,-3.5658249346286057,-4.892594931671023,-0.600943922996521,-1.0502135753631592,-0.6299229860305786
1772376873933066000,2.45506591796875,-2.419657734582573,-3.531824757610261,-6.39150662522614,-1.0489038228988647,-0.4373815953731537,-0.8181214332580566
1772376873943015000,2.465014892578125,-2.86994636425972,-3.290793357005715,-6.626338878929615,-1.5839864015579224,0.05423208326101303,-1.0694921016693115
1772376873952962800,2.474962890625,-3.0502158376485107,-2.515896487240493,-5.831458082538843,-2.1185214519500732,0.4082314372062683,-1.2983667850494385
1772376873962911700,2.484911865234375,-2.388677636037767,-1.5908857745058833,-5.189243297818303,-2.4321494102478027,0.6617393493652344,-1.3671672344207764
1772376873972861000,2.49486083984375,-0.8075950242742895,-0.5696453692026436,-5.271692448446155,-2.4623875617980957,0.8493449687957764,-1.2251336574554443
1772376873982808800,2.504808837890625,0.898311287183687,0.3816729202210903,-5.391534633401036,-2.2910568714141846,0.9618099927902222,-0.9302783608436584
1772376873992757800,2.5147578125,2.128108006748557,1.0754878360584377,-4.91317244027555,-2.0252585411071777,1.0017738342285156,-0.5665249228477478
1772376874002706700,2.524706787109375,2.707730726216733,1.3538365754052997,-3.7858272834688425,-1.7738556861877441,0.9683032035827637,-0.21248619258403778
1772376874012654800,2.53465478515625,2.777171049928665,1.2270774506688118,-2.2118103723078963,-1.5813692808151245,0.8638753294944763,0.08231667429208755
1772376874022603800,2.544603759765625,2.4687486593574284,0.9216559224139899,-0.5636673177063465,-1.4332560300827026,0.7324224710464478,0.2806210517883301
1772376874032551700,2.5545517578125,1.8286489670947192,0.6198500273730605,0.7096084050357341,-1.277161955833435,0.6073769330978394,0.374316930770874
1772376874042500900,2.5645009765625,0.9983031818300485,0.37714499446786937,1.5010323389708995,-1.0953162908554077,0.4936313033103943,0.37488678097724915
1772376874052450000,2.574449951171875,0.3371622724412009,0.2487906364291906,2.0344857201993465,-0.8683873414993286,0.3890298306941986,0.32896482944488525
1772376874062398000,2.58439794921875,0.0669938438752666,0.11789185460470616,2.467787120848894,-0.6086947917938232,0.2894968092441559,0.28731176257133484
1772376874072347000,2.594346923828125,0.13480558000467716,0.022373415577970443,2.8102964899390934,-0.3068409264087677,0.16371411085128784,0.27478906512260437
1772376874082295000,2.604294921875,0.2972301480906084,-0.07539053735323249,3.204928844976425,0.0037102969363331795,0.0576728880405426,0.2827551066875458
1772376874092244200,2.614244140625,0.47157275218106803,-0.06126421418208629,3.641687108081579,0.2948870062828064,-0.026610301807522774,0.3042268455028534
1772376874102193200,2.624193115234375,0.5820138523884117,0.05337104977946728,4.145056316691637,0.5705206990242004,-0.07769164443016052,0.3420484662055969
1772376874112141000,2.63414111328125,0.6752874716304242,0.19596721059512345,4.65535327873826,0.8070765137672424,-0.07050563395023346,0.3863690495491028
1772376874122090000,2.644090087890625,0.7028218136355281,0.29101890889294446,5.228036262071132,0.9779934287071228,-0.020456895232200623,0.42898961901664734
1772376874132039200,2.6540390625,0.6385705099340527,0.3037858898770064,5.909819671592116,1.077184796333313,0.05451135337352753,0.449480801820755
1772376874141987000,2.663987060546875,0.4875836104571819,0.28395371974706646,6.579179068347812,1.1246275901794434,0.113885797560215,0.45302045345306396
1772376874151936000,2.67393603515625,0.23416556995566934,0.3033509325258434,7.188971592891216,1.114630103111267,0.14207589626312256,0.43434980511665344
1772376874161884200,2.68388427734375,-0.0847878227084875,0.38246326688118276,7.734936665168404,1.0510174036026,0.1522081196308136,0.38791751861572266
1772376874171833000,2.6938330078125,-0.3951609820213169,0.5194407840974629,8.101731749731302,0.9488517642021179,0.11921554058790207,0.3358795940876007
1772376874181782000,2.703781982421875,-0.5542211517080664,0.7214972880110144,8.11725197494626,0.8232933282852173,0.040598805993795395,0.29014888405799866
1772376874191730000,2.71372998046875,-0.627254677606374,0.8952788606852292,7.817766924068331,0.6726846098899841,-0.10719544440507889,0.2439046949148178
1772376874201679000,2.72367919921875,-0.7282431090094149,1.0997042856872081,7.22853846412599,0.5804585814476013,-0.2830304205417633,0.18992815911769867
1772376874211627000,2.733626953125,-0.8383058043584227,1.2010644730120896,6.044113575747609,0.5565322041511536,-0.4654100835323334,0.1335783302783966
1772376874221576200,2.743576171875,-0.8722014980889856,1.129906239466369,4.491871274021268,0.6209015846252441,-0.6448193788528442,0.09023302048444748
1772376874231525000,2.753525146484375,-0.6609851708378642,1.0363199010133743,2.790735464900732,0.7708505988121033,-0.7681772708892822,0.0752793699502945
1772376874241473300,2.763473388671875,-0.4112986815474927,0.8370182487659156,0.9174807556211948,1.0065995454788208,-0.8020619750022888,0.08480513840913773
1772376874251422200,2.773422119140625,-0.2228373530704528,0.49635801467373963,-1.0371236186116932,1.2916566133499146,-0.770514965057373,0.10683560371398926
1772376874261371100,2.78337109375,-0.05780943408571183,0.007827478755265474,-2.6560528536885974,1.5549113750457764,-0.7181861400604248,0.11104399710893631
1772376874271319000,2.793319091796875,0.10707271975278854,-0.5610666336886584,-3.7667251081138846,1.6867045164108276,-0.6844185590744019,0.10875687003135681
1772376874281268200,2.803268310546875,0.22263335493095218,-1.2696375123701988,-4.237668549415469,1.5795091390609741,-0.7050815224647522,0.07726889103651047
1772376874291216100,2.813216064453125,0.24315584541261195,-2.0775056544974446,-4.148099337649345,1.2525938749313354,-0.76045823097229,-0.02079615741968155
1772376874301165000,2.8231650390625,-0.07899769499972462,-2.8942797182664273,-4.2501779023766515,0.775810718536377,-0.8224490880966187,-0.17940928041934967
1772376874311114000,2.833114013671875,-0.5204994993701577,-3.4787671211615203,-4.862379826149344,0.2182665467262268,-0.8180394172668457,-0.345836877822876
1772376874321062100,2.843062255859375,-0.7768000730380415,-3.6716155056163666,-5.938609128224849,-0.31862807273864746,-0.7051125168800354,-0.49542564153671265
1772376874331011000,2.853010986328125,-0.8754881185442209,-3.6260540701419113,-7.47841280413866,-0.7690668702125549,-0.4899033308029175,-0.6226012110710144
1772376874340959000,2.862958984375,-0.8202065224356949,-3.5264421877890824,-9.032980333942174,-1.1447941064834595,-0.19728942215442657,-0.7154874801635742
1772376874350908200,2.872908203125,-0.7913774644449353,-3.3042765234351155,-10.187775807732343,-1.5141510963439941,0.11027640104293823,-0.8129069805145264
1772376874360857000,2.882857177734375,-0.8739530179314314,-2.933016276156902,-10.520604909807442,-1.8879960775375366,0.3170650005340576,-0.9212486147880554
1772376874370805000,2.892804931640625,-0.8404714579597115,-2.175455302726477,-10.33258058450818,-2.1857211589813232,0.3892821967601776,-0.9831796288490295
1772376874380754000,2.90275390625,-0.43496085829436776,-1.0779144786834716,-10.457141030156611,-2.2882754802703857,0.4266201853752136,-0.9358717799186707
1772376874390703000,2.912703125,0.14846388380527495,0.021714257549494503,-10.824938569760322,-2.2289257049560547,0.5391954779624939,-0.7611042857170105
1772376874400651300,2.9226513671875,0.38223771449699995,0.8236078553117812,-10.749883621037005,-2.0989694595336914,0.8585593104362488,-0.523462176322937
1772376874410600200,2.93260009765625,0.2250895889766514,1.1475413379434496,-9.980621250027417,-2.0231871604919434,1.4509379863739014,-0.3064832389354706
1772376874420548000,2.942548095703125,-0.06172222361527383,1.0974565067604183,-8.562750593867898,-1.919271469116211,2.132020950317383,-0.11136791110038757
1772376874430497300,2.952497314453125,-0.19473971462678163,1.0770809504687786,-6.872931128531694,-1.7328286170959473,2.64801287651062,0.0734405666589737
1772376874440446200,2.9624462890625,0.013853881171625107,1.0460798091359436,-4.81960451426208,-1.4618605375289917,2.84806227684021,0.24372261762619019
1772376874450394000,2.97239404296875,0.4799300269640982,0.8557530521132052,-2.457048284691572,-1.1175228357315063,2.6118669509887695,0.3967965841293335
1772376874460343000,2.982343017578125,0.9055509561136365,0.5046838714051991,-0.12665712566673754,-0.7168588042259216,2.0242550373077393,0.515220582485199
1772376874470291200,2.992291259765625,0.9773337512984871,0.061063723173923785,1.9637778607696295,-0.2722717523574829,1.278740406036377,0.6113694906234741
1772376874480240000,3.002240234375,0.8364592997089028,-0.2817037123305723,3.671484280452132,0.19106528162956238,0.5646300911903381,0.6893829703330994
1772376874490189000,3.01218896484375,0.43608021771311756,-0.47615810720995067,5.067901814216375,0.5581090450286865,0.10919548571109772,0.7325621247291565
1772376874500137200,3.02213720703125,-0.1925968573791906,-0.5497041126750409,6.593684563562274,0.7407153248786926,-0.029070336371660233,0.737348198890686
1772376874510086100,3.032086181640625,-0.761606887820363,-0.5431698520680889,8.129528103673458,0.766237199306488,0.05610954016447067,0.7328311800956726
1772376874520034000,3.042033935546875,-1.1226689086239785,-0.46592247133441267,9.403549091824889,0.6881418824195862,0.25615742802619934,0.7274160385131836
1772376874529983000,3.05198291015625,-1.3824594432994723,-0.2636260211851448,10.4279196118474,0.5657810568809509,0.461731880903244,0.7220977544784546
1772376874539932000,3.061931884765625,-1.5353962347351013,-0.01009980760142207,11.175166550403834,0.4375053942203522,0.5884867906570435,0.6943235397338867
1772376874549880000,3.071880126953125,-1.6693489242374897,0.16276399264074862,11.591705032300949,0.3424915373325348,0.6297404766082764,0.6437674164772034
1772376874559829000,3.0818291015625,-1.7175198115579784,0.329390798189491,11.599748053503037,0.29411521553993225,0.603722095489502,0.587715208530426
1772376874569778200,3.091778076171875,-1.6460592340648172,0.471711722260341,11.266736580598353,0.30921000242233276,0.5201824307441711,0.5260414481163025
1772376874579726300,3.101726318359375,-1.61061002728194,0.5320427837781608,10.748899286174774,0.3507329523563385,0.393314391374588,0.43399208784103394
1772376874589675300,3.11167529296875,-1.6901316000252962,0.6718482178967445,10.31478656914234,0.38983801007270813,0.2729533612728119,0.32382962107658386
1772376874599623200,3.121623046875,-1.7677827027216553,1.0440020530138163,9.840088159221411,0.41908323764801025,0.15636968612670898,0.23295538127422333
1772376874609572000,3.131572021484375,-1.6192065907135604,1.4565531457751988,9.16174758363068,0.444280743598938,0.05250081047415733,0.1669611930847168
1772376874619521000,3.14152099609375,-1.3437003813162445,1.7589036690868436,8.353636134266853,0.4349735379219055,-0.008189629763364792,0.149820014834404
1772376874629469200,3.15146923828125,-0.9442088958099484,1.957209880556166,7.396137256512046,0.4285385310649872,0.010793115943670273,0.2023886889219284
1772376874639418000,3.161418212890625,-0.48070269183702763,2.0549916248723865,6.213837105202675,0.4386084973812103,0.09741897135972977,0.31181737780570984
1772376874649366000,3.171365966796875,0.016832111531123517,1.934362527323514,4.90539537653327,0.5158502459526062,0.1649564802646637,0.4591567814350128
1772376874659315200,3.181315185546875,0.570176115078479,1.4072732742995022,3.380504023069143,0.6725195050239563,0.1499156802892685,0.6346835494041443
1772376874669264100,3.19126416015625,1.0856921269476414,0.6031979485839605,1.7858616725087164,0.9306269288063049,0.0787712037563324,0.8044075965881348
1772376874679212000,3.2012119140625,1.5617705930501222,-0.30213308116868137,0.339932796600461,1.178057074546814,-0.027219243347644806,0.9501352906227112
1772376874689161000,3.211160888671875,1.8243617912948131,-1.408403008981794,-0.611751841917634,1.2892485857009888,-0.13650977611541748,1.0195413827896118
1772376874699110100,3.221110107421875,1.9455437004208564,-2.6496768889158964,-0.9560247135490179,1.150136947631836,-0.28356367349624634,1.008414626121521
1772376874709058000,3.23105810546875,2.0693840151011944,-4.003181455887854,-0.9423013086229562,0.7709784507751465,-0.46278029680252075,0.9254137873649597
1772376874719007000,3.241007080078125,2.2173867111355063,-5.33503591658771,-1.249082361727953,0.3149382174015045,-0.6464329957962036,0.791149377822876
1772376874728955100,3.250955078125,2.2759724633559584,-6.290437529802322,-2.5492121891260147,-0.10951533168554306,-0.7764687538146973,0.6306292414665222
1772376874738904000,3.260904052734375,2.2363341343201695,-6.55685676190257,-4.510216493529081,-0.5128143429756165,-0.9583883881568909,0.4536910951137543
1772376874748853200,3.270853271484375,1.8614250091455875,-6.000622224545478,-6.261397897800803,-1.0595519542694092,-1.2318480014801025,0.21071837842464447
1772376874758801200,3.28080126953125,1.1569215990986674,-4.860853054973483,-7.447188813835382,-1.6336495876312256,-1.409222960472107,-0.06842103600502014
1772376874768750000,3.29075,0.46593734010998156,-3.490880168281495,-9.252988528001309,-1.9636125564575195,-1.2621642351150513,-0.3014202117919922
1772376874778698200,3.3006982421875,-0.04607789709661156,-2.171286638739705,-12.069313192188739,-1.92183256149292,-0.8448908925056458,-0.4285801947116852
1772376874788647200,3.310647216796875,-0.28635398582182825,-0.7855868983447551,-14.33538765412569,-1.6325315237045288,-0.40171557664871216,-0.4434741735458374
1772376874798596000,3.32059619140625,-0.11136335701826028,0.5155747563190758,-14.794846409338712,-1.2066811323165894,-0.06845870614051819,-0.34257742762565613
1772376874808544300,3.330544189453125,0.5351509789265692,1.1647818841449915,-13.76941381304264,-0.6996867656707764,0.1432141363620758,-0.14726918935775757
1772376874818493200,3.3404931640625,1.3536761241465807,1.2214619488745928,-11.781693351149558,-0.24404756724834442,0.22110997140407562,0.11607120931148529
1772376874828442000,3.350442138671875,1.7943047989442944,1.129862181128934,-8.745163509026169,0.05170311778783798,0.26209309697151184,0.3694608807563782
1772376874838390000,3.36039013671875,1.5966760483451186,1.0983898420877753,-5.266833902499079,0.18312665820121765,0.2721780836582184,0.5655379295349121
1772376874848339200,3.370339111328125,0.7708064586464315,1.003080844560638,-2.053485019701719,0.13224217295646667,0.28668540716171265,0.6393168568611145
1772376874858287000,3.380287109375,-0.3309075959606096,0.827903579744324,0.6753618520408868,-0.09708502888679504,0.3105868399143219,0.602062463760376
1772376874868236000,3.390236083984375,-1.4270517414808273,0.7129808771435171,2.8707746317774054,-0.4467453062534332,0.3438715636730194,0.47607097029685974
1772376874878185000,3.40018505859375,-2.2216668726727367,0.8212002096481621,4.3649657265514135,-0.8123531341552734,0.39688974618911743,0.32428815960884094
1772376874888133000,3.410133056640625,-2.5829727121695876,0.9731264358017593,4.9859068370968105,-1.0956798791885376,0.4860744774341583,0.18630686402320862
1772376874898082000,3.42008203125,-2.4824989522904155,0.9977961090907453,4.861291446390748,-1.2187423706054688,0.6268714070320129,0.11621268838644028
1772376874908030000,3.430030029296875,-2.063092221480608,0.8650320448510348,4.292641079574823,-1.1796958446502686,0.7619048357009888,0.1202726736664772
1772376874917979000,3.439978759765625,-1.5679735393434762,0.7308558487910777,3.6828935632169246,-0.9953309297561646,0.8594233989715576,0.1766054630279541
1772376874927928300,3.44992822265625,-1.1796646882392465,0.5746203080710023,3.2857010023027655,-0.7109713554382324,0.9140338897705078,0.2600145936012268
1772376874937876200,3.459876220703125,-1.0213215077154338,0.3444135952763259,3.1485563848912714,-0.3622458577156067,0.918276846408844,0.33962100744247437
1772376874947825200,3.4698251953125,-1.047188281834498,0.1056594554213807,3.268734669932723,0.023988135159015656,0.9037405252456665,0.39489811658859253
1772376874957774000,3.479774169921875,-1.2364631186515092,-0.1047353628464043,3.549988483071327,0.3917728066444397,0.8695589303970337,0.43002602458000183
1772376874967722200,3.48972216796875,-1.4872034278437494,-0.22015795952705666,4.0494326271921395,0.7159583568572998,0.8495455384254456,0.43326228857040405
1772376874977671200,3.499671142578125,-1.7165769777499138,-0.2565013934696093,4.784470072516799,0.9763518571853638,0.8605837225914001,0.4193105101585388
1772376874987619000,3.509619140625,-1.9676056023642419,-0.24875373848490415,5.554415749615431,1.176640272140503,0.8708917498588562,0.39041733741760254
1772376874997568300,3.519568359375,-2.1911918010406195,-0.3365203578084707,6.350710504457354,1.2927007675170898,0.8448830246925354,0.36292240023612976
1772376875007517200,3.52951708984375,-2.3194728746473787,-0.2702344795394689,7.223198272141814,1.2862026691436768,0.766903817653656,0.30632248520851135
1772376875017465000,3.539465087890625,-2.369566692854464,-0.18950974155142902,8.05072753868103,1.1654325723648071,0.6132842302322388,0.2232658565044403
1772376875027414000,3.5494140625,-2.414815993639827,-0.2698836933404207,8.52900789874196,0.9359405040740967,0.4045107960700989,0.1326826959848404
1772376875037362200,3.559362060546875,-2.40866419301182,-0.2449552960500121,8.65702345328033,0.6496298909187317,0.23236270248889923,0.05984837934374809
1772376875047311000,3.56931103515625,-2.380228079861402,-0.043800490216538306,8.186211529403925,0.367995023727417,0.10275809466838837,0.004542779177427292
1772376875057260000,3.579260009765625,-2.377392564174533,0.2599856188561767,7.021581474819779,0.1519860476255417,-0.03766612336039543,-0.05712267383933067
1772376875067208000,3.5892080078125,-2.4222911518260837,0.48198564431965346,5.308187657150626,0.046431928873062134,-0.17061857879161835,-0.14207059144973755
1772376875077157000,3.5991572265625,-2.366200431291759,0.5457615855943412,3.1993793941557405,0.08922892063856125,-0.23710250854492188,-0.22314481437206268
1772376875087105000,3.60910498046875,-1.9336853587143121,0.445759754075855,0.9016343671917915,0.3083338439464569,-0.17461729049682617,-0.2742873430252075
1772376875097053700,3.6190537109375,-1.3450307531371712,0.1651328406639397,-1.4794213956654072,0.6871983408927917,-0.01592572219669819,-0.31315934658050537
1772376875107002600,3.629002685546875,-0.6383122243240476,-0.34138694093152877,-3.714213415110111,1.1644680500030518,0.11283412575721741,-0.319426029920578
1772376875116950800,3.63895068359375,0.19926073571518063,-0.9699223059982061,-5.155388959011435,1.5596044063568115,0.13796286284923553,-0.3374013602733612
1772376875126899700,3.648899658203125,0.989999171604216,-1.7487283120311796,-5.4037838741213085,1.742833137512207,0.020857810974121094,-0.3949618637561798
1772376875136847600,3.65884765625,1.79371618540138,-2.7125530318066478,-4.743532497450709,1.5998027324676514,-0.33469125628471375,-0.5018542408943176
1772376875146796800,3.668796875,2.468555474872887,-3.812420691362023,-3.738258307564258,1.1010030508041382,-0.8039964437484741,-0.6516098976135254
1772376875156745700,3.678745849609375,2.724596813082695,-4.606145887976885,-2.8709774608731267,0.36713749170303345,-1.1999560594558716,-0.7988640666007996
1772376875166693600,3.688693603515625,2.5198721128731965,-4.530885187548399,-2.8793536595523355,-0.43376851081848145,-1.4117575883865356,-0.91389000415802
1772376875176642600,3.698642578125,2.0866180584967133,-3.816292564359307,-4.028108684134483,-1.225963830947876,-1.380489706993103,-0.9970531463623047
1772376875186591700,3.708591796875,1.5106008161745965,-2.927299944336712,-5.7803802217304705,-1.9118784666061401,-1.1997486352920532,-1.0850465297698975
1772376875196539600,3.71853955078125,0.7302074678849428,-1.8381652757197617,-7.781689648514986,-2.454349994659424,-1.0557547807693481,-1.2281372547149658
1772376875206488800,3.72848876953125,-0.01184153670221567,-0.5760100088637322,-9.833769477593899,-2.6961703300476074,-0.8453576564788818,-1.386688232421875
1772376875216436700,3.738436767578125,-0.33553715545739976,0.7108193151954562,-12.259309694343804,-2.4962353706359863,-0.41182181239128113,-1.4365184307098389
1772376875226386000,3.748385986328125,-0.17394775955397634,1.8729507578969,-14.529357736086844,-1.9268825054168701,0.15862995386123657,-1.3197636604309082
1772376875236334800,3.7583349609375,0.3736874013599008,2.7524808453083036,-15.01579685268402,-1.2540992498397827,0.6183789968490601,-1.0803673267364502
1772376875246282800,3.76828271484375,1.1019668237917124,2.827483187061548,-13.082726849389076,-0.7206743359565735,0.8759434223175049,-0.8271396160125732
1772376875256231700,3.778231689453125,1.5081269734069704,2.0813990086741745,-9.39659152777195,-0.3963620066642761,0.8886516690254211,-0.6249774694442749
1772376875266179800,3.788179931640625,1.5537337093278765,1.2837535698756575,-5.387917611947655,-0.26474088430404663,0.6976844072341919,-0.4861447513103485
1772376875276128800,3.798128662109375,1.3647469687372444,0.6239200532909482,-1.8040099081397056,-0.23810498416423798,0.443061888217926,-0.37978115677833557
1772376875286077700,3.80807763671875,1.0234368193689733,0.16437709039319306,0.8316513149052858,-0.28080984950065613,0.23110727965831757,-0.2999241352081299
1772376875296025900,3.81802587890625,0.551672636269033,0.012122783062700182,2.756808645379543,-0.3864731788635254,0.11104440689086914,-0.23787792026996613
1772376875305974800,3.827974853515625,0.15747918410561978,0.06195942077147774,4.139857579004764,-0.5066536664962769,0.1075599268078804,-0.17594771087169647
1772376875315923700,3.837923828125,0.012873583163693546,0.08388796039246954,4.916090373548865,-0.5862014889717102,0.20699551701545715,-0.09162436425685883
1772376875325871600,3.84787158203125,0.0701565822225064,-0.0410830570845399,5.245765980029105,-0.6086628437042236,0.33209165930747986,-0.005574694834649563
1772376875335820800,3.85782080078125,0.21995237221866845,-0.32379111501891167,5.324290650689601,-0.5412930846214294,0.42605480551719666,0.09515180438756943
1772376875345768700,3.867768798828125,0.46890163327567275,-0.6220092512335628,5.206586646807193,-0.37348732352256775,0.49144020676612854,0.22789227962493896
1772376875355717600,3.877717529296875,0.672972984142974,-0.816916540979594,5.037701321741938,-0.11390049010515213,0.5001488327980042,0.3659028112888336
1772376875365666600,3.88766650390625,0.6631471711773425,-0.8899661412298678,5.003104640135168,0.18991239368915558,0.43994006514549255,0.4756269156932831
1772376875375614700,3.89761474609375,0.45423590599820013,-1.0744805587120354,5.282567478203773,0.48142093420028687,0.343477338552475,0.5428628921508789
1772376875385564000,3.90756396484375,0.1385816644772887,-1.265859162875265,5.789311131682991,0.7447028756141663,0.23775410652160645,0.5698729157447815
1772376875395511600,3.917511474609375,-0.17445538028255103,-1.3706962325304746,6.375950159654021,0.9654802680015564,0.1238122209906578,0.5633683800697327
1772376875405460700,3.927460693359375,-0.42097018073424697,-1.4652699745856224,6.98978231497705,1.12582266330719,0.016223983839154243,0.5349678993225098
1772376875415410000,3.937409912109375,-0.6330072497837245,-1.5128120624832808,7.6150190768897525,1.1993370056152344,-0.06556937098503113,0.4981931149959564
1772376875425357800,3.94735791015625,-0.8044663708597422,-1.4724188234269617,8.253576508146525,1.1783663034439087,-0.1481550633907318,0.46111977100372314
1772376875435306800,3.957306640625,-0.9417375372603535,-1.3311916128769516,8.778596992072462,1.0637887716293335,-0.21655230224132538,0.4250214993953705
1772376875445255000,3.9672548828125,-1.0725605504348874,-1.1440662091787903,8.99824512064755,0.8615437746047974,-0.3004210889339447,0.3898746967315674
1772376875455203800,3.977203857421875,-1.228035774306953,-0.9541375115629285,8.843659539091586,0.5696951150894165,-0.40077245235443115,0.35037970542907715
1772376875465151700,3.98715185546875,-1.3086591708123683,-0.6691840401887893,8.141025649243593,0.2491067349910736,-0.4942629933357239,0.33555150032043457
1772376875475100000,3.997099853515625,-1.315750590378046,-0.3181026575863361,6.7945818144381045,-0.04554806649684906,-0.5660886764526367,0.33740392327308655
1772376875485048800,4.007048828125,-1.3339756906375289,-0.18532032703757284,4.671501864984632,-0.23459015786647797,-0.47418007254600525,0.29095548391342163
1772376875494996700,4.016996826171875,-1.7423589231297372,-0.35790012270659205,1.770719048434496,-0.21365851163864136,-0.29379019141197205,0.1360890120267868
1772376875504945700,4.026945556640625,-2.293429794113338,-0.6703105600006878,-1.539609030124545,0.04267819970846176,-0.12877964973449707,-0.11025897413492203
1772376875514894800,4.036894775390625,-2.1405117073781788,-1.1436465224619954,-4.613683297744393,0.4669650197029114,-0.1442849338054657,-0.357835590839386
1772376875524842800,4.0468427734375,-0.8370685907136648,-1.850083969311416,-6.857245483621955,0.8554214239120483,-0.3698895573616028,-0.5235976576805115
1772376875534791700,4.056791748046875,1.0153509088732302,-2.805959922039509,-7.764115413379669,0.9945098161697388,-0.8725857734680176,-0.6262345314025879
1772376875544739800,4.06673974609375,2.1570406712442636,-3.338524829995632,-7.387378780516982,0.7822667956352234,-1.5306144952774048,-0.7111384868621826
1772376875554688800,4.076688720703125,1.9222554715529083,-2.8294588710486885,-6.573731908857822,0.2410735785961151,-2.0957436561584473,-0.7811769247055054
1772376875564637700,4.0866376953125,0.4795400047332048,-1.295617610670626,-6.293260770529508,-0.4988684058189392,-2.3179738521575928,-0.8524806499481201
1772376875574585600,4.096585693359375,-1.5401806925326584,0.536508092623949,-7.257472297665476,-1.2398971319198608,-2.0826399326324463,-0.9464707374572754
1772376875584534500,4.106534423828125,-3.447933591480553,2.0320126080840826,-9.491067216280102,-1.712906002998352,-1.3878861665725708,-1.0666224956512451
1772376875594482700,4.116482666015625,-4.595270273697376,3.306041779541969,-12.519292171394824,-1.7047077417373657,-0.4160509407520294,-1.1066477298736572
1772376875604431600,4.126431640625,-4.403899852840602,4.280684684321284,-15.105675276529787,-1.3060288429260254,0.46725648641586304,-0.9602620601654053
1772376875614380800,4.136380859375,-2.91819397007823,4.550824398249388,-15.58497854989767,-0.7824740409851074,0.9974958300590515,-0.7022252082824707
1772376875624329000,4.146328857421875,-1.3910516228169203,4.017099214342236,-13.467754925256967,-0.3619246780872345,1.156801700592041,-0.48595306277275085
1772376875634278000,4.15627783203125,-0.7274187870144844,3.2216680905923245,-10.017976874953508,-0.048400044441223145,0.986902117729187,-0.35933977365493774
1772376875644226800,4.166226806640625,-0.5445579819582402,2.5223148298501967,-6.5288090635478495,0.16740627586841583,0.6545910239219666,-0.2842112183570862
1772376875654174700,4.1761748046875,-0.44769744414016605,1.887385087571293,-3.518804240256548,0.3097607493400574,0.34727272391319275,-0.21919451653957367
1772376875664123600,4.18612353515625,-0.38339974401369686,1.3902899907946586,-1.0609399630069731,0.4073405861854553,0.11004739254713058,-0.1495499163866043
1772376875674071800,4.19607177734375,-0.34384920285921544,1.0477932619903236,0.9058627985417842,0.4612935483455658,-0.03152400255203247,-0.07286842167377472
1772376875684020700,4.206020751953125,-0.29969606328010556,0.7827282940432428,2.577061734560132,0.4680135250091553,-0.07896049320697784,-0.002194254193454981
1772376875693969700,4.2159697265625,-0.21026684450656175,0.44981008891258384,3.9500609833359714,0.45542579889297485,-0.06798679381608963,0.07779189944267273
1772376875703917800,4.225917724609375,-0.010342128457315266,0.09865271846447139,4.9970507469236844,0.44678598642349243,-0.04016954451799393,0.17007441818714142
1772376875713866800,4.23586669921875,0.24287823404762893,-0.26417521603312344,5.776312533900142,0.459144651889801,-0.014516039751470089,0.26147329807281494
1772376875723814700,4.245814697265625,0.4201571838509291,-0.5917307981520891,6.360137673494219,0.47927576303482056,0.04157226160168648,0.33466681838035583
1772376875733763600,4.255763671875,0.41895493192169814,-0.878727904183045,6.781642253366113,0.5359542369842529,0.10121152549982071,0.3840174376964569
1772376875743712800,4.265712646484375,0.33652609342951323,-1.0394424900133161,7.016518930733204,0.6346325874328613,0.16081546247005463,0.3928980231285095
1772376875753660700,4.27566064453125,0.2120482114979997,-1.157956348973885,7.2214224946409455,0.7719406485557556,0.21038265526294708,0.37509724497795105
1772376875763609600,4.285609619140625,0.1202947510279715,-1.252382133925706,7.465929754662513,0.9268428683280945,0.22910547256469727,0.3256934583187103
1772376875773557800,4.295557861328125,0.12551982873249798,-1.2954746950685978,7.806451164805889,1.0897905826568604,0.1967150717973709,0.2689979374408722
1772376875783506700,4.305506591796875,0.21912552947308866,-1.2794256236739456,8.270619997406005,1.240069031715393,0.12177904695272446,0.21668200194835663
1772376875793455900,4.315455810546875,0.43347149651944633,-1.187372193876654,8.807962202766538,1.345115065574646,0.014320787973701954,0.1802218109369278
1772376875803403800,4.32540380859375,0.6975901235271245,-1.0530246598377824,9.380294472965598,1.4016462564468384,-0.11702898144721985,0.17299292981624603
1772376875813352700,4.335352783203125,0.9158579767249524,-0.8984213964946568,9.895592019778489,1.372908353805542,-0.2210136502981186,0.1956152617931366
1772376875823300900,4.34530078125,1.0520686742871999,-0.7175421206444501,10.288967068231106,1.236547827720642,-0.25755274295806885,0.23130321502685547
1772376875833249800,4.355249755859375,1.0495530382044613,-0.53372752199471,10.51732808009386,0.9881208539009094,-0.24624748528003693,0.30605649948120117
1772376875843198700,4.36519873046875,0.9884823373004794,-0.34985958572253584,10.55056165665388,0.6334280371665955,-0.20875070989131927,0.38648557662963867
1772376875853147000,4.37514697265625,0.7649152817159891,-0.20662395795956254,10.174534048843384,0.1969311535358429,-0.17477601766586304,0.4377670884132385
1772376875863095800,4.385095703125,0.39435459754187613,-0.0883252030543983,9.252754719245432,-0.2691444158554077,-0.13412365317344666,0.46920037269592285
1772376875873044700,4.395044677734375,0.018763335322029888,0.09436959778517484,7.73841281684637,-0.6701704263687134,-0.09724970906972885,0.4719555675983429
1772376875882992600,4.40499267578125,-0.3625855771090835,0.05138181219100952,5.518975018399954,-0.9016486406326294,-0.13290490210056305,0.3861146867275238
1772376875892941800,4.41494189453125,-0.6870847307994962,-0.3789103236399591,2.5058213756889103,-0.8704214692115784,-0.24520623683929443,0.2035074383020401
1772376875902889700,4.4248896484375,-0.6274493233956396,-0.8967113777063787,-1.0547457845419645,-0.5882177352905273,-0.38146716356277466,-0.005216475110501051
1772376875912838700,4.434838623046875,0.02557438531005755,-1.390494573456049,-4.407649853023886,-0.18366917967796326,-0.607164204120636,-0.17539209127426147
1772376875922787600,4.44478759765625,0.8250491401612758,-1.5939584599494934,-6.754950645795464,0.13477404415607452,-0.8934534788131714,-0.2669433355331421
1772376875932735700,4.45473583984375,1.5424908691711723,-1.260153352449089,-7.863494071498513,0.2273647040128708,-1.1648844480514526,-0.2689404785633087
1772376875942684700,4.4646845703125,2.028817757565528,-0.6210182674348353,-8.232636011448502,0.03508978709578514,-1.3393340110778809,-0.17396068572998047
1772376875952632600,4.474632568359375,2.024462046574056,-0.12545885579288005,-8.328848314490914,-0.35614776611328125,-1.364363193511963,-0.03543206676840782
1772376875962581800,4.484581787109375,1.2253629018358885,0.6713556851394474,-8.633041104668377,-0.8899874687194824,-1.256672978401184,0.06574594974517822
1772376875972531000,4.494531005859375,-0.38587680165171623,1.6924886845454572,-9.381453579872845,-1.41433846950531,-0.9220470786094666,0.02253413200378418
1772376875982478600,4.504478515625,-2.195716146597266,2.2433299845568833,-10.899327163529396,-1.7394795417785645,-0.3915184736251831,-0.1258326917886734
1772376875992427800,4.514427734375,-3.0689257988154885,2.228656000907719,-12.92275957479477,-1.740529179573059,0.16088207066059113,-0.28139930963516235
1772376876002376000,4.5243759765625,-2.7456650278136134,1.8184661573849616,-14.47470493940115,-1.4563618898391724,0.5091316103935242,-0.3738360106945038
1772376876012324900,4.534324951171875,-1.714857022089511,1.4398472179070114,-14.55555133100748,-1.099258303642273,0.5751556754112244,-0.4407300353050232
1772376876022273800,4.544273681640625,-0.768830117072165,1.179865179247409,-12.936872271299361,-0.8663734793663025,0.4355120062828064,-0.5228453874588013
1772376876032221700,4.5542216796875,-0.21119185039699076,0.9828935773827135,-10.344763189733028,-0.8002170920372009,0.2477416843175888,-0.6155887246131897
1772376876042171000,4.5641708984375,0.09963694372884929,0.8441321724243461,-7.734238161510229,-0.8096050024032593,0.13888204097747803,-0.6798324584960938
1772376876052119800,4.574119873046875,0.41773865146711464,0.8063559839986264,-5.757621277433634,-0.8115120530128479,0.1250721961259842,-0.6948369145393372
1772376876062067700,4.584067626953125,0.8186977253079414,0.7581287633810192,-4.238392187514901,-0.7661004066467285,0.1484781801700592,-0.6753601431846619
1772376876072016600,4.5940166015625,1.2286620895117522,0.6521868012238293,-2.839158427286148,-0.6810680627822876,0.18742862343788147,-0.6109011769294739
1772376876081964800,4.60396484375,1.6541794121563433,0.5258760047767311,-1.5874568229705095,-0.5607829093933105,0.21009612083435059,-0.4765934348106384
1772376876091913700,4.613913818359375,2.1334734793044627,0.5917206420842558,-0.3599468261033296,-0.3918357193470001,0.20579078793525696,-0.2710093855857849
1772376876101862400,4.6238623046875,2.6057196737676858,0.656450523082912,0.8002776869982481,-0.18214426934719086,0.12862569093704224,-0.02133353427052498
1772376876111810600,4.633810546875,2.917805847543478,0.3299131780957803,1.8703356069624424,0.03716998174786568,0.025741152465343475,0.24089643359184265
1772376876121759500,4.643759521484375,2.8986212546020744,-0.21130088199572636,2.861314144992828,0.29118335247039795,-0.07310553640127182,0.4793313443660736
1772376876131707400,4.653707275390625,2.443546121300757,-0.6948019541133195,3.605419862914085,0.5882496237754822,-0.1589149534702301,0.6414551734924316
1772376876141656600,4.663656494140625,1.5537340015888212,-1.0581361576326191,4.206342267781496,0.8688557147979736,-0.15633220970630646,0.6939298510551453
1772376876151605500,4.67360546875,0.47812940728291864,-1.3438584944874048,4.907399117571115,1.1047003269195557,-0.07896780967712402,0.6484526991844177
1772376876161553700,4.6835537109375,-0.5056616303961724,-1.449371271447092,5.77579289394021,1.272582769393921,0.030363745987415314,0.528143584728241
1772376876171502600,4.693502685546875,-1.2342251304663716,-1.3860364250034094,6.765185039561986,1.3833292722702026,0.13171935081481934,0.36241769790649414
1772376876181450500,4.703450439453125,-1.5851286722838878,-1.2230367969758809,7.7606848544090985,1.4340482950210571,0.21929314732551575,0.19183611869812012
1772376876191399700,4.713399658203125,-1.5761752582386135,-1.0690534190967678,8.650304374158383,1.438773274421692,0.30625027418136597,0.04855504259467125
1772376876201348600,4.7233486328125,-1.3214542088471353,-0.9636242287673056,9.401199898350239,1.4073426723480225,0.36559563875198364,-0.054254159331321716
1772376876211296500,4.733296630859375,-0.9767369544491171,-0.7931699738848954,10.05875896719694,1.3304383754730225,0.3689877986907959,-0.11402814090251923
1772376876221245400,4.743245361328125,-0.6089129652298987,-0.5797565749809146,10.64804587932825,1.182923674583435,0.30033203959465027,-0.1236719861626625
1772376876231193600,4.753193603515625,-0.35504294317718593,-0.30612770376279946,11.134947937262057,0.9344408512115479,0.2528892159461975,-0.09108228236436844
1772376876241142500,4.763142578125,-0.2782617734494619,-0.29338176556676626,11.150926427638531,0.5907623171806335,0.2398679405450821,-0.06970775127410889
1772376876251091500,4.773091552734375,-0.7070091823227703,-0.14709902519285678,10.664639286732672,0.15488357841968536,0.3623011112213135,-0.0859052836894989
1772376876261039600,4.78303955078125,-1.0587407724622637,0.4628868299655616,9.955901819312572,-0.39345091581344604,0.4511638879776001,-0.03421999141573906
1772376876270988500,4.792988525390625,-1.142969573048502,0.7542329980514944,8.548407595738768,-0.9245147705078125,0.47675687074661255,0.04129336401820183
1772376876280937500,4.8029375,-1.1668719152268021,0.5210378440305591,6.000663141077757,-1.261532187461853,0.3925466537475586,0.05004824325442314
1772376876290885400,4.812885498046875,-1.174369212179631,0.028041999266296625,2.136408802103996,-1.1705143451690674,0.3602347671985626,0.03449245169758797
1772376876300834300,4.822834228515625,-0.8543766491934657,-0.37791057201288636,-2.9875509994208813,-0.5910518765449524,0.4575810432434082,0.055350594222545624
1772376876310782500,4.832782470703125,0.0020207469715736804,-0.7991458334241062,-7.777817190995812,0.23504896461963654,0.43210211396217346,0.13417640328407288
1772376876320731600,4.842731689453125,0.9742427995458245,-1.4446364980101585,-10.548165116906166,0.9521492719650269,0.2128927856683731,0.20948420464992523
1772376876330680600,4.8526806640625,1.484375949332863,-2.1953863301210106,-10.811527299523354,1.2502564191818237,-0.12514425814151764,0.172871395945549
1772376876340628700,4.862628662109375,1.2489173804245888,-2.8038074201807377,-9.04197671034634,1.0366506576538086,-0.5036478638648987,0.03398755192756653
1772376876350577700,4.87257763671875,0.5370294130843133,-3.2665982424259186,-6.596798896190523,0.33903050422668457,-0.8436402678489685,-0.17043885588645935
1772376876360525600,4.882525634765625,-0.6078189959807321,-3.1939690595448016,-4.575248060888052,-0.7501965165138245,-1.0855841636657715,-0.4074670970439911
1772376876370474500,4.892474609375,-2.163697352654487,-2.136569253362715,-3.890006619867682,-2.0062830448150635,-1.0288400650024414,-0.6602240204811096
1772376876380423400,4.90242333984375,-3.4852342713490128,-0.31178814067728816,-5.379657148602605,-2.9366953372955322,-0.5910666584968567,-0.8595256805419922
1772376876390371600,4.91237158203125,-3.949784212221205,1.3876498515494167,-9.245514831119776,-3.151740789413452,0.13104672729969025,-0.9206689596176147
1772376876400320500,4.922320556640625,-3.2600439984768625,2.794751130282879,-13.921931940674781,-2.6234183311462402,0.8348022103309631,-0.802000105381012
1772376876410268700,4.9322685546875,-1.992236770273745,3.9490415771603584,-16.680582999050618,-1.6862269639968872,1.1986827850341797,-0.6024353504180908
1772376876420217600,4.942217529296875,-0.890951133679226,4.113491550126671,-16.1687382230401,-0.7370913624763489,1.1632838249206543,-0.4297240078449249
1772376876430166500,4.95216650390625,-0.2539557641074061,3.085493487256765,-12.884305048716067,-0.07275038957595825,0.8844029903411865,-0.3192614018917084
1772376876440114400,4.962114501953125,-0.18038550098389386,1.8617438658364116,-8.09330586669147,0.26695576310157776,0.5528383851051331,-0.277150958776474
1772376876450063400,4.9720634765625,-0.5455231737285852,1.0513166868761181,-3.3944203202188015,0.3232930898666382,0.2809453010559082,-0.2748846411705017
1772376876460011500,4.982011474609375,-0.8457100892655551,0.5561766696900129,0.43800621733963485,0.20524874329566956,0.21252389252185822,-0.2881155014038086
1772376876469960400,4.99196044921875,-0.8913114183589815,-0.03185061603533104,3.01899652352035,0.0702831968665123,0.29687052965164185,-0.28753045201301575
1772376876479909400,5.001909423828125,-0.5551543043723329,-0.5528926795832813,4.569814345401525,-0.03285837173461914,0.4513762295246124,-0.23950861394405365
1772376876489857500,5.011857421875,0.021443916175514458,-0.8980931874535978,5.541614720231294,-0.08280649036169052,0.6163795590400696,-0.14556357264518738
1772376876499806700,5.021806640625,0.6310372648850083,-1.1855187480296938,6.374171459543705,-0.06506583839654922,0.6989389061927795,-0.02913602627813816
1772376876509754400,5.03175439453125,1.0636620083820074,-1.6940797531291842,7.120794713243842,-0.01768847182393074,0.6614977717399597,0.0875585675239563
1772376876519703600,5.04170361328125,1.1427358373578638,-1.8797350112095474,7.8844988656044,0.029877448454499245,0.5894573926925659,0.15567263960838318
1772376876529652500,5.051652587890625,0.9371513785138725,-1.90808753772974,8.587728383257984,0.11275342106819153,0.4914608597755432,0.19700346887111664
1772376876539600600,5.0616005859375,0.6704116822876036,-2.023017400723696,8.978416384583712,0.21877866983413696,0.3807583153247833,0.18145807087421417
1772376876549549600,5.071549560546875,0.3535363745391369,-1.9972334095172584,9.381258934083581,0.33401042222976685,0.25123366713523865,0.12209973484277725
1772376876559498500,5.08149853515625,0.17078516733720897,-1.8717612558513879,9.83206618080735,0.42320317029953003,0.10693161189556122,0.06569318473339081
1772376876569446700,5.09144677734375,0.20472923025414347,-1.686308534605801,10.333082104289531,0.4689299166202545,-0.02881915122270584,0.024511855095624924
1772376876579395600,5.1013955078125,0.38075339422337706,-1.372614633372426,10.817926645171642,0.4742248058319092,-0.17610234022140503,0.022844182327389717
1772376876589343500,5.111343505859375,0.6870485635075718,-1.067718517231196,11.07496196285486,0.4439640939235687,-0.33814477920532227,0.06450747698545456
1772376876599292400,5.12129248046875,0.9735646810885519,-0.7783947218183428,11.129600731015204,0.3872110843658447,-0.4735872745513916,0.16426336765289307
1772376876609241600,5.13124169921875,1.1847319085009396,-0.3833009232817218,10.851309859335421,0.2965126037597656,-0.5331282019615173,0.28630927205085754
1772376876619189500,5.141189453125,1.0704611670028417,-0.04287088121622801,10.29940429109335,0.18313543498516083,-0.4909490644931793,0.4095217287540436
1772376876629138400,5.151138427734375,0.8627051362734287,0.16361699274089186,9.44947965287268,0.0471256785094738,-0.3874271512031555,0.5538848042488098
1772376876639086600,5.161086669921875,0.7049057803027331,0.5263323702421039,8.401157179376483,-0.10708173364400864,-0.2698691189289093,0.7133846879005432
1772376876649035500,5.171035400390625,0.600592259597592,0.773859197280556,7.05003892301917,-0.245216965675354,-0.22177845239639282,0.8669822812080383
1772376876658984400,5.180984375,0.4667490583516657,0.7348132811799645,5.23382302877903,-0.33785635232925415,-0.22627386450767517,0.9684500694274902
1772376876668932400,5.190932373046875,0.16185557255893945,0.482339316595532,2.793844536831975,-0.30298200249671936,-0.23837807774543762,0.9877872467041016
1772376876678881500,5.200881591796875,-0.14383198622092605,-0.004688998066447675,-0.13730477640926836,-0.1178789883852005,-0.29326528310775757,0.9111888408660889
1772376876688829400,5.210829345703125,-0.2047995920766145,-0.7149216359477489,-3.3282086031645535,0.1962326020002365,-0.4212827682495117,0.7762882709503174
1772376876698778600,5.220778564453125,0.3619582755235955,-1.5281233211226761,-6.034086687251925,0.49966171383857727,-0.6530846357345581,0.6467127203941345
1772376876708727600,5.2307275390625,1.4717206120297313,-2.3386992609038946,-7.819563744357228,0.6699463725090027,-0.9752540588378906,0.5684580206871033
1772376876718675700,5.24067578125,2.4123656778782605,-2.757338222211599,-8.603407598426937,0.555002748966217,-1.3597356081008911,0.5303247570991516
1772376876728624600,5.250624755859375,2.557325937476754,-2.407524667587876,-8.699640359735488,0.08781292289495468,-1.6896837949752808,0.4817622900009155
1772376876738572500,5.260572509765625,1.620243678676337,-1.4498939801469444,-9.137323336470127,-0.5775057077407837,-1.78472101688385,0.3644561767578125
1772376876748521500,5.270521484375,-0.03500120728705078,-0.1351115772139281,-11.094054785859583,-1.1015795469284058,-1.516300082206726,0.18320707976818085
1772376876758470700,5.280470703125,-1.5788511994495986,1.118607285208255,-14.772465066182612,-1.183313250541687,-0.863145649433136,-0.00724675040692091
1772376876768418600,5.29041845703125,-2.2458502968147394,2.061429110573977,-18.92453681459427,-0.8080145716667175,-0.08360395580530167,-0.11998436599969864
1772376876778367500,5.300367431640625,-1.6183523119717835,2.5590461853981017,-21.486568737804888,-0.18534591794013977,0.4740965962409973,-0.1048554852604866
1772376876788316400,5.31031640625,-0.017872341299057005,2.40339560495913,-21.085937434613705,0.34633129835128784,0.678642749786377,0.011066051200032234
1772376876798264600,5.3202646484375,1.4293850067339837,1.9439144917838274,-17.81698006184101,0.6238859295845032,0.5898305773735046,0.11287736892700195
1772376876808213500,5.330213623046875,1.8555457418486474,1.4607907833449543,-13.31248837569952,0.6394137740135193,0.3787316083908081,0.14005236327648163
1772376876818161400,5.340161376953125,1.6530831413522362,0.6367196944355964,-9.206999514764547,0.4766847491264343,0.24757705628871918,0.09323105961084366
1772376876828110300,5.3501103515625,1.2347586528211831,-0.23462873048800972,-6.1173056532084935,0.2505246102809906,0.27270394563674927,0.018124796450138092
1772376876838059500,5.3600595703125,0.931453897524625,-0.5358160552391782,-4.047167604869604,0.05846834555268288,0.4193844795227051,-0.03712035343050957
1772376876848007400,5.37000732421875,0.8328480504091829,-0.4195675839273259,-2.5903800658166407,-0.04131923243403435,0.6075662970542908,-0.07070288062095642
1772376876857956600,5.37995654296875,0.8474655546307563,-0.2561544797280803,-1.3997826262831687,-0.05624039098620415,0.7562915682792664,-0.08860251307487488
1772376876867904500,5.389904541015625,0.8283002509117126,-0.10122428598552942,-0.13121581188440323,0.0054189786314964294,0.8351225852966309,-0.09199094772338867
1772376876877853700,5.399853759765625,0.8013773188032209,0.12617938861977307,1.251305298474431,0.11765497177839279,0.8184975385665894,-0.06875406950712204
1772376876887802600,5.409802734375,0.8106091844636947,0.2661140751412138,2.749007616239786,0.25230464339256287,0.698888897895813,-0.029088085517287254
1772376876897750500,5.41975048828125,0.7572052187953144,0.310753573465161,4.239266632261872,0.38536950945854187,0.5248960852622986,0.015678586438298225
1772376876907699700,5.42969970703125,0.5985120557900517,0.3548495029643178,5.601415985721349,0.5058077573776245,0.3682948648929596,0.060621894896030426
1772376876917647600,5.439647705078125,0.2972116625858471,0.4154457912895828,6.667088237947225,0.6220576763153076,0.2701254189014435,0.11136763542890549
1772376876927596500,5.449596435546875,-0.06140329385921359,0.5382205225650221,7.530972427937388,0.7221941351890564,0.227044478058815,0.1419486105442047
1772376876937545500,5.45954541015625,-0.46473417486529794,0.5708267610069364,8.262127478870749,0.8090973496437073,0.23912058770656586,0.15216608345508575
1772376876947493600,5.46949365234375,-0.8891395542126148,0.5712255510661751,8.938129966902732,0.8821680545806885,0.271568238735199,0.1472538262605667
1772376876957442600,5.479442626953125,-1.2420647380508483,0.6153576843898743,9.613560792526602,0.9403024911880493,0.2855253219604492,0.11747781932353973
1772376876967390500,5.489390380859375,-1.4909800237730144,0.5977543692905456,10.252656568443774,0.987689197063446,0.28195279836654663,0.07686677575111389
1772376876977339400,5.49933935546875,-1.6280153355911373,0.5906493595909327,10.770903028190135,1.016532301902771,0.28535446524620056,0.04579433798789978
1772376876987288600,5.50928857421875,-1.5614524670116603,0.5989490589678287,11.274738685268163,1.0145975351333618,0.24873195588588715,0.026263410225510597
1772376876997236500,5.519236572265625,-1.5246408858343958,0.6045034782245755,11.765345442938804,0.9736788272857666,0.1857660561800003,0.0030068226624280214
1772376877007185400,5.529185302734375,-1.4680698344372212,0.655147769921273,12.24035364946127,0.8675651550292969,0.11476960778236389,-0.0004975302144885063
1772376877017133600,5.539133544921875,-1.2985120169378817,0.6978649218805134,12.610009968674182,0.7079504728317261,0.011847219429910183,0.031125644221901894
1772376877027082500,5.54908251953125,-1.0998835877768696,0.6947362684659659,12.805974439322947,0.4770112633705139,-0.11295441538095474,0.07924307882785797
1772376877037031400,5.559031494140625,-0.9986826096016913,0.7142620760604739,12.671581166446208,0.20890206098556519,-0.23485608398914337,0.1375034600496292
1772376877046979300,5.568979248046875,-0.9990805228780955,0.6175654966324567,11.949216155689953,-0.0749078169465065,-0.3325583040714264,0.18876677751541138
1772376877056928500,5.578928466796875,-1.0979424636464565,0.27778803672417995,10.647220534420013,-0.36819350719451904,-0.4276704490184784,0.22352449595928192
1772376877066877700,5.588877685546875,-1.205906506215781,-0.09015139556825161,8.861077706882357,-0.6494076251983643,-0.5058413743972778,0.23242227733135223
1772376877076825600,5.59882568359375,-1.4068310834899544,-0.2927706479310989,6.392847518441081,-0.7793717384338379,-0.6265320777893066,0.17491663992404938
1772376877086774500,5.6087744140625,-1.604470501613617,-0.7515991424165666,3.014381138679385,-0.6642113327980042,-0.7209782600402832,0.054513029754161835
1772376877096723200,5.61872314453125,-1.5415879289820789,-1.557795698069781,-0.6583738923609256,-0.3911520838737488,-0.8296877145767212,-0.07585456222295761
1772376877106672000,5.628672119140625,-1.0623308328434824,-2.195816392101347,-3.6285096466004845,-0.11201417446136475,-0.995473325252533,-0.16996833682060242
1772376877116620000,5.6386201171875,-0.3965431936273351,-2.565571203252673,-5.41825312897861,-0.005004102364182472,-1.225671410560608,-0.2428625226020813
1772376877126569000,5.64856884765625,0.18834084390252828,-2.7582959613278506,-6.123376497554779,-0.1076042428612709,-1.43436598777771,-0.29172131419181824
1772376877136518000,5.658517822265625,0.5889871985323727,-2.833310870301723,-6.5448378228068345,-0.4343022108078003,-1.5543733835220337,-0.2911663055419922
1772376877146466000,5.668466064453125,0.5680174026746303,-2.584702020180225,-6.9903557309508315,-1.0261268615722656,-1.5709922313690186,-0.28494569659233093
1772376877156415200,5.678415283203125,-0.2291912886744365,-1.727348839394003,-7.425086287620664,-1.758033275604248,-1.4011049270629883,-0.335006982088089
1772376877166364200,5.6883642578125,-1.590447529219091,-0.5165584335941821,-8.931814207884669,-2.2873051166534424,-0.9700337648391724,-0.437978595495224
1772376877176312300,5.698312255859375,-2.6104291666328905,0.518543542996794,-12.010912441146374,-2.3254001140594482,-0.35620972514152527,-0.5130874514579773
1772376877186261200,5.70826123046875,-2.3531793294161556,1.1840357429303228,-15.57854179484844,-1.8664852380752563,0.18296672403812408,-0.47222092747688293
1772376877196209200,5.718209228515625,-0.9959968776490539,1.527757702680677,-17.824052776706218,-1.10886812210083,0.47133833169937134,-0.2894260883331299
1772376877206158000,5.728157958984375,0.597962824409455,1.6484287396751343,-17.561146521162986,-0.3497686982154846,0.42680200934410095,-0.03357741981744766
1772376877216107000,5.73810693359375,1.6791697687670588,1.5423624204859137,-14.647915141928195,0.1641625463962555,0.16807642579078674,0.244331955909729
1772376877226055200,5.74805517578125,2.0349775953695177,1.160623887682706,-10.288906277954577,0.38601958751678467,-0.10716687887907028,0.4864560067653656
1772376877236004000,5.758004150390625,1.7617650498673318,0.48777361660394813,-5.970600011247396,0.3669832944869995,-0.3039262890815735,0.6769253015518188
1772376877245952300,5.7679521484375,1.09134774155654,-0.2101915873132646,-2.4172592951387166,0.18919812142848969,-0.3847629129886627,0.7840822339057922
1772376877255901200,5.777901123046875,0.12325637731254101,-0.644351723683998,0.2655494635283947,-0.07753502577543259,-0.3551645278930664,0.7908653616905212
1772376877265850000,5.78785009765625,-0.8319829580124467,-0.9421379347547888,2.0992109980881213,-0.34424954652786255,-0.2734415829181671,0.7084583640098572
1772376877275798000,5.797798095703125,-1.5616659636318684,-1.138150774589926,3.266245191204548,-0.5885130763053894,-0.13889549672603607,0.5879310965538025
1772376877285747000,5.807746826171875,-1.8993895597502588,-1.1437681030150502,3.8938311465919018,-0.7621477246284485,0.0046517448499798775,0.45616939663887024
1772376877295695000,5.817695068359375,-1.9020809907913208,-1.0752821574185043,4.16036202237308,-0.8457323908805847,0.12767140567302704,0.34336960315704346
1772376877305644000,5.82764404296875,-1.637892148091644,-1.0043188619229941,4.189674626097083,-0.8449491262435913,0.23653531074523926,0.2630090117454529
1772376877315593000,5.837593017578125,-1.2387217112332582,-0.947964887342602,4.139467702904343,-0.7588499188423157,0.3024400472640991,0.21669237315654755
1772376877325541000,5.847541015625,-0.7892118839088826,-0.8937623917076736,4.140077359235287,-0.6096721887588501,0.3445330262184143,0.2094803899526596
1772376877335490300,5.857490234375,-0.2934515428673476,-0.911800883353874,4.206874767223001,-0.4320544898509979,0.3650848865509033,0.24264127016067505
1772376877345438000,5.86743798828125,0.16337467188499866,-0.9730939217716454,4.410464910444617,-0.24442735314369202,0.36470142006874084,0.3090152144432068
1772376877355387100,5.87738720703125,0.551622075125575,-0.9813844149287789,4.721601820671558,-0.042874518781900406,0.33534273505210876,0.3877824544906616
1772376877365336000,5.887336181640625,0.801095579252392,-0.932146336768195,5.0744519665122025,0.14772126078605652,0.2796424329280853,0.47448453307151794
1772376877375284200,5.8972841796875,0.9184500390447675,-0.8918531970854848,5.510048784622549,0.310385525226593,0.20262061059474945,0.5655827522277832
1772376877385233200,5.907233154296875,1.0223080345347524,-0.8769342256993055,5.974221708875894,0.4375706613063812,0.1261424422264099,0.6491749882698059
1772376877395181000,5.91718115234375,0.9615442076228559,-0.8912954170722514,6.30282471768856,0.523862898349762,0.052865833044052124,0.7181718945503235
1772376877405130200,5.927130126953125,0.7632793510772288,-0.8119234088674188,6.475093255451322,0.5858970284461975,-0.016924217343330383,0.7670016884803772
1772376877415079200,5.9370791015625,0.5076962414963171,-0.6252487446114421,6.451734007173776,0.6215599179267883,-0.0886487364768982,0.7942594289779663
1772376877425027000,5.947027099609375,0.2820323597630486,-0.4450552590683102,6.272190509971976,0.6260913014411926,-0.1461668759584427,0.8058600425720215
1772376877434976000,5.95697607421875,0.16394290022701025,-0.34463874580170956,5.930856614401936,0.6189311146736145,-0.1951970010995865,0.8065261244773865
1772376877444924200,5.966924072265625,0.07612919035870581,-0.3483139637157321,5.371829231455922,0.5867409706115723,-0.2683791220188141,0.7970113158226013
1772376877454873000,5.976873046875,-0.1507419848050922,-0.18775012973407282,4.564237422052026,0.5451072454452515,-0.2971266210079193,0.7545179128646851
1772376877464822000,5.986822021484375,-0.4246760495148599,0.07462011923631653,3.4977532689213753,0.510256290435791,-0.2875162363052368,0.6850017309188843
1772376877474770200,5.996770263671875,-0.40101299598515033,-0.010860307112522423,2.1565543490320445,0.5347294211387634,-0.29799550771713257,0.6122849583625793
1772376877484719000,6.006718994140625,0.21202399037219583,-0.3139668729558587,0.6014771161407232,0.6639776825904846,-0.33776479959487915,0.605346143245697
1772376877494667000,6.0166669921875,1.2753716721080244,-0.5363533769862726,-1.0140285742282866,0.8963750004768372,-0.41812968254089355,0.6813204884529114
1772376877504616000,6.026615966796875,2.3602749867655337,-0.9918282867275178,-2.2343471982866525,1.0768529176712036,-0.6373491883277893,0.774371325969696
1772376877514565000,6.036565185546875,3.1026021507069466,-1.6463767755813896,-2.52480781570971,1.0346535444259644,-0.9995707869529724,0.8383934497833252
1772376877524513000,6.046512939453125,3.2490073484167454,-2.261971264401823,-2.216807449942827,0.7376929521560669,-1.4258323907852173,0.810771107673645
1772376877534462200,6.056462158203125,2.6112930899858475,-2.757087170059979,-2.3512135823011397,0.2919418215751648,-1.7267346382141113,0.6954585909843445
1772376877544411100,6.0664111328125,1.4766381946876643,-2.806977282388508,-3.5367736121892928,-0.16894963383674622,-1.805442214012146,0.5245030522346497
1772376877554359300,6.076359375,0.25392799931764604,-2.3853394315257668,-5.557918204778432,-0.5427170991897583,-1.6062647104263306,0.3052292764186859
1772376877564308200,6.08630810546875,-0.8732913391523063,-1.893349987325072,-7.949953626811504,-0.8168940544128418,-1.1938350200653076,0.045015398412942886
1772376877574256000,6.096256103515625,-1.775362782587111,-1.4797304616145788,-10.07655064447522,-1.0407673120498657,-0.7192450761795044,-0.23496565222740173
1772376877584205000,6.106205078125,-2.2807954995982347,-0.8693629136621952,-11.475228524386882,-1.2556008100509644,-0.3429563343524933,-0.5018320679664612
1772376877594154200,6.116154296875,-2.2692729657173154,0.09225983908958732,-12.285649419736862,-1.386599063873291,0.0021019866690039635,-0.6788763403892517
1772376877604102100,6.12610205078125,-1.5315142787352203,1.222328502576053,-13.104210366922617,-1.3278584480285645,0.43940219283103943,-0.6927967667579651
1772376877614051000,6.136051025390625,-0.38769890251234174,2.1632804424166676,-13.771585896384716,-1.084671139717102,0.915130615234375,-0.5670816898345947
1772376877623999200,6.145999267578125,0.586539805380255,2.6233929853633047,-13.411861773121355,-0.8041518926620483,1.3475381135940552,-0.3986104428768158
1772376877633948200,6.1559482421875,1.022255281434208,2.5299057233706117,-11.70889582596421,-0.5717386603355408,1.646574854850769,-0.2685163617134094
1772376877643897000,6.16589697265625,1.04396515506953,2.1203798967145384,-9.084020785349606,-0.41725024580955505,1.7934507131576538,-0.19481723010540009
1772376877653845000,6.175844970703125,0.8938607375156133,1.5856360372841358,-6.162820619192719,-0.335174024105072,1.784693956375122,-0.15678410232067108
1772376877663794000,6.1857939453125,0.749723630868271,1.072934059922397,-3.3780753346174954,-0.3084116578102112,1.6471378803253174,-0.15654848515987396
1772376877673742000,6.1957421875,0.616240970030427,0.6459187538050115,-1.0039952559918164,-0.3020954430103302,1.4160940647125244,-0.16450200974941254
1772376877683691000,6.20569091796875,0.5481887396760284,0.3089431995749473,0.8277151445001363,-0.2872461974620819,1.1674383878707886,-0.1643245369195938
1772376877693640000,6.215639892578125,0.49033553951382636,0.1391320831679739,2.1369196742355823,-0.24351681768894196,0.9448785185813904,-0.14493434131145477
1772376877703588000,6.225588134765625,0.4071141258718446,0.09812599117662757,2.9709178445279596,-0.14338701963424683,0.7817420363426208,-0.10971499979496002
1772376877713537300,6.235537353515625,0.3562895091721788,0.06348528776504099,3.4837072079122064,-0.012911028228700161,0.6812263131141663,-0.04884951561689377
1772376877723485000,6.24548486328125,0.40314664701297875,0.02796339933844283,3.9324703815877435,0.14670126140117645,0.6284866333007812,0.03160863369703293
1772376877733434000,6.25543408203125,0.3533084475347772,-0.028582937742583452,4.396924460870027,0.3028802275657654,0.6105726361274719,0.09295827895402908
1772376877743383300,6.26538330078125,0.1187190992090851,-0.1469114667315036,4.933042092871665,0.45427054166793823,0.5918660163879395,0.14156094193458557
1772376877753331200,6.275331298828125,-0.1728078322712332,-0.13533932155519723,5.550657273864746,0.5874155163764954,0.5496338605880737,0.17056064307689667
1772376877763280100,6.285280029296875,-0.4371552995987236,0.026653933308226987,6.2565890362143515,0.6914505958557129,0.49090132117271423,0.18109850585460663
1772376877773228300,6.295228271484375,-0.7012484999042004,0.13766323445811868,6.895676628825068,0.7530146241188049,0.4503762722015381,0.1864786148071289
1772376877783177200,6.30517724609375,-0.8220071421168744,0.19713678409745916,7.4811834378957744,0.7572879195213318,0.44269368052482605,0.19685585796833038
1772376877793126100,6.315126220703125,-0.9031336658388376,0.2636168514980003,7.9718544929742805,0.7006299495697021,0.4723716676235199,0.2192639708518982
1772376877803074000,6.325073974609375,-0.9352828812282532,0.31105222761817275,8.305556870752573,0.6191287040710449,0.5437093377113342,0.27444684505462646
1772376877813023000,6.33502294921875,-0.8407024902366101,0.37619821513704954,8.421889001759887,0.5219119191169739,0.6023116707801819,0.36429792642593384
1772376877822971100,6.34497119140625,-0.7701531093042343,0.44214006574135273,8.392422668778895,0.42252060770988464,0.6173406839370728,0.49119627475738525
1772376877832920000,6.354920166015625,-0.7529353594563901,0.5941180220821872,8.304853690919279,0.3227737545967102,0.5912683010101318,0.6400904059410095
1772376877842869000,6.364868896484375,-0.7868107410512865,0.8142470295093953,8.064195507541298,0.221846342086792,0.5542499423027039,0.8070524334907532
1772376877852817200,6.374817138671875,-0.9585153613209724,0.9832537889972328,7.588769367867708,0.1432945430278778,0.4865611791610718,0.9458563327789307
1772376877862766000,6.38476611328125,-1.2401308473788202,0.9479927982628344,6.864793999305367,0.1000906229019165,0.37816235423088074,1.0385464429855347
1772376877872714000,6.3947138671875,-1.5916355699598788,0.8028057441711425,5.924951189750432,0.14128679037094116,0.2237171232700348,1.0741140842437744
1772376877882663000,6.404662841796875,-1.790911357113719,0.5082296907858923,4.725350359550118,0.317221075296402,0.010753477923572063,1.0815579891204834
1772376877892612000,6.414612060546875,-1.5310995604544877,-0.21385021941866725,3.236296627664566,0.6399751305580139,-0.27104809880256653,1.0772508382797241
1772376877902560000,6.42456005859375,-0.7716887213736772,-1.4367431144118308,1.7813859883993863,1.0550554990768433,-0.7009488344192505,1.0718733072280884
1772376877912509200,6.43450927734375,0.29806457135444503,-3.0546418373972175,0.5978478197276592,1.501358151435852,-1.3126269578933716,1.0726200342178345
1772376877922457300,6.444457275390625,1.1544432993516325,-4.470031490395963,-0.12299217341840267,1.7561044692993164,-2.033438205718994,1.0147277116775513
1772376877932406300,6.45440625,1.116491827424243,-5.105376681607962,0.02222176868021488,1.6117304563522339,-2.7094662189483643,0.839743435382843
1772376877942355200,6.464355224609375,-0.16745324643552303,-4.858690031720697,0.7820242374271154,0.9339210391044617,-3.1000759601593018,0.5335172414779663
1772376877952303000,6.47430322265625,-2.4706010092258452,-4.423573690603673,1.2680389911323786,-0.21007443964481354,-3.0255768299102783,0.05988122895359993
1772376877962252000,6.484251953125,-5.148965647965669,-3.824177764651179,0.49663785452842707,-1.530739665031433,-2.387251615524292,-0.5665493011474609
1772376877972201200,6.494201171875,-7.199831425079703,-2.862688940477371,-2.1275304991215465,-2.6465134620666504,-1.233695387840271,-1.2400356531143188
1772376877982149000,6.504149169921875,-7.8542358292877665,-1.524678002974391,-6.517778550967574,-3.25677490234375,0.06091295927762985,-1.7719882726669312
1772376877992098000,6.51409814453125,-6.264617444369197,0.24319983068481085,-10.87497948873639,-3.2938718795776367,0.9989249110221863,-1.9749610424041748
1772376878002046200,6.524046142578125,-2.594368843191862,1.778685789529979,-14.03558637690544,-2.804006338119507,1.4954447746276855,-1.759337067604065
1772376878011995100,6.5339951171875,1.5042118457898497,2.6835224598944185,-15.755995626294611,-1.9840432405471802,1.5602890253067017,-1.2358733415603638
1772376878021943000,6.543943115234375,4.0594314586371185,3.405453755408525,-15.721730953121185,-1.0951552391052246,1.2812485694885254,-0.6468348503112793
1772376878031892000,6.55389208984375,4.481713452622294,3.7295296421855686,-14.133692530870437,-0.2782692015171051,0.8635600805282593,-0.16182473301887512
1772376878041841200,6.563841064453125,3.55553121189028,3.1428628494247794,-11.76885725045204,0.4003002345561981,0.5250369310379028,0.16466063261032104
1772376878051789000,6.5737890625,2.271413192616403,1.9613770832382142,-9.175504890826344,0.9216656684875488,0.30865243077278137,0.35458290576934814
1772376878061738000,6.583738037109375,1.0288034609686583,0.9443762882661074,-6.4239399913191795,1.301257848739624,0.18894140422344208,0.4357396066188812
1772376878071687200,6.593687255859375,-0.051999432632699606,0.16664446906959637,-3.5961499302655455,1.481488823890686,0.1444636881351471,0.4202543795108795
1772376878081635000,6.603635009765625,-0.8806583607889711,-0.5191233887113631,-0.66099547303617,1.4632900953292847,0.11103972792625427,0.3374103903770447
1772376878091584300,6.613584228515625,-1.4311708672374486,-1.0972824653677642,2.171057506158948,1.2706562280654907,0.04663490504026413,0.204983651638031
1772376878101532000,6.623531982421875,-1.6451576090499758,-1.423173877134174,4.561060545581579,0.9759065508842468,-0.017609335482120514,0.04874313995242119
1772376878111480800,6.633480712890625,-1.5467665006637572,-1.5267093626715242,6.25731968857646,0.6456831097602844,-0.042411353439092636,-0.0823749303817749
1772376878121430000,6.643429931640625,-1.1894375289086252,-1.5469897880256176,7.2819725326716895,0.32203951478004456,-0.031120777130126953,-0.19127535820007324
1772376878131378000,6.6533779296875,-0.7621075308188796,-1.522644305189699,7.7540873558402055,0.06333047896623611,-0.009087912738323212,-0.2697874903678894
1772376878141326800,6.663326904296875,-0.40401075302902606,-1.4886482198245823,7.779081511843204,-0.10771503299474716,0.014861118979752064,-0.3264375627040863
1772376878151275000,6.67327490234375,-0.06543390108216554,-1.3344133514024317,7.522326180145144,-0.19061551988124847,0.048180460929870605,-0.3582005500793457
1772376878161224000,6.683223876953125,0.20951262860577552,-1.1512817665807902,7.139851295891404,-0.22078832983970642,0.0946158692240715,-0.3734703063964844
1772376878171173000,6.693173095703125,0.4732007917743176,-0.8776055490896105,6.981873149287701,-0.23941181600093842,0.13199573755264282,-0.352425754070282
1772376878181120800,6.703120849609375,0.7535792833831161,-0.44900797874946147,6.982157811447977,-0.2767490744590759,0.13077707588672638,-0.30343931913375854
1772376878191070000,6.713070068359375,0.9348962930634618,0.05091189312431961,7.05406861692667,-0.33882468938827515,0.12602359056472778,-0.224980428814888
1772376878201018000,6.72301806640625,1.0603288453713058,0.3915764745980501,6.986680841830372,-0.3816467225551605,0.15401095151901245,-0.12013281881809235
1772376878210967000,6.732967041015625,1.1797126190342009,0.6089185547204687,6.504825545892119,-0.37991806864738464,0.16632114350795746,0.003149704309180379
1772376878220916000,6.742916015625,1.1795606433428822,0.7468135155752301,5.701470351144671,-0.32376450300216675,0.16831031441688538,0.13535134494304657
1772376878230864100,6.752864013671875,1.0574013405520468,0.8538102474823593,4.641911613363027,-0.22394604980945587,0.20191863179206848,0.26975467801094055
1772376878240813000,6.76281298828125,0.9651935969758778,0.9923618090823292,3.3547529112190007,-0.04958248883485794,0.2390287071466446,0.3989769518375397
1772376878250761000,6.772760986328125,0.8328634671740234,1.2137363230586051,1.9177935237079857,0.20819391310214996,0.2969154715538025,0.5226306915283203
1772376878260710000,6.7827099609375,1.017932449799031,1.3584155737586319,0.4633598543047905,0.5836527347564697,0.2902928590774536,0.6608171463012695
1772376878270659000,6.7926591796875,1.568134575124085,1.1126167395565658,-1.0095751019507646,1.1070773601531982,0.16550219058990479,0.813498318195343
1772376878280607000,6.80260693359375,2.3938687749400733,0.33067963242363185,-2.153874316167831,1.6658663749694824,-0.1384805589914322,0.956423819065094
1772376878290556000,6.812555908203125,3.336958019070327,-1.099407275502011,-2.313226089212298,2.055906295776367,-0.7426237463951111,1.0374960899353027
1772376878300504000,6.822504150390625,4.009377387918532,-2.98667655467391,-1.3276765904933214,2.074199914932251,-1.6308538913726807,1.0095524787902832
1772376878310453000,6.832452880859375,3.8239533082455393,-4.480644069825113,0.14216975209712981,1.6184914112091064,-2.5494542121887207,0.8547451496124268
1772376878320402000,6.84240185546875,2.043199772530794,-4.733612284199893,1.0763438683658837,0.7383509874343872,-3.123502254486084,0.5382366180419922
1772376878330349800,6.852349853515625,-0.9916203430652618,-4.0681799977600575,0.2934878562897444,-0.2660708725452423,-3.077646017074585,0.049044787883758545
1772376878340299000,6.862299072265625,-3.998546781824529,-3.03257379797399,-2.9163328523814678,-1.0526988506317139,-2.348231554031372,-0.5232068300247192
1772376878350247000,6.872246826171875,-5.6861722442477936,-1.7943614975675939,-7.822481093108654,-1.422530174255371,-1.1355218887329102,-1.0003854036331177
1772376878360195800,6.88219580078125,-5.062954420942067,-0.8731443318970501,-12.304538829123974,-1.3973208665847778,0.07459570467472076,-1.2492649555206299
1772376878370145000,6.89214501953125,-2.445111324790865,-0.7322452573228627,-15.212131910210847,-1.0756027698516846,0.8089730143547058,-1.1975102424621582
1772376878380093200,6.90209326171875,0.8031525117821992,-0.3972571505829692,-16.081244648504256,-0.6753140091896057,0.9940701723098755,-0.9170160293579102
1772376878390042000,6.9120419921875,2.6859002949416637,0.6414846438150853,-15.062753834170103,-0.4331591725349426,0.8398244380950928,-0.6070608496665955
1772376878399990000,6.921989990234375,2.4990976203918454,1.7561477945074437,-12.873064692777394,-0.37767675518989563,0.6980301141738892,-0.4339022636413574
1772376878409939000,6.93193896484375,1.052349829316139,2.0106636767156423,-10.929069975364207,-0.33109086751937866,0.7919067740440369,-0.4104374349117279
1772376878419888000,6.94188818359375,-0.5144456061586737,1.6449194163799286,-9.984024336469172,-0.15902110934257507,1.0978370904922485,-0.48018312454223633
1772376878429836000,6.9518359375,-1.4891814499184488,1.350583126567304,-9.253238703370094,0.10485049337148666,1.4697901010513306,-0.5343017578125
1772376878439785000,6.961784912109375,-1.6050672984629868,1.3590272759161888,-7.663008908554911,0.4067395031452179,1.7516077756881714,-0.5315266847610474
1772376878449733000,6.971733154296875,-1.295248485097289,1.2983522963315248,-5.280455600616335,0.6900356411933899,1.8324406147003174,-0.5096057057380676
1772376878459682000,6.98168212890625,-0.9422140687309205,1.0175840747527778,-2.6195529688090082,0.9443480968475342,1.7036899328231812,-0.49409133195877075
1772376878469631000,6.991630859375,-0.6767891814302652,0.7055054266963153,-0.03429331474602222,1.1278502941131592,1.4364166259765625,-0.4837854504585266
1772376878479579000,7.001578857421875,-0.5152602835424244,0.6024119858380407,2.411355039530992,1.2241758108139038,1.1185157299041748,-0.48449811339378357
1772376878489528000,7.011528076171875,-0.5273897338079289,0.6444684088662266,4.490609291261435,1.2816321849822998,0.8654269576072693,-0.4847830533981323
1772376878499476000,7.02147607421875,-0.5677127571722492,0.7045160503327846,6.014443829149007,1.296586036682129,0.6891589164733887,-0.49882492423057556
1772376878509425000,7.0314248046875,-0.7340692578796297,0.9517463055774569,7.183384148147701,1.2652337551116943,0.6470575332641602,-0.5370234251022339
1772376878519373800,7.041373779296875,-0.9150346776433288,1.33358654518947,8.221134374225139,1.1825140714645386,0.7155507802963257,-0.5699455738067627
1772376878529322000,7.051322021484375,-0.9393949927221983,1.62498868124634,9.121301591473816,1.0818359851837158,0.842987596988678,-0.5872899293899536
1772376878539271000,7.06127099609375,-0.8062254164215177,1.8739545281119643,9.84521909236908,0.9848859310150146,0.9682487845420837,-0.5671936869621277
1772376878549218800,7.07121875,-0.5146777344141156,2.1102974786393345,10.474019684243201,0.9034395217895508,1.0362993478775024,-0.5141019821166992
1772376878559168000,7.08116796875,-0.24455643292553722,2.2875997727856037,11.031090087902545,0.8251087665557861,1.0291680097579956,-0.4383823573589325
1772376878569117200,7.0911171875,-0.06238529063388705,2.4175796131342646,11.514686090028285,0.7719361186027527,0.9545302391052246,-0.35494738817214966
1772376878579065000,7.101065185546875,-0.05397347265202552,2.507030751478672,11.791745958608388,0.7083057165145874,0.8914451003074646,-0.26603564620018005
1772376878589014000,7.111013916015625,0.04978694421499967,2.512998135450482,12.079698977124691,0.6219261288642883,0.7861016392707825,-0.15087579190731049
1772376878598962200,7.120962158203125,-0.03981719273403287,2.500904377552867,12.284686127662658,0.5225417613983154,0.6957061886787415,-0.05182863399386406
1772376878608911000,7.1309111328125,-0.24523309007808564,2.3278055264458057,12.229369314110278,0.40662020444869995,0.6006497144699097,0.03992179036140442
1772376878618860000,7.140860107421875,-0.34810580085776743,1.86856801276803,11.922664833372831,0.27547574043273926,0.4780168831348419,0.13111469149589539
1772376878628808000,7.150807861328125,-0.34553514665216206,1.2256135155960917,11.388469109344483,0.07605985552072525,0.31268012523651123,0.2318362444639206
1772376878638756900,7.1607568359375,-0.367329264504835,0.6995762558430433,10.758595335280894,-0.2043078988790512,0.10614188760519028,0.3153044283390045
1772376878648705000,7.170705078125,-0.45703335469700396,0.14509060797989368,9.780450559860467,-0.5209910273551941,-0.17109212279319763,0.3546731173992157
1772376878658654000,7.180654052734375,-0.5541293087061494,-0.793604785105586,8.181999464666843,-0.7913833856582642,-0.6046509146690369,0.31981512904167175
1772376878668603000,7.190602783203125,-0.5720280265554786,-2.0487299341291187,5.612540606325864,-0.9266072511672974,-1.1671969890594482,0.2073194682598114
1772376878678551000,7.200551025390625,-0.5941714693024754,-3.1503479444831606,2.2385604320675134,-0.9532625675201416,-1.6875219345092773,0.03483712300658226
1772376878688500000,7.2105,-0.8459705668326467,-3.811081551712751,-1.2194354114830492,-1.0231637954711914,-2.1151304244995117,-0.18385100364685059
1772376878698448000,7.22044775390625,-1.4855689585097134,-3.676282912905514,-4.263073624306917,-1.2103406190872192,-2.3110272884368896,-0.4361790716648102
1772376878708396800,7.230396728515625,-2.6517224232688545,-2.6652573198854923,-7.148708556085825,-1.4492064714431763,-2.216893196105957,-0.7161753177642822
1772376878718346000,7.240345947265625,-3.8174762211859226,-1.2364711558274923,-10.2737952180624,-1.6383801698684692,-1.9084798097610474,-0.9796964526176453
1772376878728294000,7.2502939453125,-4.249090691661834,0.07551964362561703,-13.46933547244668,-1.6856259107589722,-1.4888691902160645,-1.1615139245986938
1772376878738243000,7.2602431640625,-3.6995538983777165,0.8335137477762997,-16.646662024748323,-1.549782633781433,-1.1225310564041138,-1.1884140968322754
1772376878748191000,7.27019091796875,-2.147011006269604,1.2893179260045289,-19.19767921746969,-1.2248526811599731,-0.7467795610427856,-1.0282601118087769
1772376878758140200,7.28014013671875,-0.41693796607609834,1.6567891562633215,-20.844041233873366,-0.8005191087722778,-0.3381638824939728,-0.7229344844818115
1772376878768089000,7.290089111328125,0.47575847690049555,2.0339960369862613,-21.000089873719215,-0.427825391292572,0.0474914014339447,-0.4069453477859497
1772376878778037000,7.300037109375,0.22542181660570204,2.2023368799112735,-19.49358524081707,-0.15870125591754913,0.30953994393348694,-0.19727551937103271
1772376878787986000,7.30998583984375,-0.774633469588682,1.9475366278037427,-17.044330971002577,0.05349595844745636,0.5299133658409119,-0.09566445648670197
1772376878797934000,7.31993408203125,-1.7415664575777947,1.326043728594482,-14.59339327814579,0.2964223027229309,0.7401354312896729,-0.06574402004480362
1772376878807883000,7.329883056640625,-2.3367053106077016,0.7549657693054527,-12.185861011773348,0.5579100847244263,0.933789849281311,-0.08404047042131424
1772376878817832000,7.33983203125,-2.532390233662724,0.28546441657096144,-9.618680035236478,0.8041081428527832,1.102656602859497,-0.12237557023763657
1772376878827780000,7.349780029296875,-2.3563923001132903,-0.04428834679871797,-6.749317608344555,1.0213782787322998,1.2022883892059326,-0.1420331597328186
1772376878837729000,7.35972900390625,-1.9528858798772095,-0.11370499737411736,-3.8528924024820324,1.2052870988845825,1.2291626930236816,-0.12377076596021652
1772376878847677000,7.369677001953125,-1.4832029600307344,0.030519933687150478,-1.1329086361527443,1.3442643880844116,1.20321524143219,-0.07116162031888962
1772376878857625900,7.3796259765625,-1.0481810191988945,0.26452698861286045,1.3528244757533072,1.4321790933609009,1.1537643671035767,-0.003414532635360956
1772376878867575000,7.389574951171875,-0.7236570963934064,0.5288095009453594,3.615405250355601,1.4838534593582153,1.0806329250335693,0.057749755680561066
1772376878877523000,7.39952294921875,-0.5991612038811669,0.754384681481868,5.575835554262995,1.4823572635650635,0.9867565631866455,0.09944146871566772
1772376878887471900,7.409471923828125,-0.6276346168346703,0.9652500764034688,7.3822916865110395,1.4352315664291382,0.887127697467804,0.11423719674348831
1772376878897420000,7.419419921875,-0.6857130771201103,1.1854007476732134,8.901983133244514,1.3625304698944092,0.8224329352378845,0.12358110398054123
1772376878907369000,7.429368896484375,-0.648976022483781,1.3909236125230788,10.079135400271415,1.2695232629776,0.8050638437271118,0.1430666595697403
1772376878917318100,7.439318115234375,-0.45464185645058747,1.5358235202364623,10.909159990757702,1.1886473894119263,0.833304226398468,0.18170779943466187
1772376878927265800,7.449265869140625,-0.2161399743236601,1.580008845052123,11.513914521133898,1.1184898614883423,0.8550835847854614,0.23639926314353943
1772376878937215000,7.459215087890625,-0.07159735561534762,1.550679582454264,11.994912907981872,1.0721229314804077,0.823845386505127,0.2777083218097687
1772376878947163100,7.4691630859375,-0.086370781050995,1.6093980211436747,12.452352724587916,1.0329786539077759,0.7625455260276794,0.3007766306400299
1772376878957112000,7.479112060546875,-0.21344481695555148,1.7191519428044557,12.88495269896984,0.9957274198532104,0.672421395778656,0.31039753556251526
1772376878967061000,7.48906103515625,-0.3569078967988491,1.7500398330211637,13.24760176976919,0.9360547661781311,0.5814065337181091,0.33645525574684143
1772376878977009200,7.499009033203125,-0.19096227844730018,1.8206559225142,13.506706294941901,0.812934398651123,0.41331759095191956,0.39989233016967773
1772376878986958000,7.5089580078125,-0.07172127425596117,1.8831696618333458,13.891001380360125,0.6005896925926208,0.2299533486366272,0.42833516001701355
1772376878996906000,7.518906005859375,-0.43823425394184884,1.6371765471681952,14.249555290800332,0.3071034550666809,0.029469667002558708,0.39470309019088745
1772376879006855000,7.52885498046875,-0.9506346910737454,1.2428431750774382,14.156663072091341,-0.1081366091966629,-0.16888336837291718,0.3378094434738159
1772376879016804000,7.53880419921875,-1.2614403235197067,1.060748532088101,13.84891931143403,-0.6864668130874634,-0.3049478828907013,0.26378798484802246
1772376879026752000,7.548751953125,-1.4587822200015186,1.039863564969599,13.437482536590098,-1.3911538124084473,-0.36518776416778564,0.16584089398384094
1772376879036701000,7.558700927734375,-1.6048269138358533,0.6704363783374429,12.368113767933846,-2.117934226989746,-0.3868287205696106,0.05102257430553436
1772376879046649000,7.568649169921875,-1.3734108983166515,-0.013497487215697764,10.104772530353069,-2.7126100063323975,-0.6918544173240662,-0.02161301299929619
1772376879056598000,7.578597900390625,-0.19587766914814708,-0.9406190546244382,6.313357802140712,-2.933105230331421,-1.0309642553329468,0.032058801501989365
1772376879066547000,7.588546875,1.3653402584552765,-1.731626516713202,1.0726105270564557,-2.6658883094787598,-1.2236005067825317,0.1381751149892807
1772376879076494800,7.598494873046875,2.5350270119071006,-2.135346141308546,-4.480182005271315,-2.0148398876190186,-1.4883334636688232,0.25234517455101013
1772376879086443800,7.60844384765625,2.9765748473763463,-2.0951570465222,-9.303168563187121,-1.2253936529159546,-1.7771618366241455,0.32261961698532104
1772376879096392000,7.618391845703125,2.512869540634751,-1.9697543048307298,-12.572988690268993,-0.5934212803840637,-2.012831449508667,0.3274536430835724
1772376879106340900,7.6283408203125,1.5462790094077585,-1.8950253731913864,-13.93639067413807,-0.41475701332092285,-2.1905908584594727,0.23693306744098663
1772376879116289800,7.638289794921875,0.16623296565925702,-1.6193198418296872,-13.77098266979456,-0.6529349684715271,-2.2234833240509033,0.03384828194975853
1772376879126238000,7.648238037109375,-1.3167412088505923,-0.8202171899601817,-13.841152184563875,-1.0273609161376953,-1.980459213256836,-0.17661920189857483
1772376879136187000,7.658186767578125,-1.8406205599173902,-0.04067432102002203,-15.546704056560992,-1.2174047231674194,-1.4128367900848389,-0.27457448840141296
1772376879146134800,7.668134765625,-1.2831810306847096,0.3346569020241499,-18.53814446463585,-1.0253111124038696,-0.6378625631332397,-0.23114313185214996
1772376879156083700,7.678083740234375,-0.24427228222191333,0.5123997795447707,-21.246673940014837,-0.557767927646637,0.08837385475635529,-0.07366858422756195
1772376879166033000,7.688032958984375,0.7847900488786399,0.8474060795284807,-21.884118441593646,-0.04755396023392677,0.531441330909729,0.09595799446105957
1772376879175980800,7.697980712890625,1.2881880451917647,0.9871279270168394,-19.889619863867757,0.34506574273109436,0.646369993686676,0.211894229054451
1772376879185929700,7.7079296875,1.1661167860105632,0.9084525227740406,-16.403924112486838,0.6117714643478394,0.5765538811683655,0.2506602704524994
1772376879195878000,7.7178779296875,0.744420775219798,0.6587341770406812,-12.738154702550172,0.7830167412757874,0.46459561586380005,0.23504790663719177
1772376879205826800,7.727826904296875,0.4910379521621391,0.23303718698024747,-9.47852162296176,0.8689199090003967,0.3893378973007202,0.2416277825832367
1772376879215776000,7.73777587890625,0.4833219709573313,-0.02195011213198304,-6.445512940701842,0.8739476799964905,0.3502463102340698,0.229909747838974
1772376879225723600,7.7477236328125,0.10637677337788044,-0.166911540774256,-3.6308816364288328,0.844238817691803,0.4050254225730896,0.1976335644721985
