time,seconds_elapsed,accel_x,accel_y,accel_z,gyro_x,gyro_y,gyro_z
1772376810370928600,0.0719287109375,-0.4274508479904383,0.5946788343027234,0.08146773837506771,-1.6859022378921509,0.5535188317298889,1.0587615966796875
1772376810380877600,0.081877685546875,-0.07513853535354137,0.6011592823632061,0.6761930421680211,-1.7725673913955688,0.5013879537582397,1.2656575441360474
1772376810390826500,0.091826416015625,0.14176697998251764,0.4855781158536672,0.944114495524764,-2.024226665496826,0.28122028708457947,1.4293699264526367
1772376810400775700,0.101775634765625,0.3113644353725016,0.530562993549183,1.610822500988841,-2.3544862270355225,-0.11597872525453568,1.549353837966919
1772376810410724600,0.111724609375,0.19794172553848474,0.7728948822930455,2.263518932235241,-2.470043897628784,-0.4486558437347412,1.6081634759902954
1772376810420672800,0.1216728515625,-0.2451308352800086,0.4005302539695054,1.7833616723865269,-2.3395776748657227,-0.5318620800971985,1.5419981479644775
1772376810430621700,0.13162158203125,-0.8037216899722814,-0.13369433996030128,0.7483475932747126,-2.04892635345459,-0.4133097529411316,1.3065377473831177
1772376810440570600,0.141570556640625,-1.3440123698748647,-0.5915293938284739,-0.43551615408957,-1.6453471183776855,-0.3258097469806671,0.9610372185707092
1772376810450519600,0.15151953125,-1.689717027875036,-0.8181240901384502,-1.2695908967494964,-1.1592538356781006,-0.28425759077072144,0.607437789440155
1772376810460468500,0.161468505859375,-1.7870258939824997,-0.8358364185702055,-1.7835598253071308,-0.6050204634666443,-0.18892574310302734,0.2909593880176544
1772376810470417400,0.17141748046875,-1.7312191049560903,-0.8703402342617511,-2.0634493643552063,-0.1587103307247162,-0.1874788999557495,0.06661155819892883
1772376810480366600,0.18136669921875,-1.324978437450528,-0.8482352238290012,-1.5119003544658423,0.17452141642570496,-0.19260069727897644,-0.10693945735692978
1772376810490315800,0.191315673828125,-1.0493649682864545,-0.4686565359408036,-0.7448936534285545,0.4048939347267151,-0.2740872800350189,-0.22993817925453186
1772376810500263700,0.201263671875,-0.7048541962459683,0.02901566660404205,-0.08798515744507313,0.5540735721588135,-0.41369789838790894,-0.28875142335891724
1772376810510212600,0.211212646484375,-0.24274532838296145,0.3354994172628969,0.4245464317858219,0.656535267829895,-0.5341443419456482,-0.29426318407058716
1772376810520161500,0.22116162109375,0.1476183363592252,0.46485517089646305,0.5857242512136698,0.686279296875,-0.5651012063026428,-0.2718433737754822
1772376810530110700,0.23111083984375,0.2940438462046906,0.4666478629995137,0.6662246058613062,0.60028475522995,-0.47671395540237427,-0.2524026036262512
1772376810540059600,0.2410595703125,0.26565997469816355,0.30476439778665076,0.9767214646190404,0.4446709454059601,-0.29959216713905334,-0.25191792845726013
1772376810550008600,0.251008544921875,0.21455728997578843,0.09706380530521273,1.266799804726243,0.2562679350376129,-0.19238844513893127,-0.2209043651819229
1772376810559957500,0.26095751953125,0.1316719946866855,0.1380658604422584,1.7553104669004678,0.054846685379743576,-0.16842319071292877,-0.15547555685043335
1772376810569906400,0.270906494140625,0.1280015260130167,0.46418260539714246,1.9882535458564756,0.008933302015066147,-0.22003163397312164,-0.08247516304254532
1772376810579855600,0.280855712890625,0.16962304648896678,0.32565508225988593,1.23959498693645,0.058627620339393616,-0.28728869557380676,-0.08300966024398804
1772376810589803500,0.290803466796875,0.04057339966250583,-0.07295991267282516,-0.0345382294178009,0.13471587002277374,-0.18952041864395142,-0.17271371185779572
1772376810599752700,0.300752685546875,0.09007193712387233,-0.3964958838868886,-0.7640250548779964,0.2403205931186676,-0.015221592038869858,-0.2741799056529999
1772376810609701600,0.31070166015625,0.3835627890883013,-0.22991160230562088,-1.096951772108674,0.4007880985736847,0.05163506790995598,-0.2957887351512909
1772376810619650600,0.320650634765625,0.7051547866277397,0.13143531812028958,-1.3697469689816235,0.6669004559516907,-0.06680209934711456,-0.213634192943573
1772376810629599500,0.330599609375,0.7910733669318258,0.44480157656818625,-2.0771113944828508,1.0266708135604858,-0.14670239388942719,-0.05981740728020668
1772376810639548400,0.34054833984375,0.646582989867404,0.5607216561758891,-2.6821242835342884,1.3683544397354126,-0.26767194271087646,0.06137239933013916
1772376810649497600,0.35049755859375,0.5087169993788003,0.4432403916660696,-2.9387767393797635,1.577349066734314,-0.5178537964820862,0.07448502629995346
1772376810659446500,0.360446533203125,0.25274319171356036,0.12915142670050261,-2.9736744497597214,1.6631230115890503,-0.6294834017753601,-0.010691121220588684
1772376810669395700,0.370395751953125,0.13684563446491957,-0.37824718355610965,-3.2135926284253595,1.7009636163711548,-0.5547257661819458,-0.1554347574710846
1772376810679343400,0.38034326171875,-0.13544058997258543,-0.8563696496415882,-3.95588282135725,1.640112042427063,-0.2716445326805115,-0.318732351064682
1772376810689292500,0.39029248046875,-0.32796255548465997,-1.122724584333971,-4.21362599504888,1.4612741470336914,-0.11078466475009918,-0.3986108601093292
1772376810699241700,0.40024169921875,-0.29195597054734823,-1.1160980788663029,-4.214021716368198,1.2384843826293945,0.09604894369840622,-0.32207268476486206
1772376810709190700,0.410190673828125,-0.40968320917487144,-0.7853659490704537,-3.971674264729023,1.0661996603012085,0.35666266083717346,-0.19833798706531525
1772376810719139600,0.4201396484375,-0.5762971187094226,-0.37755262542068957,-3.771258659890294,1.0158270597457886,0.6934146285057068,-0.10156004130840302
1772376810729088500,0.430088623046875,-0.5239127418797462,-0.36396029952839015,-4.194332681035995,1.060630440711975,1.0613065958023071,-0.07752661406993866
1772376810739037400,0.440037353515625,-0.49214057964179664,-0.475318149254471,-4.320739631333947,1.1402519941329956,1.3630856275558472,-0.059146009385585785
1772376810748986400,0.449986328125,-0.2172486479516141,-0.5381931231014431,-3.860381296932697,1.1891560554504395,1.6622579097747803,0.016953516751527786
1772376810758935800,0.459935791015625,0.1511354045694694,-0.5787479824602604,-3.1280303142130372,1.1770846843719482,1.7447657585144043,0.13096638023853302
1772376810768883500,0.469883544921875,0.020355426819063722,-0.4530953576609492,-1.8075217156529426,1.1408928632736206,1.6602709293365479,0.22481712698936462
1772376810778832600,0.47983251953125,-0.4714450341481715,-0.36447146392092106,-0.6434352664262056,1.1083616018295288,1.5063670873641968,0.24789582192897797
1772376810788781600,0.489781494140625,-0.8674824336778372,-0.4313945441149175,0.20046412015557288,1.093261480331421,1.3446567058563232,0.20918112993240356
1772376810798730500,0.49973046875,-1.3242860712721942,-0.5547974902912974,0.9137404000490903,1.0810633897781372,1.2528053522109985,0.11501521617174149
1772376810808679700,0.5096796875,-1.4699467342250048,-0.6151347623541951,1.36745973482728,1.032063364982605,1.1735727787017822,0.022518059238791466
1772376810818628600,0.519628662109375,-1.3710326248779892,-0.3355643722578883,2.0531483350932596,0.9341493248939514,0.9943358898162842,-0.05453890562057495
1772376810828577500,0.52957763671875,-1.2302755160577594,0.030875615257024765,3.05297770357728,0.7628453969955444,0.7606766223907471,-0.1850634068250656
1772376810838526500,0.5395263671875,-1.4182131859868765,0.34652123508006333,4.212047201424837,0.5023105144500732,0.476321280002594,-0.3625950515270233
1772376810848475600,0.5494755859375,-1.6039096528604626,0.47966918407082554,5.581484373804926,0.17161788046360016,0.09072961658239365,-0.5263800621032715
1772376810858423600,0.559423583984375,-1.5086572808913885,0.4980903914242983,6.9167632559955115,-0.3415895104408264,0.05238329991698265,-0.5579811334609985
1772376810868372700,0.569372802734375,-1.533163799507916,0.6756532362028956,7.737769842767715,-0.7551174163818359,-0.1882028579711914,-0.6849691867828369
1772376810878321700,0.57932177734375,-1.5563281097352504,0.9472177222371101,8.187285880637168,-1.1575288772583008,-0.31684181094169617,-0.8133682012557983
1772376810888270600,0.5892705078125,-0.6968950539350509,0.9622820203781127,8.045591344836353,-1.5275533199310303,-0.3874008357524872,-0.7901861071586609
1772376810898219500,0.599219482421875,0.5218728335499763,1.019713195735961,7.742578704354167,-1.8368035554885864,-0.3906003534793854,-0.620864987373352
1772376810908168400,0.60916845703125,1.303546065582335,1.321018155517429,7.187213351047038,-2.0722224712371826,-0.41453489661216736,-0.37326985597610474
1772376810918117600,0.61911767578125,1.6132850917100905,1.8229031169191001,6.663902593648434,-2.2124176025390625,-0.38387951254844666,-0.08083691447973251
1772376810928066600,0.629066650390625,1.7272683215036988,2.330780742864311,6.224903273618221,-2.2622008323669434,-0.295047402381897,0.16487877070903778
1772376810938015500,0.639015380859375,1.5583888416573404,2.5126935995459556,5.956608895295858,-2.2262017726898193,-0.16049467027187347,0.3468986451625824
1772376810947963400,0.64896337890625,1.2983902902543545,2.402491349595785,5.494727296850085,-2.113909959793091,0.06152431666851044,0.532782256603241
1772376810957912600,0.65891259765625,1.3289128542900084,2.21524049288705,5.049875743660331,-1.9176318645477295,0.2374143749475479,0.7153363823890686
1772376810967861800,0.66886181640625,0.992169062989205,2.04574361179471,4.85716530637145,-1.669721245765686,0.21645404398441315,0.7782339453697205
1772376810977810700,0.678810791015625,-0.08038250042162835,1.7142422511920332,4.8100545956283804,-1.4205673933029175,0.13231146335601807,0.7179162502288818
1772376810987759600,0.688759521484375,-1.3603981258779763,1.0955413207888602,4.9061242753297085,-1.280957818031311,-0.049809880554676056,0.5327935814857483
1772376810997708500,0.69870849609375,-2.4284216174051165,0.520802866230905,5.15851264398992,-1.3207579851150513,-0.37441062927246094,0.21360808610916138
1772376811007657500,0.708657470703125,-3.1861250680461524,0.029691593104228375,5.328960980588198,-1.5588027238845825,-0.7898043394088745,-0.15914849936962128
1772376811017606400,0.7186064453125,-3.39293037392199,-0.3306321034874767,5.200297191274166,-1.989785075187683,-1.2473911046981812,-0.5067975521087646
1772376811027555600,0.7285556640625,-3.111170949348807,-0.37188188630789515,4.434044523474574,-2.477137565612793,-1.8445197343826294,-0.8247054815292358
1772376811037504000,0.73850390625,-2.347642153555155,-0.2169607161220163,2.0883377218961714,-2.6649208068847656,-2.33660888671875,-0.957241952419281
1772376811047453000,0.748452880859375,-0.7830474429950117,0.2599213214483112,-2.6335312252789733,-2.511198043823242,-2.327014923095703,-0.8812331557273865
1772376811057401900,0.75840185546875,0.5683361863002181,0.26200521505028007,-7.176813537585735,-2.189239025115967,-2.331420660018921,-0.8309992551803589
1772376811067351000,0.76835107421875,0.38755036088712513,0.27455336565189065,-10.953535723578929,-1.6442828178405762,-1.993417739868164,-0.7667431235313416
1772376811077300000,0.778300048828125,0.3041026276759803,0.3614035277176648,-14.355280103075504,-1.1502439975738525,-1.2553842067718506,-0.6908869743347168
1772376811087249200,0.788249267578125,0.23844324727486818,0.9987550172507762,-16.18135571255088,-0.8615158796310425,-0.46386438608169556,-0.5795497298240662
1772376811097198000,0.798197998046875,0.6549350039534271,1.6272206780821084,-16.780075638937948,-0.7516822814941406,0.21195614337921143,-0.3917076289653778
1772376811107147000,0.80814697265625,1.4897101499676704,1.9889383132502436,-16.66694025814533,-0.6825922131538391,0.5818524956703186,-0.12021090090274811
1772376811117096000,0.818095947265625,2.2686346678137777,2.284916232790053,-16.38948642181158,-0.530550479888916,0.5973950028419495,0.1843860149383545
1772376811127043800,0.8280439453125,2.5551725588351486,2.494797877371311,-16.041019021099803,-0.2407066375017166,0.4872538149356842,0.41847503185272217
1772376811136993000,0.837992919921875,2.156696680112183,2.4780998405486345,-15.757412507355212,0.1877882480621338,0.39162343740463257,0.5725191831588745
1772376811146942000,0.84794189453125,1.27289432220906,2.3262881076201793,-15.330601637768744,0.704938530921936,0.4509179890155792,0.6790406703948975
1772376811156891100,0.85789111328125,0.30826208544299005,2.3826753268830476,-14.388859716594219,1.3092103004455566,0.7372205853462219,0.7353566288948059
1772376811166840000,0.867840087890625,-0.5046807296000421,2.4341537313163277,-13.12919283248782,1.8741724491119385,1.0109837055206299,0.8105096817016602
1772376811176789000,0.8777890625,-0.7118896478407084,2.2104462443478403,-11.211553038036822,2.272160291671753,1.2354601621627808,0.9063140153884888
1772376811186738000,0.887738037109375,-0.5374776683084667,1.9102102289721368,-8.489176823613047,2.5049281120300293,1.3934162855148315,0.950788676738739
1772376811196687000,0.89768701171875,-0.875556799866259,1.7254272236816584,-5.582016873246431,2.6100986003875732,1.412874460220337,0.9207208156585693
1772376811206636000,0.907635986328125,-1.3964623958192766,1.392703627807647,-2.7988924678713083,2.59905743598938,1.282265543937683,0.842625617980957
1772376811216584000,0.917583984375,-1.600212551908195,1.1442153353258966,-0.23253742076456546,2.517434597015381,1.0309706926345825,0.7343401312828064
1772376811226532900,0.927532958984375,-1.449620716163516,1.0105448237657546,1.7870102580219507,2.447042942047119,0.7776103019714355,0.6203719973564148
1772376811236481800,0.937481689453125,-1.0984043820697813,1.0134893527850508,3.089899028739333,2.4435641765594482,0.5225564241409302,0.5330434441566467
1772376811246431000,0.947430908203125,-0.730064040826261,1.2879754253543914,4.1566982391685245,2.5028865337371826,0.28413212299346924,0.500747561454773
1772376811256380200,0.957380126953125,-0.3042182168796658,1.7839535007998346,5.220522817701101,2.586007833480835,0.13021260499954224,0.5196661353111267
1772376811266329000,0.9673291015625,-0.39593635030798613,2.314825048841536,6.241245336610079,2.636094331741333,0.0636293962597847,0.39418062567710876
1772376811276278000,0.977278076171875,-1.9162673370540142,2.6670363122567533,7.279969960677623,2.7143073081970215,-0.09360416233539581,0.17334650456905365
1772376811286227000,0.98722705078125,-3.0408316309705374,2.4846286577954886,8.07599700449407,2.810955762863159,0.3196007013320923,-0.12331580370664597
1772376811296175000,0.997175048828125,-2.3481607706017793,1.892320936538279,10.196149668323994,2.4940073490142822,0.7652772665023804,-0.14793114364147186
1772376811306124000,1.0071240234375,0.9340360229723155,1.3858539080433547,14.315186577618121,1.6956040859222412,0.5135272145271301,0.1188686192035675
1772376811316073000,1.017072998046875,2.1589343760363757,2.375244592360407,17.981072891932726,0.9404683709144592,0.18099001049995422,0.25084397196769714
1772376811326022000,1.02702197265625,0.9466301316075026,3.2922099458053706,18.99309421799183,0.41368910670280457,-0.056407630443573,0.23167464137077332
1772376811335970800,1.036970703125,0.09996982894502579,2.4426196541056036,18.59391954334974,0.028481490910053253,-0.4260847568511963,0.1206972673535347
1772376811345920000,1.046919921875,-0.5431929041501135,1.801073562426865,18.17468875362873,-0.3177172541618347,-0.7621340751647949,-0.05571669340133667
1772376811355869000,1.056868896484375,-1.0711992720190435,1.9061798044122755,17.848198206925392,-0.6866154074668884,-1.0147335529327393,-0.2384047508239746
1772376811365818000,1.066818115234375,-1.3739363834954796,2.016223064408451,17.11129379868507,-1.1089825630187988,-1.0475115776062012,-0.36730772256851196
1772376811375767000,1.07676708984375,-0.9845566152241081,2.019525466954708,16.234784520399568,-1.638471245765686,-1.0143659114837646,-0.4090905785560608
1772376811385715000,1.08671484375,-0.47948984544854606,2.3295791119895872,15.32507206069231,-2.1676394939422607,-1.000491976737976,-0.3785860538482666
1772376811395664000,1.096663818359375,0.00971932038385421,2.5742799948871133,13.723096298503876,-2.579223394393921,-0.9917199611663818,-0.29194357991218567
1772376811405613000,1.106613037109375,0.7019989529453218,2.4066607442349195,10.959046595954895,-2.8922712802886963,-1.134468913078308,-0.22002683579921722
1772376811415562000,1.11656201171875,0.534411010746844,2.274698351766914,7.964689423650503,-3.1294381618499756,-1.3166470527648926,-0.17949140071868896
1772376811425511000,1.126510986328125,-0.2064292391050607,2.346914862193912,4.328002900335193,-3.334656238555908,-1.4730674028396606,-0.19669023156166077
1772376811435460000,1.136460205078125,-1.2699158909201622,2.3672283130347727,0.10500468130707741,-3.5032711029052734,-1.5323182344436646,-0.26939213275909424
1772376811445409000,1.146408935546875,-2.351396683783084,2.214030386444926,-4.685016595596075,-3.567318916320801,-1.4097625017166138,-0.3884032666683197
1772376811455358000,1.15635791015625,-2.9585163358554243,1.998483409578353,-10.021953961890935,-3.3731253147125244,-1.1803498268127441,-0.48805317282676697
1772376811465306000,1.16630615234375,-2.6134862161159513,1.929100515142083,-15.615943012481926,-2.7852165699005127,-0.9695479273796082,-0.4763655364513397
1772376811475255000,1.176255126953125,-1.3712756398536263,2.1568182606652377,-20.68772839013338,-1.8975669145584106,-0.792475163936615,-0.3535724878311157
1772376811485204000,1.186203857421875,-0.1399487515794113,2.372019346703589,-23.85791559207439,-0.9995362758636475,-0.6807584762573242,-0.19816794991493225
1772376811495153000,1.19615283203125,0.4646954868227243,2.17737560326457,-24.48957800312042,-0.2862754464149475,-0.6421753764152527,-0.07002728432416916
1772376811505101800,1.206101806640625,0.38939445438385006,1.8336501363828777,-23.143615814352035,0.21291203796863556,-0.5275093913078308,0.014023374766111374
1772376811515051000,1.216051025390625,-0.028641864855587482,1.4431246321424842,-21.429250521302222,0.6156973242759705,-0.21206143498420715,0.10513437539339066
1772376811525000200,1.226000244140625,-0.26611761880517004,1.0898344874493777,-19.905406631064412,1.016080379486084,0.18760104477405548,0.2328866571187973
1772376811534949000,1.23594921875,-0.12960866894870995,0.8062006473064423,-18.031618837821483,1.4577893018722534,0.4684039354324341,0.39102619886398315
1772376811544898000,1.24589794921875,0.02065941473431885,0.5876280024757609,-15.412497830688952,1.906692624092102,0.6112945675849915,0.5118333101272583
1772376811554846000,1.255845947265625,-0.28602252537775785,0.3333818405870348,-12.310509135705232,2.284492015838623,0.6880316734313965,0.5425443649291992
1772376811564795100,1.265795166015625,-1.1334161472834645,0.006650872723944485,-8.857460685428977,2.49914813041687,0.7436473369598389,0.46945124864578247
1772376811574744000,1.275744140625,-1.950255239112675,-0.16200937488116324,-5.251863127860426,2.5618937015533447,0.7318636178970337,0.3631173372268677
1772376811584693000,1.28569287109375,-2.1838157193146643,-0.09542078733853995,-1.8561539368748663,2.5263144969940186,0.6462879180908203,0.2598344385623932
1772376811594642000,1.295641845703125,-1.9659065433613956,0.19613610088862476,0.9811661690682172,2.436748504638672,0.5700863003730774,0.18467628955841064
1772376811604590800,1.3055908203125,-1.5023203329548238,0.6014255320839583,3.110403472107649,2.3290467262268066,0.5114527344703674,0.1260683834552765
1772376811614540000,1.3155400390625,-1.1282749850027263,1.0639056078795344,4.741856673192977,2.220877170562744,0.49813932180404663,0.059844087809324265
1772376811624489000,1.325489013671875,-1.0009731316916644,1.5361331707075236,6.1271542625278235,2.0904524326324463,0.5494441986083984,-0.02656477876007557
1772376811634438100,1.335438232421875,-0.9478728982102125,1.9592302804678678,7.434237562325596,1.9187719821929932,0.6066592931747437,-0.13082806766033173
1772376811644386000,1.345385986328125,-0.79842073401995,2.2572246543966235,8.846891360619663,1.7048959732055664,0.6222309470176697,-0.23492150008678436
1772376811654335000,1.3553349609375,-0.6098286553027108,2.5414675663486124,10.224866059720515,1.4622137546539307,0.5980533957481384,-0.33153674006462097
1772376811664284000,1.365283935546875,-0.2865826252122409,2.7733430160731074,11.390496231257915,1.190828800201416,0.5016999244689941,-0.39187976717948914
1772376811674232800,1.37523291015625,0.286357383355312,2.994472030855715,12.614075902938842,0.8621087074279785,0.34754258394241333,-0.3931777775287628
1772376811684182000,1.38518212890625,0.9085163087252527,3.2245567977711556,13.824378744417428,0.46225717663764954,0.24782979488372803,-0.3417872190475464
1772376811694131000,1.395130859375,1.289483637960255,3.216523421180248,14.69417654236555,-0.00385859003290534,0.1877068132162094,-0.2951802909374237
1772376811704080100,1.405080078125,1.1267962176870554,3.1010248183876272,15.406965915524959,-0.5155338644981384,0.11235667020082474,-0.3040323853492737
1772376811714029000,1.415029052734375,0.5643361203460022,3.0286271061748264,15.724246735334395,-1.01608145236969,-0.01272454485297203,-0.35422655940055847
1772376811723977200,1.424977294921875,0.13174379954757168,2.886591209590435,15.399404540359972,-1.4621046781539917,-0.20730169117450714,-0.42275506258010864
1772376811733926100,1.434926025390625,-0.05798230643458664,2.8004771067142484,14.461148707735537,-1.8309484720230103,-0.42561087012290955,-0.46247848868370056
1772376811743875000,1.444875,-0.1042516161837615,2.784623704022169,12.913185106241702,-2.1474554538726807,-0.6178945302963257,-0.4523988366127014
1772376811753824000,1.454823974609375,-0.09037012548600323,2.8185400021493434,11.018001473748683,-2.4434115886688232,-0.7472749352455139,-0.41969308257102966
1772376811763773000,1.46477294921875,-0.23678247445579617,2.599655843684077,8.94218187264204,-2.747225522994995,-0.7734842896461487,-0.3876917064189911
1772376811773721900,1.474721923828125,-0.6211654938858002,2.238570368939638,6.384788130626082,-3.0317161083221436,-0.7120456695556641,-0.3784007430076599
1772376811783670800,1.4846708984375,-1.0742159164264797,1.7802971702493726,3.2681501480430364,-3.2249064445495605,-0.5944806933403015,-0.38458871841430664
1772376811793620200,1.4946201171875,-1.45611270853132,1.3016221117824316,-0.4803302783280611,-3.231109857559204,-0.503575325012207,-0.40404096245765686
1772376811803567900,1.50456787109375,-1.5590934827953575,1.0123144637867807,-4.654481172078848,-2.9766957759857178,-0.4893796443939209,-0.3958616554737091
1772376811813517000,1.51451708984375,-1.2370632765017449,0.7892277390651404,-8.859251075977086,-2.461395025253296,-0.5832025408744812,-0.36368268728256226
1772376811823466000,1.524466064453125,-0.8494497141852975,0.586193256964907,-12.529806551146507,-1.8225812911987305,-0.716718852519989,-0.328136146068573
1772376811833415000,1.534414794921875,-0.5047324597872793,0.4181540273349732,-15.077383248025178,-1.2540233135223389,-0.7780037522315979,-0.29877665638923645
1772376811843364000,1.544364013671875,-0.2862975429268554,0.185817024513334,-16.435841345751285,-0.8026476502418518,-0.6720458269119263,-0.24522733688354492
1772376811853313000,1.55431298828125,-0.0652277475181967,0.01633789827339351,-17.08733073929548,-0.4370294213294983,-0.3865100145339966,-0.17276005446910858
1772376811863262000,1.564261962890625,0.08708364202808588,-0.11538520554602145,-17.414689885526894,-0.07149303704500198,-0.02302170917391777,-0.07464666664600372
1772376811873211000,1.5742109375,0.424685438397713,-0.2446758215215057,-17.33821922478676,0.3639463186264038,0.2836301028728485,0.05436830595135689
1772376811883159800,1.584159912109375,0.8729882645525038,-0.4887309538614005,-16.605419329255817,0.8018885850906372,0.5071007609367371,0.14484478533267975
1772376811893108000,1.59410791015625,0.6735008804745972,-0.7545997855372727,-14.925125817155838,1.2033782005310059,0.641160249710083,0.18776428699493408
1772376811903057200,1.60405712890625,0.3307642054345459,-1.0694430760014801,-12.713377988690137,1.562778353691101,0.6503563523292542,0.21099504828453064
1772376811913006000,1.614006103515625,0.12179266143552958,-1.086622247404605,-10.20471408305168,1.8441396951675415,0.5201171040534973,0.21393144130706787
1772376811922955000,1.623955078125,-0.15035391706926748,-0.9554960865650326,-7.539762468114495,1.9908180236816406,0.39075642824172974,0.1577553153038025
1772376811932904000,1.633904052734375,-0.7535361748937517,-0.9081774321597069,-5.045006676319241,1.9814460277557373,0.38571345806121826,0.0953713059425354
1772376811942852900,1.643852783203125,-1.0907977795235813,-0.7940931531444192,-3.0273201152294873,1.8529160022735596,0.4934272766113281,0.038269080221652985
1772376811952802000,1.653802001953125,-1.244989393325895,-0.3956673241082579,-1.5398656352341173,1.7184815406799316,0.6731016635894775,0.017212795093655586
1772376811962751000,1.6637509765625,-1.137307309503108,0.018647125063836572,-0.6937368821650743,1.6774765253067017,0.8128983974456787,0.01803434081375599
1772376811972699000,1.673698974609375,-0.9182466254271566,0.40883952489234504,-0.13545008845329284,1.723153829574585,0.8677334189414978,0.014629755169153214
1772376811982647800,1.683647705078125,-0.8167452760659157,0.7589096115604043,0.6255827988713979,1.8061615228652954,0.8030512928962708,-0.0034558463376015425
1772376811992597000,1.693596923828125,-0.6713657681420445,1.0543817004699259,1.7874597553551197,1.8543184995651245,0.6663488149642944,-0.026206165552139282
1772376812002546200,1.703546142578125,-0.5230917078204452,1.4193680551104246,3.197748578083515,1.8327548503875732,0.5217723250389099,-0.04882907122373581
1772376812012495000,1.7134951171875,-0.4957291421856731,1.712466035299748,4.553717197081446,1.7225306034088135,0.42955321073532104,-0.09772497415542603
1772376812022444000,1.723444091796875,-0.6428304324008524,1.8742630095392465,5.8443941364794965,1.5278418064117432,0.37926211953163147,-0.15299470722675323
1772376812032393000,1.73339306640625,-0.6991638756498694,1.9857783879145978,7.033874554681778,1.2574331760406494,0.38834455609321594,-0.19380339980125427
1772376812042342000,1.743341796875,-0.6917964156217873,2.184900299680978,8.017868056130409,0.9698898792266846,0.406787633895874,-0.21664591133594513
1772376812052290800,1.753290771484375,-0.5136290290787816,2.4096887137539684,8.755984762769938,0.6982160806655884,0.40272924304008484,-0.21334998309612274
1772376812062239000,1.763239013671875,-0.17681213600914925,2.5624919419378043,9.263398278334737,0.46941161155700684,0.36826255917549133,-0.18962296843528748
1772376812072188000,1.77318798828125,0.15955569811873138,2.6065485258072614,9.596285248076915,0.296690970659256,0.31079021096229553,-0.13683326542377472
1772376812082136800,1.78313671875,0.5234786613114177,2.545731361272931,9.891217457956076,0.1545417308807373,0.18125037848949432,-0.0614420548081398
1772376812092085800,1.793085693359375,0.7995604786396027,2.445322044932097,10.382273128437996,0.02672119438648224,-0.010086553171277046,-0.000011979136615991592
1772376812102034700,1.80303466796875,0.7245685121499001,2.1714514739125965,11.069663856446743,-0.1457645744085312,-0.22771961987018585,0.02515091747045517
1772376812111983900,1.81298388671875,0.45214656903613354,1.7639359641656278,11.863033079230785,-0.40297719836235046,-0.4322415888309479,0.016089245676994324
1772376812121933000,1.82293310546875,0.13630341734699905,1.3561962902739644,12.60335577148199,-0.7156567573547363,-0.6171417832374573,-0.011250006034970284
1772376812131882000,1.832882080078125,-0.037656361438333986,0.909057064538449,13.004845152807235,-1.0530779361724854,-0.7811983823776245,-0.0645584985613823
1772376812141830000,1.842829833984375,-0.4435646551843732,0.544048425000906,12.835453047263622,-1.3763984441757202,-0.9249754548072815,-0.14506888389587402
1772376812151778800,1.85277880859375,-0.8420913873117417,0.16162190993353723,12.23337445809841,-1.7114129066467285,-1.0895156860351562,-0.24629296362400055
1772376812161728000,1.86272802734375,-1.0381853295590728,-0.013460223945230245,11.26928041986227,-2.0718252658843994,-1.2550185918807983,-0.333514004945755
1772376812171677000,1.872677001953125,-1.167471780816093,0.13408625275418162,9.607598669251798,-2.451467752456665,-1.3706825971603394,-0.37162545323371887
1772376812181625900,1.8826259765625,-1.11483280817084,0.45688693196363744,7.024412898853421,-2.8078620433807373,-1.447616457939148,-0.37747371196746826
1772376812191574800,1.89257470703125,-1.0403093359757214,0.8425700376741587,3.3732091898858547,-3.035710573196411,-1.536658525466919,-0.34842848777770996
1772376812201523700,1.902523681640625,-0.8370276011161506,1.296125267931819,-1.4905062687814234,-2.972090244293213,-1.5872070789337158,-0.24350126087665558
1772376812211472600,1.91247265625,-0.4890583957174793,1.7721159096203742,-7.512925314593315,-2.53102970123291,-1.5223302841186523,-0.10278595238924026
1772376812221420800,1.9224208984375,-0.31743118806555864,2.247585742305219,-13.546336879062652,-1.8384501934051514,-1.285326600074768,0.07461494952440262
1772376812231370000,1.932369873046875,0.057391573999822136,2.4107000827535985,-18.156566236960888,-1.1086444854736328,-0.9228589534759521,0.3063826560974121
1772376812241319000,1.94231884765625,0.6131872815482318,2.5916020088270306,-20.588062731766698,-0.4786580801010132,-0.4859497547149658,0.5550271272659302
1772376812251267800,1.952267822265625,0.9230021493911743,2.5863521254748103,-21.129245830464363,0.011845316737890244,-0.024208204820752144,0.7258090376853943
1772376812261216800,1.962216796875,0.5916405625853687,1.973988435269147,-20.409587156057356,0.4025894105434418,0.38669559359550476,0.7613521218299866
1772376812271166000,1.972166015625,-0.11712503495067357,1.0742945346206425,-19.007907171720266,0.784942090511322,0.707568883895874,0.7620834708213806
1772376812281115000,1.982114990234375,-0.29554858821183444,0.5292673642480745,-17.281455135035515,1.1788628101348877,0.8736381530761719,0.7661862969398499
1772376812291063800,1.992063720703125,0.0373661463201046,0.1507898060021922,-14.935573561412095,1.5374212265014648,0.8379283547401428,0.7854247093200684
1772376812301011700,2.00201171875,0.1904196229379624,-0.08647994964704848,-12.108766081655025,1.85550856590271,0.7024227976799011,0.8036243915557861
1772376812310961000,2.0119609375,0.033061544461362065,-0.24551928660832345,-9.342994962140917,2.1031956672668457,0.5577386021614075,0.7768622636795044
1772376812320910000,2.02191015625,-0.5047318752653897,-0.4683138965155929,-6.75831573831439,2.2558984756469727,0.4998287856578827,0.7119550108909607
1772376812330859000,2.03185888671875,-1.0916881524920463,-0.5825371456101537,-4.357461634531617,2.296994209289551,0.5402747392654419,0.6437898278236389
1772376812340808000,2.041807861328125,-1.3177359189763664,-0.4622153604447841,-2.1230916398912667,2.247220277786255,0.6508498787879944,0.5999791622161865
1772376812350756900,2.0517568359375,-1.3837290248438716,-0.22409612095989287,-0.04725158051848411,2.109144926071167,0.785973310470581,0.5620323419570923
1772376812360705800,2.061705810546875,-1.4169406818330288,-0.035465573395788666,1.8215934956252573,1.965162992477417,0.8738298416137695,0.5200822353363037
1772376812370654700,2.07165478515625,-1.4114789092957973,0.15823022166863082,3.267115544298291,1.8565038442611694,0.8558367490768433,0.4586193859577179
1772376812380603000,2.081602783203125,-1.3868927495718002,0.2674666953265667,4.483351282957196,1.7594523429870605,0.7391245365142822,0.3705030679702759
1772376812390551800,2.0915517578125,-1.4142463281825184,0.3438182597316801,5.721509515088797,1.6403782367706299,0.5879632234573364,0.2716531753540039
1772376812400500700,2.101500732421875,-1.35828391020298,0.49562034804895516,6.964558441871405,1.4459823369979858,0.49323004484176636,0.16073741018772125
1772376812410450000,2.111449951171875,-1.3960244427934287,0.6693364542715251,8.179404771998524,1.1498881578445435,0.48638787865638733,0.04328375682234764
1772376812420398800,2.12139892578125,-1.4589495393924414,0.8457415073171257,9.445136655232309,0.7821705341339111,0.5000077486038208,-0.06581614166498184
1772376812430348000,2.13134814453125,-1.3053924241013823,1.017577206620574,10.483493615031241,0.4309382140636444,0.46715548634529114,-0.1536562442779541
1772376812440297000,2.141296875,-0.9362210388612001,1.2418271299026906,10.964135443526505,0.1665019690990448,0.3827226758003235,-0.19010190665721893
1772376812450246000,2.151245849609375,-0.4322195236969739,1.5959128088876604,11.072755977243185,-0.02275184541940689,0.21469558775424957,-0.18799880146980286
1772376812460193800,2.16119384765625,0.01412508106213063,1.8699052527211606,11.152551398491859,-0.17593814432621002,-0.022752467542886734,-0.17211878299713135
1772376812470142700,2.171142822265625,0.18320812065657227,2.021884305040538,11.401127515387534,-0.3410080671310425,-0.2803581655025482,-0.1741880625486374
1772376812480092000,2.181091796875,0.12487000478794798,1.9926500272497534,11.75807866680622,-0.5506089329719543,-0.5087447166442871,-0.19314585626125336
1772376812490040800,2.191040771484375,-0.0068344582630787045,1.977368140835315,12.08717735018134,-0.8053070306777954,-0.7214518785476685,-0.21189184486865997
1772376812499990000,2.200989990234375,-0.06240214587056543,1.9432699102699755,12.241575300210714,-1.070013165473938,-0.8811485767364502,-0.22201764583587646
1772376812509939000,2.21093896484375,-0.0063487571053672575,1.84332514270097,12.004447629046439,-1.368215799331665,-0.9839487075805664,-0.21408487856388092
1772376812519888000,2.220887939453125,-0.09662859222572297,1.7830512912631034,11.609234843772649,-1.6999815702438354,-1.015310525894165,-0.21787485480308533
1772376812529836800,2.2308369140625,-0.4322776105597615,1.668203699725121,10.85522849408388,-2.06037974357605,-0.9687172174453735,-0.24760425090789795
1772376812539786000,2.240785888671875,-0.8482409959826618,1.4775634928390382,9.689734516146778,-2.460700273513794,-0.8871757388114929,-0.30614355206489563
1772376812549734000,2.25073388671875,-1.228291648764163,1.4432766078338026,8.162862217998503,-2.833958387374878,-0.8365426659584045,-0.36058923602104187
1772376812559682800,2.260682861328125,-1.3441149534665047,1.5907118792437016,5.8002177256226535,-3.0796356201171875,-0.8797274231910706,-0.39653828740119934
1772376812569631700,2.2706318359375,-1.1820310520444064,1.7868584284611044,2.352464459145069,-3.1341912746429443,-1.0416598320007324,-0.38486751914024353
1772376812579580700,2.28058056640625,-0.7988818487256765,2.015963975080848,-1.9163912556946276,-2.9331517219543457,-1.240742802619934,-0.3324681520462036
1772376812589529900,2.29052978515625,-0.5283894489023834,2.324829579374939,-6.838764070513844,-2.4569602012634277,-1.3341261148452759,-0.23476050794124603
1772376812599479000,2.30047900390625,-0.31038616492487486,2.44686459819898,-11.806189494502544,-1.8498767614364624,-1.2623475790023804,-0.10249336808919907
1772376812609428000,2.310427978515625,-0.09517682251483202,2.2672947975121436,-15.53363765423894,-1.2899380922317505,-0.9822025895118713,0.045180246233940125
1772376812619377000,2.320376953125,0.03520728778578341,1.8704548494279383,-17.62887156538963,-0.8606083393096924,-0.545284628868103,0.19626855850219727
1772376812629324800,2.33032470703125,-0.028416677797585724,1.5581202538490295,-18.408794446623325,-0.549364447593689,-0.06236778944730759,0.29813152551651
1772376812639274000,2.34027392578125,-0.1588099212527275,1.1291696688201278,-18.42603784236908,-0.23872455954551697,0.3436169922351837,0.3663390874862671
1772376812649223000,2.350222900390625,-0.026817133646458387,0.5959351179741322,-18.28360388637781,0.20187678933143616,0.5828016400337219,0.41980549693107605
1772376812659171800,2.360171875,0.10007825775556266,0.2677557048683986,-17.860392502588034,0.7274453043937683,0.6754173040390015,0.45039889216423035
1772376812669120800,2.370120849609375,0.1371557963926345,-0.06531049389820545,-16.640286059975622,1.227287769317627,0.6504669189453125,0.4417896866798401
1772376812679069700,2.380069580078125,0.017887538868188856,-0.4153038620682433,-14.378290391784905,1.6031283140182495,0.5886364579200745,0.41975152492523193
1772376812689019000,2.390018798828125,-0.2023019300419837,-0.513784073510021,-11.566418615353106,1.8087648153305054,0.5256087779998779,0.3897022604942322
1772376812698967800,2.3999677734375,-0.4987192639123648,-0.5093648322956636,-8.811321450066567,1.898154616355896,0.5181101560592651,0.34855517745018005
1772376812708916000,2.409916015625,-0.7744685613505542,-0.4975284101599827,-6.676504885590076,1.946272611618042,0.6143365502357483,0.31849661469459534
1772376812718865000,2.419864990234375,-0.850218944992125,-0.49449152668211604,-5.200452089574933,1.9874181747436523,0.7589287161827087,0.3101423978805542
1772376812728813800,2.429813720703125,-0.9244223183874041,-0.25765746816955504,-3.794638366433978,2.018113613128662,0.8491462469100952,0.31077489256858826
1772376812738762800,2.4397626953125,-1.0089432337880133,0.016334098881110547,-2.2617273726433513,2.05177640914917,0.876712441444397,0.2962537705898285
1772376812748712000,2.4497119140625,-1.0387263776332138,0.19942564395330845,-0.7709738511025905,2.060699939727783,0.8510600328445435,0.26259565353393555
1772376812758660900,2.459660888671875,-1.0721493392854928,0.37458880717903376,0.6694523357361555,2.0320441722869873,0.7802097797393799,0.2204056829214096
1772376812768609800,2.46960986328125,-1.0842257076568902,0.6309270825088024,2.0687106458842752,1.9683579206466675,0.6996397972106934,0.16602793335914612
1772376812778557700,2.4795576171875,-1.0835780574031173,0.8413226679615676,3.308066563367843,1.886881709098816,0.6445123553276062,0.0785951167345047
1772376812788507000,2.4895068359375,-1.2236629660502076,0.8934792639173567,4.280957071521878,1.7694182395935059,0.6502269506454468,-0.01610768586397171
1772376812798456000,2.4994560546875,-1.330572019673884,0.9772919579833745,5.243565255114436,1.6004602909088135,0.716373085975647,-0.10599074512720108
1772376812808405000,2.509405029296875,-1.1645026288121938,1.1098073081590234,6.2949763422757385,1.3854061365127563,0.7720504999160767,-0.15954264998435974
1772376812818354000,2.51935400390625,-0.8457371234029532,1.3811786097086964,7.3646432170957326,1.1678165197372437,0.7563614845275879,-0.17356276512145996
1772376812828302800,2.529302734375,-0.4074503355562687,1.6678808975115418,8.156689666843414,0.9886273145675659,0.6825213432312012,-0.14468078315258026
1772376812838251800,2.539251708984375,-0.013948025728482753,1.9252844639852642,8.67940304287076,0.8017197847366333,0.5859094262123108,-0.10801050812005997
1772376812848200700,2.54920068359375,0.1730043412240222,2.0184692359000445,9.215025000309943,0.6188825964927673,0.4442377984523773,-0.08319038152694702
1772376812858150000,2.55914990234375,0.15373294678200036,1.937608085115999,9.82211177302599,0.4472663998603821,0.27985653281211853,-0.08929892629384995
1772376812868097800,2.569097900390625,-0.03104362876769155,1.7588782423846423,10.346183577924966,0.2694125175476074,0.12463154643774033,-0.12240681797266006
1772376812878046700,2.579046630859375,-0.2003284745445475,1.5129247290775178,11.042331612884997,0.026465589180588722,-0.02920996956527233,-0.15883594751358032
1772376812887996000,2.588995849609375,-0.13870485246554015,1.4339434006907046,11.86927109683752,-0.2837314009666443,-0.14869855344295502,-0.17659923434257507
1772376812897944800,2.59894482421875,0.001695917197689414,1.4625919875480233,12.541550764954088,-0.628040075302124,-0.2576507329940796,-0.1788930594921112
1772376812907894000,2.60889404296875,0.09924133200738579,1.4307410975180566,12.884106311273573,-0.961582362651825,-0.3929917812347412,-0.1661043018102646
1772376812917843000,2.618843017578125,0.15964980614297092,1.375772220620513,12.870519684469699,-1.2745082378387451,-0.5367854237556458,-0.16066700220108032
1772376812927791900,2.6287919921875,-0.04296283381599933,1.287738986250013,12.549790185511112,-1.5588499307632446,-0.6798754334449768,-0.18871940672397614
1772376812937740800,2.63874072265625,-0.4568212463162839,1.0731439032807946,11.801182479995488,-1.829447865486145,-0.7527984380722046,-0.24955768883228302
1772376812947688700,2.648688720703125,-0.9092000532057136,1.0055788719214498,10.723268001312016,-2.1572797298431396,-0.7638475894927979,-0.3249147832393646
1772376812957638000,2.658637939453125,-1.3111070023559033,1.0972510473161936,9.481178859472275,-2.5281195640563965,-0.6925601363182068,-0.4170004725456238
1772376812967586800,2.6685869140625,-1.5577750936731696,1.118039276061952,7.704946600574255,-2.9021689891815186,-0.61551433801651,-0.4871199131011963
1772376812977536000,2.678535888671875,-1.5003063627839088,1.2635653528496622,5.340461448767781,-3.2072203159332275,-0.6184071898460388,-0.5288877487182617
1772376812987485000,2.68848486328125,-1.264048752452433,1.62510090944916,2.1142273654341697,-3.286872386932373,-0.7880984544754028,-0.5490185618400574
1772376812997433900,2.698433837890625,-1.0748708732038736,1.9890562405414878,-2.3826491695284844,-3.003598928451538,-1.0575412511825562,-0.517582356929779
1772376813007382800,2.7083828125,-0.6870211640439927,2.315912844078243,-7.740896450355648,-2.389913320541382,-1.280677318572998,-0.44027480483055115
1772376813017331000,2.7183310546875,-0.31455756885800507,2.254951448767632,-12.630023998177052,-1.6973397731781006,-1.3034950494766235,-0.3502824604511261
1772376813027280000,2.72827978515625,-0.22038977725524453,1.9166737258978186,-15.740900933015345,-1.1893577575683594,-1.0772908926010132,-0.25619378685951233
1772376813037229000,2.73822900390625,-0.17553491914756594,1.576995050188899,-16.83107984998822,-0.9009096622467041,-0.6694422960281372,-0.1563405841588974
1772376813047178000,2.748177978515625,-0.12054989483281969,1.291710958620906,-16.95971090607643,-0.713079035282135,-0.1922779083251953,-0.0635528489947319
1772376813057127000,2.758126953125,-0.21325806221179663,1.1349614770293235,-17.06657319794893,-0.46188440918922424,0.25673946738243103,-0.003644930897280574
1772376813067075800,2.768075927734375,-0.21788031518496573,0.6533231117773801,-17.41624471375346,-0.047486674040555954,0.5364347696304321,0.043331898748874664
1772376813077025300,2.778025390625,0.13873868166990577,0.26962738049179313,-17.386547494626043,0.4796636402606964,0.6815694570541382,0.12322498112916946
1772376813086974200,2.78797412109375,0.7029528926692903,0.19678327621836214,-16.447268748694658,1.0195921659469604,0.7190457582473755,0.2516101002693176
1772376813096922000,2.797922119140625,1.2457909189671277,0.1865074179302901,-14.482656775188445,1.4975359439849854,0.6428526043891907,0.37896397709846497
1772376813106871000,2.80787109375,1.1954989478394389,0.18324328330149872,-11.690096432948112,1.811604619026184,0.5576144456863403,0.44493234157562256
1772376813116820200,2.8178203125,0.5664158857621252,-0.0024619171511032615,-8.590892400246858,1.9534629583358765,0.5358759760856628,0.4359377920627594
1772376813126769200,2.82776904296875,-0.3102314127545804,-0.30192263502208516,-5.789700423261523,1.930934190750122,0.5664341449737549,0.3630702495574951
1772376813136718000,2.837718017578125,-1.138560743630305,-0.37964598097074775,-3.441851348957419,1.8116381168365479,0.62713623046875,0.2721879482269287
1772376813146667000,2.8476669921875,-1.4670450214341282,-0.3815366535555571,-1.6918495098590849,1.637564778327942,0.7067213654518127,0.19509530067443848
1772376813156616000,2.857615966796875,-1.4955549304731188,-0.1383838038176298,-0.6184387723356485,1.5019327402114868,0.8002158999443054,0.14071761071681976
1772376813166565000,2.867565185546875,-1.3111319906666874,0.21516952185630797,-0.18908873966038225,1.4732720851898193,0.915844738483429,0.11535099893808365
1772376813176513300,2.87751318359375,-1.0766988923486323,0.45334809031300244,-0.11899462821483611,1.5462760925292969,0.9764372110366821,0.10822932422161102
1772376813186462200,2.887462158203125,-0.9322315308336168,0.7765078120931983,0.34361645354926584,1.632581114768982,0.933937668800354,0.09780198335647583
1772376813196411100,2.8974111328125,-0.7413274123143404,1.0410084972210227,1.3866501729875802,1.7019070386886597,0.8209869861602783,0.08766000717878342
1772376813206360000,2.907360107421875,-0.5777571447920054,1.2215206933245062,2.7970325192183254,1.664225459098816,0.6527109146118164,0.05934208258986473
1772376813216309000,2.91730908203125,-0.6873140095107257,1.4092121334075927,4.430159790995717,1.5224698781967163,0.5609889030456543,-0.01171219814568758
1772376813226258000,2.9272578125,-0.9572465104289353,1.367852387406677,5.752746949395537,1.3173668384552002,0.5330022573471069,-0.09183260053396225
1772376813236207000,2.93720703125,-0.9252830999352037,1.3455145911313593,6.646897098311782,1.0885509252548218,0.5217185616493225,-0.13794589042663574
1772376813246156000,2.947156005859375,-0.6216537888593971,1.4630252643987536,7.39939187439382,0.8362295031547546,0.504055917263031,-0.1480717658996582
1772376813256104000,2.95710400390625,-0.2574288470454514,1.6144471212267875,8.063326908013224,0.6022834181785583,0.46121227741241455,-0.12733982503414154
1772376813266052900,2.967052978515625,0.08335132363196462,1.76841237892732,8.481800741887092,0.407534658908844,0.3922736942768097,-0.08346370607614517
1772376813276002000,2.977001953125,0.28193419661819935,1.7834755080245435,8.71123668950498,0.22935830056667328,0.31579288840293884,-0.0463380292057991
1772376813285951200,2.986951171875,0.22675861816741524,1.7716693348966537,9.000273996126651,0.0651262179017067,0.23862138390541077,-0.02947169914841652
1772376813295900200,2.996900146484375,0.04613412079587578,1.6539108243480323,9.33523017335832,-0.08256330341100693,0.14998368918895721,-0.027015183120965958
1772376813305849000,3.00684912109375,-0.11015424608997999,1.4736805139258502,9.69540262491107,-0.258272260427475,0.01479871105402708,-0.04194166883826256
1772376813315798000,3.016798095703125,-0.19858663584589958,1.365383074683696,10.250632953661679,-0.4820052981376648,-0.17662255465984344,-0.05441427603363991
1772376813325747000,3.026746826171875,-0.22332732854448256,1.328712363281846,10.939131935173272,-0.7736163139343262,-0.4067186117172241,-0.0645633190870285
1772376813335695000,3.036695068359375,-0.24917174470126627,1.2585071926772593,11.375368804752826,-1.0768061876296997,-0.6224166750907898,-0.07079271227121353
1772376813345644000,3.04664404296875,-0.37585009581912304,1.1736058265917002,11.147108330655097,-1.352063536643982,-0.7767513394355774,-0.08435246348381042
1772376813355593000,3.056593017578125,-0.6443439787689597,1.004409243620187,10.323649090033769,-1.5995413064956665,-0.8685128092765808,-0.12773628532886505
1772376813365542100,3.066542236328125,-0.9561392798393964,0.7845796209983528,9.234303116753697,-1.8255161046981812,-0.8926884531974792,-0.15759804844856262
1772376813375491000,3.076490966796875,-0.9790968154482543,0.68458312324211,8.027516174441576,-2.0747692584991455,-0.8943939208984375,-0.19128985702991486
1772376813385440000,3.08643994140625,-1.1918497046168892,0.6242799726445227,6.742752843001484,-2.3584415912628174,-0.9027155041694641,-0.24789081513881683
1772376813395389200,3.09638916015625,-1.4499974405214189,0.6628261225294322,5.160164502850175,-2.578753709793091,-0.964279294013977,-0.3074876666069031
1772376813405338000,3.106338134765625,-1.488784705685824,0.6501637709636241,2.654820681545138,-2.6591131687164307,-1.1079280376434326,-0.352662056684494
1772376813415286000,3.1162861328125,-1.3371549051955343,0.732291799878329,-0.6487368799656629,-2.5801806449890137,-1.2902679443359375,-0.3501317501068115
1772376813425235000,3.12623486328125,-0.9582117021992802,1.0318368373151867,-4.48136800018549,-2.2950096130371094,-1.4122426509857178,-0.30815500020980835
1772376813435184000,3.13618408203125,-0.4976965332685038,1.242268151668459,-8.5939108712852,-1.8806638717651367,-1.3912544250488281,-0.23547983169555664
1772376813445133000,3.146133056640625,-0.08891440111920237,1.251332332611829,-12.119956168711184,-1.469388723373413,-1.2283525466918945,-0.1437416523694992
1772376813455082200,3.156082275390625,0.14865410914774982,1.250344636748731,-14.40411106173992,-1.1027255058288574,-0.9738571047782898,-0.03877638280391693
1772376813465031200,3.16603125,0.3740836341358721,1.28596350101009,-15.957286260402201,-0.7087190747261047,-0.6452826857566833,0.0865439847111702
1772376813474980000,3.17597998046875,0.645568552127853,1.235665246272087,-17.214818470567465,-0.270452082157135,-0.29456889629364014,0.2145845890045166
1772376813484928300,3.18592822265625,0.7789166998658329,1.1372700462326406,-17.82253652692437,0.21991576254367828,0.026797693222761154,0.34134146571159363
1772376813494877200,3.195877197265625,0.852187833912298,1.0055147206440567,-17.627150732946394,0.7124230265617371,0.27032116055488586,0.4722385108470917
1772376813504826000,3.205826171875,0.9464393582757562,0.8458690792195498,-16.44606930977702,1.1562979221343994,0.41574227809906006,0.5858238935470581
1772376813514775000,3.215775146484375,0.8794192474480718,0.6385895068954676,-14.409451253724097,1.4917055368423462,0.49194106459617615,0.6409626007080078
1772376813524724000,3.225723876953125,0.24878153980728238,0.4802905308395624,-11.921302897369861,1.7216140031814575,0.5589379072189331,0.6208996772766113
1772376813534673000,3.2356728515625,-0.5313645191904157,0.18083094319645315,-9.56733329435885,1.862583041191101,0.6275545358657837,0.540460467338562
1772376813544622000,3.2456220703125,-1.2279593480698763,0.04327783631561324,-7.535448696568608,1.9176158905029297,0.6932017207145691,0.4402262568473816
1772376813554571300,3.2555712890625,-1.5090664462141692,0.2221710711814463,-5.815419970929622,1.9778937101364136,0.7819417119026184,0.3797096014022827
1772376813564519200,3.265519287109375,-1.2748697139352558,0.46207368695177137,-4.6028521071285,2.067884683609009,0.8480972647666931,0.35188010334968567
1772376813574468000,3.275468017578125,-0.8848798509415239,0.7129972437564284,-3.5823715802818534,2.1605796813964844,0.9273084998130798,0.35025155544281006
1772376813584417000,3.2854169921875,-0.6340666226435452,1.0490158625878394,-2.4149866740316153,2.2151269912719727,1.0106251239776611,0.34942731261253357
1772376813594366000,3.295365966796875,-0.5978332797456533,1.3947227125450967,-0.9414274483978747,2.217390298843384,1.0449285507202148,0.33677181601524353
1772376813604315100,3.305315185546875,-0.5680522182596847,1.629803534182161,0.6063754095762968,2.1955833435058594,1.033956527709961,0.31957656145095825
1772376813614264000,3.31526416015625,-0.5170187080496922,1.8603912821836768,2.0162474681973457,2.144073724746704,0.9998835325241089,0.27984800934791565
1772376813624213000,3.325212890625,-0.6398096963401884,1.891087156959623,3.4242116473704574,2.0460004806518555,0.9638645648956299,0.21012192964553833
1772376813634162200,3.335162109375,-0.8386061024792492,1.829551322761923,4.870957100358605,1.8733152151107788,0.9531566500663757,0.1364886611700058
1772376813644110000,3.345110107421875,-0.945988764964044,1.7949160627104341,6.309304727357626,1.641150951385498,0.9525893926620483,0.06451886147260666
1772376813654059300,3.355059326171875,-0.9621442193426192,1.7481471511423587,7.57869454857707,1.3917243480682373,0.90316241979599,0.007589288521558046
1772376813664008200,3.36500830078125,-0.8642488585840911,1.6812436524316667,8.644577228683232,1.1544984579086304,0.7649363875389099,-0.01888466253876686
1772376813673957000,3.37495703125,-0.5547657069135457,1.617226815073192,9.611396307969093,0.9231967926025391,0.5884232521057129,-0.022618794813752174
1772376813683906000,3.384906005859375,-0.3453149280302226,1.5469304590538142,10.361049138623475,0.6901153326034546,0.4360208809375763,-0.005977502092719078
1772376813693855000,3.39485498046875,-0.2737055166509002,1.4362114917531608,10.938321787834166,0.4428673982620239,0.3428397476673126,-0.0008690063841640949
1772376813703804000,3.404803955078125,-0.4687563795860856,1.2587272651687265,11.445230861008167,0.1893640160560608,0.28054335713386536,-0.013682007789611816
1772376813713753000,3.414753173828125,-0.7274149145569652,0.9354282079830765,11.980269465601443,-0.09223224222660065,0.21176929771900177,-0.0593990683555603
1772376813723701000,3.424700927734375,-1.0164453530464321,0.618501316177845,12.794617179006337,-0.4485759735107422,0.07865172624588013,-0.13097551465034485
1772376813733650000,3.43464990234375,-1.1984544366441667,0.4064803214803338,13.734758679246902,-0.8587488532066345,-0.13134224712848663,-0.21977169811725616
1772376813743599000,3.44459912109375,-1.3309677409932017,0.3296636237815022,14.30177764546871,-1.2682985067367554,-0.4046640694141388,-0.3157123327255249
1772376813753548000,3.454548095703125,-1.4353542904019354,0.3358756301641464,14.15086578398943,-1.6095988750457764,-0.6442624926567078,-0.406732439994812
1772376813763497200,3.464497314453125,-1.4621066882491112,0.42806525356173514,13.077952474594115,-1.8774425983428955,-0.8388460874557495,-0.4602598547935486
1772376813773446100,3.474446044921875,-1.2317154857330024,0.6480123650833964,11.622051070725917,-2.105815887451172,-0.9980648756027222,-0.4563010334968567
1772376813783395000,3.48439501953125,-0.8746469184797256,0.9974966877527535,10.170597878438233,-2.3247578144073486,-1.0779006481170654,-0.39552929997444153
1772376813793343000,3.494343017578125,-0.6676341073330492,1.3070292315229772,8.538150990140437,-2.5665557384490967,-1.0947507619857788,-0.353920042514801
1772376813803292200,3.504292236328125,-1.0012434730656445,1.4883170881740748,6.7066784900575875,-2.8170011043548584,-1.0797384977340698,-0.3777042031288147
1772376813813241000,3.514240966796875,-1.6622016828313468,1.5532516248993575,4.491261617690324,-3.023282289505005,-1.1050783395767212,-0.46289288997650146
1772376813823190000,3.52418994140625,-2.2561711998209355,1.6341621677830815,1.64006730017364,-3.0909011363983154,-1.2005318403244019,-0.5854063034057617
1772376813833139200,3.53413916015625,-2.3873726909190416,1.751157585004717,-1.9041712410688398,-2.9992270469665527,-1.383500576019287,-0.6688067317008972
1772376813843088100,3.544088134765625,-1.8269314956523477,2.1312012965887783,-5.9262803925275795,-2.6641533374786377,-1.5443118810653687,-0.636913537979126
1772376813853037000,3.554037109375,-0.5931362810358405,2.4592720982208847,-10.497097777491808,-2.136369228363037,-1.455049753189087,-0.4845939576625824
1772376813862986000,3.563986083984375,0.6097113855985924,2.5108850888192653,-14.670243878114222,-1.5969051122665405,-1.1139792203903198,-0.2578020691871643
1772376813872934100,3.57393408203125,1.4383205928616225,2.424315643391013,-17.269037552011014,-1.0933607816696167,-0.6912381649017334,-0.03767870366573334
1772376813882883000,3.583883056640625,1.580832582525164,2.22419186110571,-18.531138385266065,-0.6040880084037781,-0.335558146238327,0.12425214052200317
1772376813892832000,3.59383203125,1.2971014194875954,1.7982145197339354,-18.849956497645376,-0.15790899097919464,-0.08642268925905228,0.2100789099931717
1772376813902781000,3.603781005859375,0.8662735693447291,1.4033106542788445,-18.300011415821313,0.24666832387447357,0.07137785851955414,0.259871244430542
1772376813912729900,3.613729736328125,0.7457504163883626,1.1523469115942715,-17.41762301636934,0.7052838206291199,0.21484443545341492,0.3171301782131195
1772376813922679300,3.62367919921875,0.7818819794122129,0.9066502956576645,-16.612846264386175,1.2062615156173706,0.33452102541923523,0.3812718987464905
1772376813932628200,3.633628173828125,0.7378301447831094,0.7142358456406742,-15.151061063176392,1.6762579679489136,0.4214032292366028,0.43986785411834717
1772376813942577200,3.6435771484375,0.5162800550442189,0.5636192042483017,-12.808808201444148,2.0308990478515625,0.44775253534317017,0.4606402516365051
1772376813952525000,3.653525146484375,-0.09648260788377373,0.4864087945241481,-9.84076035939455,2.2218546867370605,0.44231241941452026,0.41885045170783997
1772376813962474000,3.663473876953125,-0.8296784804623574,0.24428722406271844,-6.654308835873008,2.264894723892212,0.4879528880119324,0.3337019979953766
1772376813972423200,3.673423095703125,-1.4205223397120832,0.05361819294095039,-3.967479151126742,2.206831216812134,0.5849306583404541,0.23934423923492432
1772376813982372000,3.6833720703125,-1.8341575013831257,0.11191263406462967,-1.8254671221882104,2.1153573989868164,0.6753724217414856,0.15329217910766602
1772376813992321000,3.693321044921875,-1.9245739776283501,0.22958514683023093,-0.10365794287323951,2.0504322052001953,0.7364652156829834,0.06585822254419327
1772376814002270000,3.70327001953125,-1.94847902322039,0.38073768519759177,1.2411889781296253,1.9841535091400146,0.7779346108436584,-0.005667891353368759
1772376814012219100,3.71321923828125,-1.8335354239620267,0.6308377967901527,2.568725283369422,1.9013766050338745,0.7720043659210205,-0.06468740105628967
1772376814022167000,3.7231669921875,-1.575466671577841,0.9650684362262487,3.8955613313853736,1.8241462707519531,0.7262781858444214,-0.10115139931440353
1772376814032116200,3.7331162109375,-1.2643434976153074,1.3098064411513506,5.063052620619535,1.7391695976257324,0.6337980031967163,-0.12619531154632568
1772376814042065200,3.743065185546875,-1.0790656945452093,1.6364407802395522,6.211649239769578,1.6024434566497803,0.5479786992073059,-0.15930506587028503
1772376814052014000,3.75301416015625,-1.0450618642650544,1.8752828541062772,7.500276845422387,1.3803547620773315,0.47099220752716064,-0.20957039296627045
1772376814061963300,3.76296337890625,-1.0466131853602827,2.053854729796946,8.866932278129458,1.0836971998214722,0.4385189414024353,-0.24810686707496643
1772376814071912200,3.772912109375,-0.9357619699820876,2.2501916870199143,10.040786088132858,0.7306303977966309,0.4492257237434387,-0.2756372094154358
1772376814081861400,3.782861328125,-0.6721580875635147,2.3186842084877193,10.947159758806228,0.37207379937171936,0.45235171914100647,-0.2794785499572754
1772376814091810300,3.792810302734375,-0.2803670934319496,2.2787482116796074,11.629364608609675,0.042573776096105576,0.40678781270980835,-0.2607039511203766
1772376814101758200,3.80275830078125,0.11854509434904903,2.2358877057269213,12.127344525396824,-0.24545614421367645,0.2760002315044403,-0.22814200818538666
1772376814111707100,3.81270703125,0.4462557574318722,2.1756009948074815,12.48985331094265,-0.5020421147346497,0.05054118111729622,-0.19459110498428345
1772376814121656000,3.822656005859375,0.628313100618124,1.972721337942779,12.806627934795618,-0.7616510391235352,-0.26017487049102783,-0.17379528284072876
1772376814131605200,3.832605224609375,0.6317997006248682,1.7381484658278523,13.09040279084444,-1.0397697687149048,-0.5620140433311462,-0.15794526040554047
1772376814141554200,3.84255419921875,0.5160504840720445,1.5073068891957402,13.05317576073408,-1.3598302602767944,-0.7563089728355408,-0.1352018564939499
1772376814151503000,3.852503173828125,0.3401420554369688,1.3099983104616404,12.657634474158286,-1.7257007360458374,-0.8145586848258972,-0.13241662085056305
1772376814161452300,3.862452392578125,0.012804646113328636,1.0986493698067963,11.98805295908451,-2.117318868637085,-0.8133229613304138,-0.13801485300064087
1772376814171400200,3.872400146484375,-0.2865695282686502,0.9599621991284191,10.879981827068328,-2.482666492462158,-0.7694417834281921,-0.16394208371639252
1772376814181349400,3.882349365234375,-0.6016057474890724,0.9005122312940657,9.262696267545223,-2.804920196533203,-0.7652560472488403,-0.1996774524450302
1772376814191298300,3.89229833984375,-0.8340124910786747,0.9004737259145825,7.225877720484137,-3.070570707321167,-0.8080776333808899,-0.23549069464206696
1772376814201247200,3.902247314453125,-0.9968073903143405,1.0796628567207605,4.613684466788173,-3.252669334411621,-0.9241920113563538,-0.2705448269844055
1772376814211196200,3.912196044921875,-1.1313546116437763,1.3757789426222442,1.1846095972955226,-3.2572739124298096,-1.0770726203918457,-0.30645957589149475
1772376814221145000,3.92214501953125,-1.1892477784901856,1.6936749717205761,-3.1757682169437405,-3.019390344619751,-1.2248057126998901,-0.3310464024543762
1772376814231094000,3.932093994140625,-1.00238007588014,2.010091429785639,-8.142422072038054,-2.5352025032043457,-1.2791811227798462,-0.30965593457221985
1772376814241043200,3.942043212890625,-0.32021179522741583,2.2972375158332285,-12.908339419776201,-1.8911423683166504,-1.191847324371338,-0.20351192355155945
1772376814250991000,3.9519912109375,0.59624001920484,2.4642674222901464,-16.431010856854915,-1.2747775316238403,-0.9696915149688721,-0.029051657766103745
1772376814260940300,3.961940185546875,1.148477230554074,2.673426890076697,-18.12720804052949,-0.795634925365448,-0.647136926651001,0.1725163459777832
1772376814270889200,3.97188916015625,1.4217153488889336,2.755766442850232,-18.461772003573177,-0.43065547943115234,-0.2993429899215698,0.387818843126297
1772376814280838100,3.981838134765625,1.5876688582859932,2.6326100187808272,-18.211611832356454,-0.04624365270137787,0.048665303736925125,0.5534794330596924
1772376814290786300,3.991786376953125,1.1289590217441319,2.1597560676828027,-17.901644550430774,0.39342454075813293,0.3875803053379059,0.5879468321800232
1772376814300735200,4.0017353515625,-0.05301445489414036,1.35950103090778,-17.026114930832385,0.8472895622253418,0.6534188985824585,0.5038934946060181
1772376814310684200,4.01168408203125,-0.7478116597671062,0.4859802669137716,-15.156453862130641,1.2709572315216064,0.7564106583595276,0.4369519054889679
1772376814320633000,4.021633056640625,-0.5882324346423149,0.1635179893458262,-12.518102084827422,1.5910838842391968,0.6936269402503967,0.41413450241088867
1772376814330582000,4.03158203125,-0.30848968365378676,0.16431969765014945,-9.450175818443297,1.7763841152191162,0.5699312090873718,0.4134063124656677
1772376814340531200,4.04153125,-0.3733527260454371,0.029292547316662965,-6.668871614232659,1.8518024682998657,0.519555926322937,0.39779725670814514
1772376814350479000,4.05147900390625,-0.8413571547530591,-0.12997032360164448,-4.600416404414177,1.8720214366912842,0.5963437557220459,0.3532576262950897
1772376814360428000,4.061427978515625,-1.3887348703071474,-0.29107259357525034,-3.0957553535521027,1.8723183870315552,0.753700315952301,0.29669928550720215
1772376814370377200,4.071377197265625,-1.6922354404367506,-0.357553537758626,-1.8057383393675088,1.897963285446167,0.8815898299217224,0.25478270649909973
1772376814380326100,4.081326171875,-1.592099388079345,-0.2520992129879072,-0.4800239888578653,1.926120638847351,0.91605144739151,0.2412562519311905
1772376814390275300,4.091275390625,-1.2906136649034916,0.03463043774589896,0.9976333197444677,1.9259830713272095,0.8781092166900635,0.22771690785884857
1772376814400224300,4.101224365234375,-1.220546441464871,0.2953751313410699,2.43959563010931,1.907873272895813,0.8189148306846619,0.17945803701877594
1772376814410173200,4.111173095703125,-1.3736921994760631,0.3697239045564085,3.801787069144845,1.8464967012405396,0.744050145149231,0.08946526795625687
1772376814420122000,4.1211220703125,-1.6116912466473876,0.3663134385257959,5.182112715286016,1.718029260635376,0.6848232746124268,-0.04379638284444809
1772376814430070300,4.1310703125,-1.7847640865303576,0.37218174603730436,6.606189824870229,1.5171802043914795,0.6213939785957336,-0.1772301346063614
1772376814440019200,4.141019287109375,-1.5737546069629489,0.567637828772515,7.890859632807969,1.2681925296783447,0.5675208568572998,-0.2644457221031189
1772376814449968000,4.150968017578125,-1.1045388662368059,0.869813433908671,9.026476358875632,0.9727204442024231,0.47873321175575256,-0.305586040019989
1772376814459917300,4.160917236328125,-0.5731192558582872,1.173463641642034,10.04891328048706,0.6788022518157959,0.3539401590824127,-0.3055921494960785
1772376814469866200,4.1708662109375,-0.04380790633801371,1.3629684147574006,10.665291613161564,0.4311726987361908,0.2222178429365158,-0.27167701721191406
1772376814479815200,4.180815185546875,0.3785431708279997,1.4709472895696758,10.9503804744184,0.21322758495807648,0.0741005465388298,-0.22804538905620575
1772376814489764000,4.19076416015625,0.5688478986820206,1.4480451374098657,11.325482199555635,-0.04069202020764351,-0.07423102855682373,-0.1975610852241516
1772376814499712300,4.200712158203125,0.6211221662007271,1.4003218477264046,11.952258007603882,-0.3795284032821655,-0.21134574711322784,-0.1689496785402298
1772376814509661200,4.2106611328125,0.6183470023989677,1.3235083648979664,12.519230212074518,-0.7764866352081299,-0.32305997610092163,-0.15341432392597198
1772376814519610000,4.220610107421875,0.49300077666770664,1.2231821967959404,12.69802493673563,-1.1864262819290161,-0.4380781650543213,-0.1321559101343155
1772376814529559000,4.23055908203125,0.47165498710442333,1.1059551627755164,12.32065760475397,-1.5726174116134644,-0.5362884998321533,-0.09636091440916061
1772376814539508200,4.24050830078125,0.44579709041155874,1.0931474113896489,11.27974336168766,-1.8995816707611084,-0.6232093572616577,-0.047742776572704315
1772376814549457400,4.25045751953125,0.25826158980885516,1.1367265870057046,9.70593921649456,-2.1808454990386963,-0.6643494367599487,-0.027360234409570694
1772376814559406300,4.26040625,-0.26192195721361783,1.0303604811523108,7.83798670527637,-2.4279603958129883,-0.6879964470863342,-0.06220715865492821
1772376814569355300,4.270355224609375,-0.8998467531226575,0.8435892977192997,5.699280147624015,-2.6143524646759033,-0.737690806388855,-0.12340981513261795
1772376814579303200,4.28030322265625,-1.165252643461898,0.6941147755667567,3.0803093626171347,-2.671396255493164,-0.8047580122947693,-0.159879669547081
1772376814589252400,4.29025244140625,-1.189252016273886,0.7596525388821959,-0.11204407842457294,-2.590656042098999,-0.8481903672218323,-0.1843445599079132
1772376814599201300,4.300201171875,-1.082036380919069,0.8815073057685047,-3.6059944479316473,-2.3671817779541016,-0.8419386148452759,-0.18282842636108398
1772376814609150200,4.310150146484375,-0.7539144336216151,0.9124977065116167,-7.016219071003794,-2.0327043533325195,-0.7956612706184387,-0.14016006886959076
1772376814619099100,4.32009912109375,-0.2433717166529968,0.9688884329058229,-9.99880221888423,-1.6416268348693848,-0.7568222284317017,-0.07452993094921112
1772376814629048000,4.330048095703125,0.16386727770753204,1.045818966242671,-12.35993513765335,-1.2379357814788818,-0.6699063777923584,-0.0035445736721158028
1772376814638997200,4.339997314453125,0.5288217393724247,1.0718130930684506,-14.2561031050086,-0.8125045895576477,-0.4729403257369995,0.0893440917134285
1772376814648945200,4.349945068359375,0.7312749509859829,0.9858633869737387,-15.71888783864975,-0.3855281472206116,-0.18215182423591614,0.17291240394115448
1772376814658894300,4.359894287109375,0.7083321745548397,0.9047679159771651,-16.365340991592408,-0.03358475863933563,0.17886628210544586,0.26380103826522827
1772376814668844300,4.36984423828125,0.8322036150258034,0.8977953735508024,-16.0574382409811,0.28102606534957886,0.5114477276802063,0.3717152774333954
1772376814678793200,4.379793212890625,0.9803937233909964,0.8924358923442661,-15.162455732893942,0.599011242389679,0.7600921988487244,0.4478566646575928
1772376814688742100,4.3897421875,0.7722573881071061,0.7124545882470905,-13.915506876063347,0.9480208158493042,0.9293025732040405,0.48876437544822693
1772376814698691000,4.399691162109375,0.42984742427077144,0.4719865936789661,-12.437509375721216,1.2819665670394897,0.988820493221283,0.4950989782810211
1772376814708640000,4.409639892578125,0.022917587190959602,0.41991007722206414,-10.473285524749755,1.5375094413757324,0.9276595115661621,0.46547165513038635
1772376814718589200,4.419589111328125,-0.44046880806088445,0.35946276891343293,-8.100860812115668,1.6927019357681274,0.7993146181106567,0.4046200215816498
1772376814728538400,4.429538330078125,-0.9009598289310932,0.35738811806384474,-5.825861285445094,1.766011118888855,0.7136537432670593,0.3294541537761688
1772376814738487300,4.4394873046875,-1.220933541086316,0.4299228641271591,-4.038122713148594,1.820358157157898,0.7153869271278381,0.2717916667461395
1772376814748435200,4.449435302734375,-1.2973884197354315,0.4631562214914709,-2.835917253407836,1.9132369756698608,0.7606431245803833,0.2297852635383606
1772376814758384000,4.459384033203125,-1.3166500234358012,0.633819442949444,-1.7623323283612726,2.0176801681518555,0.8198419809341431,0.19681613147258759
1772376814768333300,4.469333251953125,-1.2533275980822742,0.7493537015773356,-0.37326749544739724,2.063753604888916,0.8394647240638733,0.1681755781173706
1772376814778282200,4.4792822265625,-1.1094206469289958,0.8735730787031352,1.3969336665928362,2.0312066078186035,0.8315777778625488,0.13982409238815308
1772376814788231200,4.489231201171875,-1.1058623699255288,1.0300526573121547,3.218702518785,1.9317216873168945,0.8074440956115723,0.09232638776302338
1772376814798180000,4.49918017578125,-1.2355875048607587,1.0030798947125672,4.932369308176637,1.7581238746643066,0.7446414232254028,0.026445912197232246
1772376814808129300,4.50912939453125,-1.278781480551511,0.9630682023197412,6.555109041452408,1.5023232698440552,0.6942901611328125,-0.0453421026468277
1772376814818077200,4.5190771484375,-1.2384639370799064,0.9818531284190714,7.9974922075778245,1.1928272247314453,0.6526601314544678,-0.10337904095649719
1772376814828026400,4.5290263671875,-1.1351808188684285,1.0273691173166035,9.053417557293177,0.8863726854324341,0.6109620332717896,-0.14564339816570282
1772376814837975300,4.538975341796875,-0.952251990077272,1.0613108421459794,9.683661918234824,0.6109384894371033,0.5242894291877747,-0.16990771889686584
1772376814847924200,4.54892431640625,-0.6513776767980307,1.1396673166327178,10.004349331617355,0.4345322251319885,0.3542547821998596,-0.18530204892158508
1772376814857873200,4.558873046875,-0.39982305554822084,1.1838707616269588,10.057758265721798,0.3685697019100189,0.05807798355817795,-0.1961997002363205
1772376814867822000,4.568822021484375,-0.17739494086578486,1.1503117525048554,10.1829722068429,0.3462352752685547,-0.3094533085823059,-0.20599213242530823
1772376814877771300,4.578771240234375,-0.06137523680850863,1.0733708439044654,10.684744501650332,0.20390449464321136,-0.6494321227073669,-0.22356872260570526
1772376814887720200,4.58872021484375,-0.07350421214997768,1.0901933838896454,11.72087267948389,-0.13320359587669373,-0.8777155876159668,-0.23152782022953033
1772376814897668000,4.598668212890625,-0.03914893808364868,1.1121303442791104,12.669254769325256,-0.617696225643158,-0.907128632068634,-0.21890763938426971
1772376814907617000,4.608616943359375,0.03293956204950809,1.0531756126157938,12.987255720102786,-1.163788914680481,-0.8069437146186829,-0.1939430683851242
1772376814917566200,4.618566162109375,-0.018330533395335077,1.0387858527354896,12.53461132107973,-1.643416404724121,-0.6856732368469238,-0.1555546671152115
1772376814927515400,4.628515380859375,-0.020085487303882835,1.0739743627555667,11.26607373277545,-1.948097586631775,-0.6425036191940308,-0.11073163151741028
1772376814937464300,4.63846435546875,-0.017900544480234384,1.0822924015067517,9.495720010522007,-2.063932180404663,-0.6890887022018433,-0.06041786074638367
1772376814947413200,4.648413330078125,-0.06509045793935656,1.026294473822415,7.727178306126594,-2.105469226837158,-0.7957097291946411,-0.03520122915506363
1772376814957362200,4.658362060546875,-0.4846729106422513,0.9603987639147787,6.408437886282801,-2.187385320663452,-0.9150822162628174,-0.06838235259056091
1772376814967310000,4.66831005859375,-1.1469136344991624,0.8661868409093468,5.458783876809478,-2.3263983726501465,-0.9847908020019531,-0.14893612265586853
1772376814977259300,4.67825927734375,-1.6507954688064752,0.5905163077957928,4.363062523278594,-2.502992868423462,-1.0258135795593262,-0.2527919411659241
1772376814987208200,4.688208251953125,-1.913189390913397,0.47513709359914064,2.874136217164993,-2.6780011653900146,-1.0670920610427856,-0.3528566360473633
1772376814997157000,4.6981572265625,-1.9199796355754135,0.5578337161820381,0.847945447102189,-2.7788145542144775,-1.1900049448013306,-0.4194580316543579
1772376815007106300,4.708106201171875,-1.6207425681091845,0.7206001930408179,-1.9573224010199308,-2.732496976852417,-1.2998381853103638,-0.4159533679485321
1772376815017055200,4.71805517578125,-1.203809095545113,1.038832468356192,-5.572881380632519,-2.521892547607422,-1.2768887281417847,-0.35791271924972534
1772376815027004200,4.728004150390625,-0.9034816024936735,1.321257955622673,-9.458431605613232,-2.168726682662964,-1.1544815301895142,-0.27400267124176025
1772376815036951600,4.73795166015625,-0.7952529907040298,1.5715034670352934,-13.06294896672964,-1.6929196119308472,-0.9760175347328186,-0.19363702833652496
1772376815046900500,4.747900390625,-0.8235188618540763,1.7057444719597696,-16.02957525154352,-1.1442670822143555,-0.757538914680481,-0.12347999215126038
1772376815056849700,4.757849609375,-0.7090066397503018,1.6639184236213564,-18.040187928724286,-0.6087717413902283,-0.49909642338752747,-0.057339321821928024
1772376815066798600,4.767798583984375,-0.46023222380355,1.6030043745838105,-18.977220941555498,-0.09331925958395004,-0.1521928757429123,0.019223492592573166
1772376815076747800,4.777747802734375,-0.15413067739531397,1.4963317600645123,-19.2005012891531,0.44079527258872986,0.21787145733833313,0.11368501931428909
1772376815086696700,4.78769677734375,0.23783823058642445,1.3816938657544553,-18.641678488868475,0.9652422666549683,0.514835000038147,0.21762773394584656
1772376815096645600,4.797645751953125,0.5960045299485326,1.1371143442142755,-16.941787126851082,1.3921208381652832,0.6857023239135742,0.3142850399017334
1772376815106594600,4.807594482421875,0.7090178187314421,0.9278480550523847,-14.2102637293756,1.7032971382141113,0.7399863600730896,0.3844074010848999
1772376815116542500,4.81754248046875,0.6349488123055547,0.7059850999720394,-11.285593256759643,1.920830488204956,0.6893423795700073,0.417839378118515
1772376815126491600,4.82749169921875,0.46497539974264795,0.4619279218055308,-8.665438814926146,2.029165267944336,0.6023600697517395,0.4149516224861145
1772376815136440600,4.837440673828125,0.08423223465234041,0.3708458577910438,-6.4203603792667385,2.0449626445770264,0.5901849269866943,0.37150585651397705
1772376815146389800,4.8473896484375,-0.32454609810467805,0.33712362093124537,-4.792725859686732,2.0328941345214844,0.6907222867012024,0.333650678396225
1772376815156338700,4.857338623046875,-0.41902869127765296,0.3517031677626073,-3.7644261835217474,2.0815958976745605,0.8123587369918823,0.3129448890686035
1772376815166287600,4.86728759765625,-0.41151816951707004,0.4517489480206743,-3.023389205521345,2.1884868144989014,0.8772430419921875,0.3069784939289093
1772376815176236500,4.877236572265625,-0.34156098232418297,0.6061680504359305,-2.032904588487744,2.31461763381958,0.8772385120391846,0.3087380528450012
1772376815186184700,4.887184814453125,-0.343216896305047,0.821836461725086,-0.6803630213290452,2.409827470779419,0.804500162601471,0.30687814950942993
1772376815196133600,4.897133544921875,-0.4839657122209668,1.0551100878097117,0.9834317759126424,2.436030864715576,0.6941736340522766,0.28614941239356995
1772376815206082600,4.90708251953125,-0.7270747228171676,1.157458628584817,2.7738299228072165,2.3601181507110596,0.6111413240432739,0.2367326319217682
1772376815216031500,4.917031494140625,-1.00949034627676,1.1565006702728569,4.5410599600821735,2.1792027950286865,0.5615170001983643,0.1687551736831665
1772376815225980400,4.92698046875,-1.1885684179238973,1.1962779693879186,6.130220664361119,1.9394742250442505,0.5211421847343445,0.09013236314058304
1772376815235929600,4.9369296875,-1.2070097912825644,1.2303959275670349,7.369443895375728,1.6918716430664062,0.4844278395175934,0.020312270149588585
1772376815245878800,4.946878662109375,-1.0489853213191032,1.276493077353388,8.230946743187308,1.4654231071472168,0.43221157789230347,-0.025064021348953247
1772376815255826700,4.95682666015625,-0.7989412507627159,1.379367176372558,8.872704431790114,1.2747365236282349,0.32485291361808777,-0.05695484206080437
1772376815265775600,4.966775634765625,-0.4324987790297717,1.487369285929948,9.467107079499959,1.1398719549179077,0.13944250345230103,-0.05506183207035065
1772376815275724500,4.976724609375,-0.04439458365216851,1.53467624989748,10.065971967315674,1.030980110168457,-0.10370036959648132,-0.03825036436319351
1772376815285673700,4.986673828125,0.2301539596941322,1.441907803698629,10.741845276010036,0.8958719372749329,-0.35512223839759827,-0.035327933728694916
1772376815295622700,4.99662255859375,0.2563892383320257,1.3084969659879804,11.643407162487506,0.6711043119430542,-0.5483459830284119,-0.04714943841099739
1772376815305571600,5.006571533203125,0.23704052260378375,1.199547638708353,12.669065384232997,0.28529536724090576,-0.6563954949378967,-0.058680661022663116
1772376815315520500,5.0165205078125,0.19892153035607188,1.2092698451690376,13.6941788315773,-0.2380669116973877,-0.6574879288673401,-0.07309848815202713
1772376815325469700,5.0264697265625,0.07642632840806618,1.2676705962114034,14.202557392781973,-0.7845315337181091,-0.5484868288040161,-0.07015993446111679
1772376815335417600,5.03641748046875,0.052010282820276914,1.3063519167833029,13.799227936547993,-1.2880830764770508,-0.4075998067855835,-0.043775998055934906
1772376815345366800,5.04636669921875,0.13044862690418957,1.4161289270587265,12.897922070658206,-1.7018916606903076,-0.3031311333179474,-0.008372658863663673
1772376815355315700,5.056315673828125,0.1959114252872765,1.4932039834327995,11.662229936379193,-1.9825783967971802,-0.3116902709007263,0.048297543078660965
1772376815365264600,5.0662646484375,0.20882455501006916,1.5104732442721724,10.207374826693535,-2.1523849964141846,-0.4276268184185028,0.06622452288866043
1772376815375213600,5.076213623046875,-0.23216634069615974,1.4170026411533354,8.694493059974908,-2.262801170349121,-0.5819766521453857,0.010934103280305862
1772376815385162500,5.08616259765625,-1.091952794777602,1.3524861837096511,7.100840889495611,-2.357602119445801,-0.7249525785446167,-0.09837564080953598
1772376815395111700,5.096111572265625,-1.8113855514742434,1.3009136712521314,5.336982374480367,-2.4611010551452637,-0.8262048959732056,-0.2472599297761917
1772376815405059600,5.1060595703125,-2.3660876185670494,1.2407035327002405,3.3685599027752873,-2.5900514125823975,-0.9310703277587891,-0.3933179974555969
1772376815415008500,5.116008544921875,-2.4770886176794766,1.525966581480205,0.8829898724764585,-2.671905517578125,-1.0396941900253296,-0.480435848236084
1772376815424957400,5.12595751953125,-1.9766494711719451,1.9822152886055409,-2.458855041852593,-2.601438522338867,-1.1622376441955566,-0.4783411920070648
1772376815434906600,5.13590673828125,-1.178311812325567,2.3307297433294356,-6.5414902659446,-2.3141608238220215,-1.129422664642334,-0.3965592682361603
1772376815444855800,5.145855712890625,-0.40517033486030996,2.3782649630948898,-10.78098252365589,-1.8806328773498535,-0.9355725049972534,-0.28511786460876465
1772376815454804700,5.1558046875,0.056593190163746476,2.235612395916879,-14.21362005406618,-1.392918348312378,-0.6160512566566467,-0.17934776842594147
1772376815464753700,5.165753662109375,0.20036014832444488,2.0393737845018505,-16.475538565367458,-0.915008544921875,-0.2597319781780243,-0.09652568399906158
1772376815474702600,5.17570263671875,0.3271466725245118,1.7105011649675665,-17.55170298551321,-0.48979148268699646,0.00719290878623724,-0.018329419195652008
1772376815484650500,5.185650390625,0.6102035164970904,1.379131906311959,-17.524852387988567,-0.12022488564252853,0.16871416568756104,0.06981056183576584
1772376815494599700,5.195599609375,0.8831897058974951,1.1001131587490438,-16.924473588478563,0.2226501852273941,0.26580503582954407,0.16049093008041382
1772376815504548600,5.205548583984375,0.9496791439145803,0.846121446545422,-16.098873828697204,0.5567551851272583,0.3386710286140442,0.23435670137405396
1772376815514497500,5.21549755859375,0.8523774382002651,0.5334012857150287,-15.119202282100915,0.8697184324264526,0.37917637825012207,0.3017114996910095
1772376815524446700,5.22544677734375,0.663526525883749,0.3453972360188141,-13.723113834160566,1.1474223136901855,0.3927140235900879,0.38245508074760437
1772376815534395600,5.235395751953125,0.47509405817501243,0.2898191594480537,-11.983830372953415,1.4009383916854858,0.373276948928833,0.443899542093277
1772376815544344600,5.245344482421875,0.1104560055155307,0.08196818044418469,-10.129874238383769,1.6386921405792236,0.3649720251560211,0.46078208088874817
1772376815554292700,5.255292724609375,-0.5912524400506168,-0.25647735500689595,-8.213630866727232,1.8067729473114014,0.4150485098361969,0.3914187252521515
1772376815564241700,5.26524169921875,-1.531416371318698,-0.6517795355971903,-6.028113458061218,1.8695590496063232,0.47538748383522034,0.2548311948776245
1772376815574190600,5.275190673828125,-2.225784244863689,-0.9374552568312734,-3.5641374199330804,1.8452763557434082,0.5127767324447632,0.09750895202159882
1772376815584139500,5.285139404296875,-2.342589546340704,-0.8713610286768525,-1.2018448097348213,1.7844326496124268,0.5062653422355652,-0.021411092951893806
1772376815594088400,5.29508837890625,-1.9875683400712907,-0.5637847335409373,0.7440905203521251,1.7072441577911377,0.4884994328022003,-0.08629715442657471
1772376815604037600,5.30503759765625,-1.4625965175926685,-0.10925064831376075,2.23884626327157,1.628827452659607,0.48381057381629944,-0.11121612042188644
1772376815613986800,5.31498681640625,-1.0588733858659862,0.3968785995941609,3.4280385121822357,1.5699713230133057,0.48299670219421387,-0.1080179288983345
1772376815623934500,5.3249345703125,-0.8340667054839431,0.9025238633774221,4.487332461547851,1.5153157711029053,0.4889373481273651,-0.09901119768619537
1772376815633883600,5.334883544921875,-0.7041798771809786,1.347696465215087,5.557859168067574,1.4628546237945557,0.47819656133651733,-0.08289827406406403
1772376815643832600,5.34483251953125,-0.5259697474747896,1.677229740615189,6.703855833852291,1.380990982055664,0.4842093586921692,-0.06300631165504456
1772376815653781800,5.35478173828125,-0.3627509968038648,1.8714814159967004,7.921790193122625,1.2463759183883667,0.4995614290237427,-0.03555551916360855
1772376815663730700,5.364730712890625,-0.1044899915168993,1.9947160198688505,9.184926799166202,1.0831985473632812,0.5025385022163391,0.0033517160918563604
1772376815673679600,5.3746796875,0.22633047414952887,2.018984491945803,10.266695615190267,0.9066293239593506,0.45640647411346436,0.039646074175834656
1772376815683628500,5.384628662109375,0.46328419525269415,1.9594049063824115,11.169507209467888,0.7247236967086792,0.3464536666870117,0.06835322082042694
1772376815693576400,5.394576416015625,0.6372376538950949,1.8568647154927254,11.958435234934091,0.5291632413864136,0.16857048869132996,0.0819995254278183
1772376815703525600,5.404525634765625,0.7767963467109948,1.7909496432974934,12.705080115944146,0.2933186888694763,-0.037155114114284515,0.08359523862600327
1772376815713474600,5.414474609375,0.8858122364208102,1.7726345266669987,13.38913906918168,-0.018401380628347397,-0.20948825776576996,0.09661170095205307
1772376815723423700,5.424423828125,0.9775463711358606,1.8437825310796498,13.849860391676424,-0.3974687159061432,-0.293140709400177,0.12255807220935822
1772376815733372700,5.43437255859375,0.9742292094118893,1.8299281932502984,13.878929834294318,-0.8179154992103577,-0.28719043731689453,0.1588926464319229
1772376815743321600,5.444321533203125,0.8484636257573962,1.585830244681984,13.37187112351656,-1.267578363418579,-0.2282736748456955,0.1816360503435135
1772376815753270500,5.4542705078125,0.632321532541886,1.2625308952353893,12.54466275949478,-1.6883437633514404,-0.18698401749134064,0.17954573035240173
1772376815763218700,5.46421875,0.45571091045420614,0.9098641431376338,11.077989786243439,-2.0360143184661865,-0.21621549129486084,0.15175162255764008
1772376815773167600,5.474167724609375,0.0856245475272648,0.548844280975312,9.066337829142809,-2.3871824741363525,-0.3599420487880707,0.06892066448926926
1772376815783116500,5.484116455078125,-0.6056114759990945,0.42163324775286015,6.777104025414586,-2.722142219543457,-0.583001971244812,-0.08926960825920105
1772376815793065500,5.4940654296875,-1.4373187223426998,0.4293557317636907,3.627317806467414,-3.0078775882720947,-0.8835666179656982,-0.29888221621513367
1772376815803014400,5.504014404296875,-2.090177942935377,0.6818819014593959,-0.522242835906148,-3.1531546115875244,-1.1838784217834473,-0.4902836084365845
1772376815812963800,5.5139638671875,-1.9874217712074518,1.1720130775075406,-5.804453755757212,-2.957984447479248,-1.41880202293396,-0.55539870262146
1772376815822912800,5.523912841796875,-0.9794793850250542,1.8335950451947747,-12.312352717745304,-2.2956223487854004,-1.4132585525512695,-0.46200263500213623
1772376815832861700,5.53386181640625,0.23393815440796314,2.5081392972424625,-18.701817608010767,-1.3182793855667114,-1.164050817489624,-0.25057879090309143
1772376815842809600,5.5438095703125,1.030542778916657,2.8425799261674283,-22.95176871589422,-0.3166356682777405,-0.7763179540634155,-0.007350080646574497
1772376815852758500,5.553758544921875,1.1528314071755856,2.8216823918282983,-24.006884502792357,0.4126693904399872,-0.33175191283226013,0.1898500770330429
1772376815862707700,5.563707763671875,0.6558502191022038,2.4671055683255196,-22.139397855520247,0.7665398716926575,0.03102007880806923,0.27567774057388306
1772376815872656600,5.57365673828125,-0.15675181967914104,1.8798621447205544,-18.688172529017923,0.9094773530960083,0.3835831880569458,0.2850552797317505
1772376815882605600,5.58360546875,-0.7665526736594737,1.193331832933426,-15.79270126287937,1.0283387899398804,0.6862033605575562,0.2947694659233093
1772376815892554500,5.593554443359375,-0.8122654272381216,0.6886676160767674,-13.602299004781246,1.2261306047439575,0.844620406627655,0.3272760212421417
1772376815902503700,5.603503662109375,-0.6108252285920083,0.32488870099727063,-11.481620855772494,1.491295576095581,0.819050133228302,0.36777812242507935
1772376815912451600,5.61345166015625,-0.43092155630830675,-0.025401056303456425,-9.214559720885752,1.7786102294921875,0.6846358180046082,0.41016924381256104
1772376815922400800,5.62340087890625,-0.4753497134365141,-0.25779552493337543,-6.716399673604965,2.0108625888824463,0.4799387753009796,0.42419058084487915
1772376815932349700,5.633349609375,-0.8080025821618735,-0.46905689690262076,-4.012474477151036,2.131589889526367,0.27299410104751587,0.3630007207393646
1772376815942298600,5.643298583984375,-1.4272652381010353,-0.6729752491652965,-1.2762556153357028,2.1215686798095703,0.14470821619033813,0.23166599869728088
1772376815952247600,5.65324755859375,-2.0259715743541715,-0.7328496529567986,1.2368395507484673,2.013857126235962,0.08330690860748291,0.07851745933294296
1772376815962196500,5.663196533203125,-2.1461454754814504,-0.5058871827803552,3.241424638202786,1.8677374124526978,0.09588796645402908,-0.0458059161901474
1772376815972145700,5.673145751953125,-1.8780296685963869,-0.016298223850131036,4.698186458292604,1.7287129163742065,0.16682179272174835,-0.11356046795845032
1772376815982093600,5.683093505859375,-1.392646783053875,0.5739475964412093,5.794139867013692,1.59895658493042,0.25304701924324036,-0.12930606305599213
1772376815992042500,5.69304248046875,-0.9195838653802871,1.230942163272947,6.773243258333205,1.501173496246338,0.3241214454174042,-0.11745685338973999
1772376816001991400,5.702991455078125,-0.52070616439078,1.7047900938443838,7.759597643694281,1.3860464096069336,0.37789180874824524,-0.10295534133911133
1772376816011940600,5.712940673828125,-0.20760451169582084,1.9614749906547366,8.884082150372862,1.2256280183792114,0.3974069058895111,-0.09062330424785614
1772376816021889800,5.722889892578125,0.039595750269386915,2.1394722813278437,10.117593433481455,1.0275969505310059,0.38345664739608765,-0.08188758045434952
1772376816031838700,5.732838623046875,0.23963486821223048,2.2199732204973697,11.251576420867442,0.7801775336265564,0.3560817539691925,-0.08376403898000717
1772376816041788700,5.74278857421875,0.37095783026553686,2.2492498761251567,12.233397838973998,0.5054320693016052,0.30483052134513855,-0.1002092957496643
1772376816051736600,5.752736572265625,0.4349138773474842,2.257788425759226,12.926685223805904,0.2165379673242569,0.24762074649333954,-0.12123575061559677
1772376816061685500,5.762685546875,0.4978001032408327,2.2643004380017517,13.338436471426487,-0.07971422374248505,0.16941316425800323,-0.13718281686306
1772376816071634400,5.772634521484375,0.5801912035385146,2.299330834850669,13.561200101673602,-0.3904297351837158,0.06591126322746277,-0.16072995960712433
1772376816081583600,5.78258349609375,0.54405258971937,2.301691426502168,13.523696008187532,-0.6958521604537964,-0.06116492301225662,-0.17485392093658447
1772376816091532800,5.79253271484375,0.5763376333829016,2.234817592277378,12.984866194617748,-0.9786487221717834,-0.191788449883461,-0.1750219613313675
1772376816101481700,5.802481689453125,0.5482576401937752,2.2525629461959005,11.981185995924472,-1.2626310586929321,-0.3008745312690735,-0.15397392213344574
1772376816111430700,5.8124306640625,0.49094497664906084,2.193931162876636,10.66722053539753,-1.5429742336273193,-0.37828224897384644,-0.13926288485527039
1772376816121379600,5.822379638671875,0.278503381919302,1.8809316736482082,9.072337361818551,-1.8191367387771606,-0.43947136402130127,-0.13514456152915955
1772376816131327700,5.83232763671875,-0.05041115879425779,1.492980257679522,7.0572665361851445,-2.121086597442627,-0.47007960081100464,-0.1529397964477539
1772376816141276700,5.842276611328125,-0.44342093586474657,1.1195916200704872,4.71406265733838,-2.3925893306732178,-0.4518619477748871,-0.1744811236858368
1772376816151225600,5.8522255859375,-0.6264318899814039,0.8123151846639811,1.7796026121139525,-2.527069091796875,-0.4310043454170227,-0.18975567817687988
1772376816161174500,5.862174560546875,-0.6031796822749078,0.4743309648480266,-1.7810539799660443,-2.489243507385254,-0.5301492214202881,-0.18278837203979492
1772376816171123500,5.87212353515625,-0.49105870268922297,0.288264203357324,-5.557855660936236,-2.2367756366729736,-0.7113786935806274,-0.14989912509918213
1772376816181072600,5.88207275390625,-0.27312146968524903,0.13797423663605005,-9.521654077723621,-1.7846860885620117,-0.8551754355430603,-0.10421103239059448
1772376816191021600,5.892021484375,-0.14763612774424253,-0.12675653092060238,-13.106306462419033,-1.2867980003356934,-0.873287558555603,-0.05918737128376961
1772376816200969700,5.9019697265625,-0.34755839610807593,-0.3317780586522072,-15.572821663635969,-0.8735308647155762,-0.7429797649383545,-0.045206062495708466
1772376816210918700,5.911918701171875,-0.9215733586970716,-0.6221080354329198,-16.94252946965098,-0.5936086773872375,-0.4478469789028168,-0.09344203770160675
1772376816220867600,5.92186767578125,-1.4539315650999545,-0.8422934857551008,-17.581957838523387,-0.3870789408683777,-0.09430085867643356,-0.13698534667491913
1772376816230816500,5.93181640625,-1.37709236330837,-0.7151097789309918,-17.81164220794439,-0.15563185513019562,0.22788996994495392,-0.10569640249013901
1772376816240765700,5.941765625,-0.7768070142354816,-0.34578144956342877,-17.820574871462583,0.13952948153018951,0.4235670566558838,-0.021536249667406082
1772376816250714600,5.951714599609375,-0.3251147283054888,0.021218363791331647,-17.459471276539563,0.49977555871009827,0.48614415526390076,0.055308468639850616
1772376816260663600,5.96166357421875,-0.42172216814532876,0.13073312466768547,-16.547427743536232,0.8621612191200256,0.4738330841064453,0.07781220972537994
1772376816270611500,5.971611572265625,-0.8959262186780571,0.19774152679126708,-14.960110621297359,1.1925380229949951,0.4503626823425293,0.08694765716791153
1772376816280560600,5.981560546875,-1.1380793167889118,0.2842041873767972,-12.968490229356288,1.5069702863693237,0.44025811553001404,0.09394117444753647
1772376816290509800,5.991509765625,-1.293523561000824,0.3399200101841241,-10.642459019106626,1.769211769104004,0.4732147455215454,0.07863225787878036
1772376816300458800,6.001458740234375,-1.5585625907890497,0.2127231516174972,-7.946728819546103,1.9471114873886108,0.5406623482704163,0.03347175940871239
1772376816310407700,6.01140771484375,-1.8519499093137681,0.16480587373189629,-5.065607565799355,2.0374057292938232,0.6324207782745361,-0.035675618797540665
1772376816320356600,6.021356689453125,-1.9853776981592177,0.20398747197613118,-2.2715900104880333,2.0452120304107666,0.7156248092651367,-0.10693086683750153
1772376816330305500,6.031305419921875,-1.8445833260685205,0.4693589485891163,0.4294079003423452,1.970503330230713,0.7613605856895447,-0.1570579558610916
1772376816340253700,6.041253662109375,-1.495168853764981,0.9370027638234197,2.928974307289719,1.843326449394226,0.7726759910583496,-0.18475870788097382
1772376816350202600,6.05120263671875,-1.155097817737609,1.4186607836239038,4.999606276625395,1.707479476928711,0.7703552842140198,-0.1926581859588623
1772376816360151600,6.061151611328125,-0.8359596065584569,1.8300801689416168,6.6522752842187876,1.5670791864395142,0.7482941746711731,-0.1910756230354309
1772376816370100700,6.071100830078125,-0.567560196959041,2.2067438826985657,8.083746011185646,1.4255449771881104,0.7131286859512329,-0.17732731997966766
1772376816380049700,6.081049560546875,-0.39000739865042267,2.5361773509860037,9.317798561564087,1.28024160861969,0.655728280544281,-0.16662754118442535
1772376816389998600,6.09099853515625,-0.26894606543043625,2.702977978731692,10.447802708446979,1.121395230293274,0.5942950248718262,-0.16417530179023743
1772376816399947500,6.100947509765625,-0.14537773609189317,2.820694549834728,11.495866823267937,0.9391026496887207,0.5380039215087891,-0.17425617575645447
1772376816409895700,6.110895751953125,-0.03922888971837237,2.8906746795117852,12.395046198523044,0.7482850551605225,0.46221432089805603,-0.18605265021324158
1772376816419844600,6.1208447265625,0.1317313967237249,2.8998110489085316,13.099874383544922,0.5719394683837891,0.36302563548088074,-0.19015099108219147
1772376816429793500,6.13079345703125,0.354168571495451,2.887625521074235,13.618940342980622,0.39990249276161194,0.22788728773593903,-0.19151346385478973
1772376816439742500,6.140742431640625,0.5407748832229524,2.8862378661081194,14.038602509856224,0.2281128615140915,0.05127546936273575,-0.18294039368629456
1772376816449691600,6.150691650390625,0.7412494517073035,2.8402465147837996,14.449388127315043,0.006367959082126617,-0.16768057644367218,-0.16229982674121857
1772376816459640600,6.160640625,0.9088857996247708,2.779012293881178,14.782959572190045,-0.28843414783477783,-0.3410032093524933,-0.1344718039035797
1772376816469589800,6.17058984375,0.9899365546967833,2.734618440881371,14.95223711144328,-0.6696270108222961,-0.4742494225502014,-0.10707215219736099
1772376816479537700,6.18053759765625,1.0375300074554978,2.5948399678349494,14.766001423126458,-1.088374376296997,-0.5715155601501465,-0.06549430638551712
1772376816489486600,6.190486572265625,1.0655213725131005,2.3509663295418024,13.985919551938771,-1.5520102977752686,-0.6594598293304443,-0.04620716720819473
1772376816499435800,6.200435791015625,0.7938620478022843,2.211960302172601,12.781265530002116,-2.047797679901123,-0.7126473784446716,-0.05012129619717598
1772376816509384700,6.210384765625,0.514160140280798,2.048236159262806,10.988370890116691,-2.544905424118042,-0.76723313331604,-0.0986771211028099
1772376816519333600,6.220333740234375,-0.036673133971088095,1.6183957127220927,8.388378946346045,-2.9736766815185547,-0.8598454594612122,-0.22642043232917786
1772376816529282600,6.230282470703125,-0.7107540679395199,1.36640613412112,4.804663550239801,-3.2753512859344482,-1.0115550756454468,-0.35942986607551575
1772376816539231500,6.2402314453125,-0.9906456528142094,1.5518968492895364,0.4396259274959564,-3.3884029388427734,-1.192022442817688,-0.43621623516082764
1772376816549179600,6.2501796875,-0.8705302769411355,1.905863578069955,-4.661503033539653,-3.1869213581085205,-1.3026463985443115,-0.42805710434913635
1772376816559128600,6.260128662109375,-0.6449422369230539,2.2831112291947004,-10.32967317262888,-2.6411030292510986,-1.259825348854065,-0.3408091962337494
1772376816569077800,6.270077880859375,-0.15733458800315855,2.470937109312415,-15.502901155191658,-1.9049824476242065,-1.0752320289611816,-0.1773582100868225
1772376816579026700,6.280026611328125,0.38586949512809515,2.100474880544096,-19.094148700368404,-1.142076015472412,-0.7749652862548828,0.006390969734638929
1772376816588975600,6.2899755859375,0.5019475783091039,1.5235441766388713,-20.811422574341297,-0.5212092995643616,-0.40077948570251465,0.16067135334014893
1772376816598924500,6.299924560546875,-0.021748232884332537,1.1044205736193806,-20.731710155200958,-0.12291355431079865,-0.051106881350278854,0.24345862865447998
1772376816608873700,6.309873779296875,-0.7270799835141748,0.554133984881267,-19.426187528848647,0.10993008315563202,0.24433329701423645,0.25728839635849
1772376816618822700,6.31982275390625,-1.1719562327537685,-0.0004749149022158235,-17.75782410851717,0.2903062403202057,0.4580304026603699,0.2637907862663269
1772376816628770600,6.3297705078125,-1.2631662705294786,-0.3473887020969763,-16.311540427821875,0.5125763416290283,0.5875157117843628,0.28409844636917114
1772376816638719500,6.339719482421875,-1.1848442828342318,-0.523309953681007,-15.06708514137268,0.8237438201904297,0.6235883831977844,0.3218454122543335
1772376816648668400,6.34966845703125,-1.12391087150909,-0.6915243937473744,-13.648798890149592,1.1856149435043335,0.5636840462684631,0.3543471693992615
1772376816658617900,6.359617919921875,-1.1366611205540598,-0.921880890276283,-11.765972050404548,1.554015040397644,0.45430371165275574,0.3563637137413025
1772376816668566800,6.36956689453125,-1.355641286739707,-1.1681040143050252,-9.62417863265276,1.8592785596847534,0.40064793825149536,0.31266364455223083
1772376816678515700,6.379515625,-1.8321400240808725,-1.3317659056335687,-7.19502490158081,2.031294822692871,0.41750699281692505,0.22374267876148224
1772376816688463600,6.389463623046875,-2.21910491323024,-1.2846471577145158,-4.391447490763664,2.053748369216919,0.46892011165618896,0.12774237990379333
1772376816698412500,6.39941259765625,-2.2220357059851286,-1.043841820950806,-1.6566127767831087,1.9918270111083984,0.5314314365386963,0.05893944203853607
1772376816708361700,6.40936181640625,-1.9200635144665836,-0.5392237813234328,0.6609177316248417,1.9086530208587646,0.5465030074119568,0.022126298397779465
1772376816718310700,6.419310546875,-1.4820795089587568,0.10627426285147666,2.5032512329399585,1.8580764532089233,0.49223875999450684,0.013245638459920883
1772376816728259600,6.429259521484375,-1.087531617334485,0.6965951942056418,3.951943728342652,1.842711329460144,0.38939785957336426,0.011073030531406403
1772376816738208500,6.43920849609375,-0.8458712711766362,1.2871394129216671,5.211922162616252,1.8465441465377808,0.27082133293151855,0.002585279056802392
1772376816748157400,6.449157470703125,-0.7893695586886257,1.7953508008658885,6.404457292214036,1.833166241645813,0.18044643104076385,-0.019284600391983986
1772376816758105600,6.459105712890625,-0.7980757930397987,2.1536029518805444,7.7630726263284675,1.7534294128417969,0.12080719321966171,-0.06438437849283218
1772376816768054800,6.4690546875,-0.7306755968533456,2.458467796100676,9.233561942997575,1.580985188484192,0.10635954141616821,-0.11594823747873306
1772376816778003700,6.479003662109375,-0.593225895548053,2.5992449247956273,10.62956563526392,1.3298754692077637,0.12807373702526093,-0.1774894893169403
1772376816787952600,6.48895263671875,-0.29166208390099924,2.656480431450903,11.9446568849504,0.9981632828712463,0.17621490359306335,-0.22642667591571808
1772376816797901600,6.498901611328125,0.05579031738222111,2.716627733899653,13.067205455130338,0.6288890242576599,0.19404159486293793,-0.2657870352268219
1772376816807850500,6.5088505859375,0.4397467043314129,2.8127696020543573,13.796979865360258,0.27873820066452026,0.15402893722057343,-0.2875179052352905
1772376816817799700,6.518799560546875,0.8364381107904016,2.8983897839337587,14.14097918074727,-0.031156666576862335,0.0688062310218811,-0.29305300116539
1772376816827747600,6.52874755859375,1.2441191863626242,2.9742116253763435,14.14129599161148,-0.32338452339172363,-0.05560440197587013,-0.2791675627231598
1772376816837696500,6.538696533203125,1.5840731718815861,3.087950232759118,13.96466049081087,-0.6185025572776794,-0.21519488096237183,-0.2391413152217865
1772376816847645400,6.5486455078125,1.8724099290184675,3.1598724364146586,13.540692735695838,-0.9115312099456787,-0.3991521894931793,-0.18104737997055054
1772376816857594600,6.5585947265625,1.8861375717282294,3.2859096766173836,12.63897887352705,-1.1740193367004395,-0.5793996453285217,-0.13384996354579926
1772376816867543800,6.568543701171875,1.6051847873628138,3.2312896131575104,11.176077235507965,-1.405617594718933,-0.6992541551589966,-0.09197548776865005
1772376816877492700,6.57849267578125,1.2282516090147197,2.948546438243985,9.28992797334194,-1.6433489322662354,-0.7265133261680603,-0.06964787095785141
1772376816887441700,6.588441650390625,0.8428239393699913,2.4971990932941437,7.151151273062824,-1.8449324369430542,-0.6876096129417419,-0.05520022287964821
1772376816897389600,6.5983896484375,0.6452930961873382,1.8166434720024465,4.6179888859838245,-1.976744294166565,-0.6553443074226379,-0.039132874459028244
1772376816907338500,6.60833837890625,0.5173545524079353,1.1728978244528174,1.5585358489125967,-2.0088701248168945,-0.6739528775215149,0.005231396295130253
1772376816917287700,6.61828759765625,0.6660565558180213,0.5317442392230034,-1.6766823358654974,-1.958080768585205,-0.7540003657341003,0.06444698572158813
1772376816927236600,6.628236572265625,0.820172620166093,-0.11779182829633354,-4.723927633270621,-1.8725477457046509,-0.8755015134811401,0.095622219145298
1772376816937185500,6.638185546875,0.493856589779444,-0.8298664042498916,-7.518806773847341,-1.8144536018371582,-1.023596167564392,0.04389385133981705
1772376816947134700,6.648134765625,-0.441024907573685,-1.5497662670016288,-10.06523313164711,-1.8011835813522339,-1.093767762184143,-0.08967326581478119
1772376816957083600,6.658083740234375,-1.5039431118510662,-1.890525723684579,-12.67622227025032,-1.724423885345459,-1.0226714611053467,-0.25807857513427734
1772376816967031800,6.66803173828125,-2.3166426196575163,-1.8598355479970574,-15.728558168792723,-1.4494963884353638,-0.7935006618499756,-0.38637638092041016
1772376816976980700,6.677980712890625,-2.375577623707056,-1.357468794427812,-18.794387170636654,-0.917865514755249,-0.42511236667633057,-0.3728196620941162
1772376816986929700,6.6879296875,-1.4936147561907767,-0.7194384557850658,-21.08674407482147,-0.2111579030752182,0.0067748455330729485,-0.21796484291553497
1772376816996878600,6.697878662109375,-0.4994337688572705,-0.21432236697506157,-21.742619720625875,0.478780061006546,0.38249701261520386,0.023975737392902374
1772376817006827500,6.70782763671875,0.08154621043875813,-0.09886362126879393,-20.26591635174751,0.9573565125465393,0.6138972043991089,0.2313142865896225
1772376817016776400,6.7177763671875,-0.3177064248103648,-0.32441585932113226,-17.078496275454757,1.182652473449707,0.768170177936554,0.3323913812637329
1772376817026725600,6.7277255859375,-1.2043918638691304,-0.7898533236175775,-13.576902697718143,1.2617483139038086,0.8702787160873413,0.3492627739906311
1772376817036673500,6.737673583984375,-1.971307671752572,-1.2240650440450758,-10.581377650678156,1.317844033241272,0.8774924874305725,0.3056161403656006
1772376817046622500,6.74762255859375,-2.4702739692285656,-1.5562386778861284,-8.075424173042178,1.4127590656280518,0.8071094155311584,0.22462835907936096
1772376817056571400,6.7575712890625,-2.605723180899024,-1.7334142769128082,-5.923343754553795,1.533682107925415,0.7434152364730835,0.12635518610477448
1772376817066520600,6.7675205078125,-2.648819687564671,-1.6343438079603014,-4.009459513244033,1.6602373123168945,0.7171764373779297,0.03867221251130104
1772376817076469800,6.7774697265625,-2.5413825184136627,-1.2369042865477502,-2.044454741027951,1.7572970390319824,0.6919233202934265,-0.020623452961444855
1772376817086418700,6.787418701171875,-2.2100199817597863,-0.6962386358529329,-0.01900806733071804,1.816123366355896,0.6656723022460938,-0.05494334176182747
1772376817096367600,6.79736767578125,-1.8059746323414145,-0.13005758175998924,2.0185943235844372,1.8190011978149414,0.6237664818763733,-0.07893402874469757
1772376817106315500,6.8073154296875,-1.4063324863180517,0.4604670554727316,3.9966561457723375,1.7629927396774292,0.5418899655342102,-0.10519066452980042
1772376817116264700,6.8172646484375,-1.099112311143428,1.0706615849457681,5.932610764592885,1.655633807182312,0.468681275844574,-0.13549812138080597
1772376817126213600,6.827213623046875,-0.763942783422023,1.5662015612348914,7.544995108070969,1.501418113708496,0.40799421072006226,-0.1600615233182907
1772376817136162600,6.83716259765625,-0.29346916985558347,1.936520874401182,8.86616363184452,1.3409315347671509,0.3668057322502136,-0.15814651548862457
1772376817146111500,6.847111572265625,0.24291396294813603,2.272259580312669,9.900009836220741,1.17750883102417,0.33114922046661377,-0.12811271846294403
1772376817156060400,6.857060302734375,0.7265704265568405,2.510963999274373,10.68403839920759,0.997959315776825,0.31017908453941345,-0.09378355741500854
1772376817166009600,6.867009521484375,1.0423043822504579,2.698493526794016,11.448782416009902,0.7945087552070618,0.2910570800304413,-0.05516185984015465
1772376817175957800,6.876957763671875,1.287415599514544,2.7952997040763496,12.18757132282257,0.5745086669921875,0.25271767377853394,-0.023519353941082954
1772376817185906700,6.88690673828125,1.438797708854079,2.884673393270373,12.832067496478556,0.335002601146698,0.16370177268981934,-0.014837982133030891
1772376817195855600,6.896855712890625,1.4831353016220032,2.97161722496897,13.425614404141902,0.05733673647046089,-0.004513146355748177,-0.024090634658932686
1772376817205804500,6.906804443359375,1.5407248824119566,3.0105785315260287,13.878168786793946,-0.2396073192358017,-0.23869715631008148,-0.03530307114124298
1772376817215753500,6.91675341796875,1.6495970528021453,3.044856648702919,14.108929845535755,-0.5858902335166931,-0.5125356912612915,-0.034827351570129395
1772376817225702400,6.926702392578125,1.690363070693612,3.165895642226934,14.04759713269472,-0.9796692728996277,-0.7367600202560425,-0.01951257511973381
1772376817235651600,6.936651611328125,1.6310823219463229,3.3709023742482063,13.275857557916641,-1.3620387315750122,-0.8801628351211548,0.009750813245773315
1772376817245599500,6.946599609375,1.445611918913573,3.3229601811170575,11.766009459805488,-1.7315512895584106,-0.9523110389709473,0.04427576810121536
1772376817255548400,6.95654833984375,1.2991351172722876,3.0660446904212235,9.81869816519022,-2.0611002445220947,-0.9593065977096558,0.08855943381786346
1772376817265497600,6.96649755859375,1.0335726481318472,2.849286730329692,7.471093421036005,-2.3116893768310547,-0.9419699907302856,0.11812771111726761
1772376817275446500,6.976446533203125,0.5027375961756333,2.5767671355277297,4.707323704472184,-2.4692788124084473,-0.9500463008880615,0.11805038899183273
1772376817285395700,6.986395751953125,-0.08040547943841665,2.1460960833817717,1.6056144109517334,-2.5064585208892822,-0.9685536623001099,0.09390857070684433
1772376817295344600,6.9963447265625,-0.6091336953084916,1.6860609895855188,-1.7563672824770211,-2.4177567958831787,-1.0185694694519043,0.04241368547081947
1772376817305293600,7.00629345703125,-1.0604955071751028,1.2397414096698165,-5.194262587285041,-2.1763970851898193,-1.105582594871521,-0.01663738489151001
1772376817315241500,7.016241455078125,-1.2529901828214525,0.7759466710790991,-8.798194841989874,-1.7189770936965942,-1.0933927297592163,-0.040832072496414185
1772376817325190700,7.026190673828125,-0.9420449227090925,0.35107034975178536,-12.407028897261618,-1.0977058410644531,-0.9413000345230103,0.002914341865107417
1772376817335139600,7.0361396484375,-0.5255515220627188,0.021704612938314674,-15.133340697568654,-0.4625861346721649,-0.6634783148765564,0.11332004517316818
1772376817345088500,7.046088623046875,-0.16983721896260975,-0.3874007963486016,-16.375898625963924,0.0386149138212204,-0.29121795296669006,0.2344328761100769
1772376817355037700,7.05603759765625,-0.16920520466938613,-0.7325606799475848,-16.13927130553722,0.35063061118125916,0.07551132887601852,0.3335062265396118
1772376817364986600,7.065986572265625,-0.37282033620178695,-0.9578886807899921,-14.943894815033673,0.5182571411132812,0.33380410075187683,0.3920888304710388
1772376817374935600,7.075935546875,-0.5291758500397205,-1.1774940662018953,-13.528319576334953,0.6748523712158203,0.42928335070610046,0.4190939664840698
1772376817384883700,7.0858837890625,-0.5400983722008764,-1.334463328024,-12.411001308023929,0.8326289653778076,0.3681853711605072,0.405668705701828
1772376817394832600,7.09583251953125,-0.6691029377765954,-1.2630369450613856,-11.426086600077152,1.0027271509170532,0.25659915804862976,0.3709881901741028
1772376817404781600,7.105781494140625,-0.8966378010135143,-1.122932454930991,-10.536154361116886,1.1659677028656006,0.1675071120262146,0.33144503831863403
1772376817414730500,7.11573046875,-1.09549755471237,-0.9457258762441575,-9.563090249961615,1.2858083248138428,0.12034519016742706,0.2925712764263153
1772376817424679400,7.125679443359375,-1.3329298348464071,-0.7508261122174561,-8.351005201241373,1.3626877069473267,0.16112777590751648,0.26125460863113403
1772376817434628600,7.135628662109375,-1.5604828913271427,-0.5246455131337047,-7.0270672127544875,1.3827970027923584,0.271501749753952,0.2288319319486618
1772376817444577800,7.145577880859375,-1.7418420596487818,-0.3809751472152769,-5.505138216227293,1.340409278869629,0.40414634346961975,0.18470361828804016
1772376817454525400,7.155525390625,-1.8640281773813068,-0.21397373620048163,-3.7588901767045257,1.2772181034088135,0.5117953419685364,0.1448814570903778
1772376817464474600,7.165474609375,-1.8352907431967556,0.083041271302104,-2.222429381477833,1.2247689962387085,0.5611062049865723,0.09129917621612549
1772376817474423600,7.175423583984375,-1.7850500638648867,0.40067762655094263,-0.7858914342492819,1.1948693990707397,0.5378748178482056,0.030594417825341225
1772376817484372700,7.185372802734375,-1.6463853972792624,0.7168947626516222,0.6521931578993797,1.1814944744110107,0.4636208117008209,-0.02384032867848873
1772376817494321700,7.19532177734375,-1.3874487760193646,1.1633058202430606,1.9937123957842586,1.166195273399353,0.39735403656959534,-0.06468081474304199
1772376817504270600,7.2052705078125,-1.091715113564208,1.601726755863428,3.2558629133999344,1.1326282024383545,0.3559733033180237,-0.08472643047571182
1772376817514219500,7.215219482421875,-0.827611757190898,1.9970552764713763,4.497210296961665,1.0691453218460083,0.3685176372528076,-0.09636563807725906
1772376817524167400,7.22516748046875,-0.6709117407642304,2.334502978257835,5.800804001078009,0.9608108997344971,0.4257383346557617,-0.08850425481796265
1772376817534116600,7.23511669921875,-0.4591474973067641,2.627802326238155,7.048871048283576,0.8256236910820007,0.49875307083129883,-0.060226958245038986
1772376817544065500,7.2450654296875,-0.21668306822441516,2.7861542745903134,8.147740636712312,0.673919141292572,0.5696471929550171,-0.023042041808366776
1772376817554014700,7.2550146484375,-0.06906853125747293,2.8041236465230583,9.17193229303658,0.5100247263908386,0.6174423694610596,0.008062902837991714
1772376817563963600,7.264963623046875,0.07095439980300143,2.7296087960258126,10.093463200831412,0.3412669003009796,0.6362035274505615,0.027976421639323235
1772376817573912600,7.27491259765625,0.16820843045068903,2.5734774463325736,10.832095455777644,0.1729404777288437,0.6192666888237,0.02844688668847084
1772376817583860700,7.28486083984375,0.2261385500403121,2.3478777158766984,11.459055972743034,-0.0008795121684670448,0.5428195595741272,0.012343283742666245
1772376817593809700,7.2948095703125,0.2591734804893844,2.1065908792063595,12.059617143082617,-0.1939900517463684,0.3784343898296356,-0.031955536454916
1772376817603758600,7.304758544921875,0.22456967502208425,1.9090292024940252,12.588679595875739,-0.42314577102661133,0.13365231454372406,-0.08735007792711258
1772376817613707500,7.31470751953125,0.2473781758153811,1.8272566359534859,12.881014190477131,-0.7123839855194092,-0.134596049785614,-0.1558370590209961
1772376817623656400,7.324656494140625,0.2426596411271952,1.8359841322883963,12.754019795680046,-1.0283124446868896,-0.34512028098106384,-0.21103054285049438
1772376817633605400,7.33460546875,0.19456903423499314,1.9809780018955467,11.81098958826065,-1.3119633197784424,-0.48544996976852417,-0.23530595004558563
1772376817643554600,7.344554443359375,0.18239740706188604,2.0502093590319155,10.05695045647025,-1.5218017101287842,-0.5745393633842468,-0.2559039294719696
1772376817653502500,7.35450244140625,0.19396600857423618,1.9425167538151145,7.847666387769579,-1.6066497564315796,-0.5990324020385742,-0.24069683253765106
1772376817663451600,7.36445166015625,0.16589125781580805,1.8504902120247482,5.2231192639350885,-1.601060152053833,-0.6218527555465698,-0.23348046839237213
1772376817673400600,7.374400634765625,-0.11516622903309762,1.6699509817838667,2.7098861506849525,-1.549089789390564,-0.653256356716156,-0.23768402636051178
1772376817683349500,7.384349609375,-0.4180906797751784,1.3369978149376809,0.32084698785841465,-1.4559193849563599,-0.6351420879364014,-0.2364262193441391
1772376817693298700,7.394298583984375,-0.5800812038253993,0.8494226800478994,-2.1731693837463855,-1.296373963356018,-0.5294574499130249,-0.20084409415721893
1772376817703247600,7.40424755859375,-0.25609865788761527,0.14654270648434758,-4.701432892867922,-1.0763661861419678,-0.352297842502594,-0.1360459178686142
1772376817713196500,7.414196533203125,0.22569614003505556,-0.6970838545054197,-6.698648328337073,-0.8655852675437927,-0.200380340218544,-0.06394577771425247
1772376817723144400,7.42414453125,0.7256991966802626,-1.5725930158376693,-7.916416683390736,-0.7059245109558105,-0.12204212695360184,0.0025890409015119076
1772376817733093400,7.43409326171875,1.0264163466364145,-2.333925762891769,-8.54202695479095,-0.6148848533630371,-0.14507515728473663,0.040648266673088074
1772376817743042600,7.44404248046875,0.8584704943783581,-2.695735752518475,-8.90517988345921,-0.5984967947006226,-0.24692562222480774,0.027656299993395805
1772376817752991700,7.45399169921875,0.33096995713971555,-2.5889929953724145,-9.250957314434647,-0.6153293251991272,-0.3726973831653595,-0.022095009684562683
1772376817762940700,7.463940673828125,-0.15036737933903932,-2.228354095351696,-10.026091207826138,-0.5696491599082947,-0.4545768201351166,-0.08298232406377792
1772376817772889600,7.4738896484375,-0.4532635538347065,-1.92625272449553,-11.280182922148704,-0.4234645664691925,-0.43495622277259827,-0.13662242889404297
1772376817782838500,7.483838623046875,-0.5817964102454484,-1.5639932375356553,-12.656756522279977,-0.16177517175674438,-0.26459991931915283,-0.1681462675333023
1772376817792786700,7.49378662109375,-0.5023889654010534,-1.3304133219808338,-13.714064266264439,0.17014551162719727,-0.05085776746273041,-0.15517303347587585
1772376817802735600,7.503735595703125,-0.24948892089165745,-1.037965695459023,-13.767470862281321,0.476693719625473,0.10690096765756607,-0.08013793081045151
1772376817812684500,7.5136845703125,0.12162848384976387,-0.6673832013119012,-12.661762367743252,0.6855929493904114,0.18283529579639435,0.012109234929084778
1772376817822633500,7.523633544921875,0.17306056492328642,-0.3909896146208048,-10.762527998554706,0.7825900912284851,0.23504258692264557,0.06264298409223557
1772376817832582400,7.53358251953125,-0.2619640062570572,-0.38461686471849676,-8.668414615866542,0.8015186786651611,0.31092485785484314,0.06798657029867172
1772376817842531600,7.543531494140625,-0.7897305740207433,-0.39120749515518544,-6.799809778219461,0.8087188005447388,0.43127524852752686,0.05739038810133934
1772376817852480800,7.553480712890625,-1.0872890407502651,-0.25374109844341874,-5.237049589610099,0.8502617478370667,0.5601385235786438,0.045344624668359756
1772376817862428700,7.5634287109375,-1.1754323844317347,-0.08449906889498233,-3.800830206811428,0.9345396161079407,0.64821857213974,0.037207867950201035
1772376817872377600,7.573377685546875,-1.04318671804294,0.13830796210244298,-2.310382390218973,1.0500696897506714,0.6836684346199036,0.04188208654522896
1772376817882326500,7.583326416015625,-0.8287981904964894,0.36811654242500663,-0.6344815601199865,1.1530805826187134,0.6652683615684509,0.05351104587316513
1772376817892275500,7.593275390625,-0.6060003657188267,0.5977092880398035,1.1859937451303004,1.2318066358566284,0.6117664575576782,0.07385307550430298
1772376817902224600,7.603224609375,-0.4737631383648142,0.8542411862455308,2.966109567463398,1.27413809299469,0.5483789443969727,0.0936635360121727
1772376817912173600,7.613173583984375,-0.4599192123316228,1.07532022440657,4.681035417005419,1.2590714693069458,0.5068214535713196,0.0956367552280426
1772376817922122500,7.62312255859375,-0.5046659704223275,1.225326661478728,6.296946765565872,1.1788787841796875,0.48634466528892517,0.08910562098026276
1772376817932070400,7.6330703125,-0.4759628038335591,1.3492651758365333,7.840891194546222,1.040083885192871,0.46143820881843567,0.07403631508350372
1772376817942019600,7.64301953125,-0.4055743856165558,1.4376273499004542,9.25378640038073,0.8473367691040039,0.44035184383392334,0.0561089813709259
1772376817951968800,7.65296875,-0.3061578979716636,1.4547650933146477,10.46109824334979,0.6195424795150757,0.40603649616241455,0.03717103973031044
1772376817961917700,7.662917724609375,-0.20394746875930575,1.404463185314834,11.391106472110748,0.37060031294822693,0.3496240973472595,0.01069069653749466
1772376817971866600,7.67286669921875,-0.1248561497925315,1.3517287894710897,11.990690321850776,0.11146251857280731,0.2805255949497223,-0.026615437120199203
1772376817981815600,7.682815673828125,-0.11415562721844762,1.3016720884039998,12.386798594659567,-0.16458743810653687,0.18575620651245117,-0.08371680974960327
1772376817991763700,7.692763671875,-0.15000639140638522,1.2828972453072667,12.589446488595009,-0.4647214412689209,0.055167630314826965,-0.1434519737958908
1772376818001712600,7.702712646484375,-0.17173923492534085,1.3953274004399776,12.49904667122364,-0.7647150754928589,-0.09742457419633865,-0.20221835374832153
1772376818011661600,7.71266162109375,-0.15506658827224745,1.6044478513903915,11.904644023513793,-1.0141793489456177,-0.26117658615112305,-0.2543278634548187
1772376818021610500,7.722610595703125,-0.16145744008682666,1.746451160879433,10.73281090568304,-1.2149838209152222,-0.431835412979126,-0.29314476251602173
1772376818031559400,7.732559326171875,-0.09815141787882893,1.8970510338000952,9.189266289675235,-1.3535338640213013,-0.6014580130577087,-0.31006523966789246
1772376818041508000,7.742508056640625,0.04100742543190718,1.9039068910442292,7.3659969697922465,-1.4615895748138428,-0.7539223432540894,-0.3116474151611328
1772376818051457300,7.752457275390625,0.09583119477033615,1.8232153977386651,5.472185210174322,-1.5757920742034912,-0.8649170398712158,-0.2919911742210388
