time,seconds_elapsed,z,y,x
1772366257072087600,0.112087646484375,-0.03189619047641754,0.002113548954715952,-0.0036653906397521494
1772366257082157600,0.122157470703125,-0.027573651102185247,-0.004205507132131606,0.00699446199722588
1772366257092227600,0.1322275390625,-0.023846155011653897,0.0007393927909899503,0.0018259367855265735
1772366257102298600,0.142298583984375,-0.034487960535287854,0.001855583005119115,0.002779693846404552
1772366257112368600,0.15236865234375,-0.03822948515117168,-0.0011402286768425255,0.0020448402332141993
1772366257122438400,0.1624384765625,-0.030431963142752646,0.0031332656575832514,0.0006526552224531769
1772366257132509400,0.172509521484375,-0.031658874589204786,-0.003099710447853431,-0.004480068023502827
1772366257142579500,0.182579345703125,-0.03166004363298416,-0.0025742800679523494,0.0022937004277482627
1772366257152649500,0.1926494140625,-0.03222118464708328,-0.0042756223594304175,0.010835391866974532
1772366257162719500,0.202719482421875,-0.02850245638489723,0.005571525655174627,-0.0030405367396771905
1772366257172790500,0.21279052734375,-0.028492519512772558,0.005943354642251506,0.002244454458542168
1772366257182860500,0.222860595703125,-0.034927520996332166,0.004640281820204109,0.0007208250878378748
1772366257192930600,0.2329306640625,-0.034036709636449815,0.0021855273455381394,0.0018977233801037072
1772366257203000600,0.24300048828125,-0.0292401230096817,0.0037590420062653717,-0.00032689386680722233
1772366257213071600,0.253071533203125,-0.028479660031199453,0.0005343900044914335,0.004622581766732037
1772366257223141400,0.263141357421875,-0.03416530445218086,0.0001615837698802352,0.00211147572863847
1772366257233211400,0.27321142578125,-0.022971710264682768,0.00015454210774041712,0.0010434081057086586
1772366257243282400,0.283282470703125,-0.02983925794661045,0.0015850133022759108,-0.0016742533551529048
1772366257253352400,0.2933525390625,-0.048699441239237785,-0.001900381128070876,-0.0028931641582399603
1772366257263422500,0.30342236328125,-0.0053021980613470075,0.0037865693340077993,-0.003354388461820781
1772366257273492500,0.313492431640625,-0.03223813578188419,0.002788507340522483,0.009918532750383019
1772366257283563500,0.3235634765625,-0.02130640740096569,-0.003663828870328143,0.00336450799703598
1772366257293633500,0.333633544921875,-0.028950200152397153,0.00543135913265869,0.0014354030979797244
1772366257303703600,0.34370361328125,-0.03045709758400917,0.0037254045981448144,-0.0005979293605312705
1772366257313774600,0.353774658203125,-0.0348041868776083,-0.010498296266561373,0.005245280242338776
1772366257323844400,0.36384423828125,-0.03091536274552345,-0.006771905287727713,0.00898030205219984
1772366257333914600,0.37391455078125,-0.0315057298541069,0.005903835482615977,-0.001109751340188086
1772366257343984600,0.383984619140625,-0.021322774013876913,0.0013651326070539653,-0.005743219827115536
1772366257354055400,0.394055419921875,-0.026124621337652205,-0.010127700255345552,-0.0018401114413514731
1772366257364125400,0.40412548828125,-0.03390577673316002,-0.00035504224905744195,-0.001687660825997591
1772366257374195500,0.414195556640625,-0.028499533775448796,0.0047973081459756935,0.007369688517786562
1772366257384265500,0.424265380859375,-0.03193944509625435,-0.0033010691056959327,-0.0045647140996530645
1772366257394336500,0.43433642578125,-0.019089315873384475,0.0042148320829030125,-0.004905307698249817
1772366257404406500,0.444406494140625,-0.02852817534804344,0.0010257445848546921,-0.00018036153558641672
1772366257414476300,0.454476318359375,-0.024926351463794707,0.001800382219161838,0.009900631767511367
1772366257424547300,0.46454736328125,-0.022377251502871513,0.0030212292510084808,0.005837364383973181
1772366257434617600,0.47461767578125,-0.03315758871436119,-0.004257237319368869,-0.006078918054886162
1772366257444687600,0.4846875,-0.028967151287198064,0.001105714485887438,0.0005077668590471148
1772366257454757400,0.49475732421875,-0.02553893040418625,0.00702686642948538,0.00319938056319952
1772366257464828400,0.504828369140625,-0.03704816641211509,0.0017986012540291993,0.0006635419426485895
1772366257474898700,0.514898681640625,-0.026563012754917143,0.009247446822095662,0.0017902809502556918
1772366257484968400,0.524968505859375,-0.029852117428183556,0.003300457184342667,0.001263772858120501
1772366257495038500,0.53503857421875,-0.04362754480242729,-0.003161331841442734,-0.0005890884669497608
1772366257505109500,0.545109619140625,-0.03015899142026901,-0.001104728105198592,0.003928096696548164
1772366257515179500,0.555179443359375,-0.03148994776308536,0.005491756683541462,0.003700936877168715
1772366257525249500,0.56524951171875,-0.026399346625804898,0.0009455189554952085,0.0028669702710583805
1772366257535320600,0.575320556640625,-0.027145196557044983,-0.0036994755724444983,0.0036290041521191596
1772366257545390600,0.585390625,-0.03567337092757225,-0.004394983555935323,0.0039268911201506855
1772366257555460400,0.59546044921875,-0.02340074933171272,-0.002286804896080866,0.000037628596648573876
1772366257565530600,0.605530517578125,-0.02579553551375866,0.003964044792763888,0.00012822948954999445
1772366257575601700,0.6156015625,-0.022048165678977966,-0.003479549211449921,-0.002108735782280564
1772366257585671400,0.62567138671875,-0.03401508232653141,-0.002656551523925736,-0.002151515478082001
1772366257595741400,0.635741455078125,-0.03596270926296711,-0.0017419574296567589,0.007673968693986535
1772366257605811700,0.645811767578125,-0.029230186137557027,0.0033872404186520723,-0.0022159224838018414
1772366257615882500,0.655882568359375,-0.02623509597480297,0.0016422233822289854,-0.0010761413315311073
1772366257625952500,0.665952392578125,-0.03685819679796695,-0.003041112128412351,-0.0014764292281121015
1772366257636022500,0.6760224609375,-0.032960020315647126,-0.0005411668051499873,-0.0010558291958644985
1772366257646093600,0.686093505859375,-0.027267946153879164,-0.00038387561789713796,-0.000961940367333591
1772366257656163300,0.696163330078125,-0.029219664743542668,-0.0029241894841659814,-0.0009213526286184787
1772366257666233600,0.706233642578125,-0.033409517648816105,-0.004200611761305481,0.0014869140895083545
1772366257676303400,0.716303466796875,-0.03461304821968078,-0.0023637517229653893,0.002678900353051722
1772366257686374400,0.72637451171875,-0.02324351294338703,-0.00533579893684946,0.0018388327997177838
1772366257696444000,0.73644384765625,-0.020102292308211325,0.0018672460434492675,0.0024085224464535713
1772366257706514000,0.746513916015625,-0.027435119414329526,0.0020192217347677795,0.008113931013830006
1772366257716585000,0.7565849609375,-0.033116672182083126,-0.0027351605849340556,0.011669869929738341
1772366257726654700,0.76665478515625,-0.022788754913210866,-0.0023859909542370585,0.00997720413506031
1772366257736724700,0.776724853515625,-0.02921791117787361,-0.0011018694278318434,0.0002341740820556879
1772366257746795000,0.786794921875,-0.02651566648185253,-0.013404575634701177,-0.0001685980325564742
1772366257756865800,0.79686572265625,-0.022621581652760504,-0.0016374193429481237,0.008416786417923866
1772366257766935800,0.806935791015625,-0.014104513198137282,0.007725708014378324,-0.006202252173610031
1772366257777005800,0.817005859375,-0.02398644026517868,-0.005030431915260851,-0.0019948270790278912
1772366257787075800,0.827075927734375,-0.022660744619369507,-0.01130203213118948,-0.0009933584189042448
1772366257797147000,0.83714697265625,-0.04437164116799831,-0.0032399043698329477,0.002745389718003571
1772366257807217000,0.847216796875,-0.030016952601075172,-0.0014890147150494158,0.0023535043235868216
1772366257817286700,0.85728662109375,-0.027167992910742757,-0.008558505576709285,-0.0026104382267221806
1772366257827357700,0.867357666015625,-0.05199731374084949,-0.002724949718173593,0.0003453793715685606
1772366257837428000,0.877427978515625,-0.024323124873638153,0.005696421543322503,0.002742467108555138
1772366257847498000,0.887498046875,-0.03000000146627426,-0.01106746532348916,0.006349624755047262
1772366257857567700,0.897567626953125,-0.028646833291649815,0.005879970549838617,0.0008445245327427983
1772366257867638800,0.907638671875,-0.03567512449324131,-0.0024586817311123012,0.010985979318805038
1772366257877708800,0.917708740234375,-0.03148468706607818,-0.004068427615845575,0.006663586075045168
1772366257887778800,0.92777880859375,-0.025495091262459753,0.001450609800266102,-0.0026741511126980185
1772366257897848800,0.937848876953125,-0.034172903236746786,-0.001166714824968949,-0.0017366875994950532
1772366257907920000,0.947919921875,-0.03595569500029087,0.0007378127552568912,-0.0016109057953581213
1772366257917989600,0.95798974609375,-0.02622632814645767,0.0019006277232430874,0.0008493468383327126
1772366257928060000,0.968059814453125,-0.025032734447717666,0.00013635799707844852,0.008582169580087066
1772366257938131000,0.978130859375,-0.030564065089821815,0.0037852450266014784,0.0034846637779846787
1772366257948201000,0.988200927734375,-0.027269699719548224,0.0031475225117988882,0.003858173265494406
1772366257958270700,0.998270751953125,-0.03550035244822502,0.009467985104443504,0.00145542297270149
1772366257968341000,1.008341064453125,-0.027273206850886342,0.0016115907819475978,-0.004165266453288495
1772366257978412000,1.018412109375,-0.03221475490629673,-0.007444890912156552,0.0007140300208702683
1772366257988481800,1.028481689453125,-0.018149989196658133,0.006170039537595585,-0.0017354454904794693
1772366257998551800,1.0385517578125,-0.03955050462186336,0.0021062332979403433,-0.0032881913578137753
1772366258008621800,1.048621826171875,-0.03266775937080383,-0.0032135826184879986,0.0025483327759429813
1772366258018692600,1.058692626953125,-0.02114215674996376,-0.0058749564480036496,-0.0020389584816992283
1772366258028763000,1.068762939453125,-0.03432254084050655,-0.0029459263919387013,0.0027936858391389248
1772366258038833000,1.0788330078125,-0.0253448691368103,-0.00012997392206452786,-0.008898468987643718
1772366258048904000,1.088904052734375,-0.03448036175072193,-0.005006475650938228,-0.0011563304282724857
1772366258058973700,1.0989736328125,-0.03298457023501396,0.008128005204955116,-0.0018877499753609298
1772366258069044000,1.1090439453125,-0.03687748602032661,0.005984883095882833,0.0028395708074793217
1772366258079113700,1.11911376953125,-0.03388941012024879,-0.000550656152702868,0.0003174684513360262
1772366258089184800,1.129184814453125,-0.035386955201625825,0.0029474881613627073,0.00729932669531554
1772366258099254800,1.1392548828125,-0.02775309932231903,0.0012306651729624717,0.0067689096130430695
1772366258109325000,1.149324951171875,-0.032386604341864585,0.006838495117379352,-0.006742496530152857
1772366258119394800,1.159394775390625,-0.03313011618554592,-0.0003824234463274479,-0.0039590398240834474
1772366258129465900,1.1694658203125,-0.027890461966395375,0.004316319695999845,-0.004638656118698418
1772366258139536000,1.179535888671875,-0.03372632851302623,-0.0009047942194622009,0.005958835339173674
1772366258149605600,1.189605712890625,-0.03372399042546749,-0.0002452982642687857,0.004650711882673204
1772366258159676000,1.199676025390625,-0.031766426616907116,-0.000209770293161273,0.0002866349216550588
1772366258169747000,1.209746826171875,-0.03326280265450477,-0.007972020058799534,0.00043583413399755954
1772366258179816700,1.219816650390625,-0.025475802040100096,-0.012173362472467125,0.004725859478116035
1772366258189886700,1.22988671875,-0.03445581183135509,0.004177587078744546,-0.0027958412636071442
1772366258199957800,1.239957763671875,-0.030416765573620795,0.0031632680702023204,0.004710881104692816
1772366258210028000,1.250028076171875,-0.023235914158821105,-0.003276199525920674,-0.004017017089016735
1772366258220097800,1.260097900390625,-0.03327157048285007,-0.0003196695415768772,-0.001103285066783428
1772366258230167800,1.270167724609375,-0.038514147311449046,-0.0019613997334614395,0.010904475047811866
1772366258240238800,1.28023876953125,-0.033276831179857254,0.0037505481725558635,0.004780694937892258
1772366258250308900,1.290308837890625,-0.025643559822440147,0.002691193579044193,0.0003280994432047009
1772366258260379000,1.30037890625,-0.03312134835720062,-0.0019021072942763566,0.00043020811080932614
1772366258270449000,1.310448974609375,-0.031169629767537115,-0.0036400552690960463,0.008777253760769963
1772366258280519700,1.320519775390625,-0.030275895798206328,-0.005280926944455131,0.0033005393827334043
1772366258290589700,1.330589599609375,-0.03985211791694164,0.0021040322076994926,0.0025707272708415984
1772366258300660000,1.340659912109375,-0.033711130943894385,0.0037538087087217718,-0.0002906169770285487
1772366258310731000,1.35073095703125,-0.04298807785511016,0.0011471972737461327,0.009174071058630943
1772366258320800800,1.36080078125,-0.04029050933420658,-0.0018143559455871582,-0.002879099100269377
1772366258330870800,1.370870849609375,-0.028315409380197522,-0.0036389410242438315,-0.005043072201125324
1772366258340941000,1.380941162109375,-0.025474632996320724,-0.004730307324370369,-0.0009199643891304731
1772366258351011800,1.39101171875,-0.029365795215964316,-0.007926482150331138,0.00011178981140255927
1772366258361081900,1.401081787109375,-0.03655716802477836,-0.0014423990943469107,-0.005039893863350153
1772366258371152000,1.41115185546875,-0.0335620778620243,-0.00270524950386025,0.003527114680223167
1772366258381222000,1.421221923828125,-0.03536006719470024,-0.0008693301804363727,0.0025854499159380794
1772366258391293000,1.43129296875,-0.02607902863025665,0.0075860255490522825,0.002042392547801137
1772366258401363000,1.441363037109375,-0.03624444881379604,0.0002257259141188115,0.0019563582321628927
1772366258411432700,1.4514326171875,-0.03340133434236049,-0.0033018636901397257,-0.004344312814623118
1772366258421502700,1.461502685546875,-0.029662147814035415,-0.000676054364349693,-0.0018254253288730977
1772366258431573800,1.47157373046875,-0.011102408772706985,0.0012979856549762189,-0.010992883983626961
1772366258441644000,1.48164404296875,-0.047458501267433166,-0.0038358153032138943,0.0022937734929844734
1772366258451713800,1.4917138671875,-0.05164543156325817,0.005539678345341235,-0.006770042124204337
1772366258461784800,1.501784912109375,-0.033843232890963554,0.005065996418986469,0.0006281053030863404
1772366258471854800,1.511854736328125,-0.039980128210783006,0.0037600192537996916,-0.001079831125959754
1772366258481924900,1.5219248046875,-0.034595512562990184,-0.0011453615096863358,-0.002923851557448506
1772366258491995000,1.531994873046875,-0.02890285387933254,0.004832105464721098,-0.00277549259532243
1772366258502066000,1.54206591796875,-0.030392800176143646,0.0012009824207518248,-0.0006933160264044999
1772366258512135700,1.5521357421875,-0.025450083076953886,-0.0037467944460455324,0.006884133490547537
1772366258522206000,1.5622060546875,-0.028581951361894606,-0.0002569887020625174,-0.0052967181686311956
1772366258532276000,1.57227587890625,-0.03620411680340767,0.0007645089659374207,0.0032860724659636614
1772366258542347000,1.582346923828125,-0.027077976539731024,0.005629009729763493,0.005364778436161577
1772366258552416800,1.592416748046875,-0.044885435909032816,0.0011558646373916416,-0.0016878069564700126
1772366258562486800,1.60248681640625,-0.03860299463868141,0.0018340104941278695,-0.004106777731701731
1772366258572556800,1.612556884765625,-0.03261632144451141,-0.013303051488986238,-0.0004985606392845511
1772366258582627800,1.6226279296875,-0.03890168532431126,-0.005094902853062376,-0.0048224151877686375
1772366258592697900,1.63269775390625,-0.02932370963990688,-0.0033285416345112022,-0.011234437654539941
1772366258602768000,1.642767822265625,-0.03007891192138195,0.00406325825038366,0.005233005282655358
1772366258612838000,1.652837890625,-0.028587796580791473,0.0005389474486000835,0.0022867592303082345
1772366258622909000,1.662908935546875,-0.03323006942868233,-0.005688101239548996,-0.0006566007452085613
1772366258632979000,1.67297900390625,-0.03741875329017639,0.004267859178083017,-0.003034910716488957
1772366258643048700,1.683048583984375,-0.03966273282468319,0.00036612989865243434,-0.004076272995583712
1772366258653119700,1.69311962890625,-0.03022738048136234,0.0033325510893482714,-0.003576762508228421
1772366258663190000,1.70318994140625,-0.02588204475343227,0.0029167459632270035,0.0046432592285797
1772366258673259800,1.713259765625,-0.025282909816503524,-0.00026943719168193636,0.0034528804002329706
1772366258683329800,1.723329833984375,-0.03575637303590774,-0.004978729127487168,-0.0016254823099821805
1772366258693400800,1.73340087890625,-0.030219197174906728,0.00030812523425556717,-0.002655300281755626
1772366258703471000,1.74347119140625,-0.025279402685165403,-0.0006535776710603386,-0.0016924100663512943
1772366258713541000,1.753541015625,-0.02512391986250877,-0.0014402528030332178,-0.0008190978305414318
1772366258723611100,1.763611083984375,-0.03904138605594635,-0.00326243586204946,-0.001275317165441811
1772366258733682200,1.77368212890625,-0.0270703777551651,-0.0005331478954758495,0.002177197908610105
1772366258743752000,1.783751953125,-0.025878537622094154,0.0034113336802925913,0.001027626014687121
1772366258753822200,1.793822265625,-0.02543254742026329,-0.001866095265978947,0.0020330401975661517
1772366258763892200,1.803892333984375,-0.03336977016031742,0.005178800010541454,-0.004542210006900131
1772366258773963000,1.813962890625,-0.02948503768146038,0.000009060089290142059,-0.013188019407726823
1772366258784033000,1.824032958984375,-0.023496610921621322,-0.012413135178247466,-0.006248539000749588
1772366258794103000,1.83410302734375,-0.03442366312742233,-0.0019180720483884214,0.0013121055118739604
1772366258804173000,1.844173095703125,-0.038766660767793656,-0.000744872683705762,-0.004304894119687378
1772366258814244000,1.854244140625,-0.023956629648804663,-0.0032993703389540313,0.002215411027148366
1772366258824314000,1.864314208984375,-0.03698036187291145,-0.003837212675856426,-0.0026979703797027467
1772366258834384100,1.874384033203125,-0.033391397470235826,-0.00464248291044496,0.0012694719465449452
1772366258844455000,1.884454833984375,-0.03833236100375652,0.002443840355006978,0.00031830870155245063
1772366258854525200,1.894525146484375,-0.036080782684683795,-0.0016291081723291427,0.002714154329523444
1772366258864595200,1.90459521484375,-0.029646365723013875,-0.0038966512455139305,0.0019996128519997
1772366258874665000,1.9146650390625,-0.03862696003615856,-0.0026706896471325307,0.002099018105864525
1772366258884736000,1.924736083984375,-0.03293722396194935,-0.0034243301591835914,0.0020301906533539294
1772366258894806300,1.93480615234375,-0.028895839616656302,-0.0007510466961655766,-0.0028937852127477524
1772366258904876000,1.9448759765625,-0.03324059082269668,-0.007563530589453875,-0.004493110168166458
1772366258914946000,1.954946044921875,-0.02725800928175449,-0.0038718729972839353,0.005316993771679699
1772366258925017000,1.96501708984375,-0.02606909175813198,0.00286571902888827,0.0007905658558011055
1772366258935087000,1.975087158203125,-0.04178805441558361,-0.0020814641828648746,0.000189531222730875
1772366258945157000,1.9851572265625,-0.03939852893054485,0.0027843517552129924,0.005304609214141965
1772366258955227100,1.99522705078125,-0.03626315351426601,0.010554410367971286,-0.0031974808670580386
1772366258965298200,2.005298095703125,-0.033869536375999446,0.005930285098124295,-0.007851371087506413
1772366258975368000,2.015367919921875,-0.03206979347765446,0.002939350520679727,-0.0006077566348016262
1772366258985438200,2.025438232421875,-0.03745616269111633,0.0030817911986727267,0.0007484072145074606
1772366258995508200,2.03550830078125,-0.035520226192474365,0.004036945632193237,0.003877097161673009
1772366259005579000,2.0455791015625,-0.03717208505272865,-0.003391112876171246,0.006903020854108035
1772366259015649000,2.05564892578125,-0.02999941694438457,0.004170773745467886,-0.005752426046878099
1772366259025719000,2.065718994140625,-0.027470190727710724,-0.002543309540953487,-0.005943455106951296
1772366259035789000,2.0757890625,-0.02882569698989391,0.0027128939541988073,0.0022157032880932093
1772366259045860000,2.085860107421875,-0.03556114272475242,0.00018052593236789107,-0.0009703063368797302
1772366259055930000,2.09593017578125,-0.03196691762506962,-0.005169475059770047,0.0042226591963320965
1772366259066000000,2.105999755859375,-0.03376490695774555,-0.004552110346406698,-0.0019259996265172958
1772366259076070100,2.116070068359375,-0.030178280642628667,-0.002259460231428966,0.0019089388938620686
1772366259086141200,2.12614111328125,-0.03766308344006538,-0.0024276107394136485,0.0036725875655189153
1772366259096211200,2.136211181640625,-0.023899346503615377,-0.005241352985892444,-0.005668145296908914
1772366259106281000,2.146281005859375,-0.020910101559758185,0.0022181144408881664,-0.007871902418881655
1772366259116352000,2.15635205078125,-0.02301262679696083,0.0029431864455807953,-0.0002662131881341338
1772366259126422300,2.16642236328125,-0.026907880669832226,-0.002504155707499012,0.002455649523809552
1772366259136492000,2.176491943359375,-0.03303776172697544,-0.0014584186473861336,-0.010292992085963487
1772366259146562000,2.18656201171875,-0.03229775701463222,0.00010012677307240664,0.0015094912474974988
1772366259156633000,2.196633056640625,-0.026163784304261205,0.0006923205125611275,0.0007287891985848546
1772366259166703000,2.206703125,-0.026461890468001365,-0.0010938505181577057,-0.0013323811149224638
1772366259176773000,2.216773193359375,-0.023024901756644248,-0.0031956907687708735,-0.006376183968409895
1772366259186843100,2.226843017578125,-0.025878537622094154,0.0006232190654147416,-0.0034414091581478714
1772366259196914200,2.2369140625,-0.037405309286713595,-0.0019473438086453825,0.006024594051763415
1772366259206984000,2.24698388671875,-0.03112929775714874,-0.003025996757671237,0.0007641893055289983
1772366259217054200,2.25705419921875,-0.037571898025274275,-0.0015147884771227835,-0.0036319632941856977
1772366259227124000,2.2671240234375,-0.026503976044058797,-0.003419790981383994,-0.009576916238479316
1772366259237195000,2.277195068359375,-0.025010522615909574,0.004134624719852581,0.002790580566599965
1772366259247265000,2.28726513671875,-0.046862873461842536,-0.00024510646802373227,-0.0013681465480476617
1772366259257335300,2.297335205078125,-0.01289864453971386,-0.0011396898207254708,-0.0020381912967190143
1772366259267405000,2.307405029296875,-0.03475041086375713,0.00048640441060997545,0.0005378332037478686
1772366259277476000,2.31747607421875,-0.03804185362458229,-0.002831707161432132,-0.0016928484577685594
1772366259287546000,2.327546142578125,-0.03775251528918743,0.0016658051872160285,-0.003708864455297589
1772366259297616100,2.3376162109375,-0.022636779221892354,-0.0026291611935012043,-0.004428337836265564
1772366259307686100,2.34768603515625,-0.03685059801340103,0.00312370324479416,-0.0023994988897815344
1772366259317757200,2.357757080078125,-0.03356558499336242,0.01218191110510379,-0.006453486988320946
1772366259327827000,2.367826904296875,-0.027734979143738746,0.007899941203277557,-0.0018003639528527855
1772366259337897000,2.37789697265625,-0.0280418531358242,0.004106576802302152,-0.0023968320086598396
1772366259347967200,2.38796728515625,-0.03177928609848022,0.0022494137614499777,0.0014367548048496246
1772366259358038300,2.398038330078125,-0.03267944980859756,-0.008056766599649563,-0.004742079960554838
1772366259368108000,2.40810791015625,-0.026100071418285367,0.0017193346058949827,-0.0028872093414887786
1772366259378178000,2.418177978515625,-0.02999532529115677,-0.0020670794644858685,-0.0020955475071445105
1772366259388248300,2.428248291015625,-0.030448914277553557,-0.0045984793719369916,0.00018722966779023407
1772366259398319000,2.438319091796875,-0.03599836509823799,0.001845180342113599,0.00410137090422213
1772366259408389000,2.44838916015625,-0.04169160830378532,0.0006909596725367009,0.004407916102744639
1772366259418459100,2.458459228515625,-0.03241290782690048,-0.0037791623456869274,0.0038389205757528543
1772366259428529200,2.468529052734375,-0.029860300734639165,0.006400679088849574,0.004331964789703488
1772366259438600000,2.478599853515625,-0.039130817905068394,-0.00021171565507538615,0.0038806042930111286
1772366259448670200,2.488670166015625,-0.034490883144736285,0.00121441729106009,-0.00401252357698977
1772366259458740000,2.498739990234375,-0.03434183006286621,0.004872400942491367,-0.0026566885212436315
1772366259468811000,2.50881103515625,-0.03359422656595707,-0.002639618655433878,-0.004328348060511052
1772366259478881000,2.518881103515625,-0.03224865717589855,-0.00781965164183639,-0.0029884777588769793
1772366259488951300,2.528951416015625,-0.038678982484340665,-0.0011127561480272562,-0.0008116817090660333
1772366259499021000,2.53902099609375,-0.028356910434365272,0.00038735534977167845,0.007498758257552981
1772366259509092000,2.549092041015625,-0.03299216901957989,0.0004051924005616456,-0.0007904562579467892
1772366259519162000,2.559162109375,-0.02730944720804691,0.0037966158039867874,0.0004995835525915027
1772366259529232100,2.569232177734375,-0.03928630072772503,-0.0007343604228459298,0.0013202522857114671
1772366259539302100,2.57930224609375,-0.025819500911235808,0.003141567695047706,-0.008720372474379836
1772366259549373200,2.589373291015625,-0.0359936889231205,0.011963537380378692,-0.006605937603674829
1772366259559443000,2.59944287109375,-0.03674129242002964,-0.0007736329873092472,0.0053795010812580585
1772366259569513000,2.609512939453125,-0.0342027138531208,-0.0030804851575754583,-0.0004350669490173459
1772366259579583200,2.619583251953125,-0.02357727494239807,-0.0032454573277849704,-0.0030720278564840553
1772366259589654300,2.629654296875,-0.03375204747617244,0.006621016441797837,-0.0009747267836704849
1772366259599724000,2.63972412109375,-0.02926058127582073,-0.0046902127759996795,0.00650974722020328
1772366259609794000,2.6497939453125,-0.04047814086079597,-0.0018518749443814158,-0.00355582931805402
1772366259619864000,2.659864013671875,-0.03120294751524925,-0.002115476050321013,-0.0014670403452590108
1772366259629935000,2.66993505859375,-0.033895839861035344,0.004163302825065329,-0.004596460944786667
1772366259640005000,2.680005126953125,-0.037484219741821284,0.0034784258334431793,-0.0009972674090415238
1772366259650075100,2.6900751953125,-0.03583703705668449,0.0005482084672898054,0.0015926029536873101
1772366259660145200,2.700145263671875,-0.018024316990375516,0.0058443238477222615,0.00651508098244667
1772366259670216200,2.71021630859375,-0.036280104649066926,0.0004912358493544161,0.004097352316230535
1772366259680286200,2.7202861328125,-0.03688040862977505,-0.007662351321429014,-0.003285962868109345
1772366259690356000,2.73035595703125,-0.02686345700621605,-0.002329611991345882,-0.004683079782314598
1772366259700426500,2.740426513671875,-0.02865852372944355,-0.0008186685722786932,0.0039704380009323356
1772366259710497300,2.750497314453125,-0.027165070301294326,0.008026727654412388,0.002714410057850182
1772366259720567600,2.760567626953125,-0.025672201395034788,0.016502569049503653,-0.0001825534926727414
1772366259730637600,2.770637451171875,-0.02867664390802383,0.005425568712688982,-0.00387406495437026
1772366259740707300,2.780707275390625,-0.040353053176403045,0.0035048937152605503,-0.0018764248637482522
1772366259750778400,2.7907783203125,-0.03750935418307781,-0.0010239453534130008,-0.003374992858432233
1772366259760848600,2.8008486328125,-0.04379179545342922,-0.007852238737186417,-0.0025303221952170133
1772366259770918400,2.81091845703125,-0.04289572339653969,0.0060291058300994335,0.0007452654093503951
1772366259780988400,2.820988525390625,-0.03002747399508953,0.007838374608615414,0.002687522050924599
1772366259791059500,2.8310595703125,-0.03136427555680275,0.0023793694172054526,-0.00029112843368202446
1772366259801129500,2.84112939453125,-0.03180851219296455,0.005145043871412054,0.005632964385673404
1772366259811199500,2.851199462890625,-0.03435878119766712,-0.00722216980587691,0.002996368804387748
1772366259821269500,2.86126953125,-0.029275194323062893,-0.0006982935956213622,-0.00818842102214694
1772366259831340500,2.871340576171875,-0.03317103271782398,0.003954829439846799,-0.00006886398512870072
1772366259841410300,2.881410400390625,-0.029728783309459685,0.006580172974755987,0.005356741260178387
1772366259851480600,2.89148046875,-0.04304653004407882,-0.0044227392125409095,-0.0007969590639695525
1772366259861550600,2.901550537109375,-0.03107669078707695,0.012463321862369776,-0.0045757469503208996
1772366259871621400,2.911621337890625,-0.02809679819345474,-0.004941493256483227,-0.00393481869827956
1772366259881691400,2.92169140625,-0.025709026274085042,0.0023065781756304205,-0.00268671833332628
1772366259891761700,2.93176171875,-0.03304185338020325,0.005805745403002947,-0.0023874065931886435
1772366259901831400,2.94183154296875,-0.03140168495774269,0.015567671952722593,-0.0026505510414019224
1772366259911902500,2.95190234375,-0.035598552125692365,0.0038225265633780505,0.004992511057667434
1772366259921972500,2.961972412109375,-0.02961655510663986,-0.003146508731646463,0.0031388094823807475
1772366259932042200,2.972042236328125,-0.030364158603549,0.001462775162095204,-0.003110971627384424
1772366259942112500,2.982112548828125,-0.02781272055506706,-0.00241486085569486,-0.003400090767070651
1772366259952183600,2.99218359375,-0.037842531660199165,0.004547278907662257,-0.0015505904428660868
1772366259962253600,3.002253662109375,-0.03140519208908081,0.0022090908842161295,-0.006417940750904381
1772366259972323300,3.0123232421875,-0.03634440205693245,-0.002599341443972662,0.0002950008912011981
1772366259982393600,3.0223935546875,-0.02826455597579479,0.004288025183277204,-0.0012522650834172963
1772366259992464600,3.032464599609375,-0.028260464322566986,0.005692393822176381,0.0052260640852153295
1772366260002534400,3.042534423828125,-0.033498949497938156,0.00916894735894166,0.0055011181669309735
1772366260012604400,3.0526044921875,-0.03664192369878292,0.008903565287869423,0.005378989624604582
1772366260022674700,3.0626748046875,-0.030060207220911978,-0.004930405606888235,-0.0030664383659139275
1772366260032745500,3.072745361328125,-0.023170447707176207,-0.004870145053323358,-0.001001907051540911
1772366260042815500,3.0828154296875,-0.028258710756897926,0.003132690268848091,0.0013994915343821049
1772366260052885500,3.092885498046875,-0.03080605715215206,0.001435859755706042,-0.0009356003496795892
1772366260062955300,3.102955322265625,-0.022421675166487694,0.0043305491507519035,0.0025816505236551162
1772366260073026300,3.1130263671875,-0.031852935856580736,-0.004590387397026643,0.0035646336790174245
1772366260083096600,3.1230966796875,-0.02886193734705448,0.0031794885526411232,0.0027655191905796525
1772366260093166300,3.133166259765625,-0.02976210105717182,0.005508232894307002,-0.004771415652893483
1772366260103236400,3.143236328125,-0.042184944778680795,0.0034286227418109773,-0.0006523994941264391
1772366260113307400,3.153307373046875,-0.040540684702992436,0.001141014128131792,0.0077131316605955355
1772366260123377700,3.163377685546875,-0.03515022383630276,0.006055719842389225,0.0023970877369865772
1772366260133447400,3.173447509765625,-0.029013328516483305,-0.002458937459439039,0.007831680006347597
1772366260143517400,3.183517333984375,-0.039488545301556585,-0.00037159152505919334,0.0004787599602714181
1772366260153588500,3.19358837890625,-0.033197920724749565,0.0010758673368953169,-0.002356207737326622
1772366260163658500,3.203658447265625,-0.037382512933015824,0.0009784622438717633,0.0062577817531302565
1772366260173728500,3.213728515625,-0.03782441148161888,-0.0014814250636380165,-0.0007535583136603236
1772366260183798500,3.223798583984375,-0.0294406140178442,0.005668720685644075,-0.00004117226060479879
1772366260193869300,3.233869384765625,-0.03812310216724872,-0.0032220855853520333,0.002450936816073954
1772366260203939300,3.243939208984375,-0.028249358406662938,-0.0015235380391590296,-0.003432056807912886
1772366260214009600,3.254009521484375,-0.043371524214744564,0.005211761565227061,0.0037091567162424325
1772366260224079400,3.264079345703125,-0.03513911792039871,0.01076274675587192,0.0008990677315741777
1772366260234150400,3.274150390625,-0.03199439015388489,0.00539234229652211,0.0009525880170986056
1772366260244220400,3.284220458984375,-0.03588204524219036,0.009394865069305524,0.0004016761360689997
1772366260254290700,3.294290771484375,-0.0417184963107109,-0.0024075725983828304,-0.0010680676229298115
1772366260264360400,3.3043603515625,-0.03289396934211254,0.0012480729654897004,0.0014032543940469622
1772366260274431500,3.314431396484375,-0.03229132727384567,0.0002378182107117027,0.0012001695699989795
1772366260284501500,3.32450146484375,-0.0352834948271513,0.0006497234798502177,0.0009322758814319967
1772366260294571500,3.334571533203125,-0.034384500160813326,0.0019463574279565362,0.0026029855726286766
1772366260304641500,3.3446416015625,-0.025258944419026375,-0.001973291100654751,0.004042261128127575
1772366260314712600,3.354712646484375,-0.03289221577644348,-0.005538143975380808,0.0058027679946273565
1772366260324782300,3.3647822265625,-0.031090719312429425,-0.0021069822166115046,-0.0036889176458120344
1772366260334852400,3.374852294921875,-0.04425999748706817,-0.0003124269500374794,0.0001765621433034539
1772366260344922600,3.384922607421875,-0.04215571868419647,-0.0026579945623409003,0.001744213318824768
1772366260354993700,3.39499365234375,-0.035567572465538974,0.009025164107233285,0.0000323313670232892
1772366260365063400,3.4050634765625,-0.04155015400648117,0.0040708296354860065,0.0039935266155749554
1772366260375133400,3.415133544921875,-0.035117490610480306,0.011631099688773974,0.003182356363162398
1772366260385203500,3.425203369140625,-0.030189386558532712,0.010415339823998511,0.000578713203407824
1772366260395274500,3.4352744140625,-0.03138414930105209,-0.0022894991766661404,-0.001469451498053968
1772366260405344500,3.445344482421875,-0.02749766325652599,0.0051825720033608375,-0.0008426248366013169
1772366260415414500,3.45541455078125,-0.03154138568937778,0.0013960209356620908,0.00027110855896025893
1772366260425484500,3.465484619140625,-0.030649405285716056,-0.003408447603462264,0.0008860621195286512
1772366260435555600,3.4755556640625,-0.04621639225184917,0.0043066294190473855,0.006638999623060226
1772366260445625600,3.48562548828125,-0.03978372885584831,0.000488514169305563,-0.005060498259961604
1772366260455695400,3.4956953125,-0.029757424882054326,-0.0020944515286013482,-0.008790259372815488
1772366260465765400,3.505765380859375,-0.03155249160528183,0.004540438174922019,0.0027189035698771476
1772366260475836400,3.51583642578125,-0.024366964015364645,0.0028163451955188065,0.0032124592404812573
1772366260485906400,3.525906494140625,-0.03259410961270332,-0.0027411884669214484,0.00519365965295583
1772366260495976400,3.5359765625,-0.03004793226122856,0.0022032913310918957,0.007299144032225012
1772366260506046500,3.54604638671875,-0.026156185519695282,0.0062903414490167045,0.0013214943947270513
1772366260516117500,3.556117431640625,-0.03902209683358669,0.000029463556502014398,-0.005231470912694931
1772366260526187500,3.5661875,-0.040513796696066855,0.0023866942071355877,0.0030961393844336268
1772366260536257500,3.576257568359375,-0.03018295681774616,0.006836193562438711,0.004569536405242979
1772366260546327300,3.586327392578125,-0.031823125240206716,0.009194593256851657,0.0022932255037128924
1772366260556398300,3.5963984375,-0.03810205937922,0.0035386407212354243,0.0069097793884575365
1772366260566468400,3.60646826171875,-0.025084172374010085,-0.0025653021770529446,0.00469071509949863
1772366260576538600,3.61653857421875,-0.021040449941158293,0.00017753939083777368,0.004038973192498087
1772366260586608400,3.6266083984375,-0.03584931201636791,0.003743880969751626,0.00294818228110671
1772366260596679400,3.636679443359375,-0.03315875775814056,-0.0009319653541781008,-0.0033731296949088573
1772366260606749400,3.64674951171875,-0.02956219457089901,-0.002304806343652308,0.0030423268379643556
1772366260616819500,3.6568193359375,-0.030161914029717445,0.002321456084353849,0.008861169184558093
1772366260626889500,3.666889404296875,-0.03150923698544502,0.0008543426738586277,0.0024144041979685424
1772366260636960500,3.67696044921875,-0.041239188361167904,-0.003936928456975147,0.008017375304177402
1772366260647030300,3.6870302734375,-0.032709844946861265,0.004944141871295869,-0.0036686785753816363
1772366260657100500,3.6971005859375,-0.022835516664385793,0.002671520764194429,-0.0008763079104945063
1772366260667170600,3.707170654296875,-0.0285299289137125,-0.002855517295282334,0.0007544350964948535
1772366260677241600,3.71724169921875,-0.033925065955519675,-0.0009248414936475455,0.0020356340134516358
1772366260687311400,3.727311279296875,-0.029594927796721456,0.0031600623329635707,0.0031864845490083096
1772366260697384400,3.737384521484375,-0.03857376854419708,0.004306757283210754,0.0006117021575570106
1772366260707454500,3.747454345703125,-0.04111994589567184,0.004051302951108664,0.008468151278980075
1772366260717525500,3.757525390625,-0.04785188449919223,0.007320479081198573,0.002823606053367257
1772366260727595500,3.767595458984375,-0.03527764960825443,0.004789042641129344,0.0006812602624297142
1772366260737665500,3.77766552734375,-0.029441198539733884,0.0001440389800351113,0.004137866989709436
1772366260747735600,3.787735595703125,-0.024653964263200757,0.007507051161862909,0.0021693068630993365
1772366260757806600,3.797806640625,-0.03408113330006599,0.009684970589680597,0.0012617635641247033
1772366260767876400,3.80787646484375,-0.025554712495207785,0.010316418627323583,0.0018012407356873153
1772366260777946400,3.8179462890625,-0.01927811644375324,0.005880043615074828,-0.0034621962178498504
1772366260788016600,3.8280166015625,-0.03709259007573128,0.0005569306298624724,-0.001512523454800248
1772366260798087400,3.83808740234375,-0.04203063099980354,0.005752745707286521,-0.006457103717513382
1772366260808157400,3.848157470703125,-0.04382862033247947,0.0008127411549910902,0.0011214783105999231
1772366260818227500,3.8582275390625,-0.033055297383666034,0.00007490100027061999,-0.0056273748951032754
1772366260828297500,3.86829736328125,-0.03650573009848594,0.0012829616157803683,-0.006116692782007158
1772366260838368500,3.878368408203125,-0.0357493587732315,0.0035756117307581005,-0.000862973504886031
1772366260848438500,3.8884384765625,-0.030209260302782058,0.0013884404174052177,0.005352613074332475
1772366260858508300,3.89850830078125,-0.037982816913723946,-0.0022034739941824226,0.0028266382606700062
1772366260868578600,3.90857861328125,-0.04276479049324989,-0.009800897720083595,-0.003313216201215982
1772366260878649600,3.918649658203125,-0.03348725906014442,0.0024145868610590693,0.008201280503720045
1772366260888719600,3.9287197265625,-0.03901566709280014,-0.0008531188311520963,0.0024021657709032296
1772366260898789400,3.938789306640625,-0.02613748081922531,0.005219287284556776,0.001689450924284756
1772366260908859400,3.948859375,-0.029275778844952582,0.00960775890131481,0.0007797522008419036
1772366260918929700,3.9589296875,-0.026729016971588134,0.0047275034459307785,0.001604037663154304
1772366260929000400,3.96900048828125,-0.025980244430899618,-0.0016882088152691721,0.0032603169701993463
1772366260939070500,3.979070556640625,-0.03405541433691978,-0.0013317965930327773,0.0026121917923912405
1772366260949140500,3.989140380859375,-0.025518472138047216,0.006313822789303958,-0.001105951947905123
1772366260959208400,3.99920849609375,-0.03299918328225612,0.0021623382661957293,-0.0011938859596848487
1772366260969278500,4.009278564453125,-0.03359656465351581,0.0014826945721171795,0.0034871479960158465
1772366260979349200,4.019349365234375,-0.0319458748370409,0.00421316071562469,-0.005119900297001004
1772366260989419500,4.02941943359375,-0.03178220870792865,-0.005474303225241601,-0.003790441791526973
1772366260999489500,4.039489501953125,-0.029230186137557027,-0.003059341904846951,0.0037337797008454797
1772366261009559300,4.049559326171875,-0.02772913392484188,0.0015280954832676797,0.008315116141736507
1772366261019630300,4.05963037109375,-0.026533786660432813,0.0011127378817182034,0.007504238150268793
1772366261029700600,4.06970068359375,-0.032819735062122345,-0.0030139318605419247,0.004491539265587926
1772366261039770400,4.079770263671875,-0.028034254351258277,0.0026500669842120256,-0.002429894028045237
1772366261049840400,4.08984033203125,-0.03132569711208343,-0.0010782693565357475,0.00690433602835983
1772366261059911400,4.099911376953125,-0.031169629767537115,-0.004966234972095117,0.006778261963278054
1772366261069981700,4.109981689453125,-0.04104220448434353,0.00009210786339826882,-0.0014967413637787103
1772366261080051500,4.120051513671875,-0.0393920991897583,-0.0006917177243623882,0.006241415140219033
1772366261090121500,4.13012158203125,-0.03310673530995845,-0.0026873759204521772,0.0007118015311658382
1772366261100192500,4.140192626953125,-0.03400456093251705,-0.0007513663565739989,0.0021760653974488378
1772366261110262300,4.15026220703125,-0.040296354553103444,0.0011269308038521558,0.004101626632548868
1772366261120332500,4.16033251953125,-0.028477906465530393,-0.004468012259528041,0.004775032382085919
1772366261130402600,4.170402587890625,-0.027433950370550155,0.005008832004806027,0.00602192717064172
1772366261140473300,4.180473388671875,-0.03566109596788883,0.005883541613258421,0.00039502719957381483
1772366261150543400,4.19054345703125,-0.03550619766712188,0.00035038434024900196,-0.003388035003095865
1772366261160613600,4.200613525390625,-0.036112346866726874,0.0013444642783608286,0.006797441587783396
1772366261170683400,4.210683349609375,-0.03431844918727875,0.0009807272661942988,0.0067477572271600365
1772366261180754400,4.22075439453125,-0.03984861078560352,0.004232130277575925,0.0020893369620665907
1772366261190824400,4.230824462890625,-0.03490647820830345,-0.0005729410497471689,-0.0036602395405992863
1772366261200894500,4.24089453125,-0.03580371930897236,-0.002570435009896755,0.0016076543923467398
1772366261210964500,4.250964599609375,-0.030869185516238212,0.0013669501048047094,0.006752177673950791
1772366261221034500,4.261034423828125,-0.03595744856595993,-0.0003341729909647256,0.006727700819820165
1772366261231105500,4.27110546875,-0.02698912921249866,0.006812164232879877,0.0044003538507968185
1772366261241175300,4.28117529296875,-0.037165070790052414,0.00528972217226401,0.0031864845490083096
1772366261251245600,4.29124560546875,-0.03477086912989616,0.0030966143084689974,0.005142879313789307
1772366261261315300,4.3013154296875,-0.025199907708168028,0.006644077656976878,-0.000044862055033445356
1772366261271386400,4.311386474609375,-0.036567104896903034,-0.0005565470373723655,0.0066752765128389
1772366261281456400,4.321456298828125,-0.032220600125193594,0.003523936342447996,0.006385974710062146
1772366261291526700,4.331526611328125,-0.029822891333699225,-0.0052586694468744095,0.0015022577891126274
1772366261301596400,4.341596435546875,-0.02832476173043251,0.0036140714444685726,-0.00757766871266067
1772366261311667500,4.35166748046875,-0.038491350957751275,0.0028803046766668556,0.0005209186015650629
1772366261321737500,4.361737548828125,-0.02711070976555347,0.004459290096955374,0.0039821649713441725
1772366261331807500,4.371807373046875,-0.026216975796222685,0.001189054520940408,0.008535700089856981
1772366261341877500,4.38187744140625,-0.035789690783619876,0.0012177782919257879,-0.000496770540997386
1772366261351948500,4.391948486328125,-0.02860007154047489,0.0020821126368362457,0.009671535719372331
1772366261362018300,4.402018310546875,-0.026802666729688642,-0.005185174952400848,0.008045724615827202
1772366261372088300,4.41208837890625,-0.013781857115030287,0.00007602437827736138,0.0037681934271007775
1772366261382158600,4.42215869140625,-0.03099076606929302,0.004269283950189128,0.0010965630650520324
1772366261392229600,4.432229736328125,-0.02889291700720787,0.00142990493895486,0.0024973332410678267
1772366261402299400,4.44229931640625,-0.026802666729688642,-0.0019129483486991375,0.00990706150829792
1772366261412369400,4.452369384765625,-0.040569910797476766,0.004256113941362128,0.005407959990762174
1772366261422439700,4.462439697265625,-0.03922784853875637,0.004884995562583208,0.00216784555837512
1772366261432510500,4.472510498046875,-0.029802433067560193,0.0010121909835375845,0.00031070991698652507
1772366261442580500,4.48258056640625,-0.029057167658209797,0.00916541282813996,0.0041206966591998935
1772366261452650500,4.492650390625,-0.024717677149176595,0.011741263798670843,-0.0005119315775111318
1772366261462720500,4.502720458984375,-0.03833411456942558,0.010805243323883041,0.008771481607109308
1772366261472791600,4.51279150390625,-0.03922784853875637,0.002132975174393505,-0.000718706195987761
1772366261482861600,4.522861572265625,-0.04072364005446434,0.0022044329754076896,-0.004128258911147714
1772366261492931300,4.532931396484375,-0.04282148911654949,0.005698650033026933,0.0028430048735812305
1772366261503001300,4.54300146484375,-0.021128712746500966,0.009354341262672096,-0.0020237243799492714
1772366261513072400,4.553072265625,-0.023671967488527297,0.015731913470569996,0.0008527809044346213
1772366261523142700,4.563142578125,-0.028012627041339874,0.011001186021091416,0.003040098348259926
1772366261533212400,4.57321240234375,-0.03459434351921081,0.007306825015181675,-0.0023126973891630766
1772366261543285200,4.58328515625,-0.02726911519765854,0.0033180567731149494,-0.002599186180345714
1772366261553355500,4.59335546875,-0.023673721054196357,0.0027714740073308346,0.0006405629258602857
1772366261563425500,4.603425537109375,-0.027411154016852377,0.0060702324249316,-0.0000282031811773777
1772366261573495300,4.613495361328125,-0.03699497492015361,0.006691898854076862,0.002928819993510842
1772366261583566300,4.62356640625,-0.030260113707184788,0.005510552715556696,0.005019727858155965
1772366261593636600,4.63363671875,-0.025475802040100096,0.0018408968926407396,0.0013301891578361392
1772366261603706400,4.643706298828125,-0.027418168279528615,-0.0010803608489222823,0.0024164865572005507
1772366261613776400,4.6537763671875,-0.039083471632003784,-0.006764096440607681,0.006004501111805439
1772366261623847400,4.663847412109375,-0.038330022916197776,0.0005385364566463977,0.00629668899141252
1772366261633917700,4.673917724609375,-0.03831833247840404,-0.00016953874747268854,0.0030876638170331716
1772366261643987500,4.683987548828125,-0.03142798844277859,0.0010857311437837778,0.0035254341797903176
1772366261654057500,4.694057373046875,-0.035759880167245864,-0.0025904822840820997,-0.0016875512281432747
1772366261664128500,4.70412841796875,-0.03245499340295791,0.0026619126856327053,-0.0006586100392043591
1772366261674198300,4.7141982421875,-0.026163784304261205,-0.0021174944774713365,0.002630531166680157
1772366261684268500,4.7242685546875,-0.02690554258227348,0.007960457485169171,0.0017114070277661085
1772366261694338600,4.734338623046875,-0.03318623028695583,-0.002177079177601263,0.0012087912678718567
1772366261704405800,4.74440576171875,-0.023614099821448326,-0.0011772179526742547,0.008013795107603073
1772366261714475500,4.7544755859375,-0.021225158858299255,0.006744131364813074,0.010470650207810104
1772366261724545800,4.7645458984375,-0.03334755832850933,-0.004691920675896108,0.004754464518092572
1772366261734615800,4.77461572265625,-0.03858195185065269,0.002172996657527983,-0.0006888590469956398
1772366261744686600,4.7846865234375,-0.041725510573387144,0.004605731096630916,0.0037510596292093393
1772366261754756600,4.794756591796875,-0.04128068941533565,0.0069262190666049715,0.0028983152573928235
1772366261764827000,4.804826904296875,-0.038434067812561985,0.0020099059171508997,0.009268727072142064
1772366261774896600,4.814896728515625,-0.032898645517230034,0.005623264975566417,0.0020642390534281727
1772366261784966700,4.824966552734375,-0.015990765336155892,0.005636508049629629,0.0007007321478798985
1772366261795037700,4.83503759765625,-0.03664133917689323,0.007306998545117676,0.0014034370571374892
1772366261805107700,4.845107666015625,-0.04128361202478409,0.008185425347462296,-0.0015169073689728974
1772366261815177700,4.855177734375,-0.03664192369878292,0.002535308897588402,0.004686915707215666
1772366261825247700,4.865247802734375,-0.03963467577397823,0.001914126525633037,0.006626578532904386
1772366261835318800,4.87531884765625,-0.032303602233529086,0.002822236080188304,0.005705006708577275
1772366261845388500,4.885388427734375,-0.037843700703978536,0.005286297239316627,0.004590140801854431
1772366261855458800,4.895458740234375,-0.03515665357708931,0.0003489687012974173,0.004304126934707164
1772366261865528800,4.90552880859375,-0.028269232150912284,0.0014863843665458261,0.0015427724625915289
1772366261875599600,4.915599609375,-0.03665536770224571,0.000902958455402404,0.0034638036530464885
1772366261885669600,4.925669677734375,-0.03485971645712852,0.0056568475847598165,-0.00476977168507874
1772366261895740000,4.935739990234375,-0.03530921379029751,0.005252824227977544,0.008836327004246414
1772366261905809700,4.9458095703125,-0.03620879297852516,0.00296846701730974,0.011901778989471494
1772366261915880700,4.955880615234375,-0.035759880167245864,0.007598738900152966,0.003635945349559188
1772366261925950700,4.96595068359375,-0.03546761922240257,0.00214242798932828,0.0035072774685919283
1772366261936020700,4.976020751953125,-0.02963058363199234,-0.001487389013543725,-0.003218669785559177
1772366261946090800,4.9860908203125,-0.03756313019692897,0.005737392874527722,0.005255253647081554
1772366261956161800,4.996161865234375,-0.038766660767793656,0.004607420730218291,0.00677033438514918
1772366261966231800,5.006231689453125,-0.03547872513830662,0.006242401520907878,0.00611826368458569
1772366261976301600,5.016301513671875,-0.034577392384409905,-0.0015990144281648098,0.0021362083110958337
1772366261986371800,5.026371826171875,-0.042642625418305394,0.007335092128440737,0.0015660802729427813
1772366261996443000,5.03644287109375,-0.03680500530600547,0.009243464766722172,0.005219122887775302
1772366262006512600,5.0465126953125,-0.033363924941420556,-0.0023523809455800802,0.003543737021461129
1772366262016582700,5.056582763671875,-0.02707856106162071,0.00029545754892751575,0.013306129362061618
1772366262026653000,5.06665283203125,-0.016610943061113357,0.005218721028976142,0.0010336904292926191
1772366262036723700,5.0767236328125,-0.02783493238687515,0.004936387823102995,-0.005431048605404794
1772366262046793700,5.086793701171875,-0.03188391551673412,-0.0003135685943532735,0.003083352968096733
1772366262056863700,5.09686376953125,-0.03397708840370178,0.002315135941421613,0.004036269778758287
1772366262066933500,5.10693359375,-0.035927637949585915,0.009645314432727172,0.008895181052014232
1772366262077003800,5.117003662109375,-0.035029812327027315,0.007484464870719239,0.0027822145970538255
1772366262087074800,5.12707470703125,-0.027398294535279272,0.004826296778442338,0.0009871113412082194
1772366262097144600,5.13714453125,-0.030690321817994116,-0.0016072434003930537,0.0006865574920549988
1772366262107214600,5.147214599609375,-0.024255904856324194,0.009755460276314989,-0.0005059402281418443
1772366262117284900,5.157284912109375,-0.033681904849410055,0.005236923405947163,-0.0012376155035570262
1772366262127356000,5.16735595703125,-0.039521278527379036,0.0017267507273703814,0.007502703780308365
1772366262137425700,5.17742578125,-0.041323359513282774,0.0008439582771621644,0.00018266309052705765
1772366262147495700,5.18749560546875,-0.029802433067560193,0.0031562720738351345,0.00174395759049803
1772366262157566000,5.19756591796875,-0.027562545186281203,0.008615395996253937,-0.0013590864587575196
1772366262167636700,5.20763671875,-0.03624970951080322,0.012410879289079456,0.0007140300208702683
1772366262177706800,5.217706787109375,-0.03924129254221916,0.0040626280627213416,0.0007218114685267209
1772366262187776800,5.22777685546875,-0.024123802909255025,0.0016935791101306676,0.0031774244597181675
1772366262197846500,5.237846435546875,-0.03445405826568603,0.0018485230766702443,0.00021309476140886544
1772366262207917600,5.24791748046875,-0.03714461252391338,0.0028352599585428832,0.0019145283844321966
1772366262217987800,5.25798779296875,-0.020682138022780416,0.0018106844174675643,0.0079235230082646
1772366262228057600,5.2680576171875,-0.031005963638424873,-0.0013732428482733667,0.0030074381876736877
1772366262238127600,5.278127685546875,-0.0277151053994894,0.006013725597877055,0.002692125160805881
1772366262248198700,5.28819873046875,-0.04163315611481666,0.008810799837345257,0.004014532870985567
1772366262258268700,5.2982685546875,-0.03520692245960235,-0.0034420302126556635,0.0016028686193749308
1772366262268338700,5.308338623046875,-0.03565992692410946,-0.008489541126880794,0.0050801893411204216
1772366262278408700,5.31840869140625,-0.03790858263373375,0.0007195829788222909,0.0015346987539902328
1772366262288479700,5.328479736328125,-0.028633389288187025,-0.006791769898822531,-0.0021148732621222733
1772366262298549800,5.3385498046875,-0.042701077607274054,0.00075512008308433,-0.0029186273930594323
1772366262308619800,5.348619873046875,-0.04150689938664436,0.0003647142597008496,0.002261222930252552
1772366262318689800,5.358689697265625,-0.04614741866886615,-0.0016667276358231901,-0.0032981647625565528
1772366262328759600,5.368759521484375,-0.03866261587142944,0.004017784273996949,0.006606631723418832
1772366262338830600,5.37883056640625,-0.027438626545667647,0.0006081676267553121,0.004399915459379553
1772366262348900900,5.38890087890625,-0.0275888486713171,-0.002501689755776897,-0.005334712091460823
1772366262358970600,5.398970703125,-0.02549567578434944,-0.005313240045169368,-0.0013292393097653985
1772366262369040600,5.40904052734375,-0.0331266090542078,0.009783407729165628,0.0026060543125495314
1772366262379111700,5.419111572265625,-0.03341828547716141,0.0018229776434600352,0.007103256133943796
1772366262389181700,5.429181640625,-0.03266542128324509,0.0019416721196845173,0.006452135281451046
1772366262399251700,5.439251708984375,-0.03655950611233711,0.0011781130018178373,0.002065663825534284
1772366262409321700,5.44932177734375,-0.03520283080637455,0.010733054870506747,-0.0022110271129757164
1772366262419392800,5.459392822265625,-0.032657237976789474,0.013482344445493072,0.0018757307440042494
1772366262429462800,5.469462890625,-0.03161211283802986,0.003659225760446861,-0.0038442543379962443
1772366262439532800,5.47953271484375,-0.03864332664906978,0.005081906374171376,0.0057870589688420295
1772366262449602600,5.4896025390625,-0.024874329015612602,0.0038295590923633424,0.004513787630014122
1772366262459673600,5.499673583984375,-0.03385959950387478,0.001494019683729857,0.00646269320808351
1772366262469743600,5.50974365234375,-0.03671031275987625,0.01179230899931863,0.002129668972454965
1772366262479814000,5.51981396484375,-0.03013034984767437,-0.0012923504986334592,0.00218337192106992
1772366262489883600,5.529883544921875,-0.03402501919865608,0.009377475543087347,-0.0024289807125926015
1772366262499954700,5.53995458984375,-0.0325298122048378,0.008803749042050913,-0.004541552419774234
1772366262510024700,5.550024658203125,-0.03911503581404686,0.0017220380196347831,-0.00498951538298279
1772366262520094700,5.5600947265625,-0.024002222356200215,0.0069670534004922955,0.0018840967135503887
1772366262530164700,5.570164794921875,-0.03103694329857826,0.0017479213795624673,0.0006444719159975648
1772366262540234800,5.58023486328125,-0.026109423768520355,0.004509303251141682,0.003280446442775428
1772366262550305500,5.590305419921875,-0.025361235749721527,0.0002533993723336607,0.003416968836635351
1772366262560375800,5.600375732421875,-0.034925182908773424,0.002799019601382315,-0.0002024637695401907
1772366262570445800,5.61044580078125,-0.029389760613441465,-0.00011479461924172937,-0.0011394523587077855
1772366262580515600,5.620515625,-0.03507014433741569,-0.005996856661466881,0.001079831125959754
1772366262590586600,5.630586669921875,-0.02653787831366062,0.0010952661571092903,0.0003701119540259242
1772366262600656600,5.64065673828125,-0.03491992221176624,0.004203306041890755,-0.0053708793833851815
1772366262610726700,5.6507265625,-0.02428863808214664,0.0024234916867222635,0.003343903600424528
1772366262620796700,5.660796630859375,-0.024897709891200066,0.0017957973755896091,-0.0034462314637377857
1772366262630867700,5.67086767578125,-0.021154431709647176,0.004608032651571557,0.005105396847613156
1772366262640937700,5.680937744140625,-0.03372983564436435,0.0021513236818369477,0.0069038611043244595
1772366262651007700,5.6910078125,-0.03297930953800678,0.0010393073193263262,0.008134243149496614
1772366262661077800,5.701077880859375,-0.027143442991375923,0.0011749255308881401,0.00843611217290163
1772366262671147800,5.711147705078125,-0.035521979758143425,0.007353559366893023,0.006499591152369976
1772366262681218600,5.721218505859375,-0.036117023041844366,0.0057815516766626385,0.0035582404708489773
1772366262691288800,5.731288818359375,-0.029828152030706403,-0.0004350395495537668,-0.0009680778471753001
1772366262701358800,5.74135888671875,-0.031178982117772102,0.0031699718056246635,-0.004655534188263118
1772366262711428900,5.751428955078125,-0.025640637212991712,0.0032675504285842177,0.0028224004769697784
1772366262721500000,5.7615,-0.03296995718777179,0.005792447530012577,0.0018066840957850216
1772366262731569700,5.771569580078125,-0.039705987444519995,0.0025948296656366438,-0.0015467545179650188
1772366262741640000,5.781639892578125,-0.04390402365624904,0.0030128906809259205,-0.004547726432234048
1772366262751710000,5.7917099609375,-0.029234277790784833,-0.002180832904111594,-0.0023194924561306834
1772366262761780700,5.80178076171875,-0.029386838003993034,-0.000952935076970607,0.0016552929263561962
1772366262771850800,5.811850830078125,-0.030740006178617475,0.010885076227597892,-0.00581460456289351
1772366262781921000,5.821921142578125,-0.0247568401157856,0.00165974077261053,0.0022329466838389633
1772366262791990800,5.83199072265625,-0.019524200159311292,0.005158816668437794,0.007522467926703393
1772366262802061800,5.842061767578125,-0.01878010379374027,0.002414258067496121,0.00012512421701103447
1772366262812131800,5.8521318359375,-0.03375146295428276,0.004697902892110869,-0.0003286474324762821
1772366262822201900,5.862201904296875,-0.028808745855093,0.0035057248323224484,-0.003820362005755305
1772366262832272000,5.87227197265625,-0.02760229267477989,-0.0007866477325093001,-0.003607888298854232
1772366262842342000,5.882341796875,-0.029389760613441465,0.005271693325228989,0.0010821692135185002
1772366262852413000,5.892412841796875,-0.025647651475667953,-0.004854856152646243,-0.0029261896450072525
1772366262862482700,5.902482666015625,-0.03388181133568287,-0.0008912954170722514,-0.005277355881035327
1772366262872553000,5.912552978515625,-0.02715396438539028,0.007698874806379899,-0.008081453516334295
1772366262882623000,5.922623046875,-0.03374678677916527,0.006634588309423998,-0.0028968904852867123
1772366262892693800,5.93269384765625,-0.031657705545425414,0.006633729792898521,-0.006461560696922242
1772366262902763800,5.942763671875,-0.0307563727915287,-0.0032024949688930064,-0.0049185325060039755
1772366262912834000,5.952833984375,-0.02746200742125511,0.002404449059534818,-0.0021514789454638956
1772366262922903800,5.96290380859375,-0.026121114206314085,0.005496615521749481,0.0002829451272264123
1772366262932974800,5.972974853515625,-0.038543957927823065,0.0021062241647858172,-0.0027609160806983707
1772366262943044900,5.983044921875,-0.02716214769184589,0.005638992267660796,0.005664090176299214
1772366262953114600,5.993114501953125,-0.028351065215468405,0.0022286723675206304,-0.00029364918433129783
1772366262963185000,6.003184814453125,-0.03687631697654724,0.002120243556983769,-0.003331738238595426
1772366262973255000,6.0132548828125,-0.03598433657288551,0.001235843671578914,-0.006457505576312542
1772366262983325700,6.02332568359375,-0.03972352310121059,0.002354271508567035,0.007041990933381021
1772366262993395700,6.033395751953125,-0.047804538226127624,0.004127135533140972,-0.003930069457925856
1772366263003466000,6.043466064453125,-0.03209726600646973,-0.0035350970572791992,0.004033529832400381
1772366263013535700,6.05353564453125,-0.02701660174131393,0.005162269000848755,0.005680712517537176
1772366263023606800,6.063606689453125,-0.02538110949397087,0.003587576163187623,0.0023255203381180763
1772366263033676800,6.0736767578125,-0.03585866436660289,0.0050244588322006165,0.0033249797042459246
1772366263043747000,6.0837470703125,-0.03017594255506992,-0.0007227521834429353,0.0031202509123831987
1772366263053816800,6.09381689453125,-0.0330178879827261,0.0033144857096951454,0.005981997019052505
1772366263063888000,6.103887939453125,-0.025537761360406874,0.0018589348728302866,0.0015831044729799032
1772366263073958000,6.1139580078125,-0.02972819878757,0.00939271877799183,-0.0015926394863054155
1772366263084027600,6.124027587890625,-0.030772154882550237,0.0040071624152828,-0.007793101561628281
1772366263094098000,6.134097900390625,-0.03332651554048061,0.0027777850171085447,0.000526252363808453
1772366263104169000,6.1441689453125,-0.03377075217664242,0.004345856317738071,0.0021124986419454217
1772366263114238700,6.15423876953125,-0.03660626786351204,0.005360586318233981,0.0020920038431882855
1772366263124308700,6.164308837890625,-0.030624270844459532,0.0039002953741699457,0.004681326216645539
1772366263134379000,6.17437890625,-0.024933365726470945,-0.0012509407760109752,0.006268705005943774
1772366263144448800,6.18444873046875,-0.027922610670328137,0.00004625942767597735,0.0054348114650696515
1772366263154519800,6.194519775390625,-0.03480594044327736,0.0019201270081568508,-0.003078567195124924
1772366263164589800,6.20458984375,-0.027317630514502523,0.0013457703194580972,-0.0008365604219958186
1772366263174659800,6.214659912109375,-0.0333007965773344,0.0013787044746801256,-0.0030268735405057667
1772366263184729900,6.224729736328125,-0.030610242319107053,0.0018502949086483566,-0.003978877035714686
1772366263194801000,6.23480078125,-0.038539866274595255,0.009557928410219027,-0.00037760114073753353
1772366263204871000,6.244870849609375,-0.03943827641904354,0.0071603931486606594,0.005294051287509501
1772366263214940700,6.254940673828125,-0.03270516877174377,0.003095774058252573,0.005094838920980692
1772366263225011000,6.265010986328125,-0.02881400655210018,0.004937986125145107,0.00002590162623673677
1772366263235082000,6.27508203125,-0.02432487843930721,0.0001478931712452322,0.004966061442159116
1772366263245151700,6.28515185546875,-0.023573183289170265,0.007029186250735074,0.0029180794037878513
1772366263255221800,6.2952216796875,-0.031208792734146118,0.008132516983291134,0.00523497804403305
1772366263265292000,6.3052919921875,-0.03210895644426345,-0.001923131815996021,0.006109605454094708
1772366263275361800,6.31536181640625,-0.03780044608414173,-0.003254864476947114,0.0089888141522184
1772366263285432800,6.325432861328125,-0.028524083694815634,0.000728853130666539,-0.006015132103674113
1772366263295502800,6.3355029296875,-0.034957331612706186,0.0015649660280905662,-0.0012130290515720843
1772366263305572900,6.34557275390625,-0.032114801663160324,0.00018568616467528045,0.003676350425183773
1772366263315643000,6.355642822265625,-0.028074001839756963,-0.0003121894880197942,0.007418057704158127
1772366263325714000,6.3657138671875,-0.031063831305503845,0.0038055936948861923,-0.0015110256174579262
1772366263335783700,6.37578369140625,-0.03779226277768612,-0.0023477869688533245,0.0018895035410299895
1772366263345853700,6.385853759765625,-0.03165244484841823,0.006750615904526785,0.0011150485698133707
1772366263355924000,6.395924072265625,-0.02118658041357994,0.004369858247833326,-0.005649002205021679
1772366263365995000,6.4059951171875,-0.032408231651782984,-0.0011806794182397426,-0.0003907163506373763
1772366263376064800,6.416064697265625,-0.026132804644107818,0.006158230368793011,-0.005384286854229867
1772366263386134800,6.426134765625,-0.02973813565969467,0.006362968293810263,0.001199329319782555
1772366263396205000,6.436205078125,-0.023016718450188635,-0.0021266276319976893,-0.002803622711263597
1772366263406274800,6.44627490234375,-0.031252631875872613,0.004682604858279228,-0.0055998658336699
1772366263416345900,6.456345947265625,-0.03739069623947144,-0.002316076656337827,-0.0052182461049407715
1772366263426415900,6.466415771484375,-0.031257308050990106,0.006811552311526611,0.004662511918321252
1772366263436486000,6.47648583984375,-0.03364391092658043,-0.0037902682615909723,0.0037547859562560913
1772366263446556000,6.486555908203125,-0.031544308298826214,-0.008367814443353563,-0.0026045564752072096
1772366263456627000,6.496626953125,-0.029747488009929657,0.009177961782459169,-0.0027147023187950254
1772366263466696700,6.50669677734375,-0.03199205206632614,0.004448010651115328,-0.005848031908459961
1772366263476766700,6.5167666015625,-0.043369770649075504,0.0043368144947569815,-0.00041533933524042367
1772366263486837000,6.5268369140625,-0.03110240975022316,0.004156160698225721,-0.002733443551883101
1772366263496906800,6.53690673828125,-0.028114333850145338,0.0009461034773848951,0.006190817464143038
1772366263506977800,6.546977783203125,-0.027964696246385572,0.006728221409628168,-0.0006727481624111532
1772366263517047800,6.5570478515625,-0.03185468942224979,-0.00003094312753528356,-0.00018912936393171548
1772366263527117800,6.567117919921875,-0.03334405119717121,0.0014680632585659622,-0.0007803367227315903
1772366263537187800,6.577187744140625,-0.02510872229337692,0.011114135743118822,0.0032473113581538197
1772366263547259000,6.5872587890625,-0.02421381928026676,0.0033686909818090496,0.001839198125898838
1772366263557329000,6.597328857421875,-0.031095980009436607,0.0006701726128347218,-0.004725640282407403
1772366263567399000,6.60739892578125,-0.038430560681223865,0.00432249370845966,0.008223857661709189
1772366263577469000,6.617468994140625,-0.035139702442288395,0.00529913845458068,-0.002404723054170608
1772366263587540000,6.6275400390625,-0.03587853811085224,0.004638172061508521,0.0002088204450905323
1772366263597609700,6.637609619140625,-0.03512625843882561,0.00666059953351505,-0.00013655892647802828
1772366263607679700,6.6476796875,-0.024501988571882245,0.0052684784548357125,-0.0022098946018144485
1772366263617750000,6.65775,-0.04171966535449028,0.00796962717231363,-0.0012133578451350331
1772366263627819800,6.66781982421875,-0.02990121726691723,0.004917573524778709,-0.004423917389474809
1772366263637890800,6.677890869140625,-0.03229132727384567,0.0007350271431263536,-0.005717683527059853
1772366263647960800,6.6879609375,-0.031842414462566374,0.011813251322647557,-0.0038914910132065413
1772366263658030800,6.69803076171875,-0.03005260843634605,0.002542323160264641,0.0010689078731462359
1772366263668100900,6.708100830078125,-0.028250527450442313,-0.0007498228534590452,-0.002829487804882228
1772366263678172000,6.718171875,-0.026601006677746772,0.0013787775399163365,0.004287979517504573
1772366263688241700,6.72824169921875,-0.03543488599658012,0.005152459992887452,0.0011889905888587235
1772366263698311700,6.738311767578125,-0.03977788363695144,0.008965287146158516,-0.0020166005194187163
1772366263708382500,6.748382568359375,-0.03140694565474987,0.01016747514330782,-0.00010455635301768779
1772366263718453200,6.758453369140625,-0.03455284246504307,0.0009401943264063448,0.003861972657777369
1772366263728523300,6.768523193359375,-0.03245382435917854,0.0010184015286155044,0.0012420359503477812
1772366263738593300,6.77859326171875,-0.03110708592534065,0.0047377691116184,0.0028865152217447754
1772366263748663300,6.788663330078125,-0.0429255340129137,0.004240057855704799,0.0007013166697695851
1772366263758733300,6.7987333984375,-0.03873509658575058,0.004024323612637818,0.0020794731551781295
1772366263768804400,6.808804443359375,-0.020786767441034314,0.004246925987908616,0.0017665712811052799
1772366263778874000,6.8188740234375,-0.027829671689867972,-0.005134732539951801,0.005447853609733283
1772366263788944100,6.828944091796875,-0.032922026392817494,0.006146914390334859,0.00415901937559247
1772366263799014400,6.839014404296875,-0.030977906587719914,0.0025370624632574616,-0.0024516674684360623
1772366263809085400,6.84908544921875,-0.024695465317368506,0.006766315797157585,-0.00009984364528208971
1772366263819155200,6.8591552734375,-0.041754152145981785,0.0014727759663015604,0.00470185754802078
1772366263829225200,6.86922509765625,-0.02963876693844795,0.002034711564844474,0.0024892595324665307
1772366263839295200,6.879295166015625,-0.029342414340376852,0.009588305282173677,-0.003278656344488263
1772366263849365200,6.889365234375,-0.03892506619989872,0.009745806531980632,-0.004190181698836386
1772366263859436300,6.899436279296875,-0.03129705553948879,0.0038993089934810992,0.00411507063601166
1772366263869506300,6.90950634765625,-0.03369593337476253,0.0066300491316244005,-0.0030076208507642146
1772366263879576300,6.919576416015625,-0.030257775619626042,0.010834688614076002,-0.009523834344372152
1772366263889646300,6.929646240234375,-0.032496494457125664,0.007443429607432335,-0.0026485782800242303
1772366263899717400,6.93971728515625,-0.03385959950387478,-0.0071278151864651584,-0.007916618343442677
1772366263909787100,6.949787109375,-0.023833295530080793,0.0011249032435473054,0.0011897577738389372
1772366263919857200,6.959857177734375,-0.040138533642888066,0.005273766551306471,0.012674443862400948
1772366263929927400,6.969927490234375,-0.0366951151907444,-0.0021247096695471554,-0.0034611367719247937
1772366263939997200,6.9799970703125,-0.04028174150586128,0.00003457812303677201,-0.0011117241015657783
1772366263950068200,6.990068115234375,-0.04117664451897144,0.007922920220065861,0.0029842399751767515
1772366263960138200,7.00013818359375,-0.025603227812051772,0.015111032492714001,0.0000868380332365632
1772366263970208300,7.010208251953125,-0.02740063262283802,0.001573943918989971,0.004253054334595799
1772366263980278300,7.0202783203125,-0.032487142106890673,0.0006625098961871116,-0.00021346008758991956
1772366263990349300,7.030349365234375,-0.028135376638174055,0.007107914042752236,0.0018583046851679682
1772366264000419000,7.040419189453125,-0.029334815555810925,0.0016982826847117393,0.003031074791587889
1772366264010489300,7.0504892578125,-0.023353987580537795,0.004241172100557014,0.0015755787536501883
1772366264020559400,7.060559326171875,-0.03249123376011848,0.0014982666005846112,0.005104300869069993
1772366264030630400,7.07063037109375,-0.028904022923111915,0.009269329860340804,-0.0012738193280994892
1772366264040700200,7.0807001953125,-0.021268998000025748,0.006165381628787145,-0.004657214688695967
1772366264050770200,7.090770263671875,-0.03324117534458637,0.001901577571313828,-0.0023001667011529206
1772366264060840400,7.10084033203125,-0.03502747423946857,-0.002786899905325845,-0.00047079584952443835
1772366264070910200,7.11091015625,-0.027697569742798803,0.0033874139485880733,0.0020403832538053394
1772366264080981200,7.120981201171875,-0.029195114824175833,-0.0014151640275493263,0.0021855638781562445
1772366264091051300,7.13105126953125,-0.03772796536982059,0.0057356849746312945,-0.0017860066339373587
1772366264101121300,7.141121337890625,-0.031150340545177457,0.009228121067117899,-0.0005718816038221121
1772366264111191300,7.15119140625,-0.044018005424737924,0.005796128191286698,0.004841960138455033
1772366264121262300,7.161262451171875,-0.04012216702997684,0.0026234712382312863,-0.00013798369858413934
1772366264131332000,7.17133203125,-0.026194763964414596,-0.0073640259619802235,-0.001224098434858024
1772366264141402400,7.18140234375,-0.03771101423501968,0.002898634917801246,0.0010122457824647427
1772366264151472400,7.191472412109375,-0.040246670192480086,0.0005344174039550125,-0.0013464461728930472
1772366264161542100,7.201542236328125,-0.039347675526142115,0.008260207616724073,0.004236285862885415
1772366264171613200,7.21161328125,-0.03186813342571258,0.005458192340657115,-0.0034347967542707916
1772366264181683200,7.22168310546875,-0.020793197181820867,-0.000427486430760473,-0.004719539335183799
1772366264191753200,7.231753173828125,-0.02228898869752884,0.0008238014051225036,0.002336589721404016
1772366264201823200,7.2418232421875,-0.029626491978764533,0.003448487352905795,-0.000009461948089301585
1772366264211894300,7.251894287109375,-0.02498421913087368,0.003788889155257493,0.005016659118235111
1772366264221964300,7.26196435546875,-0.03441372625529766,-0.003082320921635255,0.006755282946489751
1772366264232034300,7.272034423828125,-0.022445640563964843,0.009414601816236972,0.008023878110200167
1772366264242104300,7.282104248046875,-0.03187047151327133,0.016007579473638907,0.000902026873640716
1772366264252174000,7.292174072265625,-0.03201251033246517,0.003124452163465321,0.003722271926142275
1772366264262245000,7.3022451171875,-0.036353754407167434,0.0013254673169460147,0.01472531197760254
1772366264272315100,7.312315185546875,-0.03231996884644031,0.00748764320849441,0.008303754497505724
1772366264282385400,7.322385498046875,-0.02828209163248539,0.002954109698394313,0.010335917912237345
1772366264292455200,7.332455078125,-0.03171849582195282,-0.002152867184951901,0.008467018767818808
1772366264302526200,7.342526123046875,-0.032465514796972274,0.005905278521031141,-0.0024013620533049106
1772366264312596200,7.35259619140625,-0.03186053464114666,0.01102686845161952,-0.00329659385997802
1772366264322666200,7.362666259765625,-0.038133039039373394,0.006654973510326817,-0.008426613692194223
1772366264332736300,7.372736328125,-0.03842588450610637,-0.002212050026282668,0.0019107655247673392
1772366264342806300,7.38280615234375,-0.030637130326032637,0.0028553254990372804,0.004619951418228447
1772366264352877000,7.392876953125,-0.03796528125703334,0.010607355264760553,0.00248966139126569
1772366264362947300,7.402947265625,-0.035865094107389445,0.006776727593317627,0.005614771141856908
1772366264373017300,7.413017333984375,-0.02313888352513313,0.013186832097638398,-0.0032134456211701033
1772366264383087000,7.423087158203125,-0.026578210324048994,0.012245322596980258,-0.0011932283725589513
1772366264393158100,7.433158203125,-0.029267011016607284,0.005468284476408735,-0.0012168649764731526
1772366264403228200,7.443228271484375,-0.03419979124367237,0.007702646799199283,-0.0033479587210342287
1772366264413298400,7.45329833984375,-0.03718436001241207,-0.0019570249524433164,-0.0030116029061377047
1772366264423368200,7.4633681640625,-0.03777589616477489,0.007930646868795157,0.003879033390432596
1772366264433438200,7.473438232421875,-0.03253624194562435,0.013071964413160457,0.0013949249571189282
1772366264443509200,7.48350927734375,-0.028942016845941543,0.009351857044640928,-0.003916990780644118
1772366264453579300,7.493579345703125,-0.030592706662416456,0.0005948971532285213,-0.0008591375799849629
1772366264463649300,7.503649169921875,-0.018019640815258024,0.006088745329156518,0.001447166601009667
1772366264473719300,7.51371923828125,-0.03896890534162521,0.012866623699944466,0.0044536914732307194
1772366264483790000,7.5237900390625,-0.025949849292635916,0.004735111363651231,0.0019047741753980517
1772366264493860400,7.5338603515625,-0.028490765947103498,0.003509962616022676,0.007200725159049033
1772366264503930400,7.543930419921875,-0.03342763782739639,0.0005479162063449621,0.0012443740379065274
1772366264514000100,7.554000244140625,-0.029531799432635307,0.004451033725263551,-0.008510346452891827
1772366264524070100,7.564070068359375,-0.035817163312435146,0.008672807005606591,-0.004180500555038452
1772366264534141200,7.57414111328125,-0.027426351585984228,0.004724827431654558,0.003511442187055945
1772366264544211200,7.584211181640625,-0.03834580500721931,-0.001043051912682131,0.00704988197889179
1772366264554281200,7.59428125,-0.03668926997184753,-0.0014077935718465595,0.0015797069394960998
1772366264564351200,7.604351318359375,-0.02770341496169567,0.0013355411863885819,0.005045994810573756
1772366264574422300,7.61442236328125,-0.027702830439805985,0.002055279428837821,0.007934263597987592
1772366264584492300,7.6244921875,-0.02993862666785717,0.0012709515175782144,-0.004746390809491277
1772366264594562300,7.634562255859375,-0.029937457624077794,0.01095246977484785,0.0009784896433353424
1772366264604632000,7.644632080078125,-0.02769114000201225,0.009997918129526079,0.002246500285156071
1772366264614702300,7.654702392578125,-0.0208048876196146,0.004610261141275987,0.0038048721756786105
1772366264624773400,7.6647734375,-0.030835867768526076,-0.0008017722364049404,0.00009264671951532363
1772366264634843400,7.674843505859375,-0.030083588096499442,0.006665997227840125,0.006914199835248291
1772366264644913200,7.6849130859375,-0.045645898887515066,0.014156727442564443,0.00811071614343673
1772366264654983200,7.694983154296875,-0.032176176461577416,0.0038672698874026535,0.005476093323528767
1772366264665054200,7.70505419921875,-0.029785481932759282,0.00568613761132583,0.000014795710332691669
1772366264675124200,7.715124267578125,-0.042803368937969204,0.00641854353910312,0.009601685353554785
1772366264685194200,7.7251943359375,-0.03337269276976585,0.0011489417062606662,-0.00005750234089791774
1772366264695264300,7.73526416015625,-0.022896891462802885,0.0038757911205757408,-0.0051118996536359184
1772366264705337600,7.745337646484375,-0.01675531996786594,0.005568319917935878,-0.007836429246701299
1772366264715408600,7.75540869140625,-0.03786357444822788,-0.0019032489385921508,-0.00010115881953388452
1772366264725478400,7.765478515625,-0.029334815555810925,0.005268350590672343,0.002725150647573173
1772366264735548400,7.77554833984375,-0.042947745844721795,0.006434389562206343,0.006130794372595847
1772366264745618700,7.78561865234375,-0.037705169016122815,0.012675174514763056,0.005188289358094334
1772366264755688400,7.7956884765625,-0.026771102547645566,0.005343826979678124,-0.0028168840516358614
1772366264765759500,7.805759521484375,-0.03783785548508167,-0.0007335658384021371,-0.0019095599483698606
1772366264775829500,7.81582958984375,-0.031401100435853,0.001666179646551609,0.0012856558963656424
1772366264785899500,7.8258994140625,-0.027061025404930113,0.006093686365755274,-0.0036162908010184762
1772366264795969500,7.835969482421875,-0.021517419803142545,0.0041430363551713525,0.005058123639784753
1772366264806040600,7.84604052734375,-0.032739655563235284,0.014415798503858967,-0.0025387977626174685
1772366264816110300,7.8561103515625,-0.030649405285716056,0.003920625776145607,-0.0021964505983516572
1772366264826180400,7.866180419921875,-0.031841245418787,-0.001895778018189594,0.0007751490909606218
1772366264836250600,7.876250732421875,-0.03557867838144302,0.006131123166158795,-0.0007761720042675733
1772366264846320400,7.8863203125,-0.037974049085378644,-0.0031371015824843197,-0.00032565175779163835
1772366264856391400,7.896391357421875,-0.03183540019989013,-0.000930029125418514,0.004082337410189211
1772366264866461400,7.90646142578125,-0.025840543699264525,0.007309555828385055,0.003548011337779462
1772366264876531500,7.916531494140625,-0.03077858462333679,0.01313881910429336,-0.0006149170279502868
1772366264886601500,7.9266015625,-0.028830373165011403,0.0021125717071816324,0.002305098604597151
1772366264896672500,7.936672607421875,-0.036463060000538824,0.0010478102861903606,0.003202157042175531
1772366264906742500,7.946742431640625,-0.029576223096251485,0.008474042163649574,-0.000884272021241486
1772366264916812500,7.9568125,-0.042297172981500625,0.00379605868156068,0.0016162395576015114
1772366264926882600,7.966882568359375,-0.04587678503394126,0.00428320287768729,-0.0030996465157717467
1772366264936952300,7.976952392578125,-0.029559271961450573,0.0025044388352893293,0.009176445678807795
1772366264947023400,7.9870234375,-0.03404547746479511,0.0048342243565712125,0.004170746346004307
1772366264957091600,7.997091552734375,-0.033444588962197305,0.007650889212498441,0.00048413025513291354
1772366264967161300,8.007161376953125,-0.027609891459345816,0.010247874302603304,0.0034605157174170016
1772366264977231600,8.017231689453125,-0.022378420546650884,0.00975337791708298,-0.0034113428134471178
1772366264987301400,8.02730126953125,-0.030158406898379325,-0.0015183778068516402,0.000794694041647017
1772366264997371400,8.037371337890624,-0.034791327396035195,0.008267870333371683,0.014818616284243762
1772366265007442400,8.0474423828125,-0.02941138792335987,0.006232492048246786,0.010302527099289
1772366265017512400,8.057512451171876,-0.028670798689126968,0.009357802728237583,0.003998385453782976
1772366265027582500,8.06758251953125,-0.02897650363743305,0.0071003974565770475,0.004002404041774571
1772366265037652500,8.077652587890626,-0.028831542208790778,0.00005131919528357684,0.003035239510051906
1772366265047722500,8.087722412109375,-0.034815292793512344,0.008786377782141789,0.002638276081718504
1772366265057793300,8.097793212890625,-0.03496025422215462,0.004704314366588368,0.006501162054948508
1772366265067863600,8.107863525390625,-0.03136427555680275,0.005890884669497609,0.000020312135666608808
1772366265077933600,8.11793359375,-0.02418810031712055,0.012616411798540502,-0.0014753697821870445
1772366265088003300,8.12800341796875,-0.03031973493993282,0.010801672260463238,-0.004546593921072781
1772366265098074400,8.138074462890625,-0.03270692233741283,-0.0020493702778592703,0.00441730498559773
1772366265108144600,8.14814453125,-0.044378070908784865,0.010251929423213004,0.0015918357687070965
1772366265118214400,8.15821435546875,-0.026867548659443855,0.005341735487291589,-0.003273797506280243
1772366265128284400,8.168284423828124,-0.027909166666865347,0.004379667255794629,-0.0019658567128703
1772366265138354400,8.1783544921875,-0.03598667466044426,0.0057623355195391916,0.003913739377632737
1772366265148425500,8.188425537109374,-0.03254208716452121,-0.00006680902536027133,0.0035221827767789363
1772366265158495500,8.19849560546875,-0.03524024020731449,0.016393884510640055,0.0006156842129305005
1772366265168565500,8.2085654296875,-0.027158640560507773,0.0034223299983423203,-0.002494556762091815
1772366265178635300,8.21863525390625,-0.02491758363544941,0.002881656383536756,0.0025238559218123554
1772366265188706300,8.228706298828126,-0.034198622199892996,0.012991254726611078,0.0002259542429819703
1772366265198776600,8.238776611328126,-0.03210661835670471,0.003423325512185693,0.004047339162044227
1772366265208846600,8.2488466796875,-0.023872458496689796,0.005896565491613001,0.00876278684400022
1772366265218916400,8.258916259765625,-0.031954642665386196,-0.0035744518201332536,0.0023212094891816378
1772366265228986600,8.268986572265625,-0.02971417026221752,-0.002225220035109669,-0.0016670929620042443
1772366265239057700,8.2790576171875,-0.03495440900325775,0.0058910216668155045,-0.0035428237060084935
1772366265249127400,8.28912744140625,-0.0436316364556551,0.008055606689024716,-0.0017620777690783142
1772366265259197400,8.299197509765625,-0.038543373405933376,0.0035509704798460003,0.000790967714600265
1772366265269267500,8.309267333984375,-0.036302316480875015,0.0035413624012842772,0.00022558891680091617
1772366265279338200,8.319338134765625,-0.04453296920955181,0.008119557037018239,-0.001289528353884816
1772366265289408500,8.329408447265624,-0.04034837700128555,0.0050699602080509065,0.009498444174788892
1772366265299478500,8.339478515625,-0.03047229515314102,0.003754365831147879,0.0015722177527844904
1772366265309548300,8.34954833984375,-0.03196691762506962,0.007972768977470696,-0.001820566490665078
1772366265319618600,8.35961865234375,-0.037492987570166586,0.007057197635667398,0.0003568871462717652
1772366265329689600,8.369689697265626,-0.03674070789813995,0.00019222550331614912,-0.0010464037803933023
1772366265339759400,8.37975927734375,-0.035842297753691674,0.004323991545801982,0.0028423107538372277
1772366265349829400,8.389829345703125,-0.027613983112573622,0.011835335290292277,-0.000031710312515497204
1772366265359899600,8.399899658203125,-0.031207039168477058,0.0012967800785787403,0.0066465618750080465
1772366265369969400,8.409969482421875,-0.038540450796484944,0.00011398176848888397,0.004681910738535225
1772366265380040400,8.42004052734375,-0.04003741135597229,0.007692974788555875,0.002592792972177267
1772366265390110500,8.4301103515625,-0.03225567143857479,-0.002341923483647406,-0.00008329436928033829
1772366265400180500,8.440180419921875,-0.040782092243432995,0.001400687977625057,-0.0016708558216691016
1772366265410250500,8.45025048828125,-0.041534956437349314,0.007208132147369906,0.0025642244648188353
1772366265420321500,8.460321533203125,-0.028370938959717748,0.005511210302682593,-0.0014317498361691831
1772366265430391600,8.4703916015625,-0.03883388078510761,0.00560482513657771,0.004351363609917462
1772366265440461300,8.48046142578125,-0.03180675862729549,0.005962360736820846,0.004081935551390052
1772366265450531600,8.490531494140624,-0.031214053431153296,-0.0031197029231116173,-0.0013094751633703709
1772366265460601600,8.5006015625,-0.040944589328765865,0.002943387374980375,-0.0012672799894586206
1772366265470672400,8.51067236328125,-0.03750526252985,0.011284998797997832,0.007055873328261077
1772366265480742400,8.520742431640626,-0.03166998050510883,0.0003702215518802404,0.00375113269444555
1772366265490812400,8.5308125,-0.03675765903294086,0.011321860209666192,0.009749350195936857
1772366265500882400,8.54088232421875,-0.033168110108375545,-0.004122285828087479,-0.00001435731891542673
1772366265510952400,8.550952392578125,-0.022847207102179527,-0.004374141697306186,-0.00024232085589319467
1772366265521023500,8.5610234375,-0.034818799924850465,0.0106475046120584,-0.00219937320780009
1772366265531093200,8.57109326171875,-0.04215221155285835,0.006548553993785754,-0.0014457418289035558
1772366265541165300,8.581165283203125,-0.030778000101447104,0.0031772417966276405,0.003952829279005528
1772366265551236400,8.591236328125,-0.03017594255506992,0.004850435705855489,0.0014614873873069882
1772366265561306400,8.601306396484375,-0.038412440502643586,0.0016788564650341868,-0.0016753128010779618
1772366265571376600,8.611376708984375,-0.030480478459596633,0.007935989764193073,-0.00015478870291262865
1772366265581446400,8.6214462890625,-0.030785014364123342,0.00045880401763133703,0.00795625623408705
1772366265591517400,8.631517333984375,-0.023458616998791693,0.0024313370664604005,0.006040485740639269
1772366265601587500,8.64158740234375,-0.028250527450442313,-0.0050919163115322585,-0.00736906746327877
1772366265611657500,8.651657470703125,-0.022125322568416594,0.003028444443084299,0.005147007499635219
1772366265621727500,8.6617275390625,-0.04263268854618072,0.004421405771980062,0.00466324257068336
1772366265631797500,8.671797607421874,-0.029314941811561582,-0.003680606475193053,0.0037618732841685413
1772366265641868300,8.681868408203124,-0.030209260302782058,0.004885470486618578,0.005946889173053205
1772366265651938600,8.6919384765625,-0.035003508841991424,0.011600147428084163,0.003419927978701889
1772366265662008600,8.702008544921876,-0.024234862068295476,0.012708437463548035,-0.0016582155358046292
1772366265672078300,8.712078369140626,-0.02484334935545921,0.01098835393898189,0.004425561357289553
1772366265682148400,8.7221484375,-0.02948445315957069,0.008711394583480431,0.009001052579283714
1772366265692219400,8.732219482421876,-0.037270869252085684,0.0049150345078203825,0.006039499359950423
1772366265702289700,8.74228955078125,-0.026508067697286603,0.003159368213219568,0.007301372521929443
1772366265712355600,8.75235546875,-0.023373861324787137,0.00167469174657017,0.002774360084161162
1772366265722425300,8.76242529296875,-0.03356383142769336,0.0047031909885816275,0.005725866833515465
1772366265732496400,8.772496337890624,-0.03939969797432422,0.004164782396098599,0.00035560850463807583
1772366265742566700,8.782566650390624,-0.029673838251829145,0.011060396261885761,0.0018005831485614179
1772366265752636400,8.792636474609376,-0.03775426885485649,-0.003728939128946513,-0.0022922391230240464
1772366265762706400,8.80270654296875,-0.024136077868938444,-0.006934292775206267,0.0123784200578928
1772366265772776700,8.812776611328125,-0.03371697616279125,0.0035174792021978644,0.006004099253006279
1772366265782847500,8.822847412109375,-0.024890695628523824,0.0040500882415566595,0.008936791704036294
1772366265792917500,8.83291748046875,-0.03057867813706398,-0.0007344608875457197,0.0013819924103096127
1772366265802987500,8.842987548828125,-0.02818623004257679,0.0005493318452965468,0.005994710370153188
1772366265813057500,8.8530576171875,-0.02878828758895397,0.0015823920869268476,0.00636595483534038
1772366265823127600,8.86312744140625,-0.03312719357609749,-0.007656131643196567,-0.0035155338402837514
1772366265833198600,8.873198486328125,-0.03147708828151226,0.009196803480247035,-0.002688873757794499
1772366265843268400,8.883268310546875,-0.03057984718084335,0.002740266018314287,0.0006145151691511273
1772366265853338400,8.89333837890625,-0.03865910874009132,-0.005501967550301924,-0.0026610359027981756
1772366265863408600,8.90340869140625,-0.03761398360133171,0.00464936930895783,-0.003454597433283925
1772366265873479700,8.913479736328124,-0.032976971450448034,0.0054665948428213595,-0.003928096696548164
1772366265883549400,8.923549560546874,-0.02848667429387569,0.0072188362044747914,0.0035982071550562976
1772366265893619500,8.933619384765626,-0.02908230209946632,-0.001556472194381058,0.005768062007427215
1772366265903689700,8.943689697265626,-0.022189035454392433,-0.005717984921159222,0.0064378144951537245
1772366265913759500,8.953759521484375,-0.03371697616279125,-0.006438782609533518,-0.0014607567349448798
1772366265923830500,8.96383056640625,-0.030876784300804136,0.0022441256649792193,0.007755363367125391
1772366265933900500,8.973900634765625,-0.03790975167751312,0.0005953446778003126,-0.0024273002121597527
1772366265943970600,8.983970458984375,-0.03417816393375397,0.0034393907309975473,-0.009364442531578242
1772366265954040600,8.99404052734375,-0.03359013491272926,0.003797483453666791,-0.00045515988897532224
1772366265964110600,9.004110595703125,-0.03899170169532299,-0.0011815379347652195,0.0032564079800620673
1772366265974181400,9.014181396484375,-0.03286123611629009,0.0075220843342132864,0.011358210164681077
1772366265984251400,9.02425146484375,-0.027772973066568372,0.005947793355351313,0.0031275939686223864
1772366265994321700,9.03432177734375,-0.03780453773736953,0.007483067498076707,-0.00028057050704956055
1772366266004391400,9.044391357421874,-0.037950083687901495,0.015072691510012372,-0.0005048807822167873
1772366266014461400,9.05446142578125,-0.03570201250016689,0.005187558705732226,0.0019294336926192043
1772366266024532500,9.064532470703124,-0.031362521991133686,0.008636457050591706,0.0014520254392176865
1772366266034602500,9.0746025390625,-0.025383447581529616,0.009134414901677518,-0.000324555779248476
1772366266044672500,9.084672607421876,-0.020442484048008917,0.0023178210888523607,0.003467566512711346
1772366266054742500,9.094742431640626,-0.026576456758379934,0.0033660971659235654,-0.0003990092549473047
1772366266064813600,9.1048134765625,-0.030606735187768935,0.012284339433116838,0.0018938143899664282
1772366266074883600,9.114883544921875,-0.03015782237648964,0.005296115380432456,0.004903152273781597
1772366266084953600,9.12495361328125,-0.04033668656349182,0.005056388340424746,-0.0044345118487253785
1772366266095023400,9.1350234375,-0.038843233135342596,0.0002960786034353077,0.0019424758372828363
1772366266105093400,9.14509326171875,-0.03450140453875065,0.009331681906292215,0.001070259580016136
1772366266115164400,9.155164306640625,-0.03166647337377071,0.004908093310380354,0.009430676168203353
1772366266125234700,9.165234619140625,-0.028527590826153755,-0.0008741068202536553,0.011879786353372036
1772366266135304400,9.175304443359375,-0.025092940202355384,0.0013263440997805446,-0.004147694263979792
1772366266145374500,9.18537451171875,-0.03526888177990913,0.00891431501074694,-0.011802154539898036
1772366266155444700,9.19544482421875,-0.03676642686128616,0.0008768650329206138,-0.0009256269449368119
1772366266165515500,9.205515625,-0.03931435777842998,0.004879113811068237,0.003916515856608748
1772366266175585500,9.21558544921875,-0.037975218129158016,0.003910277912067249,-0.0025127865385264157
1772366266185655600,9.225655517578126,-0.041114685198664666,-0.00036352694961242377,-0.0013898834558203816
1772366266195725600,9.2357255859375,-0.03288578603565693,0.009740235307719558,-0.005735109585896134
1772366266205795600,9.245795654296876,-0.027048165923357008,0.0014433489424176514,-0.003315956147573888
1772366266215866600,9.25586669921875,-0.0405073669552803,-0.0007688472143374383,0.0010226210460066794
1772366266225936400,9.265936279296875,-0.04125204784274101,-0.00020324008767493067,0.005881313123553991
1772366266236006400,9.27600634765625,-0.0463327121078968,0.004080921771237626,0.0034755306234583254
1772366266246076700,9.28607666015625,-0.0342202495098114,0.002599935099016875,-0.0032850130200386047
1772366266256147700,9.296147705078125,-0.016715572479367256,0.005368596094753593,0.0017324863484129308
1772366266266217500,9.306217529296875,-0.037516952967643735,0.0021811068987473846,0.002311455280147493
1772366266276287500,9.31628759765625,-0.04080255050957202,0.003959962272690609,0.002740896205976605
1772366266286357500,9.326357421875,-0.029285131195187566,-0.003978904435178265,0.0029420813338831065
1772366266296427500,9.336427490234374,-0.0200075997620821,0.0018586974108126013,0.010391118698194623
1772366266306498600,9.34649853515625,-0.020752280649542806,0.008174155034776776,0.0026622780118137597
1772366266316568600,9.356568603515624,-0.033173955327272416,0.0017567257405258713,0.004725092293135821
1772366266326638300,9.366638427734374,-0.03197217832207679,-0.0015271913009695709,0.00673705317005515
1772366266336708600,9.37670849609375,-0.031823125240206716,-0.00007599697881378233,0.005514671768248081
1772366266346778400,9.3867783203125,-0.026733693146705626,-0.005465708926832303,0.004837612756900489
1772366266356849400,9.396849365234376,-0.030773323926329612,0.0003551609800662845,0.0034782340371981263
1772366266366919400,9.40691943359375,-0.025689737051725385,0.008813640248402952,-0.0038126901559531684
1772366266376989700,9.41698974609375,-0.03407470355927944,0.0011066004018764942,-0.00005443360097706318
1772366266387059500,9.4270595703125,-0.04171031300425529,0.00876784661160782,0.0009144844964146614
1772366266397129500,9.43712939453125,-0.030791444104909894,0.0035455271197482943,0.0006618979748338461
1772366266407200500,9.447200439453125,-0.02361176173388958,0.004612854957161471,0.004048983129858971
1772366266417270500,9.4572705078125,-0.032736732953786846,0.006851153669552877,0.00111632721144706
1772366266427340500,9.467340576171875,-0.03437748589813709,-0.0016379307996015995,-0.010279073158465326
1772366266437410600,9.47741064453125,-0.027796353942155835,0.00987911405544728,0.002513188397325575
1772366266447481300,9.4874814453125,-0.024209143105149267,-0.0006332746685482561,0.0018234525674954056
1772366266457551400,9.49755126953125,-0.03857786019742489,-0.001970240627042949,0.011324892416968942
1772366266467621600,9.50762158203125,-0.028700024783611295,0.007194039689935743,0.005840761917456984
1772366266477691400,9.51769140625,-0.033790625920891756,0.008093043489428237,-0.0009360387410968542
1772366266487761400,9.527761474609376,-0.035140871486067767,0.011935635593300685,0.004518683000840246
1772366266497832400,9.53783251953125,-0.02796177363693714,0.000848607052816078,0.0032398952366784212
1772366266507902700,9.54790283203125,-0.03185585846602917,0.00539119151905179,-0.0029846783665940166
1772366266517972500,9.557972412109375,-0.0378495459228754,0.0009152334150858223,0.002524075117520988
1772366266528042500,9.56804248046875,-0.029771453407406806,-0.0006816986538469791,-0.0005454685209318995
1772366266538112500,9.578112548828125,-0.03231821528077125,0.005049912933865561,-0.0009226678028702736
1772366266548183600,9.58818359375,-0.029635844328999517,0.0012641473174560814,0.006307027722336351
1772366266558253600,9.598253662109375,-0.03323182299435139,0.005341680688364431,-0.0005535422295331955
1772366266568323600,9.608323486328125,-0.022017186018824575,0.009239619708666578,0.0006079758305102586
1772366266578393300,9.618393310546875,-0.022761866906285285,-0.001868570350855589,0.004125153638608753
1772366266588463600,9.628463623046875,-0.03263970232009888,-0.0017734394133090972,-0.003704151747561991
1772366266598534700,9.63853466796875,-0.028746202012896536,0.005584960525482892,0.008180895302817225
1772366266608604400,9.6486044921875,-0.030994857722520825,0.007854366762191057,0.0034609541088342663
1772366266618674400,9.65867431640625,-0.039980128210783006,0.0095030564178247,-0.0059643517645075915
1772366266628744700,9.66874462890625,-0.039980128210783006,0.002060613191081211,0.003312668211944401
1772366266638814500,9.678814453125,-0.032494156369566915,-0.00349800731674768,0.006575396334938704
1772366266648885500,9.688885498046876,-0.022920856860280035,-0.005989011281728744,0.004082775801606476
1772366266658955500,9.69895556640625,-0.028155834904313087,-0.007988076144456863,0.0009845175253227353
1772366266669025500,9.709025634765625,-0.033389059382677076,0.0033824546456802636,0.01004168420601636
1772366266679095600,9.719095458984375,-0.04281856650710106,0.0019002623970620332,0.0023731588721275327
1772366266689166600,9.72916650390625,-0.035492753663659095,-0.00071495246947743,-0.0007457403333857656
1772366266699236400,9.739236328125,-0.038486090260744094,0.00012938940017484128,0.004015884577855467
1772366266709307400,9.749307373046875,-0.038487259304523465,-0.0007370729697402566,0.0009785992411896587
1772366266719377400,9.75937744140625,-0.035196985587477685,0.005364924566633999,-0.0013158683715388177
1772366266729447400,9.769447509765625,-0.03834755857288837,-0.0022700546906795353,0.006590703501924872
1772366266739518500,9.7795185546875,-0.02622808171212673,-0.000514424928696826,-0.00045358898639678955
1772366266749588500,9.78958837890625,-0.028028993654251096,0.0016894691905938088,0.0025990765824913976
1772366266759658500,9.799658447265625,-0.036711481803655625,-0.003720116501674056,0.0038306276714429256
1772366266769728500,9.809728515625,-0.02668517782986164,0.0038156949637923386,-0.005898446921445429
1772366266779798500,9.819798583984374,-0.03625847733914852,0.002683558261860162,0.0007798252660781145
1772366266789869600,9.82986962890625,-0.026979776862263678,0.0018117255970835685,0.004852116206288337
1772366266799939300,9.839939208984376,-0.02728080563545227,0.004559069810155779,0.005869988011941313
1772366266810009600,9.850009521484376,-0.027272622328996656,0.005351042171753943,0.0047063510600477455
1772366266820079600,9.86007958984375,-0.03893909472525119,0.0000846095435321331,0.00002871463783085346
1772366266830149400,9.8701494140625,-0.026803835773468017,-0.005227050465904176,0.001682071335427463
1772366266840220400,9.880220458984375,-0.0365250193208456,0.007984706010436639,0.006196626150421798
1772366266850290400,9.89029052734375,-0.03756020758748054,0.0014423442954197526,0.003043313218653202
1772366266860360400,9.9003603515625,-0.027529227438569066,-0.003591877878969535,-0.003867196822166443
1772366266870430500,9.910430419921875,-0.0300637143522501,0.005042496812390163,0.0017144392350688575
1772366266880500500,9.92050048828125,-0.025574586239457128,-0.0035652090677525845,0.002326031794771552
1772366266890571300,9.9305712890625,-0.02362871286869049,0.002037424111738801,0.00489095037933439
1772366266900641500,9.9406416015625,-0.03828033855557442,-0.004111892298236489,0.006546206773072481
1772366266910711600,9.950711669921875,-0.03169277685880661,0.005490067049954086,0.006329824076034128
1772366266920781300,9.96078125,-0.020175942066311837,0.005560666334442794,-0.008430522682331501
1772366266930851600,9.9708515625,-0.0385772756755352,-0.0039060035957489163,0.004101590099930763
1772366266940922600,9.980922607421874,-0.03813537712693214,0.0030174937908072023,-0.0006496960803866386
1772366266950992400,9.990992431640626,-0.03020867578089237,-0.005135070466669276,-0.002218260571360588
1772366266961062400,10.0010625,-0.038895840105414387,-0.0044415809103287756,0.000013699731789529322
1772366266971132400,10.01113232421875,-0.03993395098149776,0.002792206268105656,0.010141527851298451
1772366266981202400,10.021202392578125,-0.04141863658130169,0.0007511014950927346,0.011751520331203937
1772366266991273500,10.0312734375,-0.01075403372645378,0.008351584827760234,-0.0042022374628111715
1772366267001343500,10.041343505859375,-0.027218261793255805,0.0030721922532655297,0.006014657179638743
1772366267011413500,10.05141357421875,-0.04741992282271385,0.005613455967605114,0.003789638073928654
1772366267021483500,10.0614833984375,-0.050561143457889555,0.006545585718564689,-0.0032030703576281664
1772366267031553500,10.071553466796875,-0.029608956322073936,-0.00600619987854734,0.00419763435292989
1772366267041624600,10.08162451171875,-0.03350421019494533,-0.0049350452493876215,0.0017330708703026175
1772366267051694300,10.0916943359375,-0.021094225955009458,0.003461401633406058,0.0010712824933230877
1772366267061764400,10.101764404296874,-0.024986557218432424,0.0038996834528166797,0.003431253090314567
1772366267071834600,10.111834716796874,-0.059680269458889955,0.00733761287909001,0.0009500672664493322
1772366267081904400,10.121904296875,-0.03858838159143924,0.0034847368432208894,0.002148300607688725
1772366267091975400,10.131975341796876,0.0139250649780035,0.000981868910510093,-0.010019107048027217
1772366267102045400,10.14204541015625,-0.05416121377646923,0.007604483654350042,0.002841470503620803
1772366267112115500,10.152115478515626,-0.049822892311215394,0.0003981598715763539,0.0005932166527956724
1772366267122185500,10.162185546875,-0.03919511531293392,0.011484001101972535,0.007107530450262129
1772366267132255500,10.17225537109375,-0.04157879557907581,0.0046835821058135475,0.010914046593755482
1772366267142326300,10.182326171875,-0.015090017104148864,0.0031726843525189904,0.0065159577652812
1772366267152396500,10.192396484375,-0.03947743938565254,-0.0009208229056559503,0.0004804039280861616
1772366267162466600,10.202466552734375,-0.04305938952565193,0.002372674814937636,0.005472476594336331
1772366267172536300,10.212536376953125,-0.031977439019083974,0.0030147264449857172,0.005937902148999273
1772366267182606300,10.2226064453125,-0.029136662635207176,0.0007457038007676601,-0.0011447861209511756
1772366267192677400,10.232677490234375,-0.00730067840218544,0.00550278040105477,-0.009749386728554963
1772366267202747400,10.242747314453124,-0.011479425391554832,0.012397206956753507,0.010576521735079586
1772366267212817400,10.2528173828125,0.23069968394339083,0.025623128955764695,-0.05473945205584168
1772366267222887400,10.262887451171874,-0.12033376786410808,-0.007405335219902917,0.040005737576074896
1772366267232958500,10.27295849609375,-0.09126023359298706,-0.012143387459311634,-0.017899886893108487
1772366267243028500,10.283028564453126,-0.13481295959353445,0.0014355309621430932,0.016591069316864014
1772366267253098500,10.293098388671876,-0.11126257265806197,0.009928305225726216,0.012793284469097851
1772366267263168500,10.30316845703125,-0.16212240680158138,0.007894799237279222,0.023069361952878533
1772366267273238500,10.313238525390625,-0.1388806474238634,0.0033821989173535255,0.018847981398180128
1772366267283308500,10.32330859375,0.02179915935397148,0.011303639566386118,-0.00952967956326902
1772366267293379600,10.333379638671875,0.07421265268027782,0.0060812470092903815,-0.019310411278158426
1772366267303449300,10.343449462890625,0.04577683179080486,0.005219899205910042,-0.022132190700620412
1772366267313519400,10.353519287109375,-0.04443944570720196,0.007512996845459565,0.010908968559838831
