time,seconds_elapsed,z,y,x
1772366586550005200,0.111005126953125,-0.02164309200942516,-0.003216107935714535,-0.001825973318144679
1772366586560075300,0.1210751953125,-0.024057167413830755,0.0026769869571784508,0.003236863029375672
1772366586570145000,0.13114501953125,-0.01677110205888748,-0.0036254056892357765,-0.00222954915035516
1772366586580215300,0.14121533203125,-0.018929741397500036,-0.002602761810342781,-0.0016335560185834765
1772366586590285300,0.151285400390625,-0.02258124964237213,0.0008945148540427908,-0.0034697584697976707
1772366586600355000,0.16135498046875,-0.015160159730911255,0.0008235730762593447,-0.0008784633349627255
1772366586610425300,0.17142529296875,-0.01900456019937992,-0.007838685135869309,0.008572123110108076
1772366586620495400,0.181495361328125,-0.00950140331685543,0.0036258988795801997,0.003542202651500702
1772366586630565000,0.191565185546875,-0.0242687643378973,0.005516822626139037,-0.0027937223717570303
1772366586640635100,0.20163525390625,-0.03248421949744224,0.0032804829753935337,-0.0019300547471269964
1772366586650705400,0.211705322265625,-0.027111878809332846,0.005210510323056951,0.0021535978373140095
1772366586660775200,0.221775146484375,-0.02384089431464672,0.009309776035160757,0.013821202744729815
1772366586670845200,0.23184521484375,-0.02950900307893753,0.0012926244932692497,0.00524915269985795
1772366586680915200,0.241915283203125,-0.024863807621598243,-0.00876984677244909,-0.0073510203499346964
1772366586690985200,0.251985107421875,-0.017706337082386017,0.0003786012211581692,0.0053037689639255405
1772366586701055200,0.26205517578125,-0.019665654456615448,0.00558649489544332,0.006563121375255286
1772366586711125200,0.272125244140625,-0.026987375646829605,0.006273349215020425,-0.0004329115245491266
1772366586721195300,0.2821953125,-0.02218085214793682,-0.00016569825599435715,0.004727430380694568
1772366586731265300,0.292265380859375,-0.022632687568664548,0.00528457563968841,-0.0016598960362374782
1772366586741335000,0.3023349609375,-0.03912497268617153,-0.0011256795616820454,0.0014125702116638422
1772366586751405300,0.3124052734375,-0.029107436540722845,-0.0020830944509478283,-0.0017834858832880853
1772366586761475300,0.322475341796875,-0.015624270111322402,0.008348447589180432,0.000027070670016109943
1772366586771546000,0.332546142578125,-0.02311491812765598,0.010237745634233578,0.0017774580013006924
1772366586781616000,0.3426162109375,-0.03016425211727619,-0.003796894365199841,0.005422682635858655
1772366586791686400,0.352686279296875,-0.02073474499285221,0.006006368841906078,0.0036083997555077076
1772366586801756200,0.362756103515625,-0.025833529436588287,0.011858250374998897,-0.0030731969002634283
1772366586811826200,0.372826171875,-0.023584873726963995,0.00321673355679959,0.0034370252439752218
1772366586821896200,0.382896240234375,-0.02448796004652977,0.008530370894190854,-0.0005617620686069131
1772366586831966200,0.39296630859375,-0.024173487269878387,0.002332032277295366,-0.00019088292960077523
1772366586842036200,0.4030361328125,-0.02911678889095783,0.006108833702537231,0.003357347603887319
1772366586852106200,0.413106201171875,-0.028826866033673286,-0.0001439430819125846,0.00039411388412117956
1772366586862176300,0.42317626953125,-0.03467266945242881,-0.0003788934821030125,-0.002932728983648121
1772366586872246300,0.433246337890625,-0.04096154046356678,-0.0030264534153975546,0.005003872701898217
1772366586882316000,0.44331591796875,-0.017016016730666158,0.003979087098268792,0.005028970610536635
1772366586892386300,0.45338623046875,-0.024047230541706082,0.0023545181037392467,0.002810929234884679
1772366586902456300,0.463456298828125,-0.026294717207551,0.005833039835304953,-0.008979790595546364
1772366586912526000,0.473526123046875,-0.03766892865896225,0.004102046757657081,0.003688990711048245
1772366586922596000,0.48359619140625,-0.02644903098642826,-0.000920064853830263,0.002389781213365495
1772366586932666400,0.493666259765625,-0.03242752087414264,0.0009869652107357978,0.001815780717693269
1772366586942736100,0.503736083984375,-0.03496609944105148,0.0006585232742363587,-0.00031487463545054194
1772366586952806100,0.51380615234375,-0.017462591454386712,0.00020952826456632464,0.0070972282519564025
1772366586962876400,0.52387646484375,-0.026751228803396223,-0.0014072227496886626,0.006249269653111696
1772366586972946200,0.5339462890625,-0.03258709535002708,-0.009838941875263116,0.007759966477006673
1772366586983016200,0.54401611328125,-0.03541501225233078,-0.008843829890689813,0.007335493987239897
1772366586993086500,0.55408642578125,-0.022550854504108427,0.005372706014290451,0.014540639593079685
1772366587003157200,0.5641572265625,-0.023005028012394905,0.002746111237211153,0.008591266201995313
1772366587013227300,0.574227294921875,-0.014025018221139907,-0.0013091783358482644,0.0035399741617962717
1772366587023297300,0.58429736328125,-0.0342290173381567,0.008812480337778105,0.003010835721157491
1772366587033367000,0.594366943359375,-0.026452538117766378,-0.0022228088823147115,0.002590308754146099
1772366587043437300,0.604437255859375,-0.02661094354987144,-0.00543495302896481,0.005265811573714018
1772366587053507300,0.61450732421875,-0.025426117679476737,0.003249681411753408,0.006223989081382751
1772366587063577000,0.6245771484375,-0.04204290595948696,0.0039943303331732745,0.0010036240845918655
1772366587073647400,0.6346474609375,-0.03397299675047397,0.0011425713309785352,-0.005822312945313751
1772366587083717400,0.64471728515625,-0.021704466807842254,-0.00492003490992356,0.0008593567756935953
1772366587093787100,0.654787109375,-0.03068739920854568,0.0012870167363900691,0.0013685484068468212
1772366587103857200,0.664857177734375,-0.03248363497555256,0.010866001634369604,-0.0017980623979121447
1772366587113927200,0.67492724609375,-0.04146715189814568,0.00891772167738527,0.005436966889537871
1772366587123997200,0.6849970703125,-0.03399111692905426,-0.0017329612724483012,0.0023379779608920215
1772366587134067200,0.695067138671875,-0.03264496301710605,0.0001908326972508803,0.003965579162724316
1772366587144137200,0.70513720703125,-0.028148820641636846,0.0006211732388008385,-0.001862104077450931
1772366587154207200,0.715207275390625,-0.026942951983213424,0.005514260776294395,0.004189743307419121
1772366587164277200,0.72527734375,-0.03218143715858459,0.009125208681914954,-0.008379998071491718
1772366587174347300,0.73534716796875,-0.03396890509724617,0.00389850527588278,0.002717442265152931
1772366587184417300,0.745417236328125,-0.04219488165080547,0.004531273054354824,0.004978519064933061
1772366587194487300,0.7554873046875,-0.037999768048524854,-0.0013813667892245574,-0.0009191972041502595
1772366587204558000,0.76555810546875,-0.030662849289178847,0.01070756880280096,-0.0047102600501850245
1772366587214628000,0.775628173828125,-0.03709375911951065,0.005477102537103928,0.0030007892511785027
1772366587224698400,0.785698486328125,-0.036331542575359345,-0.0020934012158308176,0.0037807241151109334
1772366587234768100,0.79576806640625,-0.01867079820036888,0.002365550954407081,-0.0024527634469792246
1772366587244838100,0.805838134765625,-0.03646013739109039,-0.000250275833485648,0.004384827488102019
1772366587254908400,0.815908447265625,-0.03481178566217422,0.0006199311297852546,-0.0024574761547148227
1772366587264978200,0.825978271484375,-0.0412350967079401,0.009116824446059763,0.0012389672104269266
1772366587275048200,0.836048095703125,-0.037326398831605906,0.002376067781844176,-0.0019308949973434208
1772366587285118500,0.846118408203125,-0.032819735062122345,0.006018310441449284,0.003702763508073985
1772366587295188200,0.856188232421875,-0.03787877201735973,0.000772308679902926,0.003917209976352751
1772366587305258200,0.86625830078125,-0.051772272813320155,0.0037444883245276285,0.006239771172404289
1772366587315328000,0.876327880859375,-0.047106034567952156,0.0010248404025565833,0.007774396861158311
1772366587325398300,0.886398193359375,-0.032271453529596324,0.001035809321142733,-0.0016249343207105993
1772366587335468300,0.89646826171875,-0.028646833291649815,-0.008502135746972636,0.0031781185794621703
1772366587345538000,0.9065380859375,-0.03415186044871807,0.000905415273969993,0.01240085108540952
1772366587355608300,0.9166083984375,-0.041301147681474686,0.007919591185241007,0.002996332271769643
1772366587365678300,0.92667822265625,-0.04247136050462723,0.009735298837698064,0.001064122100174427
1772366587375748000,0.936748046875,-0.03391863621473312,0.004061586883105337,-0.003633826457709074
1772366587385818400,0.946818359375,-0.03494038047790527,-0.0006554043019656091,0.0032560791864991185
1772366587395888400,0.956888427734375,-0.0293839153945446,0.008224359985208138,0.004754135724529623
1772366587405958100,0.966958251953125,-0.030706688430905342,0.0032483205717289817,-0.0008287789743393659
1772366587416029200,0.977029296875,-0.034870237851142884,0.0008780888756271451,0.0006999284302815794
1772366587426099200,0.98709912109375,-0.050256023031473154,-0.0037302314703119917,-0.005116721959225833
1772366587436169200,0.997169189453125,-0.044537645384669304,0.008275437151896766,0.004008906847797334
1772366587446239200,1.0072392578125,-0.03343289852440357,0.003928576187160797,-0.0018741963740438222
1772366587456309200,1.017309326171875,-0.022773557344079015,-0.0023278995248721913,0.0018834391264244913
1772366587466379300,1.027379150390625,-0.035464112091064454,-0.005185083620855584,0.005537321991473436
1772366587476449300,1.03744921875,-0.02257306633591652,0.00789965807548724,-0.0031019480707123875
1772366587486519300,1.047519287109375,-0.029131401938199995,0.0020800942096859216,-0.0037401363763958214
1772366587496589000,1.057589111328125,-0.031660628154873846,-0.00007691029426641762,0.001398432088457048
1772366587506659300,1.067659423828125,-0.02432370939552784,-0.004348463833355344,-0.005064736043661832
1772366587516729000,1.07772900390625,-0.03479366548359394,-0.0011202225018525495,0.0005396963672712444
1772366587526799000,1.087799072265625,-0.02700140417218208,0.004474989989586174,-0.00788713652063161
1772366587536869400,1.097869384765625,-0.027291911551356313,0.0006453852314502,-0.007982267458178103
1772366587546939100,1.107939208984375,-0.03162731040716171,0.0010755522430641576,0.0007895064098760485
1772366587557009200,1.118009033203125,-0.041949382457137106,-2.1919570863246918e-7,0.0008506620125845074
1772366587567079400,1.128079345703125,-0.03909925372302532,-0.004416396236722357,0.0005832432480528951
1772366587577149200,1.138149169921875,-0.029814708027243612,0.0037639830428641287,-0.004487776405923068
1772366587587219200,1.14821923828125,-0.026065000104904174,0.005342899964493699,0.00022219138331711292
1772366587597289200,1.158289306640625,-0.03354103507399559,-0.003243772260774858,-0.00458736432287842
1772366587607359200,1.168359130859375,-0.03278466374874115,-0.004224010903201997,-0.0011070479264482856
1772366587617429200,1.17842919921875,-0.026792729857563972,-0.0037277381191262973,-0.015159830937348306
1772366587627499300,1.188499267578125,-0.03292261091470718,-0.004867300075688399,-0.004701747950166464
1772366587637570000,1.198570068359375,-0.035460020437836644,0.004579162750113755,0.007398695416562259
1772366587647640300,1.208640380859375,-0.036652445092797276,0.004542013644077815,-0.00027238720059394837
1772366587657710300,1.21871044921875,-0.03186170368492603,0.004973692192765884,-0.006994169736281037
1772366587667780000,1.228780029296875,-0.026021160963177678,0.003920155418687499,0.006576200052537023
1772366587677850400,1.238850341796875,-0.03409749991297722,0.0012339439754374324,0.006073620825260877
1772366587687920400,1.24892041015625,-0.03377835096120834,-0.0036020933123072606,0.0014649945186451076
1772366587697990100,1.258990234375,-0.03839958102107048,0.002857544855587184,-0.007238317223079502
1772366587708060200,1.26906005859375,-0.02657178058326244,0.004150388544565066,-0.001974514943361282
1772366587718130200,1.279130126953125,-0.027018939828872678,-0.003007392521901056,0.0028641207268461583
1772366587728200200,1.2892001953125,-0.031655951979756354,0.003978484310070052,-0.0008784633349627255
1772366587738270200,1.299270263671875,-0.039727614754438395,0.010434154122322797,-0.0011296616170555353
1772366587748340200,1.30934033203125,-0.022670681491494177,-0.0002912745641544461,0.005425934038870036
1772366587758410200,1.31941015625,-0.033439328265190124,0.0002461659139487892,0.0019453984467312693
1772366587768480300,1.329480224609375,-0.027149288210272786,0.00906404394605197,-0.002567877726629376
1772366587778550300,1.33955029296875,-0.027595862933993336,0.003688543186476454,0.0019583675261586903
1772366587788620300,1.349620361328125,-0.02654138544499874,-0.004430397362611256,0.0022476693289354443
1772366587798690300,1.359690185546875,-0.026836568999290464,0.0036864379943581296,0.003993453550338745
1772366587808760000,1.369760009765625,-0.027130583509802818,-0.004206155586102977,-0.002000781895779073
1772366587818830300,1.379830322265625,-0.02952244708240032,0.0035149447518168014,-0.0010355901254341005
1772366587828900400,1.389900390625,-0.03206570182442665,0.006308073468529619,0.001958257928304374
1772366587838970000,1.39997021484375,-0.02593056007027626,0.0003280400777002796,0.0009190510736778377
1772366587849040400,1.410040283203125,-0.025474048474431035,-0.0023800772366812453,0.004665397995151579
1772366587859111400,1.420111328125,-0.018891162952780722,0.0019130716462852431,0.0040471564989537
1772366587869181200,1.43018115234375,-0.03609890286326408,-0.000247841847804375,0.0036345205774530767
1772366587879251200,1.440251220703125,-0.025176526832580565,0.005138691762438975,0.007501388606056571
1772366587889321200,1.4503212890625,-0.027717443487048146,-0.003823727573198266,0.003382810838706791
1772366587899391200,1.46039111328125,-0.023826281267404555,-0.008482672994676976,-0.00647997313644737
1772366587909461200,1.470461181640625,-0.030406244179606436,-0.002501972883567214,-0.002076294817402959
1772366587919531300,1.48053125,-0.030256022053956985,-0.005099958054092712,-0.002337393439002335
1772366587929601300,1.490601318359375,-0.03174889096021652,0.0004909572881413623,-0.00359221580568701
1772366587939671300,1.50067138671875,-0.02381692891716957,0.009079131917329505,-0.007444361189194023
1772366587949741000,1.510740966796875,-0.013044775012135504,0.0005078125248197465,0.003420695163682103
1772366587959811300,1.520811279296875,-0.028607670325040815,-0.0010192691782955079,-0.00243193985465914
1772366587969881300,1.53088134765625,-0.025158991175889968,0.00016663897091057152,-0.0030029081430286166
1772366587979951000,1.540951171875,-0.035624271088838574,0.006393765290873125,0.0038138226671144363
1772366587990021000,1.551021240234375,-0.026938860329985617,0.01208964341150131,-0.002156556979380548
1772366588000091400,1.56109130859375,-0.032764205482602116,-0.0023049113749293608,0.005117891003005207
1772366588010161200,1.5711611328125,-0.02871463783085346,-0.006919446832523681,0.004730900979414582
1772366588020231200,1.581231201171875,-0.029908231529593467,0.0035586834288435054,-0.0026574557062238454
1772366588030301400,1.591301513671875,-0.024212650236487387,0.00004538721141871065,0.0005430208355188369
1772366588040371500,1.601371337890625,-0.03423018638193607,-0.003947536615957506,0.004462422768957913
1772366588050441200,1.611441162109375,-0.039762686067819596,0.0002626832239096984,-0.002912818706780672
1772366588060511200,1.62151123046875,-0.02659574598073959,-0.004784877922665328,0.0017093612011522053
1772366588070582300,1.631582275390625,-0.018369184905290603,0.008502546738926321,-0.000926613325625658
1772366588080652300,1.64165234375,-0.0261509248226881,0.0043819048786535855,0.0023582900965586303
1772366588090722300,1.651722412109375,-0.034385669204592705,-0.0011503573452122508,0.00044628246277570723
1772366588100792300,1.661792236328125,-0.03348667453825473,0.00029342085546813906,0.000017645254544913767
1772366588110862300,1.6718623046875,-0.03183598472177982,-0.0045776512130396435,-0.0018149404674768447
1772366588120932400,1.681932373046875,-0.026748890715837477,-0.004198186908778734,-0.0025963001035153865
1772366588131002400,1.69200244140625,-0.035869185760617255,-0.0046471316860988736,-0.000022102233953773973
1772366588141072400,1.702072265625,-0.027333412605524063,0.0012972824020776898,0.0018000351592898367
1772366588151142400,1.712142333984375,-0.03466156353652477,0.0038578490385087205,0.0035470614897087213
1772366588161212400,1.72221240234375,-0.033765491479635236,-0.004079579197522253,0.00530775101929903
1772366588171282200,1.7322822265625,-0.029275778844952582,0.003690767109603621,0.003964629314653575
1772366588181352400,1.7423525390625,-0.02882745055556297,0.006645630293246358,0.0015786474935710428
1772366588191422500,1.75242236328125,-0.03331540962457657,-0.0003965478698024526,0.0019361922269687055
1772366588201492200,1.7624921875,-0.040341947260499,0.00044086650214157993,0.0007340133629739284
1772366588211562500,1.7725625,-0.03285831350684166,0.0010277356125414372,0.001666910298913717
1772366588221632300,1.78263232421875,-0.03614975626766682,0.005979225106653757,-0.009989844420924782
1772366588231702300,1.792702392578125,-0.034654549273848534,0.003929667599126697,-0.005823445456475019
1772366588241772300,1.802772216796875,-0.02492927407324314,0.001841166320699267,0.0029846783665940166
1772366588251843300,1.81284326171875,-0.03780453773736953,-0.007509206586331129,0.0013466288359835744
1772366588261913300,1.822913330078125,-0.030628947019577024,-0.013991988167795353,-0.0037446664210408925
1772366588271983400,1.8329833984375,-0.029283962151408195,-0.0040088246494065964,-0.0004817556349560618
1772366588282053400,1.843053466796875,-0.0369172335088253,-0.000043889374076388774,-0.0008410539340227842
1772366588292123400,1.853123291015625,-0.044697804382443425,0.002078916032752022,0.0025940716138109564
1772366588302193400,1.863193359375,-0.03137479695081711,0.00018581402883864937,-0.0017473551239818334
1772366588312263200,1.87326318359375,-0.038406595283746715,0.0005824166975682601,-0.0035245939295738935
1772366588322333400,1.88333349609375,-0.031520927423238754,0.0004777964124688878,-0.0021374138874933122
1772366588332403500,1.893403564453125,-0.0379541753411293,0.0043073692045640195,0.00043930473271757363
1772366588342473200,1.90347314453125,-0.03720423375666141,0.0006451477694325149,0.001247442777827382
1772366588352543200,1.913543212890625,-0.03750175539851188,0.0018047296007163822,0.004732070023193955
1772366588362613500,1.923613525390625,-0.03930325186252594,-0.0022394997222116215,-0.0020028642550110817
1772366588372683300,1.933683349609375,-0.03825461959242821,-0.0014798176284413784,-0.006306589330919087
1772366588382753300,1.943753173828125,-0.035414427730441095,0.002668885849113576,-0.005646043062955141
1772366588392823600,1.953823486328125,-0.03690905020236969,-0.0025517942415084686,-0.0017327420767396687
1772366588402893300,1.963893310546875,-0.039755087283253665,-0.0056646701316116375,0.001921579179726541
1772366588412963300,1.97396337890625,-0.030778000101447104,-0.0022414085515076294,-0.003946289940364659
1772366588423033300,1.984033447265625,-0.02808335418999195,-0.0024650612395489585,-0.0004559270739555359
1772366588433103400,1.994103271484375,-0.02987842091321945,-0.0006044823989039287,-0.007017404481396079
1772366588443173400,2.00417333984375,-0.04020926079154014,0.001150179248698987,0.0009377923067659139
1772366588453244400,2.014244384765625,-0.03316752558648586,-0.002911243237624876,-0.002452361588180065
1772366588463314200,2.024314208984375,-0.029869068562984463,-0.0036121123828226696,-0.007250044193491339
1772366588473384400,2.034384521484375,-0.03136602912247181,-0.003038312816550024,-0.00500193647313863
1772366588483454500,2.044454345703125,-0.034361703807115555,-0.002974604497151449,-0.009718114807456732
1772366588493524200,2.054524169921875,-0.03735153327286243,-0.0008522192154312506,0.00023881372455507516
1772366588503594500,2.064594482421875,-0.034355858588218685,-0.0013443638136610388,0.000591316956654191
1772366588513664300,2.074664306640625,-0.029862054300308225,-0.0009380617348244413,-0.0028757380994036794
1772366588523734300,2.084734375,-0.04781973579525947,-0.0011476265320088713,0.00011759849768131971
1772366588533804500,2.094804443359375,-0.045720717689394945,-0.0026060862785903735,0.00005856178682297468
1772366588543874300,2.104874267578125,-0.04347264650166034,0.010015709514543414,-0.0061451882241293785
1772366588553944300,2.1149443359375,-0.044964930886030194,-0.0003138745550299063,-0.001986205381155014
1772366588564014300,2.125014404296875,-0.03912789529561996,0.0029925054800231006,-0.0030047347739338873
1772366588574084400,2.13508447265625,-0.044212651214003564,-0.005353704486298375,0.00408138756211847
1772366588584154400,2.145154296875,-0.03897591960430145,-0.00769670568217989,-0.003274930017441511
1772366588594224400,2.155224365234375,-0.025213936233520508,-0.0014773060109466313,-0.0007185965981334447
1772366588604294400,2.16529443359375,-0.037189620709419245,0.010406960154720582,-0.0036604222036898133
1772366588614364400,2.175364501953125,-0.03598667466044426,0.0019954892327310515,-0.0006755246413871646
1772366588624434400,2.185434326171875,-0.03718026835918426,-0.011533685462595894,0.00029602380450814963
1772366588634504200,2.195504150390625,-0.043916883137822146,0.0036231498000677672,0.00025912586022168395
1772366588644574500,2.205574462890625,-0.04047346468567848,0.0018663372945738955,0.002999729805253446
1772366588654645500,2.2156455078125,-0.036732524591684336,-0.006225532584497704,-0.0001210690964013338
1772366588664715300,2.22571533203125,-0.03612695991396904,-0.000774792897934094,0.003182867819815874
1772366588674785300,2.235785400390625,-0.04690145190656185,0.006829868852929212,0.005400251608341932
1772366588684855600,2.24585546875,-0.036274259430170055,0.0035055787018500265,0.011749547569826244
1772366588694925300,2.25592529296875,-0.0347737917393446,0.006061848189076408,0.00048065965641289944
1772366588704995300,2.265995361328125,-0.03671966511011123,0.005989618636504747,-0.007925788030587137
1772366588715065300,2.2760654296875,-0.040162499040365215,-0.0015343242946546523,-0.0033461686227470636
1772366588725135400,2.28613525390625,-0.033283260920643806,-0.0002731041532242671,-0.005827171783521771
1772366588735205400,2.296205322265625,-0.041508068430423734,-0.0010302335303043946,-0.003453026530705392
1772366588745275100,2.306275146484375,-0.044649873587489126,0.001789637062861584,-0.004489420373737812
1772366588755345400,2.316345458984375,-0.030437808361649513,-0.005593029667506926,-0.00474094744939357
1772366588765415400,2.32641552734375,-0.04121814557313919,-0.007489894531085155,-0.004591529041342437
1772366588775485200,2.336485107421875,-0.03553425471782684,-0.003498833867232315,0.0056724926784634585
1772366588785555500,2.346555419921875,-0.0427162751764059,0.009548662824952044,-0.0026874489856883884
1772366588795625500,2.35662548828125,-0.04346621676087379,0.010946400793665089,-0.0009075432989746332
1772366588805695200,2.3666953125,-0.0371872826218605,0.0053257433337159455,-0.00821205762606114
1772366588815765500,2.376765625,-0.05199731374084949,0.0029578862577909603,0.00026471535079181194
1772366588825835500,2.38683544921875,-0.03672667937278747,0.009763511152029967,-0.002699249021336436
1772366588835905300,2.3969052734375,-0.03687631697654724,0.0026878965102601795,-0.0037270211664959785
1772366588845975300,2.406975341796875,-0.040920623931288716,-0.00021303539590444414,-0.007702391070872545
1772366588856045300,2.41704541015625,-0.04481470876038074,0.005175169581617229,-0.004474442000314593
1772366588866115300,2.427115234375,-0.028063480445742604,-0.00035478652073070405,-0.0008083937734365463
1772366588876186400,2.437186279296875,-0.037331075006723405,0.0027417181898839772,-0.003732939450629055
1772366588886256400,2.44725634765625,-0.04152209695577621,-0.008585274852626026,-0.0049523251777514815
1772366588896326400,2.457326416015625,-0.0415267731308937,-0.003915314846788533,-0.00551595040988177
1772366588906396400,2.467396484375,-0.03298924641013145,-0.008841802330384962,-0.003662066171504557
1772366588916466200,2.477466064453125,-0.04001753761172294,-0.0036381327400682494,0.0027184651784598825
1772366588926536400,2.487536376953125,-0.04301496586203575,-0.001285952723887749,-0.0008420037820935248
1772366588936606500,2.4976064453125,-0.034789573830366134,0.0035822104349033904,-0.0039515506373718375
1772366588946676200,2.50767626953125,-0.03838379893004894,-0.007467883628676645,-0.005095386910252272
1772366588956746200,2.517746337890625,-0.028209610918164253,-0.0032291318140691143,-0.007061718547157943
1772366588966816500,2.52781640625,-0.03554068445861339,-0.004178422762383707,-0.007464600259624421
1772366588976886300,2.53788623046875,-0.030150808113813397,-0.0008342314675915985,-0.0034996786840260025
1772366588986956300,2.547956298828125,-0.0346428588360548,-0.00004894457510672509,-0.005206373004056513
1772366588997026600,2.558026611328125,-0.03284253141582012,-0.000661016625422053,-0.0034480946272611615
1772366589007096300,2.568096435546875,-0.03193769153058529,0.0007416806461988017,0.0030170827988535162
1772366589017166300,2.578166259765625,-0.03507949668765068,-0.012602068179356865,-0.004003463487699628
1772366589027236400,2.588236328125,-0.030139702197909353,-0.004656735198083333,0.001129552019201219
1772366589037306400,2.598306396484375,-0.031339141115546226,0.006955869852774776,-0.0022080679709091783
1772366589047379700,2.608379638671875,-0.023404256463050842,0.004197296426212415,-0.006428681340627372
1772366589057449700,2.61844970703125,-0.03283084097802639,0.0031589206886477768,-0.0020785598397254942
1772366589067519700,2.628519775390625,-0.031183073770999905,-0.0014729403630830346,-0.0038249651156365867
1772366589077589800,2.63858984375,-0.03073240739405155,-0.0034058720538858323,-0.0019649433974176646
1772366589087659800,2.64865966796875,-0.03282850289046764,-0.00044873928134329613,-0.0016986206114292144
1772366589097730600,2.65873046875,-0.03253098124861717,-0.00025702066810335964,-0.004283997462131083
1772366589107800800,2.66880078125,-0.02370411619246006,0.003624825733923353,0.0024065131524577737
1772366589117870800,2.678870849609375,-0.024131401693820952,-0.007133144382131286,-0.0036665596835315224
1772366589127940600,2.688940673828125,-0.03487549854815006,-0.003743721139547415,-0.00850435510352254
1772366589138010600,2.6990107421875,-0.02799976755976677,0.0061687654625391585,-0.00003287935629487037
1772366589148081000,2.709080810546875,-0.02903787843585014,0.008706754940981045,-0.00022759821079671382
1772366589158150700,2.719150634765625,-0.024709493842720982,0.007251610529492609,-0.005583097361959517
1772366589168220700,2.729220703125,-0.022905659291148184,-0.0014111271732486783,-0.005831592230312526
1772366589178291000,2.739291015625,-0.030392215654253957,-0.000756439823913388,-0.006111943541653454
1772366589188360700,2.749360595703125,-0.020665771409869194,0.0018949514677049592,-0.010308701111748813
1772366589198430700,2.7594306640625,-0.030686814686655996,0.002783977295877412,0.0007369359724223614
1772366589208500700,2.769500732421875,-0.026941198417544363,-0.000878732763021253,-0.004101517034694552
1772366589218570800,2.77957080078125,-0.030682138511538504,-0.0002194605701137334,-0.0026018165288493036
1772366589228640800,2.789640869140625,-0.02694353650510311,0.0034814808736322446,-0.00281100230012089
1772366589238710500,2.79971044921875,-0.025296353819966314,0.0007620658471016213,-0.009820479203388095
1772366589248780800,2.80978076171875,-0.02813479211628437,0.009019127092091366,-0.0019442659355700014
1772366589258850800,2.819850830078125,-0.02169628350138664,-0.0011236976671498268,0.005197130251675844
1772366589268920600,2.829920654296875,-0.02034954506754875,-0.0002649528128094971,-0.0019643223429098725
1772366589278990800,2.839990966796875,-0.022898645028471946,0.004204662315337919,-0.005385821224190295
1772366589289060900,2.850060791015625,-0.0314274039208889,0.0000263811168493703,-0.004933949270844459
1772366589299131600,2.860131591796875,-0.023048867154121397,-0.00024082758512813596,-0.0001651274338364601
1772366589309201700,2.87020166015625,-0.03068096946775913,-0.0036841775386128573,-0.00676627926453948
1772366589319271700,2.880271728515625,-0.021404607078433037,0.0010321788922185078,-0.0024669381028041243
1772366589329341700,2.890341796875,-0.024693711751699446,-0.007220160511881113,-0.0039217765536159275
1772366589339411700,2.90041162109375,-0.01466623873412609,0.004764976778952405,-0.005520772715471685
1772366589349481700,2.910481689453125,-0.021999650362133978,-0.007121846669982187,-0.008254545060917735
1772366589359551700,2.9205517578125,-0.02783551690876484,-0.0022570764780975878,-0.006614632366783916
1772366589369621800,2.930621826171875,-0.02184884371459484,-0.0020071842371020463,0.001787358340807259
1772366589379691800,2.94069189453125,-0.022449147695302964,-0.00022782653965987263,-0.0007838438540697097
1772366589389761800,2.95076171875,-0.021993220621347426,-0.0015358586646150797,0.00029207828175276514
1772366589399831800,2.960831787109375,-0.026927169892191884,-0.005740918272174895,0.0026372166357934474
1772366589409901600,2.970901611328125,-0.029020342779159543,-0.001035937185306102,-0.002114215674996376
1772366589419971600,2.9809716796875,-0.02781798125207424,-0.00054506666213274,-0.007242299278452992
1772366589430041900,2.991041748046875,-0.01929039140343666,0.0010616333155659958,-0.0005591682527214288
1772366589440111600,3.001111572265625,-0.021385902377963065,0.008441085175541228,0.002971490091457963
1772366589450181600,3.011181640625,-0.014353519523143768,-0.0056403576742624865,-0.005596650963276624
1772366589460252000,3.021251953125,-0.02797171050906181,-0.00029229291088413444,0.0006549202447757124
1772366589470322700,3.03132275390625,-0.019593758264183997,-0.006576757174963132,-0.0073208444073796265
1772366589480392700,3.041392822265625,-0.020786767441034314,0.004144351529423147,0.002047799375280738
1772366589490462700,3.051462646484375,-0.02527472651004791,-0.0007101529967738315,-0.00211816119775176
1772366589500532700,3.06153271484375,-0.023927403554320333,-0.0026140047235647217,0.005524718238227069
1772366589510602800,3.071602783203125,-0.01405190622806549,-0.008636164789646864,-0.0015194646522402762
1772366589520672800,3.0816728515625,-0.021384148812294005,-0.001755862657423131,0.0020416618954390287
1772366589530742500,3.091742431640625,-0.007168576455116271,0.002166215290292166,-0.007826382776722311
1772366589540812800,3.101812744140625,-0.016447276932001112,-0.0047777586287120356,-0.006493636335618794
1772366589550882800,3.1118828125,-0.028567922836542126,0.001336504734191112,0.00202978879455477
1772366589560952600,3.12195263671875,-0.022729718202352523,-0.0028100889846682546,-0.0018196897078305483
1772366589571022800,3.13202294921875,-0.028416531667113304,0.006802734250831418,-0.002575476511195302
1772366589581092900,3.1420927734375,-0.016595160970091817,-0.0013010087291244416,-0.004497676745429635
1772366589591162600,3.15216259765625,-0.02227788278162479,0.0004908248574007302,0.0032115093924105164
1772366589601232600,3.162232666015625,-0.02063362270593643,0.003627414983231574,-0.005949117662757635
1772366589611302700,3.172302734375,-0.0333487273722887,0.003320824118936434,-0.004235884004086256
1772366589621373700,3.182373779296875,-0.022270868518948553,-0.004137177436542697,-0.003662687226012349
1772366589631443700,3.192443603515625,-0.021971593311429023,0.005839455876359716,-0.003970328403078019
1772366589641513700,3.202513671875,-0.02646072142422199,-0.0016482101650210097,-0.0020074673648923635
1772366589651583700,3.212583740234375,-0.029160628032684325,-0.00862752025888767,-0.0014098667979240416
1772366589661653800,3.22265380859375,-0.02512391986250877,0.005483185218018479,-0.0026824805496260522
1772366589671723800,3.232723876953125,-0.025875030490756033,-0.0015201679051388055,-0.01085873620994389
1772366589681793800,3.242793701171875,-0.027670097213983533,-0.00622654636465013,-0.0009733750768005847
1772366589691863800,3.25286376953125,-0.019890110862255096,0.005914114848035387,-0.009254552416317164
1772366589701933600,3.26293359375,-0.03305646642744541,0.00024850400150753556,-0.004721767824888229
1772366589712003600,3.273003662109375,-0.02916822681725025,0.000248490301775746,0.0009139730397611856
1772366589722073900,3.283073974609375,-0.023629297390580176,0.006038860039133578,0.004131510314159095
1772366589732143600,3.2931435546875,-0.02467734513878822,-0.0011793322779471054,-0.00036463206131011247
1772366589742213600,3.303213623046875,-0.0270703777551651,-0.0018015877955593167,-0.0022737901508808134
1772366589752284000,3.313283935546875,-0.027664251995086667,-0.003945134596317075,-0.008281834926642476
1772366589762353700,3.323353759765625,-0.03214928845465183,-0.00409866749048233,-0.0011251315724104642
1772366589772424700,3.3334248046875,-0.03364215736091137,-0.002741846054047346,-0.007923084616847336
1772366589782494700,3.34349462890625,-0.03498538866341114,-0.0076244989624945445,-0.0029088731840252874
1772366589792564700,3.353564697265625,-0.02900222260057926,0.0005442446782253683,-0.0032839170414954424
1772366589802634800,3.363634765625,-0.03558744620978832,-0.0011720074880169705,0.0008942088933661579
1772366589812704800,3.373704833984375,-0.04083119208216667,-0.00149645366941113,-0.0013687310699373482
1772366589822774500,3.3837744140625,-0.022575404423475266,-0.011348104329197667,0.0004354322751984
1772366589832844800,3.3938447265625,-0.02976034749150276,-0.012320776153099722,-0.0017241203788667917
1772366589842914800,3.403914794921875,-0.02377601238489151,0.0008757370883366092,0.0004956745624542236
1772366589852984600,3.413984619140625,-0.0231751238822937,0.004824282917869277,-0.0025760610330849885
1772366589863054800,3.424054931640625,-0.030354806253314017,-0.005469407854415476,0.003482508353516459
1772366589873124900,3.434124755859375,-0.03364683353602886,-0.0010018613857682795,-0.0020554346924647688
1772366589883194600,3.444194580078125,-0.028708792611956593,-0.0013971808462869375,-0.00881111949775368
1772366589893265000,3.454264892578125,-0.0293055894613266,0.0018367276075994595,-0.0006654781714081763
1772366589903336000,3.4643359375,-0.02586567814052105,-0.0077567013742635025,0.008139832640066742
1772366589913405700,3.47440576171875,-0.023323007920384407,-0.0011118062999565153,0.0015396306574344634
1772366589923475700,3.484475830078125,-0.03304068433642387,-0.008897181212855503,0.0008323226382955908
1772366589933545700,3.494545654296875,-0.03424012325406074,-0.003698018834297545,-0.006114866151101887
1772366589943615700,3.50461572265625,-0.030798458367586132,-0.012840228883363307,-0.0023812691133469344
1772366589953685800,3.514685791015625,-0.03334522024095058,-0.008489125568349845,0.0011451149145141244
1772366589963755800,3.524755859375,-0.023467969349026677,-0.00426321953558363,-0.003345839829184115
1772366589973825800,3.53482568359375,-0.024066519764065743,-0.010496821262105367,0.005203085068427026
1772366589983895800,3.544895751953125,-0.027810966989398,-0.00853138467434328,-0.003409223921597004
1772366589993965600,3.554965576171875,-0.02257423537969589,0.00002314798014704138,-0.008365056230686604
1772366590004035600,3.56503564453125,-0.02765899129807949,-0.010551697821076959,-0.006160130064934492
1772366590014105900,3.57510595703125,-0.026159108129143713,-0.0025577536248369143,-0.001747501254454255
1772366590024175600,3.585175537109375,-0.039029695618152616,0.0030988427981734276,0.004931720781140029
1772366590034246700,3.59524658203125,-0.028556232398748396,-0.002387274162448011,-0.004965696115978062
1772366590044313600,3.605313720703125,-0.02122223624885082,-0.005605761284916661,-0.0019203005380928515
1772366590054383600,3.615383544921875,-0.02466740826666355,-0.0003273687908425927,0.0010237535571679473
1772366590064453600,3.62545361328125,-0.03199848180711269,-0.0002548972096759826,-0.004940452076867222
1772366590074523600,3.635523681640625,-0.026009470525383948,-0.007840662463824264,-0.0060569619514048096
1772366590084593400,3.645593505859375,-0.028552725267410276,-0.0011291410272475332,-0.011073255743458866
1772366590094663700,3.65566357421875,-0.023308394873142242,-0.0009435553272720426,0.0009223390093073249
1772366590104733700,3.665733642578125,-0.023454525345563887,-0.007315305149159393,-0.000651778439618647
1772366590114803500,3.675803466796875,-0.033930326652526856,-0.0022104791237041355,-0.005296462440304458
1772366590124873700,3.685873779296875,-0.03199029850065708,0.00446735010582488,-0.0037575259026139973
1772366590134943500,3.695943603515625,-0.02735211730599403,0.0011793185782153159,-0.01020714043341577
1772366590145013500,3.706013427734375,-0.025702012011408804,0.0028968585192458702,-0.00919949776083231
1772366590155083800,3.716083740234375,-0.017624504017829893,-0.0003635771819623187,-0.0034088585954159495
1772366590165153500,3.726153564453125,-0.028245266753435132,-0.008753713054978289,0.0031308088390156626
1772366590175224600,3.736224609375,-0.030192309167981147,0.00391375764394179,0.0050303588500246405
1772366590185294600,3.746294677734375,-0.028090952974557874,-0.0022973080237861723,-0.0042473917787894605
1772366590195364600,3.756364501953125,-0.03496843752861023,-0.002573508316394873,0.0032281682662665843
1772366590205434600,3.7664345703125,-0.03032324207127094,0.0026644060368183997,0.0012983692474663256
1772366590215504600,3.776504638671875,-0.028521745607256888,-0.002401261588605121,-0.0006537146683782338
1772366590225574400,3.786574462890625,-0.028368016350269316,0.0015884930341504514,-0.006551284806989133
1772366590235644700,3.796644775390625,-0.0255278244882822,-0.0033688645117450505,0.0033984467992559074
1772366590245714700,3.806714599609375,-0.029867899519205092,-0.011870242206891998,0.0023499971922487017
1772366590255784400,3.816784423828125,-0.024929858595132828,-0.0009409067124594002,-0.0027356720415875314
1772366590265854700,3.826854736328125,-0.03316226488947868,-0.002780643694475293,-0.0014297770747914908
1772366590275924700,3.8369248046875,-0.02478898881971836,-0.0037491234004497524,-0.008166172657720744
1772366590285994500,3.846994384765625,-0.029573300486803053,0.004383964404999279,-0.0010413622790947557
1772366590296064500,3.857064453125,-0.03421323524713516,0.00039227812006138263,-0.004063194318301975
1772366590306135600,3.867135498046875,-0.03197042475640774,0.004035219465987757,-0.004396956317313015
1772366590316205600,3.87720556640625,-0.028984686943888664,-0.0020234914845088494,-0.004728380228765309
1772366590326275600,3.887275634765625,-0.026293548163771628,-0.006754671025136485,-0.007021240406297147
1772366590336345600,3.897345703125,-0.02869242599904537,-0.011704904710501432,-0.0038517069920897483
1772366590346415600,3.90741552734375,-0.028992870250344274,-0.0029622930048499255,-0.003707439683191478
1772366590356485600,3.917485595703125,-0.0324292744398117,-0.0019807802873663604,0.0013670140368863938
1772366590366555600,3.9275556640625,-0.023297288957238194,-0.006401154012884944,0.000432948057167232
1772366590376625700,3.937625732421875,-0.021649521750211714,-0.004214896014984697,-0.01165284572970122
1772366590386695700,3.94769580078125,-0.024496143352985382,0.0005131508536403999,-0.003640511926822364
1772366590396765700,3.957765625,-0.023448095604777335,-0.002641975009301677,0.0068710548132658
1772366590406835500,3.96783544921875,-0.02898644050955772,-0.015517393937055021,-0.004847988020442426
1772366590416905700,3.97790576171875,-0.02794482250213623,-0.006417552591837011,-0.0037747692983597513
1772366590426976800,3.987976806640625,-0.03138122669160366,-0.0000351809112355113,-0.00006532032117247581
1772366590437043700,3.998043701171875,-0.024348259314894673,-0.009978615207434632,-0.003074658204987645
1772366590447113500,4.008113525390625,-0.02868424269258976,0.0038244810584466904,-0.000015672493167221546
1772366590457183500,4.01818359375,-0.029139585244655607,0.007710620043100789,-0.004328640321455896
1772366590467254500,4.028254638671875,-0.024048984107375142,0.0036932969934074206,0.00038110827207565303
1772366590477324500,4.038324462890625,-0.018957213926315306,0.0006948092971695587,-0.001768361379392445
1772366590487394600,4.04839453125,-0.022401801422238347,0.0067383272451115766,-0.00781516726296395
1772366590497464600,4.058464599609375,-0.02868541173636913,-0.0010786803484894335,-0.004351180946826934
1772366590507534600,4.06853466796875,-0.02898527146577835,-0.0017815222550649195,0.003255823458172381
1772366590517604600,4.0786044921875,-0.03257891204357147,0.008581735755247063,-0.004578011972643434
1772366590527674600,4.088674560546875,-0.041708559438586236,-0.006063510423200204,-0.01047313442584127
1772366590537744600,4.09874462890625,-0.03078910601735115,-0.001852116972976364,0.0011187018316239118
1772366590547814700,4.108814697265625,-0.023607670080661773,-0.0051809874010505155,0.0008087956322357058
1772366590557884700,4.118884765625,-0.02884673977792263,-0.0029644484293181446,-0.006868716725707054
1772366590567954400,4.128954345703125,-0.02570142748951912,-0.0013467612667242064,-0.005909333641640841
1772366590578024700,4.139024658203125,-0.023310732960700988,-0.0018848319324897601,-0.005533047675155103
1772366590588095700,4.149095703125,-0.024959669211506844,-0.004106681833579205,-0.004848536009714007
1772366590598165500,4.15916552734375,-0.028554478833079336,0.007038451836002059,-0.0016385244546458125
1772366590608235500,4.169235595703125,-0.03214928845465183,-0.0009115116546163335,-0.006067008421383798
1772366590618305800,4.179305908203125,-0.02601239313483238,-0.004035370163037441,0.005210574255138635
1772366590628375600,4.18937548828125,-0.03139876234829426,-0.004187980608595535,-0.004805646716058254
1772366590638445600,4.199445556640625,-0.026021160963177678,-0.0032198936282657087,-0.0005277136685326695
1772366590648515600,4.209515625,-0.028274492847919462,-0.000321372874896042,-0.0013674158956855534
1772366590658585600,4.219585693359375,-0.02543605455160141,0.003620423553441651,-0.005951967206969857
1772366590668655600,4.229655517578125,-0.042945407757163045,0.00018467695110011844,0.004024798536673188
1772366590678725600,4.2397255859375,-0.033224224209785456,-0.0010045510997762903,0.005420856004953384
1772366590688795600,4.249795654296875,-0.029929274317622184,0.002824437170429155,-0.0005020677706226706
1772366590698865700,4.25986572265625,-0.029034371304512023,0.00546987364529632,-0.0038488209152594205
1772366590708935400,4.269935302734375,-0.022903905725479123,-0.007344745872775092,-0.0036572438659146426
1772366590719006500,4.28000634765625,-0.033679566761851305,0.00887812945251353,-0.012366035500355064
1772366590729076700,4.29007666015625,-0.03247837427854538,0.003150445121247321,-0.0038958383947610854
1772366590739146800,4.300146728515625,-0.024098668467998505,0.0037220481638563794,0.005671140971593558
1772366590749216500,4.310216552734375,-0.03367898223996162,-0.001465053884149529,-0.006067081486620008
1772366590759286500,4.32028662109375,-0.03382628175616264,-0.006342560260021128,-0.006301949688419699
1772366590769356500,4.3303564453125,-0.03876198459267616,-0.005565305976942181,-0.0048910965098068115
1772366590779426600,4.340426513671875,-0.030529578298330307,0.004181203807936981,-0.004239062341861426
1772366590789496600,4.35049658203125,-0.03202887694537639,-0.000261482214089483,0.00003061433397233486
1772366590799566600,4.360566650390625,-0.03337210824787617,0.0012551146276295183,-0.0004644757065922022
1772366590809636600,4.37063671875,-0.026788638204336166,0.006716129113035276,-0.015008622431010006
1772366590819706600,4.38070654296875,-0.03383037340939045,-0.002048292565625161,-0.011325184677913784
1772366590829776600,4.390776611328125,-0.028888825353980064,-0.00005532408354338258,-0.004501585735566914
1772366590839847700,4.40084765625,-0.03756020758748054,-0.0009412674720631911,-0.00476443792283535
1772366590849917700,4.410917724609375,-0.03261982857584953,-0.005402023440320044,-0.007694463492743671
1772366590859987500,4.420987548828125,-0.04189385287761688,0.005185042521660216,-0.004462130508013069
1772366590870057500,4.431057373046875,-0.02364215687215328,-0.0003991827848833054,-0.0035230960922315716
1772366590880127700,4.441127685546875,-0.03651157531738281,-0.0022827269425848497,0.00153488141708076
1772366590890197500,4.451197509765625,-0.03620937750041485,-0.0005811152230482548,-0.0017000453835353255
1772366590900267500,4.461267578125,-0.027830256211757658,-0.004154128571343608,-0.00022715981937944886
1772366590910337800,4.471337890625,-0.03350888637006283,-0.0017568125054938718,-0.008706380481645465
1772366590920407600,4.481407470703125,-0.029919921967387197,0.003973625471862033,-0.0023258125990629195
1772366590930477600,4.4914775390625,-0.028873627784848213,0.00019837668288964777,-0.005953866903111339
1772366590940547600,4.501547607421875,-0.03889876271486282,0.003821083524962887,-0.0027975948292762037
1772366590950617600,4.51161767578125,-0.03470774076581001,-0.0024557545550866052,-0.006501344718039035
1772366590960688600,4.521688720703125,-0.030070728614926337,-0.006180035775224678,-0.003544650336913764
1772366590970758700,4.531758544921875,-0.036214638197422024,0.0005481719346716999,-0.0008779153456911444
1772366590980828400,4.541828369140625,-0.030231472134590147,-0.004449476522416808,-0.0015156652599573135
1772366590990898700,4.551898681640625,-0.03247428262531757,-0.007081263497844338,-0.0062491600552573795
1772366591000968700,4.56196875,-0.029478607940673827,0.00004991725606378167,-0.0025899068953469393
1772366591011038500,4.57203857421875,-0.03710720312297344,0.0031130768195027484,-0.004333389561809599
1772366591021108700,4.582108642578125,-0.033067572343349456,-0.0008923639961518347,-0.001494841667637229
1772366591031178800,4.5921787109375,-0.031416298004984855,-0.008433052566135302,-0.01529967779945582
1772366591041248500,4.60224853515625,-0.03755027071535587,0.0005056890663923695,-0.004474259337224066
1772366591051318500,4.612318603515625,-0.03305646642744541,0.005402886523422785,-0.004342559248954057
1772366591061388500,4.622388427734375,-0.03276186739504337,0.009410866356035694,-0.003980484470911324
1772366591071458600,4.63245849609375,-0.02034136176109314,0.009473821190185845,-0.005009316061995923
1772366591081529600,4.642529541015625,-0.030659926679730415,0.00265043231039308,-0.006518624646402895
1772366591091599600,4.652599609375,-0.044727614998817444,-0.0071882264370797195,-0.0001156622689217329
1772366591101669600,4.662669677734375,-0.02557283267378807,0.008506026470800862,0.000958396703377366
1772366591111739600,4.67273974609375,-0.04727320782840252,-0.0004663799693109467,-0.0013834902476519346
1772366591121809700,4.6828095703125,-0.03514905479252338,-0.00005800009781960397,-0.0025212986385449764
1772366591131879700,4.692879638671875,-0.03485445576012134,0.0002554725984111428,-0.0028189664108678697
1772366591141949700,4.70294970703125,-0.04099076655805111,-0.005777871015388518,0.004464176334626972
1772366591152019500,4.71301953125,-0.02691957110762596,0.004231714719044976,-0.005146824836544692
1772366591162089500,4.72308935546875,-0.03185527394413948,0.003475777218630537,-0.006439275799877941
1772366591172159700,4.73315966796875,-0.03604629589319229,-0.0006322471886640414,-0.010195084669440984
1772366591182229500,4.7432294921875,-0.03515080835819244,-0.004693888870696537,0.003216879687272012
1772366591192299500,4.753299560546875,-0.03739244980514049,0.0036500286738388238,-0.000427979621104896
1772366591202369800,4.763369873046875,-0.038140053302049635,-0.0013902670483104884,-0.00370272697545588
1772366591212440600,4.773440673828125,-0.04247428311407566,0.007998999397270381,-0.0020783406440168617
1772366591222510600,4.783510498046875,-0.0435182392090559,0.001922122602420859,-0.0033652021167799827
1772366591232580600,4.79358056640625,-0.029601942059397694,-0.0029095992698101327,-0.00320957316365093
1772366591242650600,4.803650634765625,-0.04022504288256168,-0.007870445680734701,-0.005708294644206762
1772366591252720600,4.813720703125,-0.03318681480884552,0.007722027353104203,-0.005705810426175594
1772366591262790700,4.823790771484375,-0.029447628280520437,0.00018738949799444526,-0.004109919536858797
1772366591272860400,4.8338603515625,-0.047403556209802626,0.009194862684910186,-0.0027656653210520743
1772366591282930700,4.8439306640625,-0.04546002092659473,-0.00009506243888754398,-0.0001238821079954505
1772366591293000700,4.854000732421875,-0.034982466053962706,0.005503237058781087,-0.00901128171235323
1772366591303070500,4.864070556640625,-0.03482639870941639,0.0033723122775787488,-0.0030297961499541996
1772366591313140700,4.874140625,-0.04006429936289787,0.005386099785403348,-0.0042540041826665395
1772366591323210800,4.884210693359375,-0.026598668590188026,0.001060062412987463,0.0009767360776662827
1772366591333280500,4.894280517578125,-0.0387210680603981,-0.002810408645076677,-0.006575250204466283
1772366591343350500,4.9043505859375,-0.04066109621226787,0.0009788275700528175,-0.009611804888769985
1772366591353421600,4.914421630859375,-0.04559387643933296,-0.0043634741728194055,0.002650258780457079
1772366591363491600,4.92449169921875,-0.04649053301811218,-0.0008213674194412306,-0.003282747997716069
1772366591373561600,4.9345615234375,-0.034219080466032024,0.008729268166888505,0.0016677140165120361
1772366591383631600,4.944631591796875,-0.04289689244031906,0.00824616995821707,-0.002646422855556011
1772366591393701600,4.95470166015625,-0.029732290440797803,0.0016570145259844138,0.0002608794258907437
1772366591403771600,4.964771728515625,-0.032573066824674604,0.009614248007605783,-0.0026961802814155817
1772366591413841400,4.97484130859375,-0.036163200271129604,-0.010205701961577869,0.00031487463545054194
1772366591423911700,4.98491162109375,-0.04019932391941547,-0.0038117037752643224,0.002205839481204748
1772366591433981700,4.994981689453125,-0.03391571360528469,0.004076391726592556,-0.006208645381778478
1772366591444051500,5.005051513671875,-0.04513678032159805,-0.009760615942045114,-0.005403174217790365
1772366591454121500,5.01512158203125,-0.046181320938467975,0.0007097694042837247,-0.005484934217110276
1772366591464191700,5.025191650390625,-0.037646716827154154,-0.0007085227286908776,-0.007308423317223787
1772366591474261500,5.035261474609375,-0.0395879140228033,0.0005933490835363045,-0.003920096053183078
1772366591484332500,5.04533251953125,-0.046313422885537144,0.004226769115868956,-0.0005996463935822248
1772366591494402600,5.055402587890625,-0.030301614761352538,0.0014442576912930235,-0.008951843142695724
1772366591504472600,5.06547265625,-0.03509294069111347,0.00565140422466211,-0.00618299948386848
1772366591514542600,5.07554248046875,-0.03253624194562435,0.0007067189306719228,-0.003473886655643582
1772366591524612600,5.085612548828125,-0.03492869004011154,-0.00387978687568102,0.006303703254088759
1772366591534682600,5.0956826171875,-0.04286240564882755,-0.0013259513741359114,0.0005282251251861453
1772366591544752600,5.105752685546875,-0.0356798006683588,-0.0026340519977500663,-0.009067213150672614
1772366591554822700,5.11582275390625,-0.03372808207869529,0.001151759284432046,0.0006711041945964098
1772366591564892400,5.125892333984375,-0.03701952483952045,0.0001634971657535061,0.004745258298330009
1772366591574962700,5.135962646484375,-0.03627192134261131,0.0013480125088943169,0.003954582844674587
1772366591585032700,5.14603271484375,-0.030582769790291786,0.002198094566166401,0.0002453165305778384
1772366591595102500,5.1561025390625,-0.04090951801538467,-0.003614957360457629,-0.008175232747010886
1772366591605172700,5.1661728515625,-0.031631402060389516,-0.00788988103356678,-0.00008844546843320131
1772366591615242800,5.17624267578125,-0.03402268111109733,-0.00024656777274794875,0.001903824327327311
1772366591625312500,5.1863125,-0.033868367332220074,-0.009187921487470156,-0.0026642873058095574
1772366591635383600,5.196383544921875,-0.03296411196887493,0.004332056121248751,-0.007864267101697624
1772366591645453600,5.20645361328125,-0.03774608554840088,0.00007284604050219059,-0.0034952947698533533
1772366591655523600,5.216523681640625,-0.024884265887737272,-0.005729259800422005,-0.007705459810793399
1772366591665593600,5.226593505859375,-0.04044833024442196,0.0038498027293710035,-0.0038254765722900625
1772366591675663600,5.23666357421875,-0.04792962591052055,0.0034515378265175967,0.004578267700970173
1772366591685733600,5.246733642578125,-0.042695232388377184,-0.0039507743192370975,-0.000745959529094398
1772366591695803600,5.2568037109375,-0.03715805652737617,-0.008456839867099188,0.000011763503029942511
1772366591705873400,5.266873291015625,-0.038946108987927434,-0.00022290833594743162,-0.006981200656853616
1772366591715943700,5.276943603515625,-0.0401414562523365,-0.0021508304914925245,-0.006339980143867433
1772366591726013700,5.287013671875,-0.037894554108381266,0.004025615954003296,0.00389803035184741
1772366591736083500,5.29708349609375,-0.044478608673810954,-0.0008559775085188448,-0.001778480914607644
1772366591746153500,5.307153564453125,-0.03834288239777088,-0.001730061495886184,0.0006361424790695309
1772366591756223700,5.3172236328125,-0.027719781574606892,0.010859416629956103,-0.003881955999881029
1772366591766293500,5.32729345703125,-0.026667057651281356,0.0036333515336737033,0.001933744541555643
1772366591776363500,5.337363525390625,-0.03264320945143699,-0.0023836300337919964,-0.001141461652703583
1772366591786434600,5.3474345703125,-0.04221884704828262,-0.000009338650503195822,-0.004248706953041255
1772366591796504600,5.357504638671875,-0.03742810564041137,0.00412274705239106,0.0022234847357496617
1772366591806574600,5.36757470703125,-0.03922492592930794,-0.005525503689516336,0.0018964447384700177
1772366591816644600,5.37764453125,-0.0401198289424181,0.0016796556160552426,0.003163688195310533
1772366591826714600,5.387714599609375,-0.03907119667232036,0.0013649727768497541,0.0017158274745568633
1772366591836784600,5.39778466796875,-0.044161797809600827,0.0008576306094881147,-0.0019331965522840619
1772366591846854700,5.407854736328125,-0.03204582808017731,-0.002051968660322018,-0.0017366875994950532
1772366591856924400,5.41792431640625,-0.03564122222363949,-0.0051676164628239344,0.0030849604032933712
1772366591866994700,5.42799462890625,-0.037135844695568083,-0.003278322984348051,-0.00047013826239854093
1772366591877064700,5.438064697265625,-0.03159223909378051,0.009736317184427752,-0.006766206199303269
1772366591887134500,5.448134521484375,-0.040270051068067546,0.0009466240671928972,0.00449285443983972
1772366591897204700,5.458204833984375,-0.04326455670893192,-0.005072996981930918,-0.002131787864305079
1772366591907274500,5.4682744140625,-0.03683656948804855,0.0012634623308666049,0.0017493278853595257
1772366591917344500,5.478344482421875,-0.03564122222363949,0.0066951319907791905,-0.00022807313483208416
1772366591927414500,5.48841455078125,-0.03893266498446464,0.004559763929899782,-0.0015609657064080238
1772366591937485600,5.498485595703125,-0.03639233285188675,-0.001799756598076783,-0.00013907967712730167
1772366591947555600,5.5085556640625,-0.052099605071544645,-0.008572721331729554,-0.002549209558777511
1772366591957625600,5.51862548828125,-0.047751346734166145,-0.006818151015671901,-0.007127221531420946
1772366591967695600,5.528695556640625,-0.04011456824541092,0.005635918961162678,0.0004931172791868448
1772366591977765600,5.538765625,-0.04356032478511333,0.0021915415277937427,0.003679419165104627
1772366591987835600,5.548835693359375,-0.03637947337031364,-0.004846435384172946,0.0004939575294032692
1772366591997905400,5.558905517578125,-0.03742518303096294,0.0017414779390441252,-0.0012580372370779513
1772366592007975700,5.5689755859375,-0.04535129985511303,0.003708841622411273,0.001108509231172502
1772366592018045700,5.579045654296875,-0.037116555473208426,0.005467293529142625,0.004055303272791207
1772366592028115500,5.589115478515625,-0.0456488214969635,-0.0018054008875740691,-0.0027450974570587274
1772366592038185500,5.599185546875,-0.04175882832109928,0.0032024675694294273,0.00009845540579408406
1772366592048255700,5.609255859375,-0.03457797690629959,-0.004413405128614977,-0.0015841639189049601
1772366592058328000,5.619328125,-0.025601474246382712,0.003024887079396285,0.0007789119506254791
1772366592068398300,5.6293984375,-0.03443418452143669,-0.00627322591743432,-0.0027362200308591127
1772366592078468400,5.63946826171875,-0.034431261911988253,-0.005198701154254377,0.0015442702999338507
1772366592088538000,5.6495380859375,-0.029193361258506773,0.0005714112463640049,0.00008669190276414156
1772366592098609200,5.659609130859375,-0.037273791861534115,0.00007996533445548266,0.0012926701590418815
1772366592108679200,5.66967919921875,-0.03038987756669521,-0.004495224493439309,-0.004814706805348396
1772366592118749200,5.679749267578125,-0.03667114979326725,0.004818793891998939,-0.005039090145751834
1772366592128819200,5.689819091796875,-0.031284196057915686,-0.00765256971293129,-0.0029565117180347443
1772366592138889200,5.69988916015625,-0.03278407922685146,0.002293627362512052,0.0014893983075395226
1772366592148959200,5.709959228515625,-0.0345820685595274,-0.004353765629557893,-0.002003631439991295
1772366592159029200,5.720029296875,-0.04325578888058662,-0.008035669012693689,0.0008100012086331844
1772366592169099300,5.730099365234375,-0.03577098608314991,0.0016714449101360514,0.005034413970634341
1772366592179169300,5.740169189453125,-0.03831950152218341,-0.0004119920341065153,-0.0028272958477959034
1772366592189239300,5.7502392578125,-0.04161035976111889,0.0010595829223748296,-0.008617679284885525
1772366592199309000,5.76030908203125,-0.04594634313881397,-0.00137799208862707,0.0002886807482689619
1772366592209379000,5.770379150390625,-0.03487725211381912,0.001404437137558125,-0.0008597221018746495
1772366592219449300,5.780449462890625,-0.04430617471635341,0.007245395417837425,0.0029845687687397003
1772366592229519000,5.79051904296875,-0.035028643283247944,-0.00041811581421643493,0.0013270473526790737
1772366592239589000,5.800589111328125,-0.028003274691104887,-0.0060789271880406885,-0.002622713186405599
1772366592249659400,5.810659423828125,-0.041624388286471366,0.0022734567907406016,-0.004348879391886293
1772366592259729200,5.820729248046875,-0.04027355819940567,0.0032713452542899174,-0.008150536697171628
1772366592269799200,5.830799072265625,-0.032793431577086446,0.0061824560611741615,-0.004911956634745002
1772366592279870200,5.8408701171875,-0.032488895672559734,0.0008971452025463804,-0.004937346804328262
1772366592289940200,5.850940185546875,-0.04041910414993763,-0.010763171447557396,0.00480623123794794
1772366592300010200,5.86101025390625,-0.035628362742066384,-0.008562295835837721,0.007552461206167936
1772366592310080300,5.871080322265625,-0.03473170616328716,-0.0022127578457584603,-0.002967690699175
1772366592320150000,5.88114990234375,-0.04101414743363857,-0.006954298950196243,-0.0017074249723926186
1772366592330220300,5.89122021484375,-0.04176175093054771,0.006881589907011948,-0.0006249269653111696
1772366592340290300,5.901290283203125,-0.03517594279944897,0.0043969334844267,-0.0013276318745687604
1772366592350360000,5.911360107421875,-0.034278701698780056,0.005473412742675282,-0.004480469882301986
1772366592360430300,5.921430419921875,-0.03667173431515693,-0.0033686270497273654,-0.007745389962382614
1772366592370500400,5.931500244140625,-0.03742226042151451,0.0027403390835504977,0.003147906104288995
1772366592380570000,5.941570068359375,-0.041017070043087,-0.00004954279672820121,0.00470901794116944
1772366592390640400,5.951640380859375,-0.03234334972202778,-0.0014680358591023831,-0.004115107168629765
1772366592400710400,5.96171044921875,-0.02890636101067066,0.0005575562509475276,-0.0021203531548380852
1772366592410780200,5.9717802734375,-0.04552607190012931,0.0032397080070106312,-0.0013142609363421796
1772366592420850200,5.98185009765625,-0.032358547291159626,-0.006986333489697426,-0.002084843450039625
1772366592430920200,5.991920166015625,-0.03595218786895275,-0.00011572163442615419,0.0036849355904385447
1772366592440990200,6.001990234375,-0.04223462913930416,0.00030876912164967506,0.00567925121281296
1772366592451060200,6.012060302734375,-0.03265782249867916,0.000019508418068289755,-0.004780658405274152
1772366592461130200,6.022130126953125,-0.04538461760282516,0.004220891930931248,0.0005661825153976678
1772366592471201300,6.032201171875,-0.03939560632109642,0.00000796867732424289,-0.0010007745403796434
1772366592481271300,6.042271240234375,-0.041938861063122744,-0.010329625168768689,-0.0023052082024514675
1772366592491341000,6.052341064453125,-0.03819792096912861,0.0032965344944735986,-0.002457768415659666
1772366592501411000,6.0624111328125,-0.042241643401980396,0.004434009525226429,-0.0004293678605929017
1772366592511481300,6.0724814453125,-0.03820201262235641,-0.00427554016103968,-0.002552789755351841
1772366592521551000,6.082551025390625,-0.03401917397975921,-0.0031753831996815278,-0.00614979133401066
1772366592531621000,6.09262109375,-0.03671849606633186,0.010544843388604931,-0.0017905001459643244
1772366592541691400,6.10269140625,-0.03507657407820224,-0.00469195264193695,-0.0006970058208331466
1772366592551761200,6.11276123046875,-0.03313303879499435,-0.0055583510797703635,-0.002097191474959254
1772366592561831200,6.1228310546875,-0.04195347411036491,-0.002530007101385854,-0.008196239002421498
1772366592571901400,6.1329013671875,-0.03865735517442226,-0.006735409202240407,-0.0013731880493462086
1772366592581971200,6.14297119140625,-0.03491524603664875,-0.002486711382353678,-0.0032729207234457134
1772366592592041200,6.153041259765625,-0.04493336670398712,-0.005040761513030156,0.003943549994006753
1772366592602111200,6.163111328125,-0.04193126227855682,-0.0011773503834148868,-0.005985431085154414
1772366592612181200,6.17318115234375,-0.040729485273361205,-0.002689905804255977,0.0005586933286860585
1772366592622251300,6.183251220703125,-0.04103285213410854,-0.005968749378412031,0.003615815876983106
1772366592632321000,6.193321044921875,-0.03818564600944519,0.0018087025229353456,-0.001102371751330793
1772366592642391300,6.203391357421875,-0.030402737048268316,-0.0028931367587763813,0.0011925707854330539
1772366592652461300,6.21346142578125,-0.046563013732433316,-0.004179020984005182,0.0006226619429886341
1772366592662532400,6.223532470703125,-0.03968085300326347,0.002318862268468365,0.0029745222987607118
1772366592672602000,6.23360205078125,-0.048207858330011365,-0.00852661260110326,0.0005068900762125849
1772366592682672400,6.24367236328125,-0.03698562256991863,-0.0028201948201516643,0.001566847457922995
1772366592692742100,6.2537421875,-0.034593758997321124,-0.002900525480788201,-0.012695888509228825
1772366592702812200,6.263812255859375,-0.0395312153995037,0.0032890544409165156,-0.008035422417521476
1772366592712882200,6.273882080078125,-0.03893208046257496,0.002441748862620443,-0.0015709025785326956
1772366592722952200,6.2839521484375,-0.04671323585808277,0.007313190823886543,-0.0033619141811504958
1772366592733022200,6.294022216796875,-0.03893675663769245,-0.005043483193079009,-0.004954371004365384
1772366592743092200,6.30409228515625,-0.0368476754039526,-0.0036549423109740018,-0.006447605236805975
1772366592753162200,6.314162353515625,-0.04118307425975799,-0.0012283727511763572,-0.0005321341153234243
1772366592763232300,6.324232177734375,-0.03414484618604183,-0.00640147823987063,-0.001756122952327132
1772366592773302300,6.33430224609375,-0.036685762840509416,-0.0003212724101962521,-0.006159180216863751
1772366592783372300,6.344372314453125,-0.0422241077452898,-0.0015775697813369333,-0.0039402255257591605
1772366592793442300,6.3544423828125,-0.03892974237501621,0.0017959617723710833,-0.00581062250752002
1772366592803512300,6.36451220703125,-0.03997194490432739,0.0011886435289867221,0.003147540778107941
1772366592813582000,6.37458203125,-0.03653320262730121,-0.006859359808894805,-0.0017128317998722194
1772366592823652400,6.38465234375,-0.03353986603021621,0.004448449042532593,-0.005269026444107294
1772366592833722000,6.39472216796875,-0.03353752794265747,0.005412901027360931,0.0012312222953885794
1772366592843792100,6.404792236328125,-0.03458382212519646,-0.006568267907830886,0.0023021759951487183
1772366592853862400,6.4148623046875,-0.03338087607622146,0.000009320384194143115,0.003047770198062062
1772366592863932200,6.42493212890625,-0.037272622817754744,0.0031517465957673265,-0.006404679410532117
1772366592874003200,6.435003173828125,-0.02829728920161724,-0.0021719965771073474,-0.006324965237826109
1772366592884073200,6.4450732421875,-0.03533843988478184,-0.00762531181324739,-0.008002469995990394
1772366592894143200,6.455143310546875,-0.042376083436608314,-0.011619943540520034,-0.006598558014817535
1772366592904213200,6.465213134765625,-0.036837738531827924,-0.0029847833978710694,0.0003464022848755121
1772366592914283300,6.475283203125,-0.03758651107251644,-0.006983095786417834,-0.0008547901984304189
1772366592924353000,6.48535302734375,-0.035191724890470504,0.0005178498616442084,-0.0038344270637258883
1772366592934423300,6.49542333984375,-0.03893208046257496,-0.0007789302169345319,-0.0067955784242600195
1772366592944493300,6.505493408203125,-0.04835749593377113,-0.009235450423625297,-0.004228650545701385
1772366592954563000,6.51556298828125,-0.03129588649570942,-0.0004603977530961856,-0.00551459870301187
1772366592964633300,6.52563330078125,-0.032197803771495816,-0.004033433934277854,0.004117993245460093
1772366592974703400,6.535703369140625,-0.03324818960726261,0.006511605817149393,-0.002997793576493859
1772366592984773000,6.545773193359375,-0.0395358915746212,-0.001743437000690028,0.00007094634436070919
1772366592994843100,6.555843017578125,-0.04357727591991424,0.0013691877276636659,-0.00011734276935458182
1772366593004913400,6.565913330078125,-0.037730887979269025,0.0058015350187662984,-0.007019852166809141
1772366593014983200,6.575983154296875,-0.03922492592930794,0.0054959716343553735,-0.003977671459317207
1772366593025053200,6.58605322265625,-0.03877425955235958,-0.0020204044782789424,-0.0013931713914498685
1772366593035123200,6.596123291015625,-0.029046646264195442,0.0017587441676761954,0.0034302301770076154
1772366593045193200,6.606193115234375,-0.0320417364269495,0.0010243654785212128,0.005026267196796834
1772366593055259600,6.616259765625,-0.038028409621119495,0.0010930011347867548,-0.005769705975241958
1772366593065329700,6.62632958984375,-0.04372106830477714,0.0018466644797241313,-0.00260725988894701
1772366593075399700,6.636399658203125,-0.03429448378980159,0.007685129408817738,-0.00007273644264787434
1772366593085469400,6.646469482421875,-0.04012859677076339,0.002473267378890887,-0.005113982012867928
1772366593095540500,6.65654052734375,-0.040730069795250894,-0.005058064274280332,-0.0029545754892751574
1772366593105610500,6.666610595703125,-0.035191724890470504,-0.005401502850512043,-0.0026201193705201148
1772366593115680800,6.6766806640625,-0.03774257841706276,0.003428019953612238,-0.005193623120337725
1772366593125750500,6.68675048828125,-0.03910743702948093,0.000654596017790027,0.0009608443887904285
1772366593135820500,6.696820556640625,0.008149988707900046,-0.002803188886423595,-0.0059890478143468494
1772366593145890800,6.706890869140625,-0.02583995917737484,-0.00006955353829544037,-0.0006963117010891437
1772366593155960600,6.716960693359375,-0.043969490107893944,-0.003271253922744654,-0.004695208611525595
1772366593166030600,6.727030517578125,-0.052958852249383924,-0.005316454915562644,-0.0006213467687368392
1772366593176100600,6.7371005859375,-0.05760054057538509,-0.0026829554736614225,-0.0020522928873077033
1772366593186170600,6.747170654296875,-0.04637830481529236,0.003914666392817161,-0.006673924805968999
1772366593196240600,6.75724072265625,-0.05535363843142986,-0.0015943747856654227,0.0026695480028167367
1772366593206310400,6.767310302734375,-0.040835868257284164,0.00504861602592282,0.0027644597446545957
1772366593216380700,6.777380615234375,-0.03603752806484699,0.00840556177101098,0.0014961933745071291
1772366593226450700,6.78745068359375,-0.03588204524219036,-0.002106922851107083,-0.004352423055842518
1772366593236520400,6.7975205078125,-0.0355798474252224,0.0036640252331504594,-0.0004088365292176604
1772366593246590700,6.8075908203125,-0.03812134860157966,0.002588472990086302,0.001143836272880435
1772366593256660700,6.81766064453125,-0.028095629149675366,-0.003394117684010416,-0.005288279133848846
1772366593266730500,6.82773046875,-0.03796878838837146,0.004513299006246961,-0.003420695163682103
1772366593276800500,6.837800537109375,-0.029897125613689422,0.006210467446106486,-0.0037780937666073437
1772366593286870800,6.847870849609375,-0.03214928845465183,0.0033189700885675848,-0.0033816783275455236
1772366593296940500,6.8579404296875,-0.030810148805379866,-0.007664826406305655,-0.0017820245785638688
1772366593307010600,6.868010498046875,-0.02632394330203533,-0.0031811416536103934,-0.006349515157192945
1772366593317080600,6.87808056640625,-0.03501052310466766,0.003219496336043812,-0.006243095640651881
1772366593327150600,6.888150634765625,-0.041597500279545785,0.00559687472556252,-0.0037388942673802373
1772366593337221600,6.8982216796875,-0.0471387677937746,0.011453281736723147,-0.009093589700944722
1772366593347291600,6.908291748046875,-0.028139468291401862,0.004894900468667037,0.00097118311971426
1772366593357361700,6.918361572265625,-0.027103695502877233,0.00019722133884206414,0.0013066256191581486
1772366593367431700,6.928431640625,-0.040867432439327236,-0.0010399466401431708,-0.00027341011390089986
1772366593377501400,6.93850146484375,-0.042514030602574346,0.001301173125905916,-0.0019264014853164553
1772366593387571500,6.948571533203125,-0.040568741753697395,-0.0026732788964407518,-0.002957753827050328
1772366593397641700,6.958641845703125,-0.04146306024491787,-0.002233581438078545,-0.004225253012217581
1772366593407711500,6.96871142578125,-0.03248071236610412,-0.0040437406991608435,-0.0033767098914831875
1772366593417781500,6.978781494140625,-0.04968202253580093,0.00871418019561097,-0.00634286622069776
1772366593427851800,6.988851806640625,-0.038462124863266944,-0.004556307030911557,-0.007891556967422365
1772366593437921500,6.998921630859375,-0.03442190956175327,0.0028944291001418605,-0.005658975609764456
1772366593447991600,7.008991455078125,-0.023353987580537795,0.0033919439932331443,-0.008797310168109834
1772366593458061600,7.0190615234375,-0.03623685002923011,0.0009179505285574123,-0.007636084369011223
1772366593468131600,7.029131591796875,-0.027726211315393445,-0.0011968770677922293,0.001351305011101067
1772366593478201600,7.03920166015625,-0.0371785147935152,-0.006460638248315081,0.0013369111595675348
1772366593488271600,7.049271728515625,-0.03166530432999134,-0.0005931892533320933,-0.003415361401438713
1772366593498341600,7.059341552734375,-0.03543020982146263,-0.00068982259479817,-0.0033939167546108364
1772366593508411600,7.06941162109375,-0.03815641991496086,-0.007594916674983687,-0.009225362854450941
1772366593518481400,7.0794814453125,-0.04057400245070457,-0.00281711238049902,-0.0033368162725120783
1772366593528551700,7.0895517578125,-0.040001170998811716,0.001467976493597962,0.004283339875005185
1772366593538621700,7.09962158203125,-0.031041619473695752,-0.0024147147252224386,-0.00048789311479777094
1772366593548691500,7.10969140625,-0.04168167143166065,0.0002782095866044983,0.003353402081131935
1772366593558761500,7.119761474609375,-0.04768120410740375,-0.0035457645817659794,0.0001746989797800779
1772366593568831700,7.129831787109375,-0.030935821011662482,0.000299941927799955,-0.004934570325352251
1772366593578901500,7.139901611328125,-0.042915597140789026,0.008303731664619408,-0.0007933423347771168
1772366593588971500,7.149971435546875,-0.03978197529017925,-0.00032218115907162425,-0.0003912643399089575
1772366593599042600,7.16004248046875,-0.04009410997927189,-0.0025938158854842183,-0.000837400672212243
1772366593609112600,7.170112548828125,-0.02215630222856998,-0.000688219726178795,0.002928893058747053
1772366593619182600,7.1801826171875,-0.04535772959589958,-0.0021223578822566194,-0.0044289954233914615
1772366593629252600,7.190252685546875,-0.03579144434928894,0.01013623518825043,-0.0010916676942259072
1772366593639322600,7.200322509765625,-0.031472996628284455,-0.009114532024273649,-0.001588255572132766
1772366593649392600,7.210392578125,-0.026547815185785292,-0.00556892727271188,-0.010860635906085372
1772366593659462700,7.220462646484375,-0.044671500897407526,-0.006565336165227927,-0.0009525880170986056
1772366593669532400,7.230532470703125,-0.03495850065648556,0.003942307884991169,-0.006949453811720013
1772366593679602700,7.240602783203125,-0.04887538232803344,-0.003035965595836751,-0.001122903082706034
1772366593689672700,7.250672607421875,-0.0439496163636446,0.0004964691468980164,-0.011278678655065596
1772366593699742500,7.260742431640625,-0.029003391644358632,0.0031496003044536335,-0.006907185572572052
1772366593709812700,7.270812744140625,-0.038003859701752664,-0.002350494949170388,-0.006539411706104874
1772366593719882500,7.280882568359375,-0.03667290335893631,-0.004105996846989728,-0.004805610183440149
1772366593729952500,7.290952392578125,-0.03863923499584198,0.005542409158544615,-0.0003628784956410527
1772366593740022800,7.301022705078125,-0.04508709596097469,0.0015831090395571662,-0.003062492843158543
1772366593750092500,7.311092529296875,-0.03612169921696186,0.0017672380013857036,0.007287417061813175
1772366593760162600,7.32116259765625,-0.029697803649306295,-0.00451733586054761,0.005413549481332301
1772366593770232600,7.331232666015625,-0.03852116157412529,-0.004312643601302989,-0.008820654511079192
1772366593780302600,7.341302490234375,-0.06305705241560935,-0.003609893026272766,0.002066102216951549
1772366593790372600,7.35137255859375,-0.04030979855656624,0.01055059270937927,-0.0010131590979173778
1772366593800442600,7.361442626953125,-0.030738837134838104,0.001885060261352919,-0.007707030713371932
1772366593810512600,7.3715126953125,-0.03359422656595707,0.0007390913968905806,-0.009334631915204226
1772366593820582700,7.381582763671875,-0.037197219493985176,-0.0006441294227028265,-0.0012171207047998905
1772366593830652700,7.391652587890625,-0.039296822121739385,0.0027981519517023116,-0.00518704724907875
1772366593840722700,7.40172265625,-0.0523193853020668,0.0008307243362534791,0.005358275630138814
1772366593850792700,7.411792724609375,-0.03989887966811657,-0.0028457996188662946,-0.0007530103243887424
1772366593860862500,7.421862548828125,-0.03825812672376633,0.0021028129315702245,-0.003259038328565657
1772366593870932500,7.431932373046875,-0.03153320238292217,-0.00011997311785817146,-0.010470504077337682
1772366593881002800,7.442002685546875,-0.03079728932380676,0.0023055780952097845,-0.0014649579860270023
1772366593891073800,7.45207373046875,-0.029766777232289314,-0.004014172111381776,-0.005158807535283267
1772366593901143600,7.4621435546875,-0.0259112708479166,-0.005888546581938862,-0.003729724580235779
1772366593911213600,7.472213623046875,-0.034762101301550864,-0.002002380197821185,-0.005727218540385365
1772366593921283800,7.482283935546875,-0.04690612808167934,-0.007117115695937536,0.0012127733232453464
1772366593931353600,7.492353515625,-0.03599661153256893,0.006984917850745841,-0.0024064035546034574
1772366593941423600,7.502423583984375,-0.036601007166504856,-0.000377354545565322,-0.005685754018835723
1772366593951493400,7.512493408203125,-0.04004267205297947,-0.003668893204513006,-0.007298997901752591
1772366593961563600,7.522563720703125,-0.04333586837947368,-0.007088789217174053,-0.007601743707992136
1772366593971633700,7.532633544921875,-0.02882102081477642,-0.00003609422668814659,-0.005795717199333012
1772366593981703400,7.542703369140625,-0.0306213482350111,0.001975432825391181,-0.008900551346875727
1772366593991773700,7.552773681640625,-0.03691138828992843,0.00953100387067534,-0.00003065086659044027
1772366594001843700,7.56284375,-0.031221067693829534,-0.0012105128675000741,-0.00318608269020915
1772366594011913500,7.57291357421875,-0.03616086218357086,-0.013423695893702096,-0.008006123257800936
1772366594021983700,7.582983642578125,-0.05680675984919071,0.004891306572360918,0.0010995587397366763
1772366594032053800,7.5930537109375,-0.039890111839771265,0.003604559264029376,-0.00544445607624948
1772366594042123500,7.60312353515625,-0.036599838122725485,-0.0030089588579023255,-0.006532945432700216
1772366594052193500,7.613193603515625,-0.022982231658697127,-0.005090555471507832,-0.003226560831069946
1772366594062263800,7.623263916015625,-0.01625438470840454,0.0020302774183219296,-0.006189246561564505
1772366594072333800,7.633333740234375,-0.03406593573093414,0.0021755402410635724,-0.002716748145408928
1772366594082403600,7.643403564453125,-0.028981179812550543,0.005786483580106869,-0.008769180052168667
1772366594092473900,7.653473876953125,-0.048290275916457175,-0.0035667343045584854,0.0003843596750870347
1772366594102544000,7.6635439453125,-0.03437222520112991,-0.0007779392696684226,-0.004039923040568829
1772366594112613600,7.673613525390625,-0.028970658418536185,-0.003823544910107739,0.007095109360106289
1772366594122683600,7.68368359375,-0.03958849854469299,0.005473750669392757,0.0039586379652842875
1772366594132753700,7.693753662109375,-0.03345978653132915,-0.00347724765650928,0.0018682050246745347
1772366594142823700,7.70382373046875,-0.031224574825167654,-0.0004592561087803915,-0.0011726239759474993
1772366594152893700,7.713893798828125,-0.036922494205832476,-0.006435978731093928,0.0003539645368233323
1772366594162963700,7.723963623046875,-0.03228898918628693,-0.0021637950043426825,-0.009213708949275314
1772366594173033700,7.73403369140625,-0.02736146965622902,-0.003819613087084144,-0.004248780018277466
1772366594183103700,7.744103759765625,-0.0246826058357954,-0.005441291438206099,-0.0021873539764434096
1772366594193173800,7.754173828125,-0.03426584221720695,0.004173563924175687,-0.0017343495119363068
1772366594203243800,7.764243896484375,-0.03741933781206608,-0.0007489232377381995,-0.0013940481742843985
1772366594213314800,7.774314697265625,-0.02006722099483013,-0.0077778628933010616,-0.003918452085368335
1772366594223384600,7.784384521484375,-0.042216508960723875,0.0067179420442087575,-0.0026536563139408827
1772366594233454600,7.79445458984375,-0.03622983576655388,-0.00045990456275176253,0.0002189765129238367
1772366594243524900,7.80452490234375,-0.023966566520929336,-0.0020432601974811402,-0.00471778576951474
1772366594253594600,7.8145947265625,-0.02757832727730274,0.008456474540918133,-0.0036969913544133304
1772366594263664600,7.82466455078125,-0.023696517407894132,0.002872865722305141,-0.0010754106791689992
1772366594273735000,7.83473486328125,-0.024905893197655675,0.003711787064746022,-0.014062391089461742
1772366594283804700,7.8448046875,-0.026411621585488317,0.002658432953758165,-0.005304718811996281
1772366594293874700,7.854874755859375,-0.03358370517194271,-0.0033937112586339933,0.0019842326197773217
1772366594303944700,7.86494482421875,-0.02879647089540958,-0.0006457368578994646,-0.0021017215196043252
1772366594314014700,7.8750146484375,-0.02042319482564926,-0.003671103427908383,-0.0055451765043661
1772366594324084700,7.885084716796875,-0.024615385818481442,-0.00011321001693140714,-0.0022809140114113686
1772366594334154800,7.89515478515625,-0.026410452541708946,0.002051872762199491,-0.0004941401924937963
1772366594344224800,7.905224853515625,-0.022670681491494177,-0.009751432555168867,0.00215367090255022
1772366594354294800,7.915294677734375,-0.02640577636659145,0.004583921123621985,-0.005502981330454349
1772366594364364500,7.925364501953125,-0.02341302429139614,0.008296233344753273,-0.00745210610423237
1772366594374434800,7.935434814453125,-0.021024083328247067,-0.004423369400203228,-0.0027548516660928723
1772366594384504800,7.9455048828125,-0.02432370939552784,0.0033739608119707555,-0.012510887331143021
1772366594394574600,7.95557470703125,-0.02372983515560627,0.0021536298033548516,-0.006334682914242148
1772366594404644600,7.96564453125,-0.02477145316302776,0.002467216664017178,0.003676788816601038
1772366594414715000,7.97571484375,-0.027615736678242683,0.0018911292425356804,-0.00442176196500659
1772366594424784600,7.98578466796875,-0.01923719991147518,0.011147649853653274,0.004527998818457126
1772366594434854700,7.995854736328125,-0.013403086930513381,-0.00008141293944790959,-0.0009275631736963987
1772366594444925000,8.005925048828125,-0.024335984355211258,0.007369309491873718,0.010518325274437666
1772366594454994700,8.01599462890625,-0.024641104781627652,0.005354343807115219,0.003034618455544114
1772366594465064700,8.026064697265625,-0.026589900761842727,-0.003106656211870722,0.001433247673511505
1772366594475134700,8.036134765625,-0.024052491238713263,0.0025098410961916667,-0.0024403058242052794
1772366594485205800,8.046205810546875,-0.030476386806368827,-0.003469817835302092,-0.004136551815457642
1772366594495275800,8.05627587890625,-0.03271919729709625,-0.0031483536288607864,-0.0003498728835955262
1772366594505345800,8.066345703125,-0.028672552254796025,-0.003602928995946422,0.00338671982884407
1772366594515415600,8.07641552734375,-0.028069910186529157,-0.011097033911268227,0.0013930983262136578
1772366594525485800,8.08648583984375,-0.025669278785586357,-0.002180631974712014,0.006189575355127454
1772366594535555800,8.096555908203126,-0.02552840901017189,-0.00640748785554897,0.001964395408146083
1772366594545625600,8.10662548828125,-0.02313771448135376,-0.0003119657257338986,-0.006795066967606544
1772366594555695900,8.11669580078125,-0.021645430096983907,-0.0032222728150198233,0.00011942512858659028
1772366594565765600,8.126765625,-0.026432664373517035,0.005187554139154963,0.0016476941417902706
1772366594575835600,8.136835693359375,-0.028522330129146574,-0.002220667157578282,-0.008708974297530949
1772366594585905700,8.14690576171875,-0.01580780998468399,-0.0020037958367727696,-0.008215783953107894
1772366594595975700,8.1569755859375,-0.027625089028477667,-0.0031136796077014875,0.00026062369756400583
1772366594606045700,8.167045654296874,-0.03105915513038635,0.004064518625708296,0.0050687911642715335
1772366594616115700,8.17711572265625,-0.03584580488502979,-0.000538805884704925,-0.0010182736644521356
1772366594626185700,8.187185791015626,-0.02103109759092331,0.004686792409629561,-0.0011582666570320724
1772366594636255700,8.197255859375,-0.0157943659812212,-0.00857987715830095,0.0019543124055489895
1772366594646325800,8.20732568359375,-0.022226444855332372,0.0017445375458104535,-0.0011250950397923589
1772366594656395800,8.217395751953125,-0.031654198414087294,0.007177947071660309,-0.001467515269294381
1772366594666465800,8.2274658203125,-0.027611645025014876,0.003139544701320119,-0.0002066284880042076
1772366594676535800,8.237535888671875,-0.019681436547636984,0.004276083583733998,0.002907850270718336
1772366594686606600,8.247606689453125,-0.02641629776060581,0.010384780288953333,-0.001907660252228379
1772366594696676600,8.257676513671875,-0.03195230457782745,0.0034766540014650672,-0.0048946401737630365
1772366594706747000,8.267746826171875,-0.03210661835670471,0.0022078624749323353,-0.003977707991935312
1772366594716816600,8.277816650390625,-0.033007951110601425,0.00589978492858354,-0.000922886998578906
1772366594726886700,8.28788671875,-0.02643032628595829,0.004585414394387043,0.0010266031013801693
1772366594736957000,8.29795703125,-0.024642858347296712,0.0025259976465487853,-0.005767915876954794
1772366594747026700,8.308026611328126,-0.027643209207057953,0.0026313211845466864,-0.005205861547403037
1772366594757096700,8.3180966796875,-0.02764730086028576,0.0003755918467417359,-0.003957578519359231
1772366594767166700,8.328166748046876,-0.027491233515739438,0.008251910145836882,-0.001567468512430787
1772366594777236700,8.33823681640625,-0.027791093245148658,0.0013100094529101625,-0.0014118030266836285
1772366594787306800,8.348306640625,-0.04095861785411835,-0.007281731673120521,-0.00186824155729264
1772366594797376500,8.35837646484375,-0.029288638326525687,0.0004898613095982,-0.004123217409849167
1772366594807446800,8.36844677734375,-0.026299393382668495,0.0026412352237850426,0.008671016907319426
1772366594817516800,8.378516845703125,-0.0328828634262085,0.005529001687699929,0.002111658391728997
1772366594827586600,8.388586669921875,-0.033327684584259984,-0.002076244585053064,-0.0012558452799916267
1772366594837656800,8.39865673828125,-0.02897650363743305,0.00009415825658943503,-0.0011506313398480415
1772366594847726800,8.408726806640624,-0.03331014892756939,0.006922643436607904,0.003321801366470754
1772366594857796600,8.418796630859376,-0.029412556967139243,0.005955748332943767,0.009312675811722874
1772366594867867000,8.428866943359376,-0.031048633736371994,0.004904006223729811,-0.00047989247143268585
1772366594877937000,8.43893701171875,-0.037626258561015126,0.006191392852878197,0.0005541632840409874
1772366594888007700,8.449007568359375,-0.030440730971097944,0.0018274346228688955,-0.0052209860512986775
1772366594898077700,8.45907763671875,-0.023261633121967315,-0.005964954552706331,-0.00587996141668409
1772366594908147700,8.469147705078125,-0.026409868019819257,0.005715432204469107,0.00027183921132236717
1772366594918217700,8.4792177734375,-0.030007600250840184,0.014559367126435971,0.0055085342884063715
1772366594928287700,8.489287841796875,-0.029267011016607284,0.00732813723126892,0.00024542612843215465
1772366594938357800,8.499357666015625,-0.038108489120006556,0.0006238309867680073,0.0023354937428608537
1772366594948427800,8.509427734375,-0.025546529188752172,0.0010546647186623886,0.00021258330475538967
1772366594958497800,8.519497802734374,-0.025999533653259275,0.014102047246415167,0.003867525615729391
1772366594968567600,8.529567626953124,-0.030935236489772793,0.001416963258991018,0.003178155112080276
1772366594978637600,8.539637451171876,-0.0318324775904417,-0.0055803665487561376,-0.002785539065301418
1772366594988707800,8.549707763671876,-0.025833529436588287,0.013362243463471531,-0.0057588192550465465
1772366594998777600,8.559777587890625,-0.03316401845514774,0.004311415192019194,0.0025060280041769144
1772366595008847600,8.56984765625,-0.021052724900841712,0.001349236351600848,-0.0009947466583922506
1772366595018920700,8.579920654296876,-0.019419570741057393,0.0036267162969103083,0.0003510419273748994
1772366595028990700,8.58999072265625,-0.03603635902106762,0.014765287794964388,0.003491604975424707
1772366595039060700,8.600060791015625,-0.037984570479393,-0.005258180823107249,-0.000009535013325512408
1772366595049130500,8.610130615234375,-0.03334405119717121,0.0032997813309077174,-0.004610745198465884
1772366595059200500,8.620200439453125,-0.034084055909514424,0.0068195255554281175,-0.00604461392648518
1772366595069270500,8.6302705078125,-0.04036299004852772,-0.0012007449587341397,-0.002286503501981497
1772366595079340500,8.640340576171875,-0.03526303656101227,-0.0014368278700858353,0.006217668938450515
1772366595089410600,8.65041064453125,-0.04528466435968875,-0.0012432141272816807,-0.008337035712599753
1772366595099480600,8.66048046875,-0.02463642860651016,0.001676659941370599,-0.0074698974892497055
1772366595109550600,8.670550537109374,-0.02658580910861492,0.003024389322474599,-0.0015840908536687492
1772366595119620600,8.68062060546875,-0.03736673084199428,0.008141243712441064,0.0009547069089487194
1772366595129690400,8.6906904296875,-0.041108255457878114,0.009496800206974148,0.005422499972768127
1772366595139760400,8.700760498046876,-0.025549451798200607,0.005355732046603225,-0.001233414252474904
1772366595149830700,8.71083056640625,-0.03947217868864536,0.00039993170355446633,-0.000006283610314130783
1772366595159900400,8.720900390625,-0.03798398595750332,0.006147800306323915,-0.003776084472611546
1772366595169970400,8.730970458984375,-0.03499415649175644,0.0020898849513381716,-0.003856054373644292
1772366595180040700,8.741040771484375,-0.034250060126185415,0.013817293754592537,-0.0012645400431007146
1772366595190110500,8.7511103515625,-0.02751636795699596,0.007225480574392713,-0.0020147373558953405
1772366595200180500,8.761180419921875,-0.02497194417119026,0.003941262138797901,-0.0040951603591442105
1772366595210251500,8.77125146484375,-0.03455459603071213,0.01031348231814336,0.0003877937411889434
1772366595220321500,8.781321533203124,-0.032011341288685796,0.004102704344782978,0.004109079286642372
1772366595230391600,8.7913916015625,-0.029776129582524298,0.008143531567649916,0.000570895223133266
1772366595240461600,8.801461669921874,-0.03636076866984367,0.006422224200377241,0.004877615973725915
1772366595250531300,8.81153125,-0.03232406049966812,0.0005506287532392889,0.0015046324092894791
1772366595260601600,8.8216015625,-0.027248656931519507,0.0005773021310335024,-0.00030490123070776463
1772366595270671600,8.831671630859375,-0.04565992741286754,0.010262300120177679,0.003288885477557778
1772366595280741400,8.841741455078125,-0.033849662631750106,0.0055061779345385725,0.005884527993947267
1772366595290811600,8.851811767578125,-0.026513328394293784,0.006576853073085658,0.002512384679727256
1772366595300881700,8.861881591796875,-0.03563245439529419,0.003068995649181306,-0.009243008108995854
1772366595310951400,8.871951416015625,-0.05149404039382934,0.001515939254593104,0.0036427769491448997
1772366595321021400,8.882021484375,-0.009319032487273216,0.00012012381490785628,-0.007219977848790585
1772366595331091500,8.892091552734374,-0.026223405537009237,-0.0011982105083530768,0.0005031637491658329
1772366595341161500,8.902161376953124,-0.05345101968050003,0.0014127026424044743,0.00692431937046349
1772366595351231500,8.9122314453125,-0.034741643035411836,0.0047592868236824865,-0.0018160729786381123
1772366595361301500,8.922301513671876,-0.02516892804801464,-0.0010221278556622564,0.007532623994536697
1772366595371371500,8.93237158203125,-0.03549859888255596,0.0061977997607784345,-0.0029219518613070247
1772366595381441500,8.942441650390625,-0.04147825781404972,-0.00038512686006724834,0.0016954422736540436
1772366595391511600,8.952511474609375,-0.031157354807853695,-0.003920749073731713,-0.003169387283734977
1772366595401582600,8.96258251953125,-0.04088146096467971,-0.0002994030716829002,0.005242869089543819
1772366595411652600,8.972652587890625,-0.034147768795490266,0.008917781042889691,-0.0003095408732071519
1772366595421722400,8.982722412109375,-0.034601357781887054,0.00023007786225061862,0.0019747341390699146
1772366595431792400,8.99279248046875,-0.041484103032946584,0.0037311265194555744,-0.00038881665449589487
1772366595441862700,9.002862548828125,-0.03444412139356136,0.012238185036717914,0.007126929270476102
1772366595451932400,9.012932373046874,-0.030700258690118786,0.0073632176778046406,0.00046765404436737297
1772366595462002400,9.02300244140625,-0.031602760487794875,-0.0004773762873606756,-0.005157455828413367
1772366595472072700,9.03307275390625,-0.04836041854321956,0.00026002090936526654,-0.004370689364895224
1772366595482142500,9.043142578125,-0.04192483253777027,0.0035721502651926127,-0.0003017228929325938
1772366595492212500,9.05321240234375,-0.023964812955260276,0.0032254009204450993,-0.0004034297017380595
1772366595502282500,9.063282470703125,-0.04312310241162777,-0.002897470440599136,0.005175356811285018
1772366595512352500,9.0733525390625,-0.032654899889230725,-0.002134112252132036,0.0060791737832129
1772366595522422500,9.083422607421875,-0.032953006052970885,-0.0007084953292272985,-0.002445274260267615
1772366595532492500,9.093492431640625,-0.032497663500905036,0.007121335213328711,-0.0015638517832383513
1772366595542562600,9.1035625,-0.03788169462680816,0.003945513622229919,-0.005514708300866186
1772366595552632600,9.113632568359375,-0.05194879842400551,0.010566557463491335,-0.004031374407932162
1772366595562702300,9.123702392578124,-0.01633680229485035,-0.0006406679571373388,0.004257438248768448
1772366595572772600,9.133772705078124,-0.03533785536289215,0.0021115670601837334,0.006522314440831542
1772366595582842600,9.143842529296874,-0.03040215252637863,0.0014943987096427008,-0.0015910320511087774
1772366595592912400,9.153912353515626,-0.03099953389763832,-0.0030345134242670607,0.0053151671407744286
1772366595602983400,9.1639833984375,-0.030252514922618864,0.0006791048379614949,-0.004712196278944611
1772366595613053400,9.174053466796876,-0.03653554071485996,-0.001233875476778485,-0.00002937222495675087
1772366595623123500,9.18412353515625,-0.039517186874151226,-0.008122863238956779,-0.0025870938837528226
1772366595633193500,9.194193359375,-0.04595511096715927,-0.0030256816638400776,0.005265775041095913
1772366595643263500,9.204263427734375,-0.04071779483556747,0.008356745060067623,0.00556468492243439
1772366595653333500,9.21433349609375,-0.03577916938960552,0.0021079229315277186,0.0015456220068037509
1772366595663403500,9.224403564453125,-0.03383271149694919,0.0150095037804218,-0.0006675605306401849
1772366595673473500,9.2344736328125,-0.03158113317787647,0.008279624703247099,0.002040894710458815
1772366595683543600,9.24454345703125,-0.038458033210039134,-0.0007019925232045352,0.011916720830276608
1772366595693613600,9.254613525390624,-0.041755321189761156,0.0030527979996288193,0.006282989259622991
1772366595703683600,9.26468359375,-0.02350654779374599,0.001853231217828579,0.0046239700062200425
1772366595713753300,9.27475341796875,-0.016180734950304032,-0.00349073275916744,-0.005125087928771972
1772366595723823600,9.28482373046875,-0.038785949990153314,-0.0015247436155565082,-0.00011496814917773008
1772366595733893600,9.2948935546875,-0.04582476258575916,0.005057109859632328,-0.005632964385673404
1772366595743963400,9.30496337890625,-0.05017302092313766,-0.003373947112238966,-0.0016668372336775064
1772366595754033700,9.31503369140625,-0.04254851739406586,0.005316541680530645,0.004141666381992399
1772366595764103400,9.325103515625,-0.02638940975368023,0.0017070368133252486,0.0043983810894191264
1772366595774173400,9.33517333984375,-0.04121054678857326,0.00023022399272304027,0.004536912777274847
1772366595784243500,9.345243408203125,-0.0424070630967617,-0.0006080306294374168,-0.0028085546147078276
1772366595794313500,9.3553134765625,-0.040162499040365215,0.0013771518384106457,0.004830744624696672
1772366595804383500,9.365383544921874,-0.037919104027748105,0.0011116099371341987,0.003923274390958249
1772366595814453500,9.37545361328125,-0.04644903196394443,-0.0033199701689882203,0.00809924490135163
1772366595824524300,9.385524169921876,-0.04674713812768459,-0.0009666439419146627,-0.003404182420298457
1772366595834594600,9.395594482421876,-0.03777180451154709,0.003464694135612808,-0.0013812617579475044
1772366595844664600,9.40566455078125,-0.03194295222759247,-0.004278229875047691,0.0011270678011700511
1772366595854734300,9.415734375,-0.03553133210837841,-0.004984693077392876,0.006593735709227621
1772366595864804600,9.4258046875,-0.044510172855854034,-0.0014109262438490985,0.001042385192401707
1772366595874874600,9.43587451171875,-0.0350917716473341,0.0037213449109578505,-0.002752732774242759
1772366595884944400,9.4459443359375,-0.035085341906547544,-0.0026683743924601003,-0.002167772493138909
1772366595895014400,9.456014404296875,-0.04241816901266575,0.0017032602539286017,-0.004145867633074522
1772366595905084700,9.466084716796875,-0.03224515004456043,0.0034697584697976707,-0.002107566738501191
1772366595915154400,9.476154541015624,-0.03569032206237316,0.0011034037977922708,0.001669650245271623
1772366595925224400,9.486224365234374,-0.03868541222512722,-0.005366070777527056,0.005062471021339297
1772366595935294700,9.496294677734374,-0.046019408375024794,-0.0024069287109887228,-0.0033765272283926605
1772366595945364500,9.506364501953126,-0.039732290929555894,0.0003783272265223786,-0.00048672407101839777
1772366595955434500,9.5164345703125,-0.03794073133766651,-0.0014196666727308183,-0.005219195953011513
1772366595965504500,9.52650439453125,-0.044971945148706435,0.0070227336770622055,0.00022200872022658586
1772366595975574500,9.536574462890625,-0.039141339299082756,0.0037067044642521067,-0.0027187209067866206
1772366595985644500,9.54664453125,-0.03015606881082058,0.001521706841676496,-0.006310644451528787
1772366595995714300,9.55671435546875,-0.03344517348408699,-0.0010090080791851504,-0.006967683588154613
1772366596005784600,9.56678466796875,-0.02282090361714363,-0.005474741616658866,0.00007215192075818776
1772366596015854600,9.5768544921875,-0.03254617881774902,0.005399301760271191,-0.002905658313632011
1772366596025924400,9.58692431640625,-0.037784079471230504,-0.002448324733879417,0.0008089782953262329
1772366596035994600,9.59699462890625,-0.038677228918671605,0.005158533540647476,-0.010014686601236462
1772366596046064600,9.607064697265624,-0.0361328051328659,-0.0005259738025953993,-0.0008635214941576123
1772366596056134400,9.617134521484376,-0.034788989308476445,-0.00312525588106364,0.003700425420515239
1772366596066205400,9.627205322265626,-0.04121814557313919,-0.004511417576414533,0.007678352608159184
1772366596076275700,9.637275634765626,-0.03148760967552662,0.004728877985686995,0.003100925157405436
1772366596086345500,9.647345458984375,-0.04390460817813873,0.0011357762640109286,0.0016729381809011102
1772366596096415500,9.65741552734375,-0.0380716642409563,0.008764576942287385,-0.00783076669089496
1772366596106485500,9.667485595703125,-0.03388414942324161,-0.007065696035954169,-0.011911094807088374
1772366596116555500,9.677555419921875,-0.04106733892560005,-0.009663891269033774,-0.009399513844959437
1772366596126625500,9.68762548828125,-0.04586275650858879,0.0045631523302290585,-0.002076404415257275
1772366596136695600,9.697695556640625,-0.03972352310121059,0.0008133211103035137,-0.0033266236720606683
1772366596146765600,9.707765625,-0.03164426154196262,-0.00941728696366772,-0.0030945319492369887
1772366596156835600,9.717835693359374,-0.032841362372040744,0.0014698213908122852,-0.0033966567009687423
1772366596166905300,9.7279052734375,-0.035686230409145356,-0.0018003045873483641,0.0019257804308086632
1772366596176975600,9.7379755859375,-0.036437925559282304,-0.0025975467791082337,-0.0005326455719769001
1772366596187045600,9.748045654296876,-0.034790158352255816,-0.002593993981997482,-0.006353752940893173
1772366596197115400,9.758115478515625,-0.034793080961704255,-0.0037689195128856223,-0.00940148660633713
1772366596207185400,9.768185302734375,-0.029409049835801122,-0.002820779342041351,-0.00006897358298301697
1772366596217255700,9.778255615234375,-0.03704758189022541,-0.0008533334602834656,0.0011283464428037404
1772366596227325400,9.788325439453125,-0.03645838382542133,-0.0076343262367649,0.0014762830976396799
1772366596237395500,9.7983955078125,-0.016864625561237336,-0.0009620179991470649,-0.0024792495951056477
1772366596247465700,9.8084658203125,-0.03976794676482677,0.004053257446177304,-0.0018039076168090103
1772366596257535500,9.818535400390624,-0.0494961445748806,-0.005544391053076833,-0.0030674978118389843
1772366596267605500,9.82860546875,-0.049798926913738245,0.00403056612375658,-0.0003017594255506992
1772366596277675500,9.838675537109374,-0.03258709535002708,0.001541119361622259,0.0006602540070191025
1772366596287745500,9.84874560546875,-0.0494914683997631,-0.003971072755171917,-0.0006305164558812976
1772366596297815600,9.858815673828126,-0.0448468574643135,0.0007388585014501586,-0.00380216876193881
1772366596307885300,9.86888525390625,-0.03706511754691601,-0.00416948597067967,-0.001386193661391735
1772366596317955600,9.87895556640625,-0.033173955327272416,-0.010611054192343726,-0.002265862572751939
1772366596328025600,9.889025634765625,-0.029581483793258666,-0.0053661301430314775,0.009551051144860684
1772366596338095400,9.899095458984375,-0.027343349477648732,-0.0023196705526439473,-0.007220489305444062
1772366596348165600,9.90916552734375,-0.02914776855111122,0.0021587854690849778,-0.00802201494667679
1772366596358236700,9.919236572265625,-0.0340939927816391,-0.007087738904403522,-0.0074401234054937955
1772366596368306700,9.929306640625,-0.03963233768641949,-0.004904357850179076,0.005412526568025351
1772366596378376400,9.93937646484375,-0.047268531653285026,0.004509956271690316,0.0009582871055230498
1772366596388446500,9.949446533203124,-0.058337038156390186,0.007688065717997961,-0.0000018996961414813994
1772366596398516500,9.9595166015625,-0.03948445364832878,0.0018621406100690363,0.008795300874114035
1772366596408586500,9.96958642578125,-0.04397358176112175,0.005614145520771854,0.006104673550650477
1772366596418656500,9.979656494140626,-0.0465115758061409,0.009671608784608543,0.000255399533174932
1772366596428726500,9.9897265625,-0.04052665617763996,0.0016418215234298259,-0.0008067132730036974
1772366596438796500,9.999796630859375,-0.030056115567684172,0.002301312912045978,-0.004501512670330703
1772366596448866600,10.009866455078125,-0.03858545898199081,0.0017071966435294598,-0.000786181941628456
1772366596458936600,10.0199365234375,-0.040378187617659565,0.002889501763274893,0.00436411349363625
1772366596469006600,10.030006591796875,-0.040676878303289414,-0.0009741148623172194,0.0030332302160561084
1772366596479076600,10.04007666015625,-0.04158171818852424,0.005422084414237178,0.00017225129436701536
1772366596489146400,10.050146484375,-0.03499766362309455,-0.00003369220704771578,0.003461282902397215
1772366596499216600,10.060216552734374,-0.0409825832515955,0.006298036131705157,0.0056980289785191415
1772366596509286400,10.070286376953124,-0.03739128076136112,-0.0018390885280445217,-0.002544825644604862
1772366596519356400,10.0803564453125,-0.04173310935795307,-0.010132577359862624,0.0011611162012442947
1772366596529426700,10.0904267578125,-0.03425765891075134,-0.004801810791157186,-0.003918744346313179
1772366596539496400,10.100496337890625,-0.036056817287206645,0.00010525503933895379,0.005134403746388853
1772366596549566500,10.11056640625,-0.04084463608562946,-0.004725786412879824,0.003516301025263965
1772366596559636500,10.120636474609375,-0.04862520695924759,-0.011278765420033596,0.0019099618071690202
1772366596569706500,10.13070654296875,-0.0397930812060833,-0.004236664888798259,-0.008000972158648072
1772366596579776500,10.140776611328125,-0.042187282866239545,-0.003520228281710297,-0.005462685852684081
1772366596589846500,10.150846435546875,-0.03245791601240635,-0.003520557075273245,-0.0002899228572845459
1772366596599916500,10.16091650390625,-0.03215454915165901,0.0004164170474745333,0.001758935963921249
1772366596609986600,10.170986572265624,-0.03993453550338745,0.001807652210164815,-0.001646378967538476
1772366596620056600,10.181056640625,-0.03933773865401745,-0.0005687032660469413,0.0007055179208517074
1772366596630126600,10.191126708984376,-0.03799509187340736,0.008768157138861716,-0.0017937880815938115
1772366596640196600,10.201196533203126,-0.03111877636313438,-0.003674889120459556,-0.0026859876809641717
1772366596650266400,10.211266357421875,-0.038171032962203026,-0.001646045607398264,0.0027278540613129734
1772366596660336400,10.22133642578125,-0.04296235889196395,0.003933722719736397,-0.002542195296101272
1772366596670406700,10.23140673828125,-0.04551847311556339,0.0061177567945094775,-0.002219246952049434
1772366596680476400,10.241476318359375,-0.03549859888255596,-0.0052170770611613985,0.003199672824144363
1772366596690546400,10.25154638671875,-0.021312252619862554,-0.010440994855063036,-0.0010502397052943706
1772366596700616700,10.26161669921875,-0.013828034344315529,-0.002395548800448887,0.0016963555891066789
1772366596710686500,10.2716865234375,-0.054685529911518094,-0.002531733267591335,0.00214698543343693
1772366596720757500,10.281757568359374,-0.027923779714107512,0.0033575622330186887,0.0014916998624801634
1772366596730827500,10.29182763671875,-0.028690087911486625,-0.005629585118498653,-0.0014610489958897233
1772366596740897500,10.3018974609375,0.02947276272177696,0.019126611109892836,-0.01776818680483848
1772366596750967600,10.311967529296876,0.15446458552479744,0.003539617968769744,-0.016581753499247134
1772366596761037600,10.32203759765625,-0.13825930065512657,-0.009785965012433007,0.036404059822298586
1772366596771107300,10.332107421875,-0.1336480074673891,-0.0037914099059067666,0.0061444575717672706
1772366596781177600,10.342177490234375,-0.029041970089077947,-0.0038352855802513655,-0.01053637238778174
1772366596791247600,10.35224755859375,-0.08013736655414104,-0.002115750044956803,0.00596285392716527
1772366596801317400,10.3623173828125,-0.1591489439487457,-0.003944015784887597,0.021846907485835253
1772366596811387600,10.3723876953125,-0.10663783546686172,-0.007206807839963585,0.009105901193246245
1772366596821457700,10.382457763671875,0.03380874609947204,-0.022754587782127782,-0.010823811027035116
