time,seconds_elapsed,z,y,x
1772366573314058500,0.07305859375,0.0025734063237905502,-0.0018795053474605083,0.0013392046093940735
1772366573324129500,0.083129638671875,0.00010964088141918182,0.0018062642775475979,0.0006599202752113342
1772366573334199600,0.093199462890625,0.0007349513471126556,-0.0030896910466253757,0.001758473925292492
1772366573344269600,0.10326953125,0.0008402247913181782,-0.0009978879243135452,-0.0011280374601483345
1772366573354339600,0.113339599609375,0.0012335735373198986,-0.00046232622116804123,0.0007614754140377045
1772366573364409300,0.123409423828125,0.0012514344416558743,-0.003020678646862507,0.00042964518070220947
1772366573374480400,0.13348046875,0.0007883105427026749,-0.0019428974483162165,0.0008048852905631065
1772366573384550700,0.143550537109375,-0.0011059129610657692,0.000014425255358219147,0.00012187380343675613
1772366573394620400,0.153620361328125,0.0023804311640560627,-0.001265756320208311,0.000963699072599411
1772366573404690400,0.1636904296875,0.0005070129409432411,-0.00007697613909840584,-0.0005150670185685158
1772366573414760700,0.1737607421875,0.00013177329674363136,-0.003481028601527214,-0.002911645919084549
1772366573424830500,0.18383056640625,-0.00046822428703308105,-0.0043912045657634735,0.0004569869488477707
1772366573434901500,0.193901611328125,0.001890004612505436,0.0027905418537557125,-0.001917487010359764
1772366573444971500,0.203971435546875,-0.000967344269156456,-0.0018166368827223778,-0.0009112544357776642
1772366573455041500,0.21404150390625,-0.0003199297934770584,-0.009268694557249546,-0.00040472112596035004
1772366573465111600,0.224111572265625,0.000125175341963768,-0.002165592508390546,-0.0021272562444210052
1772366573475181600,0.234181640625,-0.001192823052406311,-0.003619678318500519,-0.0017690612003207207
1772366573485252600,0.244252685546875,-0.0001392303965985775,-0.00616894755512476,-0.0024550901725888252
1772366573495322400,0.254322265625,0.0010261689312756062,-0.002490589627996087,-0.0027246028184890747
1772366573505392600,0.264392578125,-0.0009764740243554115,-0.0035169017501175404,-0.002039189450442791
1772366573515462400,0.27446240234375,-0.0005186768248677254,-0.004396011121571064,-0.001989654265344143
1772366573525532400,0.284532470703125,0.0007832152768969536,-0.00535192247480154,0.001526697538793087
1772366573535602700,0.294602783203125,0.00031636329367756844,-0.0009523802436888218,-0.0014195581898093224
1772366573545673700,0.304673828125,-0.0009408416226506233,0.0011084326542913914,-0.0009161373600363731
1772366573555743500,0.314743408203125,-0.0007269904017448425,-0.0036479728296399117,-0.0008977614343166351
1772366573565813500,0.3248134765625,-0.0003769523464143276,-0.004913033451884985,-0.002271769568324089
1772366573575883300,0.33488330078125,0.0014012400060892105,-0.0038083542603999376,-0.00013112090528011322
1772366573585953500,0.34495361328125,-0.0005759699270129204,-0.003591625252738595,-0.0010363338515162468
1772366573596024600,0.355024658203125,0.0017689429223537445,-0.0014597647823393345,0.0007985839620232582
1772366573606094600,0.365094482421875,0.0010906271636486053,-0.00005096103996038437,0.0005779853090643883
1772366573616164400,0.375164306640625,-0.0006606681272387505,-0.0011939899995923042,-0.0006105834618210793
1772366573626234600,0.385234619140625,-0.001255260780453682,-0.00040540145710110664,-0.001489425078034401
1772366573636304600,0.3953046875,-0.0011607185006141663,-0.0003731772303581238,0.0013433787971735
1772366573646374400,0.40537451171875,0.0000964384526014328,-0.0010928837582468987,0.0004024859517812729
1772366573656445400,0.415445556640625,-0.0009597712196409702,-0.00044440384954214096,-0.001136820763349533
1772366573666515700,0.425515625,-0.00021721282973885536,0.0001449878327548504,-0.0023748306557536125
1772366573676585500,0.43558544921875,-0.0002859220840036869,-0.0024694374296814203,0.00026302970945835114
1772366573686655500,0.445655517578125,-0.00021221674978733063,-0.0017494410276412964,-0.00019229203462600708
1772366573696725500,0.4557255859375,-0.0005230079405009747,-0.0014186766929924488,-0.0010959021747112274
1772366573706796300,0.46579638671875,0.0016667107120156288,-0.0001469203270971775,-0.000792384147644043
1772366573716866600,0.475866455078125,-0.00033358950167894363,-0.002939511090517044,0.0005679577589035034
1772366573726936600,0.4859365234375,0.0010754619725048542,-0.0023832025472074747,-0.0003761341795325279
1772366573737006300,0.49600634765625,-0.0014265775680541992,-0.00042018620297312737,0.0003053685650229454
1772366573747076600,0.50607666015625,-0.0017690574750304222,0.0023240461014211178,0.0018863966688513756
1772366573757146600,0.516146728515625,-0.0011088596656918526,-0.0027916200924664736,0.0017958488315343857
1772366573767217400,0.526217529296875,-0.000655120238661766,0.00010570744052529335,0.0001828586682677269
1772366573777287400,0.536287353515625,0.002520433161407709,-0.00039949407801032066,-0.001680554822087288
1772366573787357700,0.546357666015625,-0.0011317539028823376,0.0005323905497789383,0.00154950562864542
1772366573797427500,0.556427490234375,0.001186261884868145,-0.0031156071927398443,0.0027753589674830437
1772366573807497500,0.56649755859375,0.0008205557242035866,-0.0011313795112073421,0.0001636585220694542
1772366573817568500,0.576568603515625,-0.0005898545496165752,-0.0013601449318230152,-0.000011310912668704987
1772366573827638300,0.58663818359375,-0.0007582851685583591,-0.0011030123569071293,-0.0005546994507312775
1772366573837708500,0.59670849609375,0.0004712967202067375,-0.0004950128495693207,-0.001281742937862873
1772366573847778600,0.606778564453125,0.002723630052059889,0.00036345282569527626,0.0014374908059835434
1772366573857848300,0.616848388671875,-0.003201636951416731,0.0011624014005064964,-0.0007455023005604744
1772366573867918600,0.626918701171875,0.00020040664821863174,-0.00022189272567629814,0.00020668283104896545
1772366573877989600,0.63698974609375,0.00023342948406934738,-0.000783553346991539,-0.0011110492050647736
1772366573888059600,0.6470595703125,0.0005397866480052471,-0.0016601106617599726,0.000016956590116024017
1772366573898129400,0.65712939453125,-0.0012410692870616913,-0.00044570909813046455,-0.0025537926703691483
1772366573908199400,0.667199462890625,0.00011807354167103767,0.0001485622487962246,0.002572445198893547
1772366573918269400,0.67726953125,0.0007673520594835281,-0.0008386713452637196,0.001554851420223713
1772366573928340500,0.687340576171875,0.0001623830758035183,0.0004927422851324081,-0.0011528898030519485
1772366573938410500,0.697410400390625,-0.0003231111913919449,0.000022428110241889954,-0.0021723471581935883
1772366573948480500,0.70748046875,0.0022721891291439533,-0.00014626560732722282,-0.0009467704221606255
1772366573958550500,0.717550537109375,0.000038063619285821915,-0.0012932890094816685,-0.0019776802510023117
1772366573968620500,0.72762060546875,0.002071147784590721,-0.0016176439821720123,-0.001276765950024128
1772366573978690300,0.737690185546875,-0.00030492478981614113,-0.0005856691859662533,-0.0002559758722782135
1772366573988761300,0.74776123046875,0.00014402251690626144,-0.000022924505174160004,-0.0017594480887055397
1772366573998831600,0.75783154296875,-0.0002690334804356098,0.0002670935355126858,0.00044138822704553604
1772366574008901600,0.767901611328125,-0.0001312876120209694,0.0019282405264675617,-0.0016181450337171555
1772366574018971400,0.777971435546875,0.0007427618838846684,0.003231857903301716,-0.0004841713234782219
1772366574029041000,0.788041015625,-0.0008551436476409435,-0.0006493944674730301,0.000719224102795124
1772366574039112000,0.79811181640625,0.000021568499505519867,0.0021455930545926094,0.00033839140087366104
1772366574049182000,0.808181884765625,0.00018661841750144958,0.0029650446958839893,-0.0008749812841415405
1772366574059252000,0.818251953125,-0.002443518955260515,-0.0019378347788006067,-0.0011093402281403542
1772366574069322000,0.828322021484375,-0.0005960226990282536,0.00265683326870203,-0.001627553254365921
1772366574079392000,0.83839208984375,0.0007435474544763565,0.002163882367312908,-0.0012270137667655945
1772366574089463000,0.848463134765625,-0.0034014005213975906,0.004498430527746677,0.0009554540738463402
1772366574099532800,0.85853271484375,0.0008034640923142433,0.0006589507684111595,-0.0006909128278493881
1772366574109602800,0.868602783203125,-0.001775127835571766,-0.0016410660464316607,0.002704031765460968
1772366574119673000,0.878673095703125,-0.0013788491487503052,0.003419739194214344,0.0010017389431595802
1772366574129742800,0.888742919921875,-0.0023499540984630585,-0.0017408085986971855,0.0003796210512518883
1772366574139812900,0.898812744140625,0.0008106851018965244,0.0015551196411252022,-0.0016049668192863464
1772366574149884000,0.9088837890625,0.0013500265777111053,-0.0021122207399457693,-0.0007843431085348129
1772366574159954000,0.918953857421875,0.001445101574063301,0.001071055419743061,-0.0003276113420724869
1772366574170024000,0.92902392578125,-0.0018639015033841133,0.00009636301547288895,-0.0028072549030184746
1772366574180094000,0.939093994140625,0.0013068579137325287,0.0006865193136036396,0.0007983986288309097
1772366574190164000,0.9491640625,-0.0008180560544133186,0.0005932468920946121,0.0006707021966576576
1772366574200234000,0.95923388671875,0.0037886800710111856,0.0014537139795720577,-0.000992707908153534
1772366574210305000,0.969304931640625,0.0005660210736095905,-0.0007483987137675285,-0.0011952286586165428
1772366574220374800,0.979374755859375,-0.00004783784970641136,-0.0017135280650109053,-0.0015723323449492455
1772366574230444800,0.98944482421875,-0.0028557609766721725,0.0018947916105389595,0.0004066610708832741
1772366574240515000,0.99951513671875,-0.00046823732554912567,-0.00040271785110235214,0.001446092501282692
1772366574250584800,1.009584716796875,-0.0012827985920011997,0.0007636658847332001,-0.00019579846411943436
1772366574260655900,1.01965576171875,-0.0008026310242712498,0.0004755118861794472,0.0009506922215223312
1772366574270726000,1.029725830078125,-0.0002179979346692562,-0.0006544520147144794,-0.0003931047394871712
1772366574280796000,1.0397958984375,0.0009071878157556057,0.0005540903657674789,0.0005294140428304672
1772366574290866000,1.049865966796875,0.00006534578278660774,0.0009843050502240658,0.0017154458910226822
1772366574300936000,1.05993603515625,-0.0001072268933057785,-0.0016663391143083572,0.00020410213619470596
1772366574311006000,1.070005859375,-0.0009279260411858559,0.0006520552560687065,-0.00038204900920391083
1772366574321077000,1.080076904296875,0.000735218171030283,-0.0014766096137464046,-0.0006736647337675095
1772366574331147000,1.09014697265625,0.0008247201330959797,-0.0009814370423555374,-0.0003094766288995743
1772366574341216800,1.100216796875,-0.0016877059824764729,0.0005512121133506298,-0.0004173349589109421
1772366574351286800,1.110286865234375,0.0007676444947719574,-0.000011799857020378113,0.0011610724031925201
1772366574361357000,1.120357177734375,-0.0029605142772197723,-0.0014509721659123898,0.001977331005036831
1772366574371428000,1.130427978515625,0.0003589433617889881,-0.0012074103578925133,-0.0011647902429103851
1772366574381497900,1.140497802734375,0.000577055849134922,0.0009960890747606754,0.00028370320796966553
1772366574391568000,1.15056787109375,-0.0009424644522368908,-0.0006322194822132587,-0.0006239349022507668
1772366574401638100,1.16063818359375,0.00021947268396615982,0.0019947225227952003,-0.0008692117407917976
1772366574411708000,1.1707080078125,-0.0005782558582723141,0.00028219539672136307,0.0006042011082172394
1772366574421778000,1.18077783203125,-0.0012791999615728855,0.0017402763478457928,0.0011536115780472755
1772366574431849000,1.190848876953125,-0.0017111306078732014,0.001052213367074728,0.00037840288132429123
1772366574441919000,1.2009189453125,0.0008771959692239761,-0.0011427642311900854,-0.0019539939239621162
1772366574451989000,1.210989013671875,0.0010954616591334343,-0.000048123300075531006,0.00021552667021751404
1772366574462059000,1.22105908203125,-0.0016004559583961964,0.0014384533278644085,0.0012480346485972404
1772366574472128800,1.231128662109375,0.0009428244084119797,0.002042957581579685,-0.00037404149770736694
1772366574482199000,1.241198974609375,-0.0010851728729903698,0.0012522651813924313,-0.0009333053603768349
1772366574492270000,1.25127001953125,0.001214815303683281,0.0035627456381917,-0.0007102005183696747
1772366574502339800,1.26133984375,-0.000923436600714922,0.0022079958580434322,-0.0016838526353240013
1772366574512409900,1.271409912109375,-0.0004643471911549568,0.0008397786878049374,0.0020091328769922256
1772366574522480000,1.281480224609375,-0.0006750030443072319,0.0005910396575927734,-0.0005610836669802666
1772366574532550000,1.2915498046875,0.00024875858798623085,0.004256524611264467,0.000682169571518898
1772366574542621000,1.301620849609375,-0.0006191660650074482,-0.0007797786965966225,0.0002909507602453232
1772366574552691000,1.31169091796875,0.0007218639366328716,-0.0012807990424335003,0.000048381276428699493
1772366574562760700,1.3217607421875,0.0011580893769860268,-0.00042832130566239357,0.0021245814859867096
1772366574572831000,1.3318310546875,-0.0006425799801945686,0.0006857560947537422,-0.001742006279528141
1772366574582901000,1.34190087890625,0.0006783474236726761,0.0007573948241770267,0.000972287729382515
1772366574592970800,1.351970703125,0.001204285304993391,-0.00026562903076410294,-0.00007064174860715866
1772366574603041800,1.362041748046875,-0.0023475727066397667,0.0012869937345385551,0.00019940268248319626
1772366574613112000,1.372112060546875,0.0008133403025567532,0.0012833410874009132,0.001877613365650177
1772366574623181800,1.382181884765625,-0.0000660354271531105,0.0008375281468033791,-0.0009037917479872704
1772366574633251800,1.392251953125,-0.000949423760175705,-0.00024408427998423576,-0.001249205321073532
1772366574643322000,1.402322021484375,-0.001005084253847599,0.001409738790243864,-0.0015666540712118149
1772366574653392000,1.412391845703125,0.0007073902525007725,-0.002445012563839555,0.0028104716911911964
1772366574663463000,1.422462890625,0.0001984601840376854,-0.0008042389526963234,-0.001993870362639427
1772366574673533000,1.432532958984375,-0.0008992082439363003,0.0006407243199646473,-0.001974041573703289
1772366574683602700,1.442602783203125,-0.002046764362603426,0.003186173737049103,-0.0016765659675002098
1772366574693673000,1.4526728515625,0.0006732582114636898,0.005280955228954554,0.0019524535164237022
1772366574703743000,1.462742919921875,0.00003942614421248436,0.00007873587310314178,0.0006610862910747528
1772366574713812700,1.472812744140625,0.000735210720449686,0.009182139299809933,0.0042845578864216805
1772366574723883800,1.4828837890625,0.0014912821352481842,0.0062752990052104,0.003907720558345318
1772366574733954000,1.4929541015625,-0.0003058207221329212,0.006278674583882093,0.0024840785190463066
1772366574744023800,1.50302392578125,0.0005916641093790531,0.00026818690821528435,0.0006462307646870613
1772366574754093800,1.51309375,0.0028931600973010063,0.0026229298673570156,-0.0004935292527079582
1772366574764164000,1.5231640625,-0.0008776094764471054,0.0018503470346331596,0.0015334030613303185
1772366574774235100,1.533235107421875,0.0021818093955516815,0.0009326664730906487,0.0008668350055813789
1772366574784305000,1.543304931640625,-0.00019372999668121338,-0.001148061128333211,-0.0021036546677351
1772366574794375000,1.553375,0.0034313341602683067,-0.0006348504684865475,0.0010536788031458855
1772366574804445000,1.56344482421875,-0.0006755269132554531,0.0018701190128922462,-0.001379118300974369
1772366574814515000,1.573514892578125,-0.002094612456858158,-0.0006506601348519325,-0.00016657914966344833
1772366574824585000,1.5835849609375,0.00027320394292473793,-0.0009699729271233082,0.00031465478241443634
1772366574834656000,1.593656005859375,-0.0001077866181731224,-0.0019003762863576412,0.00018369127064943314
1772366574844725800,1.603725830078125,-0.00015092967078089714,-0.004905221052467823,0.000249471515417099
1772366574854796000,1.613796142578125,0.0005072434432804585,-0.0010983787942677736,0.0006459662690758705
1772366574864866000,1.623865966796875,0.0010553221218287945,-0.00037932535633444786,0.00024010054767131805
1772366574874935800,1.633935791015625,-0.0000794827938079834,0.000318269245326519,-0.0009005134925246239
1772366574885005800,1.644005859375,0.0013889842666685581,-0.002261002082377672,0.0008885981515049934
1772366574895076900,1.654076904296875,0.0006928090006113052,0.0006451131775975227,-0.0013962946832180023
1772366574905147000,1.66414697265625,0.000958059448748827,-0.0022444166243076324,-0.003017093986272812
1772366574915217000,1.674216796875,-0.0015737093053758144,0.00038428138941526413,-0.001881774514913559
1772366574925287000,1.684286865234375,0.00020980974659323692,-0.0006431662477552891,-0.00009133107960224152
1772366574935357000,1.69435693359375,0.00031186453998088837,0.0014805872924625874,-0.00032497476786375046
1772366574945427000,1.704427001953125,0.00021705590188503265,0.0024995128624141216,-0.00004614144563674927
1772366574955498000,1.714498046875,0.0004038894549012184,0.0004491168074309826,-0.0015033883973956108
1772366574965567700,1.724567626953125,0.0013889926485717297,0.0029761898331344128,0.0006942516192793846
1772366574975638000,1.734637939453125,-0.0011749155819416046,0.0007580164819955826,-0.00029886234551668167
1772366574985708000,1.7447080078125,0.0013148738071322441,0.0017559030093252659,0.00011259596794843674
1772366574995777800,1.75477783203125,-0.0006939261220395565,0.0012934491969645023,-0.0004951311275362968
1772366575005847800,1.764847900390625,0.0016161003150045872,0.0005296547897160053,0.0008343188092112541
1772366575015918800,1.7749189453125,0.0007974221371114254,0.0006688255816698074,-0.000005313195288181305
1772366575025988900,1.78498876953125,0.0013473648577928543,0.00011888286098837852,-0.0004226313903927803
1772366575036060000,1.795059814453125,0.0012186672538518906,0.00023395009338855743,0.0018242867663502693
1772366575046130000,1.8051298828125,0.0012578158639371395,0.000923709012567997,-0.001060183160007
1772366575056199700,1.81519970703125,-0.0018149283714592457,0.00022747181355953217,0.0013143159449100494
1772366575066270000,1.82527001953125,0.0018394612707197666,-0.001049247570335865,-0.0008431104943156242
1772366575076341000,1.835341064453125,-0.0010959305800497532,-0.002589729381725192,-0.0003697294741868973
1772366575086410800,1.84541064453125,-0.0007603722624480724,-0.0010773201938718557,0.0005413377657532692
1772366575096480800,1.855480712890625,-0.0004489305429160595,0.0023598340339958668,0.0017274264246225357
1772366575106551000,1.865551025390625,0.0005377703346312046,0.001510019414126873,0.001987617462873459
1772366575116620800,1.875620849609375,0.0017622653394937515,0.003651529550552368,0.0018850527703762054
1772366575126690800,1.88569091796875,-0.002059903461486101,0.0009494866244494915,0.0020459070801734924
1772366575136761900,1.895761962890625,0.0011427546851336956,0.0032899645157158375,0.002269204705953598
1772366575146832000,1.905831787109375,-0.0013731340877711773,0.004095305223017931,0.0012755785137414932
1772366575156902000,1.91590185546875,-0.0001643393188714981,0.00446702353656292,0.0008248742669820786
1772366575166972000,1.925971923828125,-0.0019270856864750385,0.0014592492952942848,-0.0009714281186461449
1772366575177041700,1.936041748046875,-0.0003446112386882305,0.0036290017887949944,-0.0021027252078056335
1772366575187112000,1.94611181640625,0.0010010846890509129,0.004936880432069302,-0.0005831262096762657
1772366575197182000,1.956181884765625,0.001546582207083702,0.007231032010167837,-0.0007862728089094162
1772366575207253000,1.9662529296875,0.000441103707998991,0.0023662354797124863,0.0007586264982819557
1772366575217322800,1.97632275390625,-0.0020903018303215504,0.0039028790779411793,0.0017652809619903564
1772366575227393000,1.98639306640625,0.0006809835322201252,0.003365719225257635,-0.0007852278649806976
1772366575237462800,1.996462890625,0.0009355503134429455,0.0017186920158565044,0.0016591697931289673
1772366575247532800,2.00653271484375,-0.0017654281109571457,0.003763999789953232,-0.0015568630769848824
1772366575257602800,2.016602783203125,0.002654722426086664,0.003615128807723522,0.000557921826839447
1772366575267673900,2.026673828125,-0.0003442629240453243,0.004870010539889336,0.0005009304732084274
1772366575277743900,2.036743896484375,0.0018461067229509354,0.003176214173436165,-0.0009991945698857307
1772366575287814000,2.04681396484375,-0.0010037412866950035,0.0022390480153262615,-0.001986694522202015
1772366575297884000,2.0568837890625,0.0004142005927860737,0.002917315810918808,-0.0013847658410668373
1772366575307954000,2.066953857421875,0.0007058167830109596,0.0004818551242351532,0.0006221923977136612
1772366575318024000,2.07702392578125,0.001024557277560234,0.0041396175511181355,-0.0005183834582567215
1772366575328095000,2.087094970703125,-0.0004473715089261532,0.0003249053843319416,0.00012263935059309006
1772366575338164700,2.097164794921875,-0.0015779193490743637,0.0013237264938652515,-0.00028645433485507965
1772366575348235000,2.107235107421875,0.0011779195629060268,0.003317635040730238,0.00190745759755373
1772366575358305000,2.117304931640625,-0.00030852900817990303,0.0029783109202980995,0.0003677103668451309
1772366575368374800,2.127374755859375,-0.0007508797571063042,0.002766855526715517,-0.0008253855630755424
1772366575378444800,2.13744482421875,-0.00047688698396086693,-0.00004584668204188347,-0.0006628930568695068
1772366575388515800,2.147515869140625,0.0002767876721918583,0.0031728502362966537,0.0018969373777508736
1772366575398585900,2.1575859375,-0.0011334847658872604,0.002417351119220257,-0.0009570727124810219
1772366575408656000,2.16765576171875,0.0008372543379664421,0.0029033781029284,0.0007087336853146553
1772366575418726000,2.177725830078125,0.0014578537084162235,0.0011403178796172142,-0.0007110591977834702
1772366575428796000,2.1877958984375,-0.00002099946141242981,-0.00001549394801259041,0.0013169385492801666
1772366575438866000,2.197865966796875,0.00022148247808218002,0.0017811385914683342,-0.0017486978322267532
1772366575448937000,2.20793701171875,-0.001918633934110403,0.00015527894720435143,-0.000681036151945591
1772366575459006700,2.2180068359375,0.0016185264103114605,0.0005357563495635986,-0.00031549204140901566
1772366575469077000,2.228076904296875,-0.0020545050501823425,-0.0037095886655151844,0.0005521653220057487
1772366575479147000,2.23814697265625,0.00006734253838658333,-0.0013105000834912062,-0.0007704086601734161
1772366575489216800,2.248216796875,-0.0009917961433529854,-0.0021528578363358974,-0.0010479101911187172
1772366575499286800,2.258286865234375,-0.00032059522345662117,0.004906907677650452,-0.0015838779509067535
1772366575509357000,2.268357177734375,0.0024637398310005665,0.0007094992324709892,0.0012507904320955276
1772366575519427800,2.278427734375,-0.002082635648548603,-0.0002998574636876583,-0.0006608488038182259
1772366575529497900,2.288497802734375,0.001268952153623104,-0.0010170466266572475,0.0025107096880674362
1772366575539567900,2.29856787109375,-0.0019466830417513847,-0.0003937683068215847,0.0006215088069438934
1772366575549638000,2.308637939453125,0.0010104915127158165,0.002788176294416189,0.00038155820220708847
1772366575559708000,2.3187080078125,-0.00024189800024032593,0.0008258712477982044,-0.001955362968146801
1772366575569778000,2.32877783203125,0.0003684982657432556,0.00017872313037514687,0.002650574781000614
1772366575579848700,2.3388486328125,0.002218896523118019,0.0008597499690949917,0.0001179790124297142
1772366575589919000,2.3489189453125,0.0003493577241897583,0.0015377909876406193,0.0025523751974105835
1772366575599989000,2.358989013671875,-0.00024118507280945778,0.0001138872466981411,0.0015285061672329903
1772366575610058800,2.369058837890625,-0.002054265234619379,-0.00038971658796072006,-0.00014369282871484756
1772366575620128800,2.379128662109375,-0.000047878362238407135,0.0016151671297848225,0.0020446768030524254
1772366575630199000,2.389198974609375,0.0000016563571989536285,-0.0007276157848536968,0.0007415926083922386
1772366575640270000,2.39927001953125,-0.0005431398749351501,-0.005139028653502464,0.002841242589056492
1772366575650339800,2.40933984375,-0.003370084799826145,0.0010269880294799805,0.0010380158200860023
1772366575660409900,2.419409912109375,-0.001060983631759882,0.0007954621687531471,-0.00012697279453277588
1772366575670480000,2.42947998046875,-0.002246623393148184,0.0015097218565642834,-0.00017677433788776398
1772366575680550000,2.4395498046875,-0.0016232687048614025,-0.0018327883444726467,0.0007750475779175758
1772366575690620000,2.449619873046875,0.0005021998658776283,0.00012889597564935684,0.0020304610952734947
1772366575700690000,2.45968994140625,0.00045149773359298706,-0.0006246883422136307,0.00021390803158283234
1772366575710760700,2.4697607421875,0.0008531026542186737,-0.003467612899839878,-0.00038583576679229736
1772366575720831000,2.4798310546875,0.00012679863721132278,-0.0036889775656163692,0.001610109582543373
1772366575730900700,2.489900634765625,-0.0008471189066767693,0.0007491800934076309,-0.0006144288927316666
1772366575740970800,2.499970703125,0.0010275552049279213,-0.0010538683272898197,-0.0022492045536637306
1772366575751041000,2.510041015625,-0.0007069618441164494,-0.002241371897980571,-0.00014291051775217056
1772366575761110800,2.52011083984375,0.0006662942469120026,-0.0021678213961422443,-0.0015807515010237694
1772366575771181800,2.530181884765625,-0.0002679424360394478,0.0029116254299879074,0.0002709450200200081
1772366575781251800,2.540251953125,0.0010190638713538647,0.0015135793946683407,0.0002793045714497566
1772366575791322000,2.550322021484375,-0.0000813542865216732,0.004097645170986652,0.0017144819721579552
1772366575801391900,2.560391845703125,0.00030544446781277657,0.0012063877657055855,0.0008189938962459564
1772366575811462000,2.5704619140625,0.00025138258934020996,0.0006415313109755516,-0.000767185352742672
1772366575821531600,2.58053173828125,0.00009121652692556381,-0.005350789986550808,-0.001923413947224617
1772366575831602000,2.590601806640625,-0.00006537698209285736,0.004528738558292389,-0.0011732010170817375
1772366575841673000,2.6006728515625,-0.0007330905646085739,0.0029854262247681618,-0.0015670554712414742
1772366575851743000,2.610742919921875,0.0002504149451851845,-0.000012760516256093979,0.0030242344364523888
1772366575861812700,2.620812744140625,0.0005930028855800629,0.0008462145924568176,0.0015589576214551926
1772366575871883000,2.630883056640625,0.0011932794004678726,-0.0008371691219508648,0.0002763792872428894
1772366575881952800,2.640952880859375,0.0003308556042611599,-0.00020281225442886353,0.0018532229587435722
1772366575892022800,2.651022705078125,-0.0005437266081571579,-0.0007064160890877247,-0.00041099637746810913
1772366575902093000,2.661093017578125,0.0007422300986945629,0.0013099848292768002,-0.00033893808722496033
1772366575912164000,2.6711640625,0.0013808561488986015,0.0003411266952753067,-0.0018910281360149384
1772366575922233900,2.68123388671875,0.0013585747219622135,-0.0007634307257831097,-0.0004507070407271385
1772366575932304000,2.691303955078125,0.0006885235197842121,0.0015447312034666538,0.003100617788732052
1772366575942374000,2.701373779296875,-0.0006700558587908745,-0.00508494209498167,0.00019282102584838867
1772366575952444000,2.71144384765625,-0.0017411792650818825,-0.0071946983225643635,-0.0010500764474272728
1772366575962514000,2.721513916015625,-0.0017068409360945225,-0.00416986458003521,0.001420249231159687
1772366575972585000,2.7315849609375,-0.001956378575414419,-0.002695005852729082,-0.0007326500490307808
1772366575982654700,2.74165478515625,-0.0006630741991102695,-0.0018152508419007063,0.0008916361257433891
1772366575992725000,2.75172509765625,0.0022480268962681293,-0.0021340311504900455,-0.0015576733276247978
1772366576002795000,2.761794921875,0.0022176518104970455,-0.0016788884531706572,0.0016911542043089867
1772366576012864800,2.77186474609375,0.0007664952427148819,0.0028665950521826744,0.0017201825976371765
1772366576022935000,2.78193505859375,-0.0016038846224546432,0.005353903863579035,-0.000036044977605342865
1772366576033004000,2.792004150390625,-0.000578833743929863,0.0027730348519980907,0.001728300005197525
1772366576043075000,2.802074951171875,-0.0005966713652014732,0.002130230888724327,0.0013969726860523224
1772366576053144800,2.812144775390625,0.0006632702425122261,0.0003962465561926365,0.001853439025580883
1772366576063215000,2.822215087890625,0.002581982407718897,0.0001484896056354046,-0.0007747616618871689
1772366576073285000,2.83228515625,-0.0005589495413005352,-0.0007410063408315182,0.0015805382281541824
1772366576083355000,2.84235498046875,-0.0010001021437346935,0.00018890714272856712,-0.0026583755388855934
1772366576093425200,2.852425048828125,-0.001558834221214056,-0.0007578465156257153,0.0003733662888407707
1772366576103496200,2.86249609375,0.0000705481506884098,0.001441171858459711,0.0006154878064990044
1772366576113566000,2.87256591796875,-0.0004972382448613644,0.0009543462656438351,-0.0008335383608937263
1772366576123636000,2.882635986328125,0.00041633984073996544,0.003884552512317896,0.00010806135833263397
1772366576133706000,2.8927060546875,0.002074956428259611,-0.00029740994796156883,-0.0012935595586895943
1772366576143776000,2.90277587890625,0.000031673815101385117,-0.0009539760649204254,0.00014038197696208954
1772366576153846000,2.912845947265625,-0.0011465083807706833,0.0003789360634982586,-0.001301453448832035
1772366576163916000,2.922916015625,-0.00015520863234996796,0.0006838361732661724,0.00028607994318008423
1772366576173986800,2.93298681640625,0.001258663833141327,-0.0019969018176198006,-0.0010433699935674667
1772366576184057000,2.94305712890625,0.00004133721813559532,0.0016517001204192638,0.001378295011818409
1772366576194127000,2.953127197265625,-0.0008681323379278183,-0.0017374386079609394,-0.00007046479731798172
1772366576204196900,2.96319677734375,-0.0012191548012197018,-0.0023948291782289743,0.0013603940606117249
1772366576214267100,2.97326708984375,-0.00012938957661390305,0.000283245462924242,0.0005997950211167336
1772366576224337200,2.983337158203125,-0.001675938256084919,0.0006119543686509132,0.0006676362827420235
1772366576234407000,2.993406982421875,0.00234942976385355,-0.0030291196890175343,0.00014938507229089737
1772366576244478000,3.00347802734375,0.0029211961664259434,-0.0009606736712157726,-0.0013761483132839203
1772366576254548000,3.0135478515625,0.00032674428075551987,-0.0004653260111808777,-0.000059215351939201355
1772366576264618000,3.023617919921875,0.002847629599273205,0.003857168834656477,-0.00018538348376750946
1772366576274688000,3.03368798828125,-0.0033599319867789745,0.0003090398386120796,0.001549665816128254
1772366576284758000,3.043758056640625,0.00010338285937905312,-0.0007700887508690357,0.0007127122953534126
1772366576294828000,3.053828125,0.0027082208544015884,0.00036175502464175224,-0.00008303951472043991
1772366576304898000,3.06389794921875,-0.001181094441562891,0.0025178417563438416,-0.0007657948881387711
1772366576314969000,3.073968994140625,0.00017498712986707687,-0.003309687366709113,0.000607331283390522
1772366576325038800,3.084038818359375,-0.0021742796525359154,0.0015382408164441586,0.002138853073120117
1772366576335109000,3.094109130859375,0.0005812933668494225,0.0002732393331825733,0.0007452210411429405
1772366576345179100,3.10417919921875,-0.00431746244430542,0.0007577068172395229,0.0016859695315361023
1772366576355249000,3.114248779296875,0.001993696205317974,0.002029099967330694,-0.0012200716882944107
1772366576365319000,3.12431884765625,0.002669333014637232,0.0025571114383637905,-0.0014065103605389595
1772366576375390000,3.134389892578125,-0.0013259416446089745,-0.0028451106045395136,0.00042601022869348526
1772366576385460000,3.1444599609375,0.0018562073819339275,-0.0007833503186702728,0.0023085270076990128
1772366576395530000,3.154530029296875,-0.0012996387667953968,0.0026193703524768353,0.00006987340748310089
1772366576405600000,3.16460009765625,0.00023288000375032425,0.0002611251547932625,-0.0031267348676919937
1772366576415670000,3.174669921875,0.0006581870838999748,0.0011681979522109032,0.0019063735380768776
1772366576425740000,3.184739990234375,0.0006013894453644753,0.0009003905579447746,0.00028505362570285797
1772366576435810000,3.19481005859375,-0.0005688033998012543,0.0013723024167120457,0.0005463100969791412
1772366576445880800,3.204880859375,-0.0004260423593223095,0.004151047673076391,-0.0004779910668730736
1772366576455950800,3.214950927734375,-0.0011016861535608768,0.0032253325916826725,-0.00008011423051357269
1772366576466021000,3.225021240234375,-0.0006775138899683952,0.0026764944195747375,0.0005056560039520264
1772366576476091000,3.2350908203125,-0.001812819391489029,0.004198491107672453,0.0017727883532643318
1772366576486161000,3.245160888671875,0.0019172867760062218,0.003674768842756748,-0.000669737346470356
1772366576496231200,3.255231201171875,0.0019127591513097286,0.0008353060111403465,0.0012775659561157227
1772366576506301000,3.265301025390625,0.0005357195623219013,0.0013072490692138672,0.0011960901319980621
1772366576516372000,3.2753720703125,0.001137593761086464,0.002234828192740679,-0.00038476288318634033
1772366576526442000,3.28544189453125,-0.0011163200251758099,0.003032794687896967,0.0009473934769630432
1772366576536512000,3.295511962890625,0.00036226725205779076,0.0035601002164185047,0.0001793382689356804
1772366576546582000,3.30558203125,0.0038498295471072197,0.0009849760681390762,0.00022012274712324142
1772366576556652000,3.315652099609375,-0.0005100318230688572,0.007208516821265221,-0.0020009540021419525
1772366576566721800,3.3257216796875,0.0017828717827796936,0.006029026582837105,0.0016697980463504791
1772366576576792000,3.3357919921875,-0.0010693734511733055,0.0026215119287371635,0.0023528989404439926
1772366576586863000,3.345863037109375,0.0007646577432751656,0.0032566371373832226,-0.0008288705721497536
1772366576596932900,3.355932861328125,-0.0023847962729632854,0.0033080358989536762,0.0007884670048952103
1772366576607003000,3.3660029296875,-0.000984962098300457,0.0060876538045704365,-0.0010423269122838974
1772366576617073200,3.3760732421875,0.0010659387335181236,0.0037898789159953594,0.00028179679065942764
1772366576627143000,3.386142822265625,-0.000791638158261776,0.0035949042066931725,0.0010343855246901512
1772366576637213000,3.396212890625,-0.00012185284867882729,0.0025706528685986996,-0.001085757277905941
1772366576647283200,3.406283203125,-0.00005840416997671127,0.004215671680867672,0.0006899870932102203
1772366576657354200,3.416354248046875,-0.0006885076873004436,0.0029014013707637787,0.0011879978701472282
1772366576667424000,3.426424072265625,-0.0012006754986941814,0.0019837813451886177,0.00013707391917705536
1772366576677494000,3.436493896484375,0.000004404690116643906,0.0002039908431470394,-0.0015921173617243767
1772366576687563800,3.446563720703125,0.0004149354062974453,0.0014909999445080757,0.0016433745622634888
1772366576697634000,3.456634033203125,-0.0023166686296463013,0.00018285540863871574,-0.0009859642013907433
1772366576707704000,3.4667041015625,-0.001026318408548832,0.0008908300660550594,-0.00013672653585672379
1772366576717773800,3.47677392578125,-0.00013735517859458923,-0.00016591232270002365,-0.0007404647767543793
1772366576727844900,3.486844970703125,0.0024443292059004307,-0.0006693336181342602,0.0018748762086033821
1772366576737915100,3.4969150390625,-0.0017765150405466557,-0.0026661716401576996,-0.00014353357255458832
1772366576747985000,3.50698486328125,0.00021532084792852402,0.0009814226068556309,-0.0002749236300587654
1772366576758055000,3.517054931640625,-0.0008789720013737679,-0.001168014481663704,-0.0018179593607783318
1772366576768125200,3.527125244140625,0.0006233993917703629,-0.0011167223565280437,-0.002156428061425686
1772366576778195000,3.53719482421875,0.0006114155985414982,0.0007533491589128971,0.00032856687903404236
1772366576788265000,3.547264892578125,0.0018461826257407665,-0.0007113893516361713,-0.0005023861303925514
1772366576798336000,3.5573359375,0.00046586617827415466,-0.0026312621776014566,0.0011857915669679642
1772366576808406000,3.567406005859375,-0.001067416276782751,0.0004994207993149757,0.0029080109670758247
1772366576818476000,3.57747607421875,0.0017411536537110806,0.0001976843923330307,-0.001398853026330471
1772366576828546000,3.587546142578125,0.0013194628991186619,-0.0019540577195584774,0.00021007191389799118
1772366576838615800,3.59761572265625,-0.0005074655637145042,-0.00021927477791905403,-0.0007523950189352036
1772366576848686000,3.60768603515625,0.00003620004281401634,-0.0021216694731265306,0.000631747767329216
1772366576858756000,3.617756103515625,0.00041516777127981186,0.00013535935431718826,-0.0014572357758879662
1772366576868827100,3.6278271484375,-0.0002940692938864231,-0.0019327150657773018,-0.0013555791229009628
1772366576878897000,3.63789697265625,-0.0015580058097839355,-0.0026011683512479067,-0.00016354862600564957
1772366576888967000,3.647966796875,-0.0021074311807751656,-0.0014483858831226826,0.00204553734511137
1772366576899037000,3.658036865234375,0.000025494489818811417,0.0008549820631742477,0.0008774753659963608
1772366576909107000,3.66810693359375,-0.002037636935710907,-0.001231086440384388,0.00135713629424572
1772366576919177000,3.678177001953125,-0.00229463167488575,0.0007417830638587475,0.0009193131700158119
1772366576929247000,3.6882470703125,0.0002106018364429474,-0.00041341129690408707,0.0004463121294975281
1772366576939318000,3.698318115234375,-0.001000870019197464,-0.0022589818108826876,-0.0017545241862535477
1772366576949388000,3.708387939453125,-0.0029695844277739525,0.0018533114343881607,-0.0003196289762854576
1772366576959458000,3.7184580078125,0.002571122720837593,-0.0008995984680950642,0.0018615005537867546
1772366576969528000,3.728528076171875,-0.0008015031926333904,-0.002161510055884719,0.00038539525121450424
1772366576979598000,3.73859814453125,-0.0006987047381699085,0.001220970880240202,-0.0013437950983643532
1772366576989667800,3.748667724609375,0.0017669815570116043,0.005065165925770998,-0.0023363325744867325
1772366576999737900,3.75873779296875,0.0005248831585049629,0.004006825853139162,-0.0009933002293109894
1772366577009809000,3.768808837890625,0.00004272954538464546,0.004151657689362764,0.0003091283142566681
1772366577019879200,3.778879150390625,0.000449394341558218,0.0005041924305260181,-0.0009673247113823891
1772366577029949400,3.788949462890625,-0.0023159338161349297,-0.001406101044267416,-0.0016867481172084808
1772366577040019500,3.79901953125,-0.00030604563653469086,-0.0028985366225242615,0.00005815550684928894
1772366577050089500,3.80908935546875,0.00022674165666103363,0.00015413807705044746,0.0007402477785944939
1772366577060159500,3.819159423828125,-0.0003700726665556431,0.0004332372918725014,0.0029480084776878357
1772366577070229500,3.8292294921875,0.002409649547189474,0.0012527918443083763,0.0023254621773958206
1772366577080300500,3.839300537109375,-0.0029598157852888107,0.0010059168562293053,-0.0007715271785855293
1772366577090370300,3.849370361328125,0.00039464468136429787,-0.0011027222499251366,0.000873384065926075
1772366577100440600,3.859440673828125,0.00039144884794950485,-0.0013253623619675636,-0.003338671289384365
1772366577110510600,3.869510498046875,-0.0021999268792569637,-0.0006115059368312359,0.0003353152424097061
1772366577120580400,3.879580322265625,-0.0000664684921503067,-0.0025705271400511265,0.0003654090687632561
1772366577130650600,3.889650634765625,-0.0017501912079751492,0.0017555812373757362,-0.00007689744234085083
1772366577140720600,3.899720703125,0.0016256319358944893,0.004202759824693203,-0.0015123412013053894
1772366577150791400,3.90979150390625,-0.0003255736082792282,0.0006762323901057243,-0.0004681898280978203
1772366577160861400,3.919861328125,-0.0020678136497735977,0.00005944445729255676,0.0003816252574324608
1772366577170929400,3.929929443359375,-0.0005983836017549038,-0.0009137308225035667,-0.000706646591424942
1772366577180999400,3.93999951171875,-0.0003744116984307766,-0.0005456823855638504,-0.0011729653924703598
1772366577191070500,3.950070556640625,-0.001238883938640356,-0.0009854063391685486,0.00003904756158590317
1772366577201140500,3.960140380859375,-0.0008785589598119259,-0.00017900113016366959,0.0001900484785437584
1772366577211210500,3.97021044921875,0.002584722824394703,-0.0009622471407055855,-0.0021460214629769325
1772366577221280500,3.980280517578125,-0.0019607609137892723,0.00007878290489315987,0.0002846457064151764
1772366577231350500,3.9903505859375,0.0014968072064220905,-0.00028888415545225143,0.001634557731449604
1772366577241420500,4.000420654296875,-0.0008760695345699787,0.0018906467594206333,-0.0006565600633621216
1772366577251490600,4.010490478515625,-0.000657874159514904,-0.00006453460082411766,0.0006450135260820389
1772366577261561300,4.020561279296875,0.0004031294956803322,0.0005581122823059559,-0.0009134681895375252
1772366577271631400,4.03063134765625,-0.0012031467631459236,0.0007180469110608101,0.00021203607320785522
1772366577281701600,4.04070166015625,0.00008928589522838593,-0.0018468436319380999,-0.001028730534017086
1772366577291771400,4.050771484375,-0.0014019925147294998,-0.005302477162331343,-0.001511276699602604
1772366577301841400,4.06084130859375,0.0003415793180465698,0.001952239777892828,-0.0019712047651410103
1772366577311911700,4.07091162109375,-0.0010080481879413128,-0.000322126317769289,-0.0021558310836553574
1772366577321981400,4.0809814453125,-0.000955583993345499,0.0005945335142314434,0.00119762122631073
1772366577332052500,4.091052490234375,0.0015295869670808315,0.0022165831178426743,0.00023498106747865677
1772366577342122500,4.10112255859375,-0.0021322593092918396,0.00202723266556859,-0.0006443941965699196
1772366577352192500,4.111192626953125,0.0005004848353564739,0.0002987268380820751,0.0004182690754532814
1772366577362262500,4.121262451171875,-0.0006260327063500881,-0.00029569072648882866,-0.001027560792863369
1772366577372332500,4.13133251953125,-0.00007162708789110184,-0.001127050956711173,-0.00008125696331262589
1772366577382402300,4.14140234375,0.0002769804559648037,0.002887663897126913,0.001709185540676117
1772366577392472600,4.15147265625,-0.001210794784128666,-0.0009136046282947063,-0.0003496408462524414
1772366577402543600,4.161543701171875,-0.0005058562383055687,0.0009215795435011387,-0.001346728764474392
1772366577412613400,4.17161328125,0.001743631437420845,-0.00039732595905661583,-0.0006441110745072365
1772366577422683400,4.181683349609375,0.00016331207007169724,0.0013457131572067738,-0.001057433895766735
1772366577432753700,4.191753662109375,0.00021003372967243195,0.0031763319857418537,0.0010082749649882317
1772366577442823400,4.201823486328125,-0.000866682268679142,0.00021329941228032112,0.0009478209540247917
1772366577452893400,4.2118935546875,0.0006791478954255581,0.00038949213922023773,0.0010493351146578789
1772366577462963500,4.22196337890625,-0.0002455017529428005,0.002921359147876501,-0.0000806441530585289
1772366577473034500,4.232034423828125,0.00030893879011273384,-0.0017424747347831726,0.002980779856443405
1772366577483104500,4.2421044921875,0.0006745909340679646,0.0023137861862778664,0.0008989870548248291
1772366577493174500,4.252174560546875,0.0013991370797157288,0.0035601677373051643,-0.0009276894852519035
1772366577503244300,4.262244384765625,0.00024785241112113,0.0020227255299687386,-0.00021529383957386017
1772366577513314600,4.272314453125,0.0005613649263978004,-0.00042104674503207207,0.002345382235944271
1772366577523384600,4.282384521484375,-0.00032573379576206207,0.0029505155980587006,-0.0014325780794024467
1772366577533454300,4.292454345703125,0.0006042839959263802,-0.0005341218784451485,0.0005883965641260147
1772366577543524600,4.302524658203125,-0.00023381272330880165,-0.00022333068773150444,-0.00045289937406778336
1772366577553595600,4.312595703125,0.0002567414194345474,-0.0004579033702611923,0.0006688740104436874
1772366577563665400,4.32266552734375,0.0019212174229323864,-0.001992150442674756,-0.0021189237013459206
1772366577573735400,4.3327353515625,0.0009164749644696712,-0.0015889003407210112,0.0005220882594585419
1772366577583805400,4.342805419921875,0.0035910876467823982,0.0013384465128183365,-0.0008409172296524048
1772366577593875500,4.35287548828125,-0.0005662157200276852,-0.00031140493229031563,-0.0005664490163326263
1772366577603945500,4.362945556640625,0.001467373687773943,-0.0033173146657645702,-0.0008940184488892555
1772366577614015500,4.373015380859375,0.002046999055892229,-0.0016799839213490486,-0.000038650818169116974
1772366577624086500,4.38308642578125,0.0014794794842600822,-0.0014054120983928442,-0.00016035698354244232
1772366577634156500,4.393156494140625,-0.0005813604220747948,0.0006888173520565033,0.000706227496266365
1772366577644226600,4.4032265625,0.0006966902874410152,0.0040350789204239845,0.0008401842787861824
1772366577654296300,4.41329638671875,-0.0022143996320664883,-0.00155124650336802,0.00007214304059743881
1772366577664366600,4.42336669921875,-0.000043923500925302505,0.0016900869086384773,0.0017834901809692383
1772366577674436600,4.4334365234375,-0.0007595755159854889,0.004051781725138426,-0.002547302283346653
1772366577684506400,4.44350634765625,-0.0007867394015192986,-0.0016982494853436947,-0.00037602707743644714
1772366577694576400,4.453576416015625,0.0016727098263800144,-0.0008656592108309269,0.0007290616631507874
1772366577704647400,4.4636474609375,0.0006386041641235352,0.003448928240686655,-0.00102968979626894
1772366577714717400,4.473717529296875,0.0005462123081088066,0.0043891845270991325,-0.0011237254366278648
1772366577724787500,4.483787353515625,0.0018551559187471867,-0.001062838826328516,-0.0030747568234801292
1772366577734857500,4.493857421875,-0.001102600246667862,-0.0005151485092937946,0.0001909155398607254
1772366577744927500,4.503927490234375,-0.0002487907186150551,-0.00005069328472018242,-0.0005369270220398903
1772366577754999300,4.513999267578125,-0.0016670385375618935,0.0018624421209096909,-0.0016761021688580513
1772366577765069600,4.524069580078125,0.0009167599491775036,0.0003649466671049595,-0.000019616447389125824
1772366577775139600,4.5341396484375,-0.000945220235735178,0.0033563864417374134,0.000553240068256855
1772366577785209300,4.544209228515625,0.001723533496260643,0.0009440956637263298,0.0019753677770495415
1772366577795279600,4.554279541015625,0.00007648486644029617,-0.001473788870498538,-0.0010832520201802254
1772366577805350700,4.5643505859375,-0.00040315091609954834,0.0008753854781389236,-0.0015261359512805939
1772366577815420400,4.57442041015625,-0.0018274188041687012,-0.0007531563751399517,0.0003620106726884842
1772366577825490400,4.584490478515625,-0.00017838971689343452,0.0008418108336627483,0.0015788087621331215
1772366577835560400,4.594560546875,0.0003832937218248844,0.0013314257375895977,-0.0014577489346265793
1772366577845630500,4.60463037109375,-0.0021493728272616863,0.0005862731486558914,-0.0019600214436650276
1772366577855700500,4.614700439453125,0.0018449248746037483,-0.0013152870815247297,0.0015146145597100258
1772366577865770500,4.6247705078125,-0.0007018563337624073,-0.0018572404514998198,0.00027464609593153
1772366577875841500,4.634841552734375,-0.00028699496760964394,0.0006511765532195568,0.0006303153932094574
1772366577885911600,4.64491162109375,0.0018504578620195389,-0.00013951584696769714,-0.0002951333299279213
1772366577895981600,4.654981689453125,-0.0007251272909343243,0.0002572922967374325,0.00286177359521389
1772366577906051300,4.66505126953125,-0.0017128936015069485,0.0019116480834782124,-0.0009819669649004936
1772366577916121600,4.67512158203125,-0.0006281468085944653,0.0035151145420968533,-0.0004848986864089966
1772366577926191600,4.685191650390625,-0.0006979214958846569,0.0010319831781089306,-0.000024172477424144745
1772366577936261400,4.695261474609375,-0.0004799305461347103,0.0018465728498995304,0.0012760544195771217
1772366577946331400,4.705331298828125,0.0003083646297454834,-0.0055982936173677444,-0.0005689840763807297
1772366577956402400,4.71540234375,-0.00047228019684553146,-0.0022092347498983145,-0.0006492994725704193
1772366577966472400,4.725472412109375,-0.000650712288916111,-0.001675004605203867,0.0009552557021379471
1772366577976542500,4.73554248046875,0.001493020448833704,-0.001954721286892891,-0.0005704648792743683
1772366577986612500,4.745612548828125,0.0001550484448671341,-0.0014258173760026693,0.00034326594322919846
1772366577996682500,4.7556826171875,0.0030729458667337894,-0.0006208191625773907,0.0018035927787423134
1772366578006752500,4.76575244140625,-0.0012187385000288486,0.0009041065350174904,-0.0007527759298682213
1772366578016822500,4.775822509765625,-0.001137822400778532,0.0024326927959918976,-0.00016288366168737411
1772366578026893600,4.7858935546875,0.001495244912803173,0.000208953395485878,0.0010669641196727753
1772366578036967000,4.795966796875,0.0006464873440563679,0.003750926349312067,0.0024172384291887283
1772366578047037000,4.806036865234375,-0.0011793761514127254,0.0018773921765387058,0.002686483785510063
1772366578057107000,4.81610693359375,0.000569123774766922,-0.0008795689791440964,-0.00003060419112443924
1772366578067176700,4.8261767578125,0.002136127557605505,0.000962007325142622,0.0011329315602779388
1772366578077247000,4.8362470703125,-0.0006018965505063534,0.003385302610695362,-0.0015902034938335419
1772366578087317000,4.84631689453125,0.0026173321530222893,0.00038205645978450775,0.0009584417566657066
1772366578097386800,4.85638671875,-0.001907294150441885,0.0010735834948718548,-0.0001491466537117958
1772366578107457800,4.866457763671875,-0.0007557435892522335,0.0015729265287518501,0.0015491507947444916
1772366578117528000,4.876528076171875,0.0015603718347847462,0.0005010012537240982,-0.0006457017734646797
1772366578127597800,4.886597900390625,-0.000756844412535429,0.0011934228241443634,0.000052313320338726044
1772366578137667800,4.896667724609375,-0.001492754090577364,0.004462492186576128,0.00002145674079656601
1772366578147737900,4.90673779296875,-0.0011012689210474491,-0.001154647208750248,-0.003053429536521435
1772366578157807900,4.916807861328125,0.0015070382505655289,0.00025164708495140076,-0.000902300700545311
1772366578167878000,4.9268779296875,-0.0004040459170937538,-0.0004026917740702629,0.0002889307215809822
1772366578177949000,4.936948974609375,0.0023057907819747925,-0.003305787220597267,0.000271674245595932
1772366578188018700,4.947018798828125,-0.00325968349352479,0.0037776888348162174,-0.0007592355832457542
1772366578198089000,4.9570888671875,-0.0009498363360762596,0.00056025804951787,-0.00028007570654153824
1772366578208159000,4.967158935546875,0.00047735171392560005,-0.00044348742812871933,-0.0007471935823559761
1772366578218228700,4.977228759765625,0.00022084731608629227,0.0022344407625496387,-0.002012750133872032
1772366578228299000,4.987299072265625,0.0011689327657222748,0.0028869155794382095,-0.002082524821162224
1772366578238369000,4.997369140625,-0.0005975174717605114,0.00047388672828674316,0.00005313195288181305
1772366578248438800,5.007438720703125,0.0014435295015573502,0.00002780696377158165,0.0007026763632893562
1772366578258509800,5.017509765625,0.0007746596820652485,-0.0006178980693221092,0.001908416859805584
1772366578268579800,5.027579833984375,-0.0010647857561707497,0.0006518973968923092,-0.0015105493366718292
1772366578278649900,5.03764990234375,0.00030847033485770226,0.000374852679669857,-0.0011154217645525932
1772366578288720000,5.047719970703125,0.0015849233604967594,-0.0020712607074528933,-0.0006072903051972389
1772366578298790000,5.057789794921875,0.0005730250850319862,-0.0020544142462313175,0.00029583461582660675
1772366578308860000,5.06785986328125,0.00025158142670989037,0.0016638911329209805,-0.0020381594076752663
1772366578318930000,5.077929931640625,-0.00011952221393585205,-0.004074820317327976,0.0009721741080284119
1772366578329001000,5.0880009765625,-0.0002279127947986126,-0.0013032685965299606,-0.0005484903231263161
1772366578339071000,5.098071044921875,0.0005094311200082302,0.0006132726557552814,-0.0002761008217930794
1772366578349141000,5.10814111328125,-0.0011835400946438313,-0.001092748250812292,0.00046052969992160797
1772366578359211000,5.1182109375,-0.0009327912703156471,-0.00045282021164894104,0.0013421056792140007
1772366578369280800,5.12828076171875,0.000004908069968223572,0.001995690166950226,-0.00167072843760252
1772366578379350800,5.138350830078125,-0.0016690301708877087,0.0017890818417072296,-0.0008703069761395454
1772366578389421000,5.148421142578125,-0.00182695547118783,0.001156581100076437,-0.0008034612983465195
1772366578399490800,5.15849072265625,-0.00007577845826745033,0.0019777175039052963,-0.0007793223485350609
1772366578409561900,5.168561767578125,0.0015527447685599327,0.0006368160247802734,-0.0002562776207923889
1772366578419631900,5.1786318359375,0.00018530851230025291,0.00011804047971963882,0.0004890747368335724
1772366578429702000,5.188701904296875,-0.0006884750910103321,0.00272580748423934,-0.0002978891134262085
1772366578439772000,5.19877197265625,0.0004488890990614891,-0.001775834010913968,-0.0015841396525502205
1772366578449842000,5.208842041015625,-0.002212674356997013,-0.0005893958732485771,-0.00005814898759126663
1772366578459912000,5.218911865234375,-0.0013043456710875034,-0.0034644685219973326,-0.00005808752030134201
1772366578469982000,5.22898193359375,-0.0008942191489040852,0.0049836114048957825,0.0011864081025123596
1772366578480052000,5.239052001953125,0.0015564835630357265,-0.0015334212221205235,-0.0015597706660628319
1772366578490123000,5.249123046875,-0.0003665848635137081,0.0006354572251439095,0.0012250971049070358
1772366578500192800,5.25919287109375,0.0005054939538240433,0.0014947373420000076,-0.0023706303909420967
1772366578510263000,5.269262939453125,-0.002331838011741638,0.00024970946833491325,0.0017093326896429062
1772366578520332800,5.279332763671875,-0.00022012321278452873,0.0037802234292030334,-0.00006301701068878174
1772366578530402800,5.28940283203125,-0.0008353134617209435,-0.001125585287809372,-0.0010614357888698578
1772366578540473000,5.29947314453125,-0.0018624733202159405,-0.0012799082323908806,0.0010574860498309135
1772366578550542800,5.30954296875,-0.0017884369008243084,0.0011488948948681355,0.0005323104560375214
1772366578560614000,5.31961376953125,-0.0019613108597695827,0.0014832313172519207,-0.0020395228639245033
1772366578570684000,5.329683837890625,0.001061110757291317,-0.00012425286695361137,-0.0003374973312020302
1772366578580754000,5.33975390625,-0.00009748246520757675,-0.00044034654274582863,-0.002710234373807907
1772366578590824000,5.349823974609375,-0.0017782030627131462,-0.00007789023220539093,-0.00004494283348321915
1772366578600894000,5.35989404296875,0.001122309360653162,-0.0006622946821153164,-0.0007996875792741776
1772366578610963700,5.369963623046875,0.0016469522379338741,0.0019313576631247997,-0.0010801181197166443
1772366578621034000,5.380033935546875,0.0013953754678368568,-0.002055790740996599,-0.00046800076961517334
1772366578631104000,5.39010400390625,-0.0021378397941589355,0.0005975165404379368,0.00023454148322343826
1772366578641175000,5.400175048828125,0.0016044946387410164,-0.002067261841148138,0.0007329657673835754
1772366578651244800,5.410244873046875,-0.0006200438365340233,-0.0017548731993883848,0.00039101671427488327
1772366578661315000,5.420315185546875,0.0006145834922790527,0.0013198689557611942,0.0035679759457707405
1772366578671384800,5.430384765625,-0.0007233889773488045,0.0013712677173316479,-0.00014526955783367157
1772366578681454800,5.440454833984375,0.000447023194283247,0.0014810017310082912,0.0003320183604955673
1772366578691524900,5.45052490234375,-0.00021903356537222862,-0.0002665645442903042,-0.0003380328416824341
1772366578701595000,5.460594970703125,0.00045123370364308357,-0.0009005493484437466,-0.0020852433517575264
1772366578711665000,5.470664794921875,0.0005327262915670872,0.0026110950857400894,0.0011366484686732292
1772366578721736000,5.48073583984375,-0.0019758380949497223,-0.0016562677919864655,0.0014966195449233055
1772366578731805700,5.4908056640625,-0.0009092418476939201,0.0013810675591230392,-0.0008951649069786072
1772366578741876000,5.5008759765625,0.0008410690352320671,0.0018185041844844818,-0.002946089953184128
1772366578751946000,5.510946044921875,0.0023196558468043804,-0.0027789107989519835,0.0019437400624155998
1772366578762015700,5.521015625,0.0019156448543071747,0.0016464353539049625,-0.0005012592300772667
1772366578772086000,5.5310859375,-0.0005682851187884808,-0.0013136682100594044,0.00046227220445871353
1772366578782156000,5.541156005859375,0.0018722801469266415,-0.00013699568808078766,0.0018072668462991714
1772366578792225800,5.551225830078125,0.00014868238940835,-0.0012949383817613125,-0.0008577583357691765
1772366578802296800,5.561296875,-0.0002162819728255272,0.0009896140545606613,-0.00106830894947052
1772366578812366800,5.571366943359375,0.0004436494782567024,0.0027430392801761627,-0.0004131710156798363
1772366578822436900,5.581436767578125,-0.00136173190549016,-0.0031979321502149105,-0.0003020241856575012
1772366578832507000,5.5915068359375,-0.00015878165140748024,-0.0032490647863596678,-0.0014506448060274124
1772366578842577000,5.601576904296875,0.0004781298339366913,-0.0009298338554799557,-0.00104619562625885
1772366578852647000,5.61164697265625,-0.00044785160571336746,-0.00029626768082380295,-0.00015883054584264755
1772366578862717000,5.621717041015625,-0.001194086391478777,-0.005668363533914089,0.0017955480143427849
1772366578872787000,5.631786865234375,-0.0014739851467311382,-0.0009473776444792747,-0.0006742672994732857
1772366578882857700,5.641857666015625,-0.0018683252856135368,-0.0009232833981513977,-0.00023126881569623947
1772366578892928000,5.651927978515625,0.00012798001989722252,-0.0002971743233501911,0.0014393320307135582
1772366578902998000,5.661998046875,0.0017578001134097576,-0.0015996205620467663,0.0021949540823698044
1772366578913067800,5.67206787109375,0.000022750813513994217,-0.0007135868072509766,-0.00004343222826719284
1772366578923137800,5.6821376953125,0.002273775637149811,-0.0009518093429505825,0.0004644179716706276
1772366578933208000,5.6922080078125,0.0005453843623399734,-0.0024879206903278828,0.00022686459124088287
1772366578943277800,5.70227783203125,0.00001987861469388008,-0.0025180198717862368,-0.0013230480253696442
1772366578953347800,5.712347900390625,-0.0010387278161942959,-0.001224522478878498,0.00014302227646112442
1772366578963419000,5.7224189453125,-0.0010729320347309113,0.00007032789289951324,0.00043449923396110535
1772366578973489000,5.732489013671875,0.000429623294621706,-0.0001397952437400818,0.001248893328011036
1772366578983559000,5.742558837890625,0.0007788636721670628,-0.001522338017821312,-0.0005907900631427765
1772366578993629000,5.75262890625,-0.001309853047132492,-0.004628116264939308,0.0020505329594016075
1772366579003699000,5.762698974609375,0.0017277258448302746,-0.0021603242494165897,0.0009002136066555977
1772366579013769000,5.77276904296875,0.0026816697791218758,-0.000036986079066991806,0.0012514842674136162
1772366579023839000,5.7828388671875,-0.0010837125591933727,0.000030436087399721146,0.0007437802851200104
1772366579033906400,5.792906494140625,0.0017421673983335495,0.000582509208470583,-0.0008423980325460434
1772366579043976400,5.8029765625,-0.00005156872794032097,0.00148797407746315,-0.0009562568739056587
1772366579054046500,5.81304638671875,0.00033751921728253365,-0.00034641148522496223,-0.0003511868417263031
1772366579064116500,5.823116455078125,-0.00030948687344789505,-0.0016599178779870272,0.00011371355503797531
1772366579074186500,5.8331865234375,0.0004290076903998852,-0.0017528620082885027,0.0009139934554696083
1772366579084256500,5.843256591796875,0.001366153359413147,-0.00036116084083914757,-0.0021502040326595306
1772366579094326500,5.853326416015625,-0.0021023480221629143,0.002386156003922224,-0.0017525944858789444
1772366579104396500,5.863396484375,-0.0005258973687887192,-0.0008873348124325275,0.000147135928273201
1772366579114467300,5.87346728515625,-0.0013671908527612686,-0.0021238403860479593,0.0015817806124687195
1772366579124537300,5.883537353515625,0.0016892747953534126,-0.0005502989515662193,-0.0010157916694879532
1772366579134607600,5.893607666015625,-0.0006162235513329506,0.0005687610246241093,-0.001641368493437767
1772366579144677400,5.903677490234375,0.000022322405129671097,0.0012677484191954136,-0.00023893173784017563
1772366579154747400,5.913747314453125,-0.002302084118127823,-0.0021861051209270954,0.00011127348989248276
1772366579164817700,5.923817626953125,0.0003817109391093254,-0.0024897598195821047,0.0026749875396490097
1772366579174887400,5.933887451171875,-0.0024705342948436737,-0.0009973244741559029,0.002898160368204117
1772366579184957400,5.94395751953125,0.00038387440145015717,-0.0012628315016627312,0.0008447514846920967
1772366579195028500,5.954028564453125,0.0011101183481514454,-0.0010183537378907204,0.0010740496218204498
1772366579205098500,5.964098388671875,-0.0007349508814513683,-0.00009938608855009079,-0.00023196637630462646
1772366579215168500,5.97416845703125,0.002058172132819891,0.0016878610476851463,-0.0004876302555203438
1772366579225238500,5.984238525390625,0.00035511981695890427,-0.000019231345504522324,-0.0011788113042712212
1772366579235308300,5.994308349609375,0.0009322268888354301,0.00010061077773571014,0.0008116355165839195
1772366579245378600,6.004378662109375,0.0004941551014780998,-0.0013850524555891752,0.0006628092378377914
1772366579255448600,6.014448486328125,-0.00215355958789587,-0.00028197094798088074,-0.0007031261920928955
1772366579265518300,6.024518310546875,0.0000515226274728775,-0.00038588186725974083,-0.000994756817817688
1772366579275589400,6.03458935546875,0.0007953434251248837,0.00007990468293428421,-0.0003247056156396866
1772366579285659600,6.04465966796875,-0.00038999971002340317,-0.0022001913748681545,-0.0003666086122393608
1772366579295729400,6.0547294921875,-0.0019151922315359116,0.0006832131184637547,-0.00010455306619405746
1772366579305799400,6.06479931640625,0.00048329494893550873,-0.0021928278729319572,0.0005020061507821083
1772366579315869700,6.07486962890625,0.00024201255291700363,0.0005403743125498295,-0.002265283837914467
1772366579325939500,6.084939453125,-0.00028022192418575287,-0.0010189563035964966,0.0021510953083634377
1772366579336009500,6.095009521484375,-0.0009137876331806183,-0.0009744814597070217,-0.0015203393995761871
1772366579346079500,6.10507958984375,0.00039462465792894363,-0.0010835067369043827,-0.002603912726044655
1772366579356149500,6.1151494140625,0.00035920459777116776,0.0002818959765136242,-0.0010832473635673523
1772366579366220500,6.125220458984375,0.0005229157395660877,-0.0002451981417834759,0.00020066369324922562
1772366579376290600,6.13529052734375,-0.00004993053153157234,0.00016359705477952957,-0.00040200911462306976
1772366579386360300,6.1453603515625,-0.00040259677916765213,-0.00024368800222873688,-0.0005101393908262253
1772366579396430600,6.1554306640625,0.0028006536886096,0.0010452819988131523,0.0005202377215027809
1772366579406500600,6.16550048828125,-0.001372242346405983,0.0003191097639501095,-0.0005369046702980995
1772366579416570400,6.1755703125,-0.0008598500862717628,-0.0014630774967372417,-0.0009683370590209961
1772366579426640400,6.185640380859375,-0.0007723942399024963,-0.00190230761654675,0.0007419679313898087
1772366579436710700,6.195710693359375,0.0018843747675418854,-0.0000724494457244873,0.00041999202221632004
1772366579446781400,6.205781494140625,0.000029338523745536804,-0.001130315475165844,0.0009413193911314011
1772366579456851500,6.2158515625,-0.0008833264000713825,0.0027243434451520443,0.0014308085665106773
1772366579466921500,6.22592138671875,0.0016640713438391685,0.00047668302431702614,0.0011904649436473846
1772366579476991500,6.235991455078125,-0.00021159322932362556,0.0011741649359464645,0.0021281642839312553
1772366579487061500,6.2460615234375,-0.00034171901643276215,0.0005187634378671646,0.0009703058749437332
1772366579497131500,6.256131591796875,-0.0023851627483963966,0.002849029377102852,0.0024110758677124977
1772366579507201500,6.266201416015625,0.00035732705146074295,-0.0003525293432176113,0.0009947475045919418
1772366579517271600,6.276271484375,-0.0004698503762483597,0.0009936988353729248,-0.0011285915970802307
1772366579527342600,6.286342529296875,0.0016273162327706814,0.0012533408589661121,0.0007499614730477333
1772366579537412400,6.296412353515625,0.001751153264194727,0.0008203107863664627,-0.00023194588720798492
1772366579547482400,6.306482421875,-0.0007299948483705521,0.001137718092650175,0.0001365477219223976
1772366579557552600,6.316552734375,-0.0007667466998100281,0.001146506518125534,-0.00011458806693553925
1772366579567622400,6.326622314453125,0.0012107240036129951,0.0013751336373388767,-0.00038962624967098236
1772366579577692400,6.3366923828125,0.0007209689356386662,-0.0009149182587862015,-0.00039069075137376785
1772366579587762700,6.3467626953125,0.002672568429261446,0.0008356901817023754,-0.0025047194212675095
1772366579597832400,6.35683251953125,-0.0016377582214772701,0.0007691108621656895,0.0007448699325323105
1772366579607902500,6.36690234375,0.0005259881727397442,0.0007566474378108978,0.0007915617898106575
1772366579617973500,6.376973388671875,-0.0011944137513637543,-0.00065962178632617,0.003377491608262062
1772366579628043500,6.38704345703125,0.0009544319473206997,-0.00015703774988651276,0.0005679717287421227
1772366579638113500,6.397113525390625,-0.000744132325053215,-0.0017296343576163054,0.0009557288140058517
1772366579648183600,6.40718359375,0.0005495231598615646,0.000263310968875885,0.0008367635309696198
1772366579658253300,6.41725341796875,-0.0013317340053617954,-0.0020107619930058718,0.004248007200658321
1772366579668323600,6.427323486328125,0.00007645739242434502,-0.0012998860329389572,-0.0019072890281677246
1772366579678393600,6.4373935546875,0.0023489329032599926,-0.0006844294257462025,0.0009939586743712425
1772366579688463400,6.44746337890625,-0.0004446767270565033,-0.0024269225541502237,0.0005447035655379295
1772366579698534400,6.457534423828125,0.0007484196685254574,-0.002906824229285121,0.00026880018413066864
1772366579708604700,6.467604736328125,-0.0005549932830035686,-0.00007165269926190376,0.00022156257182359695
1772366579718674400,6.47767431640625,0.0015070927329361439,-0.0003094733692705631,0.0007078563794493675
1772366579728744400,6.487744384765625,0.0018144664354622364,-0.00043673068284988403,0.0005851145833730698
1772366579738814700,6.497814697265625,0.0003646416589617729,0.0009369277395308018,-0.0011153137311339378
1772366579748884500,6.507884521484375,0.003088331315666437,0.00047012511640787125,0.00009803753346204758
1772366579758954500,6.51795458984375,0.0003894837573170662,-0.0026969059836119413,0.0004900554195046425
1772366579769024500,6.5280244140625,-0.0016929330304265022,-0.000016687903553247452,0.0001571914181113243
1772366579779095300,6.53809521484375,-0.000053491443395614624,0.0006275307387113571,0.0007228469476103783
1772366579789165600,6.54816552734375,0.0007920502685010433,0.0005306610837578773,0.0008226931095123291
1772366579799235600,6.558235595703125,-0.001019165851175785,-0.002111194422468543,-0.0016734879463911057
1772366579809305300,6.568305419921875,0.0005825995467603207,-0.003516752738505602,-0.0016254251822829247
1772366579819375600,6.578375732421875,0.000816691666841507,-0.0019545424729585648,-0.0005111591890454292
1772366579829445600,6.588445556640625,0.0008383900858461857,0.0002222876064479351,0.0027456041425466537
1772366579839515400,6.598515380859375,-0.0002162219025194645,0.0031427103094756603,-0.00003207288682460785
1772366579849585400,6.60858544921875,-0.00012240512296557426,0.002929684240370989,0.0016743037849664688
1772366579859655700,6.61865576171875,0.00021794671192765236,-0.00249437615275383,0.0005389982834458351
1772366579869726500,6.6287265625,-0.00028569111600518227,-0.00010299822315573692,-0.0004653576761484146
1772366579879796500,6.63879638671875,-0.00040952814742922783,0.0007830355316400528,0.0015040505677461624
1772366579889866500,6.648866455078125,-0.0007574614137411118,-0.0003229747526347637,0.0003531733527779579
1772366579899936500,6.6589365234375,0.00012750690802931786,-0.00016158726066350937,-0.0021238327026367188
1772366579910006500,6.669006591796875,0.0030026789754629135,0.0008497731760144234,0.002594389021396637
1772366579920076500,6.67907666015625,-0.0019092550501227379,0.0010524396784603596,-0.0008988790214061737
1772366579930146600,6.689146484375,-0.0006223353557288647,-0.001742577413097024,0.00001544039696455002
1772366579940216600,6.699216552734375,0.0014738389290869236,0.0002369503490626812,0.0009834999218583107
1772366579950287600,6.70928759765625,0.000532772857695818,-0.0007387856021523476,0.0020197248086333275
1772366579960357400,6.719357421875,-0.000364712905138731,0.0023496821522712708,0.000216764397919178
1772366579970427400,6.729427490234375,-0.0007370873354375362,0.00039102090522646904,-0.001776939257979393
1772366579980497700,6.73949755859375,0.000585971400141716,0.0024352632462978363,0.002345900982618332
1772366579990567400,6.7495673828125,0.0019965707324445248,-0.00272203772328794,-0.0005504731088876724
1772366580000637400,6.759637451171875,-0.0009627337567508221,0.0047752936370670795,0.0003233104944229126
1772366580010707700,6.769707763671875,0.0007313331589102745,0.00012611877173185349,0.0020339759066700935
1772366580020777500,6.779777587890625,0.003594764042645693,-0.0024193304125219584,0.0003167698159813881
1772366580030847500,6.789847412109375,-0.0003619687631726265,-0.002749734092503786,0.001309855841100216
1772366580040918300,6.799918212890625,0.00020901253446936607,-0.0014122945722192526,-0.0005820542573928833
1772366580050988500,6.809988525390625,-0.0005850675515830517,-0.0012799501419067383,-0.0009125852957367897
1772366580061058300,6.820058349609375,0.00008551683276891708,0.00032913172617554665,0.0013337908312678337
1772366580071128300,6.83012841796875,-0.0003454582765698433,0.0016370443627238274,-0.0006656721234321594
1772366580081198300,6.8401982421875,0.0022974624298512936,0.00028389226645231247,0.00010105222463607788
1772366580091268400,6.850268310546875,-0.0008595278486609459,0.001995796337723732,-0.00047253258526325226
1772366580101338400,6.86033837890625,0.0004406278021633625,0.0025771642103791237,-0.0010520368814468384
1772366580111408400,6.870408447265625,-0.0007193773053586483,-0.000027425121515989304,0.0013309363275766373
1772366580121478400,6.880478515625,0.0005006170831620693,-0.0009427536278963089,0.00045422371476888657
1772366580131549400,6.890549560546875,0.0012100208550691605,0.0010882173664867878,-0.0031106872484087944
1772366580141619500,6.900619384765625,-0.0016121314838528633,0.0006839493289589882,-0.0016850968822836876
1772366580151689200,6.910689208984375,0.002087181434035301,-0.0010065785609185696,0.0015514465048909187
1772366580161759500,6.920759521484375,0.001531645655632019,-0.0009866049513220787,-0.00035670865327119827
1772366580171829500,6.93082958984375,-0.0006673755124211311,0.00304223271086812,-0.0002073301002383232
1772366580181899300,6.940899169921875,0.0006873742677271366,-0.0002773972228169441,0.0006797686219215393
1772366580191969300,6.95096923828125,-0.0008607287891209126,-0.0014540334232151508,-0.00007763318717479706
1772366580202039600,6.96103955078125,0.0015334528870880604,0.00014546094462275505,0.0016350457444787025
1772366580212109300,6.971109375,0.0004983856342732906,-0.001724225003272295,-0.0001311860978603363
1772366580222180400,6.981180419921875,0.0006403322331607342,0.00281966058537364,0.00183209590613842
1772366580232250400,6.99125048828125,-0.00006998889148235321,-0.0008153351955115795,-0.0021610837429761887
1772366580242320400,7.0013203125,0.0009907479397952557,0.000899474136531353,0.0016251327469944954
1772366580252390400,7.011390380859375,0.0000538872554898262,-0.00161646562628448,0.0014629708603024483
1772366580262460400,7.02146044921875,-0.0007250867784023285,0.0027210251428186893,-0.000566624104976654
1772366580272530400,7.031530517578125,0.000722893513739109,-0.0015288651920855045,-0.00021477509289979935
1772366580282600400,7.041600341796875,-0.0018617045134305954,0.000041068531572818756,0.0011141421273350716
1772366580292670500,7.05167041015625,-0.0006743972189724445,-0.0006606830283999443,0.000042836181819438934
1772366580302740200,7.061740234375,0.0019512134604156017,-0.0026242313906550407,-0.0010373415425419807
1772366580312811300,7.071811279296875,-0.00016748346388339996,0.0017146700993180275,-0.0015167444944381714
1772366580322881500,7.081881591796875,0.0030786432325839996,-0.002420686185359955,0.003282538615167141
1772366580332951300,7.091951416015625,-0.001680748537182808,0.000164662953466177,0.000014360062777996063
1772366580343021300,7.102021240234375,-0.0005270671099424362,-0.0013986125122755766,0.0011786939576268196
1772366580353091600,7.112091552734375,0.0007416289299726486,0.0005825408734381199,-0.0008585620671510696
1772366580363161300,7.122161376953125,0.0017501679249107838,0.0001894584856927395,-0.0009096944704651833
1772366580373231400,7.1322314453125,0.0005382332019507885,-0.0022218667436391115,0.0013975100591778755
1772366580383301400,7.14230126953125,0.0009225276298820972,0.0018658190965652466,-0.0013988092541694641
1772366580393371400,7.152371337890625,-0.0021001072600483894,0.001568240113556385,0.00100666843354702
1772366580403442400,7.1624423828125,0.0009084655903279781,-0.0018496608827263117,0.0008021378889679909
1772366580413512400,7.172512451171875,-0.0007065241225063801,0.0010915067978203297,0.0011243578046560287
1772366580423582200,7.182582275390625,0.0005390364676713943,-0.0012704511173069477,0.0007001161575317383
1772366580433652500,7.192652587890625,0.0027968166396021843,0.0015318854711949825,0.00025227852165699005
1772366580443722500,7.202722412109375,-0.0016693049110472202,-0.0008407249115407467,0.00040301308035850525
1772366580453792300,7.212792236328125,0.0030680643394589424,-0.0007778303697705269,-0.0019681407138705254
1772366580463862500,7.222862548828125,-0.0015413346700370312,-0.0016268463805317879,0.0014835819602012634
1772366580473932300,7.232932373046875,-0.0020934133790433407,-0.0008310177363455296,-0.002024133689701557
1772366580484003300,7.24300341796875,0.0016086464747786522,0.0018659657798707485,0.001148490235209465
1772366580494073300,7.2530732421875,0.0002654879353940487,-0.0002971659414470196,0.0007458599284291267
1772366580504143400,7.263143310546875,0.002561398781836033,0.0011039231903851032,0.001698206178843975
1772366580514213400,7.27321337890625,-0.0006532310508191586,-0.002229970181360841,-0.0021942825987935066
1772366580524283400,7.283283447265625,0.0017579947598278522,-0.00020756572484970093,0.00003132130950689316
1772366580534353400,7.293353515625,0.0014489437453448772,0.0027899309061467648,0.0001219315454363823
1772366580544423400,7.30342333984375,0.0019203233532607555,0.0000849580392241478,-0.0005278801545500755
1772366580554493400,7.313493408203125,0.0013531539589166641,0.001231917180120945,-0.0018213847652077675
1772366580564563200,7.323563232421875,0.00022610416635870934,-0.0018677359912544489,0.0008084867149591446
1772366580574634200,7.33363427734375,-0.00008074101060628891,-0.0006836443208158016,0.0006789127364754677
1772366580584704500,7.34370458984375,-0.0011673104017972946,-0.0005390346050262451,-0.0020287232473492622
1772366580594774500,7.3537744140625,0.00028942013159394264,0.000599792692810297,0.0010506035760045052
1772366580604844300,7.36384423828125,-0.0007060691714286804,-0.001292383298277855,-0.0008245278149843216
1772366580614914300,7.373914306640625,0.0020415429025888443,-0.0009760530665516853,0.0024928348138928413
1772366580624984300,7.383984375,0.0015051821246743202,0.0012380992993712425,0.0018454203382134438
1772366580635054300,7.394054443359375,0.0003983159549534321,-0.000514177605509758,-0.00009414181113243103
1772366580645124400,7.404124267578125,0.004127007909119129,0.002409440465271473,0.0010805781930685043
1772366580655194400,7.4141943359375,-0.001430054660886526,0.001691240817308426,-0.00002523232251405716
1772366580665264400,7.424264404296875,0.0019068862311542034,-0.0020244016777724028,0.0010389667004346848
1772366580675335400,7.43433544921875,-0.00016308343037962914,-0.0005476544611155987,0.0007924241945147514
1772366580685405400,7.444405517578125,0.0010204254649579525,0.0019493252038955688,-0.000806005671620369
1772366580695475500,7.454475341796875,-0.00021193455904722214,0.004800174385309219,-0.0011759931221604347
1772366580705545500,7.46454541015625,0.0002637063153088093,-0.000053703319281339645,-0.0010220622643828392
1772366580715615200,7.474615234375,-0.0027282400988042355,-0.001223874744027853,0.00492938794195652
1772366580725685200,7.484685302734375,-0.0008176886476576328,0.0002445923164486885,0.0004105363041162491
1772366580735755500,7.494755615234375,-0.0010109376162290573,-0.0031910412944853306,0.000872674398124218
1772366580745825300,7.5048251953125,-0.0009741866961121559,0.00281438697129488,0.00007452443242073059
1772366580755895300,7.514895263671875,0.00042043766006827354,0.0010787779465317726,-0.0020870286971330643
1772366580765966300,7.52496630859375,-0.0009771892800927162,0.002599176950752735,-0.0003674253821372986
1772366580776036400,7.535036376953125,0.001117614097893238,-0.000022160355001688004,0.0010629864409565926
1772366580786106400,7.5451064453125,-0.001040345523506403,0.00011872081086039543,-0.0016521066427230835
1772366580796176400,7.55517626953125,-0.00018449639901518822,0.0017410828731954098,0.0003312882035970688
1772366580806246400,7.565246337890625,-0.00018076784908771515,0.0016603893600404263,0.001824256032705307
1772366580816316400,7.57531640625,-0.0004975162446498871,-0.00034253625199198723,0.00011940021067857742
1772366580826386400,7.585386474609375,0.0003576241433620453,0.0011813249439001083,0.00006666965782642365
1772366580836456200,7.595456298828125,0.0018534506671130657,-0.001139194704592228,-0.00008089002221822739
1772366580846526500,7.6055263671875,-0.0009612441062927246,0.0009543159976601601,0.002941264770925045
1772366580856597500,7.615597412109375,0.000313823577016592,0.0003164438530802727,-0.002068411558866501
1772366580866667300,7.625667236328125,-0.00029071420431137085,-0.00006864918395876884,-0.0005573341622948647
1772366580876737300,7.6357373046875,0.002857574261724949,0.0002075755037367344,0.0006640739738941193
1772366580886807600,7.6458076171875,-0.00014833593741059303,0.0014744410291314125,0.0002153320237994194
1772366580896877300,7.655877197265625,-0.0008025839924812317,-0.0013298881240189075,-0.00003384426236152649
1772366580906947300,7.665947265625,-0.0023586684837937355,-0.000020411796867847443,0.0007216939702630043
1772366580917017300,7.676017333984375,-0.00010200962424278259,0.0008686380460858345,-0.00006725918501615524
1772366580927087400,7.68608740234375,0.0005443394184112549,0.0006047189235687256,0.0006368802860379219
1772366580937157400,7.696157470703125,-0.0003223670646548271,0.0009819348342716694,0.0027864789590239525
1772366580947227400,7.706227294921875,-0.0009391549974679947,0.0015699607320129871,-0.00228178221732378
1772366580957298200,7.716298095703125,-0.002211672253906727,0.0014546154998242855,0.0001551331952214241
1772366580967368400,7.726368408203125,0.0013396535068750381,0.0007286379113793373,0.0004408909007906914
1772366580977438500,7.7364384765625,-0.0021731541492044926,-0.0011365916579961777,0.00009102653712034225
1772366580987508200,7.74650830078125,0.0008884156122803688,-0.0024428721517324448,0.00003989413380622864
1772366580997578500,7.75657861328125,-0.00037721823900938034,0.0012824549339711666,0.0018574660643935204
1772366581007648500,7.7666484375,0.001664360985159874,-0.00244943262077868,-0.0000685323029756546
1772366581017718300,7.77671826171875,0.0017780046910047531,0.0001173769123852253,-0.003240128979086876
1772366581027788300,7.786788330078125,-0.003145381808280945,0.0011538793332874775,0.0017354544252157211
1772366581037858000,7.796858154296875,-0.0020546079613268375,-0.0013953447341918945,0.0019205836579203606
1772366581047927800,7.806927734375,0.0009901844896376133,-0.002323456574231386,-0.00019343383610248566
1772366581057998800,7.816998779296875,-0.0007440461777150631,0.0025676735676825047,0.0026088133454322815
1772366581068068900,7.82706884765625,0.0016282973811030388,0.002487512305378914,0.0012569930404424667
1772366581078139000,7.837138916015625,-0.001402420923113823,0.0019526979885995388,0.0006516696885228157
1772366581088209000,7.847208984375,0.0008428902365267277,-0.0019802581518888474,0.0012130644172430038
1772366581098279000,7.85727880859375,-0.0010778279975056648,0.0015616095624864101,0.00010147504508495331
1772366581108349000,7.867348876953125,-0.00009938236325979233,0.00004254234954714775,0.0014040274545550346
1772366581118419000,7.8774189453125,-0.0012695621699094772,0.001941013615578413,0.00043678004294633865
1772366581128489000,7.887489013671875,-0.000010153278708457947,-0.0029315059073269367,-0.0013443417847156525
1772366581138559000,7.89755908203125,-0.00013877544552087784,-0.0014313505962491035,-0.001061069779098034
1772366581148629000,7.90762890625,0.00014085648581385612,0.002599609550088644,-0.00005785655230283737
1772366581158700000,7.917699951171875,0.00038475915789604187,-0.0007837000302970409,0.0004695439711213112
1772366581168768000,7.92776806640625,0.0007317694835364819,0.00019980547949671745,-0.00017494149506092072
1772366581178838000,7.937838134765625,0.000036745332181453705,0.0024891970679163933,-0.0018865298479795456
1772366581188907800,7.94790771484375,-0.000052737072110176086,-0.0008863597176969051,-0.0009296555072069168
1772366581198978000,7.95797802734375,0.0004369462840259075,0.0024767271243035793,0.0016758060082793236
1772366581209049000,7.968049072265625,-0.0009500281885266304,0.0021896385587751865,-0.0018225228413939476
1772366581219118800,7.978118896484375,-0.0015841154381632805,0.00009995652362704277,-0.00003344845026731491
1772366581229188900,7.98818896484375,0.0017112796194851398,-0.00169900874607265,-0.00016633979976177216
1772366581239259000,7.9982587890625,-0.0005612228997051716,-0.0003909044899046421,-0.0013083461672067642
1772366581249329000,8.008328857421875,0.0016702399589121342,-0.003151004435494542,0.00037849973887205124
1772366581259399000,8.01839892578125,-0.0019015357829630375,0.0026764636859297752,-0.000059682875871658325
1772366581269469000,8.028468994140624,0.0018066498450934887,-0.003900744952261448,-0.0006700791418552399
1772366581279539000,8.0385390625,0.0006612818688154221,0.003157156053930521,-0.0002581411972641945
1772366581289609000,8.04860888671875,0.00043011922389268875,-0.0009161485359072685,-0.0011231359094381332
1772366581299678700,8.0586787109375,0.0010019084438681602,0.0025399583391845226,0.001577703282237053
1772366581309749800,8.068749755859375,-0.001249793916940689,-0.00010216375812888145,-0.001689729280769825
1772366581319820000,8.078820068359375,-0.0015864609740674496,0.0024897889234125614,0.0008971812203526497
1772366581329890000,8.08889013671875,-0.0006921715103089809,0.00018508965149521828,-0.0004927227273583412
1772366581339959800,8.098959716796875,-0.0005689365789294243,-0.00046182656660676,0.001882852055132389
1772366581350029800,8.10902978515625,-0.00033830665051937103,-0.0005917889066040516,0.0014852415770292282
1772366581360100000,8.11910009765625,0.0028870324604213238,-0.00042432500049471855,-0.0012660296633839607
1772366581370169900,8.129169921875,-0.000427804421633482,-0.0025330157950520515,-0.0016402043402194977
1772366581380240000,8.139239990234374,0.0010886825621128082,-0.001698527717962861,-0.00003223679959774017
1772366581390310000,8.149309814453124,-0.0010650157928466797,-0.0043837931007146835,0.0007744347676634789
1772366581400380000,8.1593798828125,0.0015896866098046303,-0.00047675520181655884,-0.00006958283483982086
1772366581410450000,8.169449951171876,0.00026449747383594513,0.0021267510019242764,0.0007253708317875862
1772366581420521000,8.17952099609375,0.0004787277430295944,-0.0021205167286098003,0.000005574896931648254
1772366581430591000,8.189591064453126,0.000608956441283226,-0.00027334829792380333,-0.0005955006927251816
1772366581440661000,8.199660888671875,-0.0003784005530178547,-0.00038729701191186905,-0.00004726555198431015
1772366581450730800,8.209730712890625,0.00038752472028136253,-0.0024895963724702597,0.0005420921370387077
1772366581460800800,8.21980078125,0.00031932955607771873,-0.0007714945822954178,-0.0010379217565059662
1772366581470871000,8.22987109375,0.0002314448356628418,-0.0027704632375389338,-0.0010317964479327202
1772366581480940800,8.23994091796875,0.001623240765184164,0.001989535056054592,0.0007907561957836151
1772366581491010800,8.2500107421875,0.0002421252429485321,0.0010238727554678917,-0.0017440402880311012
1772366581501081000,8.2600810546875,-0.00013067014515399933,0.002109563909471035,-0.002003870904445648
1772366581511150800,8.27015087890625,-0.0009746258147060871,-0.0012092674151062965,0.0001455666497349739
1772366581521222000,8.280221923828124,0.003252253867685795,-0.0028804594185203314,-0.0005562696605920792
1772366581531292000,8.2902919921875,0.00009694043546915054,0.0011997697874903679,-0.001860952004790306
1772366581541362000,8.30036181640625,0.001137860119342804,-0.002546543488278985,-0.0010771648958325386
1772366581551432000,8.310431884765626,-0.003126127179712057,0.0016559245996177197,-0.0005370760336518288
1772366581561502000,8.320501953125,0.0003860415890812874,-0.0002958741970360279,0.0019035032019019127
1772366581571571700,8.33057177734375,-0.001405999530106783,0.0004436857998371124,0.0000811014324426651
1772366581581642000,8.34064208984375,-0.000999467447400093,-0.0010068435221910477,-0.0024971654638648033
1772366581591712000,8.3507119140625,-0.0015605958178639412,-0.0034841159358620644,-0.0001621060073375702
1772366581601781800,8.36078173828125,-0.0002635079436004162,-0.0006630108691751957,-0.0018610535189509392
1772366581611852000,8.37085205078125,0.0003713900223374367,-0.0013628897722810507,-0.0008903313428163528
1772366581621922000,8.380922119140624,-0.0038321814499795437,0.0016442779451608658,0.0001049218699336052
1772366581631992800,8.390992919921874,-0.000005751848220825195,0.00019179005175828934,-0.0006596716120839119
1772366581642062800,8.401062744140624,-0.001969747245311737,-0.0004740506410598755,0.00012814998626708984
1772366581652132900,8.4111328125,0.00008434848859906197,0.00175474863499403,-0.0008287234231829643
1772366581662203000,8.421202880859376,-0.0009090378880500793,0.0005114520899951458,0.001430802047252655
1772366581672273000,8.43127294921875,0.000966094434261322,0.0011306367814540863,0.001755974255502224
1772366581682343000,8.441343017578125,-0.00030709942802786827,0.0017017694190144539,-0.0005599446594715118
1772366581692413000,8.451412841796875,-0.0008530472405254841,-0.00031983619555830956,0.00006296858191490173
1772366581702483000,8.46148291015625,0.0009916541166603565,-0.0010642660781741142,-0.00041711609810590744
1772366581712553000,8.471552978515625,0.00039004581049084663,-0.0009098025038838387,-0.002045905217528343
1772366581722623000,8.481623046875,-0.0005151513032615185,-0.001167292706668377,-0.00003692507743835449
1772366581732693000,8.49169287109375,0.0004366622306406498,0.0018892171792685986,-0.001374097540974617
1772366581742762800,8.5017626953125,-0.00041753659024834633,0.0010772687382996082,0.001282266341149807
1772366581752833800,8.511833740234374,-0.0010154168121516705,0.0002887072041630745,-0.0005736909806728363
1772366581762903800,8.52190380859375,-0.001166150439530611,-0.0014310663100332022,0.0008251983672380447
1772366581772974800,8.531974853515624,-0.000907557550817728,-0.0006563528440892696,0.00004009809345006943
1772366581783044900,8.542044921875,0.00028441427275538445,0.0003074188716709614,-0.0015504108741879463
1772366581793115000,8.552114990234376,0.0007233032956719398,-0.0034210067242383957,-0.00217465590685606
1772366581803185000,8.562184814453126,-0.0017723203636705875,-0.003295928006991744,-0.0016010059043765068
1772366581813255000,8.5722548828125,-0.0005877460353076458,-0.0013670003972947598,-0.0008603809401392937
1772366581823325000,8.582324951171875,-0.000018351245671510696,0.0014393972232937813,-0.0010262047871947289
1772366581833395000,8.59239501953125,-0.000508106779307127,0.0013011791743338108,0.0008175019174814224
1772366581843465000,8.60246484375,0.0001819087192416191,0.00007285270839929581,0.0005145985633134842
1772366581853535000,8.612534912109375,-0.0010013333521783352,-0.0032276029232889414,-0.0013876976445317268
1772366581863605000,8.62260498046875,0.0003440091386437416,-0.001167389564216137,0.0009049214422702789
1772366581873674800,8.6326748046875,-0.0022555021569132805,-0.0006978744640946388,-0.0021941987797617912
1772366581883745800,8.642745849609375,0.0008263918571174145,0.0021391790360212326,0.0019646408036351204
1772366581893816000,8.652816162109374,-0.00026923278346657753,-0.0007085390388965607,0.0003475695848464966
1772366581903885800,8.6628857421875,-0.0017055515199899673,-0.0016835443675518036,-0.0007065003737807274
1772366581913955800,8.672955810546876,-0.00029247812926769257,-0.000987926498055458,-0.00005935225635766983
1772366581924026000,8.683026123046876,-0.0004987814463675022,-0.0002142973244190216,-0.0006364369764924049
1772366581934096000,8.693095947265626,0.0017028539441525936,0.000408882275223732,0.0003811568021774292
1772366581944166000,8.703165771484375,-0.0009524989873170853,0.0015419106930494308,-0.002197752706706524
1772366581954236000,8.71323583984375,0.0009972010739147663,-0.0029140901751816273,0.0007897820323705673
1772366581964306000,8.723305908203125,0.0007079439237713814,-0.002988587599247694,-0.0020244047045707703
1772366581974376000,8.7333759765625,-0.0005139140412211418,-0.0029401180800050497,-0.00026458781212568283
1772366581984445700,8.74344580078125,0.0008035046048462391,-0.0005534659139811993,0.00022943038493394852
1772366581994516000,8.753515869140625,-0.00201971223577857,-0.0021798585075885057,-0.0015844479203224182
1772366582004587000,8.7635869140625,0.003513169474899769,-0.002909709932282567,-0.00021428614854812622
1772366582014657000,8.773656982421874,-0.0009092758409678936,0.0009598629549145699,-0.0002262704074382782
1772366582024726800,8.783726806640624,-0.0011327527463436127,-0.0012245429679751396,-0.00006658583879470825
1772366582034797000,8.793797119140624,0.0004971018061041832,0.001526768784970045,-0.0018905848264694214
1772366582044867600,8.80386767578125,0.0004891832359135151,0.0025517274625599384,0.0019158562645316124
1772366582054937600,8.8139375,0.0019115777686238289,-0.0013215739745646715,-0.0020439978688955307
1772366582065007600,8.824007568359375,0.0005055111832916737,-0.0016445431392639875,0.000270194374024868
1772366582075077600,8.83407763671875,0.002837907988578081,0.0007626884616911411,0.00040175486356019974
1772366582085147600,8.844147705078125,-0.0024860063567757607,-0.000737164169549942,-0.0005020080134272575
1772366582095217700,8.8542177734375,0.0008413475006818771,-0.0019808602519333363,-0.000685766339302063
1772366582105287400,8.864287353515625,-0.0010008951649069786,-0.0000019366852939128876,0.0017394879832863808
1772366582115357700,8.874357666015625,0.0029448443092405796,-0.0007380344904959202,-0.00019316840916872025
1772366582125427700,8.884427734375,-0.0006308984011411667,-0.003423231653869152,-0.000501447357237339
1772366582135498500,8.89449853515625,0.0004998794756829739,-0.00021944893524050713,-0.00198269821703434
1772366582145568500,8.904568603515624,0.0009625721722841263,-0.001777829835191369,-0.0019789328798651695
1772366582155638800,8.914638671875,-0.0014278809539973736,-0.0001751394011080265,-0.00013948790729045868
1772366582165708500,8.92470849609375,0.0008817682974040508,-0.002100602723658085,0.00010223966091871262
1772366582175778600,8.934778564453126,-0.0010503544472157955,-0.0009770151227712631,0.0008689640089869499
1772366582185848800,8.944848876953126,0.0010357392020523548,0.0026002521626651287,0.00038394611328840256
1772366582195918600,8.954918701171875,-0.002385889645665884,0.0006359047256410122,0.0018015466630458832
1772366582205988600,8.964988525390625,0.0017239879816770554,-0.0005542272701859474,-0.0010123932734131813
1772366582216058600,8.97505859375,-0.0010539554059505463,0.0010604471899569035,-0.0017322450876235962
1772366582226128600,8.985128662109375,-0.0007327692583203316,-0.00064069963991642,-0.0022677723318338394
1772366582236198700,8.99519873046875,-0.004803144372999668,-0.002095584524795413,0.0018971450626850128
1772366582246268400,9.005268310546874,-0.0017197197303175926,-0.00008950196206569672,0.001844080165028572
1772366582256339500,9.01533935546875,-0.00007122289389371872,0.002391232643276453,0.0002475148066878319
1772366582266409700,9.02540966796875,-0.0001657041721045971,-0.004409491550177336,0.001541251316666603
1772366582276479700,9.035479736328124,0.003032485954463482,0.006065254099667072,0.0010983683168888092
1772366582286549500,9.045549560546876,-0.0008991979993879795,0.0014094305224716663,-0.0010463139042258263
1772366582296619800,9.055619873046876,-0.0010246331803500652,-0.0005677002482116222,-0.002379491925239563
1772366582306689800,9.065689697265626,0.0022864160127937794,0.0028599784709513187,0.0003737378865480423
1772366582316759600,9.075759521484375,0.00156762870028615,-0.0021576834842562675,-0.0020595919340848923
1772366582326829600,9.08582958984375,0.0015851976349949837,-0.004159457050263882,0.0004084194079041481
1772366582336899600,9.095899658203125,-0.0004686317406594753,-0.00300550926476717,0.0017804792150855064
1772366582346969600,9.105969482421875,0.0018129749223589897,0.0005389582365751266,-0.0005335640162229538
1772366582357039600,9.11603955078125,0.0006028348580002785,0.0015930370427668095,0.001396428793668747
1772366582367109600,9.126109619140625,0.0006354791112244129,-0.000292245764285326,0.0017360039055347443
1772366582377179600,9.1361796875,-0.0009107524529099464,-0.0022664472926408052,0.00044783297926187515
1772366582387250700,9.146250732421874,0.0001475880853831768,-0.002300477586686611,-0.0010921210050582886
1772366582397320400,9.156320556640624,-0.0010777320712804794,-0.0017896832432597876,-0.0008508386090397835
1772366582407390700,9.166390625,-0.0004616798833012581,0.0001889606937766075,-0.0035236291587352753
1772366582417460700,9.176460693359376,0.0012222370132803917,0.002632677089422941,0.0007129274308681488
1772366582427530500,9.186530517578126,0.00034216977655887604,0.0017128023318946362,0.001818956807255745
1772366582437600500,9.1966005859375,0.0002907705493271351,0.00202092994004488,0.00010547880083322525
1772366582447670800,9.2066708984375,-0.002116224728524685,-0.001802975544705987,-0.0020298603922128677
1772366582457740500,9.216740478515625,-0.0007921010255813599,-0.0005174679681658745,0.000423177145421505
1772366582467810600,9.226810546875,0.0007067937403917313,-0.0021208596881479025,0.00030408892780542374
1772366582477880800,9.236880859375,-0.001125461421906948,0.000028044916689395905,0.0008116867393255234
1772366582487950600,9.24695068359375,0.0006402977742254734,-0.0009703719988465309,0.00009616464376449585
1772366582498020600,9.2570205078125,0.00006265798583626747,-0.0010457392781972885,-0.001047397032380104
1772366582508090600,9.267090576171874,-0.0000708308070898056,-0.0009276247583329678,0.002781989984214306
1772366582518161400,9.277161376953124,-0.0031592990271747112,0.0003682691603899002,-0.0011323243379592896
1772366582528231700,9.287231689453124,0.0005012154579162598,0.0002386234700679779,-0.0006346637383103371
1772366582538301700,9.2973017578125,0.0006144000217318535,-0.000006387475878000259,0.0006990469992160797
1772366582548371500,9.307371337890626,-0.0014996882528066635,-0.000013478100299835205,0.002632024697959423
1772366582558441700,9.317441650390625,0.0024034404195845127,0.00021928222849965096,0.00034090783447027206
1772366582568511700,9.32751171875,-0.00015552667900919914,-0.0005891649052500725,0.0007823919877409935
1772366582578581500,9.33758154296875,0.0015686037950217724,-0.0018072950188070536,0.0021600453183054924
1772366582588651800,9.34765185546875,-0.0011452501639723778,0.0018123644404113293,0.0018326491117477417
1772366582598721800,9.3577216796875,0.0022321706637740135,0.0017106318846344948,-0.0005937563255429268
1772366582608791600,9.36779150390625,0.0015380741097033024,-0.00015834905207157135,-0.0031324708834290504
1772366582618861600,9.377861572265624,0.001595331821590662,0.0018182490020990372,0.0009365733712911606
1772366582628931600,9.387931640625,-0.0009062821045517921,0.00035111745819449425,-0.0018686996772885323
1772366582639001600,9.398001708984374,-0.0010791216045618057,-0.00037592556327581406,0.0002061687409877777
1772366582649071600,9.408071533203126,0.0004369919188320637,0.0035763662308454514,-0.0011795246973633766
1772366582659142700,9.418142578125,0.0008423249237239361,-0.0007850923575460911,0.001080966554582119
1772366582669212700,9.428212646484376,0.0013287151232361794,0.0011468003503978252,0.00038889795541763306
1772366582679282700,9.43828271484375,0.0005124560557305813,0.0013079214841127396,0.0008943658322095871
1772366582689352400,9.4483525390625,0.00040424056351184845,-0.0011976775713264942,0.00038267113268375397
1772366582699422700,9.458422607421875,0.002937705721706152,-0.0021598776802420616,0.000942467711865902
1772366582709492700,9.46849267578125,-0.00040967250242829323,-0.0005801594816148281,0.00004778243601322174
1772366582719562500,9.4785625,-0.0007734601385891438,0.000464598648250103,0.0014249030500650406
1772366582729632500,9.488632568359375,-0.0005710707046091557,0.0008915266953408718,-0.0009325742721557617
1772366582739702800,9.498702880859375,0.0007924679666757584,0.0009911288507282734,-0.000080096535384655
1772366582749772500,9.5087724609375,0.0013374467380344868,0.0008586240001022816,0.0008062850683927536
1772366582759842600,9.518842529296874,0.0011651404201984406,0.0008242693729698658,-0.0015812395140528679
1772366582769912800,9.528912841796876,0.0016457578167319298,0.0007393560372292995,0.0018011284992098808
1772366582779982600,9.538982666015626,0.00010618427768349648,0.001380378846079111,0.0009031100198626518
1772366582790052600,9.549052490234375,0.0017404747195541859,0.0011222842149436474,0.0002133166417479515
1772366582800123600,9.55912353515625,-0.00037141237407922745,0.0018171030096709728,-0.0008261147886514664
1772366582810193700,9.569193603515625,-0.0001231958158314228,0.0016281739808619022,-0.0001636464148759842
1772366582820263700,9.579263671875,0.0002270098775625229,-0.0014187488704919815,0.000799885019659996
1772366582830333700,9.589333740234375,0.0007171803154051304,-0.0006651729345321655,0.00027573946863412857
1772366582840403500,9.599403564453125,-0.0014370507560670376,-0.00043001584708690643,0.000994260422885418
1772366582850473700,9.6094736328125,-0.0004055858589708805,0.0013418663293123245,-0.000672915019094944
1772366582860543700,9.619543701171875,0.00018270639702677727,-0.0017599172424525023,-0.0007948875427246094
1772366582870613500,9.629613525390624,0.0009943176992237568,-0.0005100877024233341,-0.0004987325519323349
1772366582880683800,9.639683837890624,0.0005668802186846733,0.0007154988124966621,0.0030930722132325172
1772366582890753500,9.64975341796875,-0.0022052167914807796,0.0007707709446549416,-0.0008481917902827263
1772366582900823600,9.659823486328126,0.0013839253224432468,0.0039985221810638905,-0.00011955108493566513
1772366582910893600,9.6698935546875,-0.003251782152801752,0.001742363441735506,0.0009657330811023712
1772366582920963600,9.679963623046875,0.0013248599134385586,-0.0010241284035146236,-0.001412203535437584
1772366582931033600,9.69003369140625,-0.000254274345934391,0.00007374165579676628,-0.0009916126728057861
1772366582941104600,9.700104736328125,-0.0008702632039785385,-0.003052277024835348,-0.0008547259494662285
1772366582951174700,9.710174560546875,-0.0005668322555720806,0.0010451916605234146,-0.002636745572090149
1772366582961244700,9.72024462890625,-0.0015593920834362507,-0.0012246205005794764,-0.001517418771982193
1772366582971314700,9.730314697265625,0.00265594944357872,0.0018254974856972694,-0.0016115214675664902
1772366582981384400,9.740384521484375,-0.0012479783035814762,-0.0005939844995737076,0.0005222037434577942
1772366582991454700,9.750454833984374,0.001891088206321001,0.002761494368314743,0.00023985281586647034
1772366583001524700,9.760524658203124,0.0010268925689160824,-0.0010617394000291824,-0.0016733622178435326
1772366583011594500,9.770594482421876,0.0018959357403218746,-0.0008075786754488945,0.0007800282910466194
1772366583021664500,9.78066455078125,-0.0012758891098201275,0.0013509136624634266,-0.0018921876326203346
1772366583031734800,9.79073486328125,0.0004968284629285336,-0.0012636221945285797,-0.0016169464215636253
1772366583041808000,9.800807861328124,-0.00015005329623818398,-0.0002564145252108574,0.0006251689046621323
1772366583051878000,9.8108779296875,-0.002121944911777973,-0.0000646091066300869,0.000010491348803043365
1772366583061948000,9.820947998046876,-0.0001069977879524231,0.0017495364882051945,0.0016648462042212486
1772366583072018000,9.831017822265625,-0.00042765261605381966,-0.0018588306847959757,-0.0002429308369755745
1772366583082088000,9.841087890625,0.0012898198328912258,0.00022855494171380997,0.000705154612660408
1772366583092158700,9.85115869140625,-0.0020499182865023613,-0.0016812363173812628,0.0018912293016910553
1772366583102229000,9.86122900390625,-0.0019513815641403198,0.00003437185660004616,-0.00035754404962062836
1772366583112299000,9.871299072265625,0.0005373363383114338,0.001762642990797758,-0.0010562911629676819
1772366583122368800,9.88136865234375,-0.0007103551179170609,-0.0008107693865895271,0.0011847587302327156
1772366583132438800,9.891438720703125,-0.002291525714099407,-0.004315993282943964,-0.0003933776170015335
1772366583142509000,9.901509033203125,-0.0008840449154376984,-0.0007912996225059032,0.000030331313610076904
1772366583152578800,9.911578857421874,0.0009260103106498718,-0.0013126358389854431,-0.00036118924617767334
1772366583162648800,9.92164892578125,-0.0006782775744795799,-0.000279861968010664,0.00009714066982269287
1772366583172718800,9.93171875,0.0005489769391715527,0.002758089452981949,-0.0013567376881837845
1772366583182788900,9.941788818359376,-0.001058240421116352,0.002218533307313919,0.002021482214331627
1772366583192859000,9.95185888671875,-0.00039798254147171974,-0.0030022996943444014,-0.004256495274603367
1772366583202929000,9.961928955078125,0.00007313024252653122,0.0048955706879496574,0.003047490492463112
1772366583212999000,9.9719990234375,-0.0005219466984272003,0.0018946044147014618,-0.0004761815071105957
1772366583223069000,9.98206884765625,-0.0009685587137937546,-0.00122289196588099,0.0007786992937326431
1772366583233138700,9.992138671875,-0.0005947276949882507,0.0011449730955064297,0.00016380194574594498
1772366583243209000,10.002208984375,0.0009829294867813587,0.0030608512461185455,-0.000895070843398571
1772366583253280000,10.012280029296875,0.0014558881521224976,0.002124760765582323,0.001671120524406433
1772366583263349800,10.022349853515625,0.0018170131370425224,0.0010006409138441086,-0.001345176249742508
1772366583273419800,10.032419677734374,0.001120097003877163,0.004233978688716888,-0.003134411759674549
1772366583283490000,10.042489990234374,0.0009882701560854912,0.004853961989283562,0.0012954901903867722
1772366583293559800,10.052559814453126,0.0030636521987617016,0.05738515406847,0.030120007693767548
1772366583303629800,10.0626298828125,0.0012276689521968365,0.007862345315515995,0.0009882226586341858
1772366583313699800,10.072699951171876,-0.00005540531128644943,-0.004114547744393349,-0.006386379711329937
1772366583323769900,10.082769775390625,-0.00023969588801264763,-0.011007873341441154,-0.008004250004887581
1772366583333840000,10.09283984375,0.0013399799354374409,-0.013695087283849716,-0.005821543280035257
1772366583343910000,10.102909912109375,-0.0007447428070008755,-0.012178150936961174,-0.005621007177978754
1772366583353980000,10.11297998046875,-0.0004888912662863731,-0.003218443598598242,-0.000148785300552845
