time,seconds_elapsed,z,y,x
1772366202518805000,0.119804931640625,0.0012616957537829876,0.001536127645522356,-0.00045528076589107513
1772366202528875000,0.129875,0.000647304579615593,-0.00022102613002061844,-0.000031305477023124695
1772366202538945300,0.1399453125,-0.0005636550486087799,0.00144595792517066,0.0004619155079126358
1772366202549016300,0.150016357421875,0.00013249553740024567,0.0015751211903989315,-0.001667281612753868
1772366202559086000,0.160086181640625,-0.0011269394308328629,0.001867891289293766,-0.001430935226380825
1772366202569156000,0.170156005859375,0.0011284919455647469,-0.0006804876029491425,0.00037122517824172974
1772366202579226000,0.18022607421875,-0.0012096147984266281,0.0011220886372029781,0.0024382229894399643
1772366202589297200,0.190297119140625,0.0008993428200483322,-0.002542953472584486,0.0001124851405620575
1772366202599367200,0.2003671875,-0.0017942064441740513,-0.00047513609752058983,-0.0011777887120842934
1772366202609437200,0.210437255859375,0.0009914599359035492,-0.0005369214341044426,0.0008486108854413033
1772366202619507200,0.220507080078125,0.00020198896527290344,-0.0013183080591261387,-0.0014753490686416626
1772366202629578200,0.230578125,0.00006164051592350006,-0.0034693432971835136,-0.0012939879670739174
1772366202639648000,0.24064794921875,0.0005712537094950676,-0.0016703333240002394,0.0008394615724682808
1772366202649718000,0.250718017578125,-0.0005355561152100563,-0.001900430303066969,-0.0010532476007938385
1772366202659787800,0.260787841796875,0.0010579428635537624,-0.0003122766502201557,0.00023652706295251846
1772366202669858800,0.27085888671875,-0.001712543424218893,-0.0007487689144909382,0.0006016464903950691
1772366202679929000,0.28092919921875,0.0004704459570348263,0.0012640929780900478,-0.00018532667309045792
1772366202689999000,0.2909990234375,-0.00006351806223392487,0.0008009690791368484,0.00024211034178733826
1772366202700068900,0.30106884765625,-0.0004665236920118332,0.002700021956115961,0.00047694798558950424
1772366202710140000,0.311139892578125,0.00007782690227031708,0.0013631153851747513,0.000806114636361599
1772366202720210200,0.321210205078125,-0.00010826624929904938,0.001985373441129923,0.0009882468730211258
1772366202730280000,0.331280029296875,-0.000050475820899009705,0.0009320932440459728,-0.0009944764897227287
1772366202740350000,0.341349853515625,-0.0017166035249829292,0.0038753566332161427,0.0004470162093639374
1772366202750421000,0.3514208984375,0.0015492308884859085,0.0019802511669695377,-0.003123483620584011
1772366202760491000,0.361490966796875,-0.0016404776833951473,-0.0002538948319852352,0.0019218511879444122
1772366202770561000,0.37156103515625,-0.0012279548682272434,0.0024747797288000584,-0.0005524922162294388
1772366202780631000,0.381631103515625,-0.000049661844968795776,0.0022784005850553513,0.001478634774684906
1772366202790700800,0.39170068359375,0.0005833711475133896,-0.002082791877910495,-0.0006734663620591164
1772366202800771800,0.401771728515625,-0.00023455824702978134,0.0012140050530433655,-0.00014425348490476608
1772366202810842000,0.411842041015625,-0.00024148263037204742,-0.00010106386616826057,0.0010152868926525116
1772366202820912000,0.421912109375,0.002517721615731716,0.0016386276111006737,0.0006470344960689545
1772366202830982000,0.43198193359375,0.0006300732493400574,0.0016604657284915447,0.0018273470923304558
1772366202841053000,0.442052978515625,-0.00007606390863656998,0.00022737495601177216,0.00035309232771396637
1772366202851123200,0.452123291015625,-0.0005397200584411621,0.0005655963905155659,0.0011166203767061234
1772366202861193000,0.46219287109375,0.0005969218909740448,0.0011446112766861916,0.001317884773015976
1772366202871263000,0.472262939453125,-0.0015919306315481663,0.00023194588720798492,0.000390038825571537
1772366202881334000,0.482333984375,-0.0008616498671472073,-0.0004911147989332676,-0.0007080072537064552
1772366202891404000,0.492404052734375,-0.0013721785508096218,0.0011326144449412823,0.0002898797392845154
1772366202901474000,0.50247412109375,-0.0007813209667801857,0.00018239859491586685,-0.0011186664924025536
1772366202911544000,0.5125439453125,-0.0002324436791241169,0.00032514380291104317,-0.0003135930746793747
1772366202921614800,0.52261474609375,-0.0004633036442101002,-0.0017860406078398228,-0.001322583295404911
1772366202931684900,0.532684814453125,0.002142067067325115,-0.0006054611876606941,-0.001081567257642746
1772366202941755100,0.542755126953125,-0.0009521613828837872,0.0008257073350250721,-0.0019772741943597794
1772366202951825000,0.552824951171875,-0.0006022215820848942,0.002463818062096834,0.0008459426462650299
1772366202961896000,0.56289599609375,0.0017562038265168667,-0.0019872880075126886,-0.0009434502571821213
1772366202971966000,0.572966064453125,-0.0006646094843745232,-0.0003102952614426613,0.0007394012063741684
1772366202982036200,0.5830361328125,0.0005326662212610245,0.0007328251376748085,-0.00005393475294113159
1772366202992106000,0.59310595703125,0.00041628628969192505,-0.0007827798835933208,-0.0011626090854406357
1772366203002177000,0.603177001953125,-0.0001329239457845688,-0.0029499377124011517,0.0018526986241340637
1772366203012247000,0.6132470703125,-0.0004397197626531124,-0.00012672040611505508,0.00018848944455385208
1772366203022317000,0.623317138671875,0.0004906002432107925,0.0015476066619157791,-0.0006422568112611771
1772366203032387000,0.633386962890625,-0.001896391622722149,0.0006951289251446724,0.00022087432444095612
1772366203042458000,0.6434580078125,-0.0008187037892639637,-0.0001939479261636734,-0.0003330511972308159
1772366203052527900,0.65352783203125,0.000325922854244709,-0.00027064699679613113,-0.00048724841326475143
1772366203062598000,0.663597900390625,-0.000051499344408512115,-0.0005508051253855228,-0.001020926982164383
1772366203072668200,0.673668212890625,0.0011362703517079353,-0.0020054238848388195,-0.0019367877393960953
1772366203082739200,0.6837392578125,0.0008016456849873066,-0.0011500294785946608,0.0018087271600961685
1772366203092809000,0.69380908203125,-0.0010055755265057087,0.0012718490324914455,-0.0022177062928676605
1772366203102879000,0.70387890625,-0.0009119361639022827,-0.0005601318553090096,-0.0028498852625489235
1772366203112949000,0.713948974609375,0.0016755913384258747,0.00024147937074303627,0.0006039692088961601
1772366203123020000,0.72402001953125,0.0013624769635498524,-0.0017776943277567625,0.0003530625253915787
1772366203133090000,0.734090087890625,0.00014274939894676208,0.0026340982876718044,-0.0006962232291698456
1772366203143160000,0.74416015625,0.0015633702278137207,-0.0030988515354692936,-0.0018490487709641457
1772366203153229800,0.754229736328125,-0.00038393307477235794,0.003158512059599161,0.0005171699449419975
1772366203163300900,0.76430078125,-0.000826740637421608,-0.0005223862826824188,0.0013277074322104454
1772366203173371100,0.77437109375,0.0016231010667979717,-0.0011066836304962635,-0.001731998287141323
1772366203183441000,0.78444091796875,-0.0007760566659271717,0.0009319963864982128,0.0007664347067475319
1772366203193511000,0.794510986328125,-0.0019840667955577374,0.0023820875212550163,-0.0020922021940350533
1772366203203581200,0.804581298828125,-0.0006032967939972878,0.001821983139961958,0.00030669383704662323
1772366203213652000,0.81465185546875,0.001420439686626196,-0.001798318000510335,0.0003785993903875351
1772366203223722000,0.824721923828125,0.0005552810616791248,0.0007062563672661781,-0.0001870347186923027
1772366203233792000,0.8347919921875,-0.0003643087111413479,0.0002354094758629799,0.0018870346248149872
1772366203243862000,0.844862060546875,-0.001300460658967495,-0.002030682982876897,0.0029421523213386536
1772366203253933000,0.85493310546875,0.0011520441621541977,-0.00018165027722716331,-0.0006685620173811913
1772366203264003000,0.865003173828125,0.0014003715477883816,-0.00042064161971211433,0.0021614711731672287
1772366203274072800,0.87507275390625,-0.001969859004020691,0.0019857906736433506,0.0006687697023153305
1772366203284142800,0.885142822265625,0.0004589483141899109,0.0006728530861437321,0.0005148826166987419
1772366203294214000,0.8952138671875,-0.001949880737811327,0.0010627396404743195,-0.0017157811671495438
1772366203304284200,0.9052841796875,0.0011505126021802425,0.0019893404096364975,0.0020939167588949203
1772366203314354000,0.91535400390625,0.0005779326893389225,0.0015456578694283962,-0.0006717760115861893
1772366203324424000,0.925423828125,0.0007287571206688881,0.0007892032153904438,0.00038662273436784744
1772366203334495000,0.935494873046875,-0.0014158869162201881,0.0004003820940852165,-0.0014528222382068634
1772366203344565000,0.94556494140625,-0.0022329972125589848,0.0016899947077035904,-0.00030188728123903275
1772366203354635000,0.955635009765625,-0.0016100839711725712,0.0011022351682186127,0.002373257651925087
1772366203364705000,0.965705078125,0.0007194438949227333,-0.00016681663691997528,-0.002151595428586006
1772366203374775800,0.97577587890625,0.00035405857488512993,0.0008736802265048027,-0.0018202979117631912
1772366203384846000,0.98584619140625,-0.0005149119533598423,-0.002744748955592513,0.0016839727759361267
1772366203394916000,0.995916015625,-0.001945562195032835,0.0007463889196515083,0.00023334939032793045
1772366203404985900,1.00598583984375,0.00041604693979024887,-0.0014653110411018133,0.0007639387622475624
1772366203415057000,1.016056884765625,0.00018781423568725586,-0.0004405267536640167,-0.0011764401569962502
1772366203425127000,1.026126953125,0.0027437852695584297,-0.00004469975829124451,0.001797533594071865
1772366203435197200,1.036197265625,-0.002375076524913311,-0.0001994296908378601,-0.0008959872648119926
1772366203445267000,1.046266845703125,-0.0002731061540544033,0.0007592197507619858,-0.00027715321630239487
1772366203455338000,1.056337890625,-0.0020297272130846977,-0.002115662442520261,-0.00005158316344022751
1772366203465408000,1.066407958984375,0.001474060583859682,0.0018859957344830036,0.000584903173148632
1772366203475478000,1.07647802734375,0.00026818132027983665,0.0016979766078293324,-0.0014920961111783981
1772366203485548000,1.086548095703125,0.0003501400351524353,0.0029741241596639156,-0.0013625472784042358
1772366203495619000,1.096619140625,-0.0004647867754101753,-0.0006421818397939205,-0.002011558972299099
1772366203505688800,1.106688720703125,0.0006066141650080681,-0.0016258044634014368,-0.001131453551352024
1772366203515759000,1.116759033203125,-0.001783040352165699,-0.00014322251081466675,0.0002960003912448883
1772366203525829000,1.1268291015625,-0.0011974195949733257,-0.0014079585671424866,-0.0005772709846496582
1772366203535900200,1.136900146484375,-0.0003191092982888222,0.00027755601331591606,0.001826232299208641
1772366203545970000,1.146969970703125,-0.0007475526072084904,-0.0018683290109038353,-0.0007223561406135559
1772366203556040000,1.1570400390625,0.00007216865196824074,-0.0006326222792267799,0.0009314659982919693
1772366203566110000,1.16710986328125,-0.0009864112362265587,-0.0024869933258742094,-0.0008976561948657036
1772366203576181000,1.177180908203125,0.001113757025450468,0.003091263584792614,0.0019375449046492577
1772366203586251000,1.1872509765625,-0.00011089909821748734,-0.0006894688121974468,0.00010278355330228806
1772366203596321000,1.197321044921875,-0.00021369708701968193,0.00041094934567809105,0.0018255822360515594
1772366203606391000,1.20739111328125,-0.0007678503170609474,0.004236053675413132,0.0030052661895751953
1772366203616462000,1.217462158203125,-0.00022136978805065155,-0.00200932496227324,0.00029017310589551926
1772366203626532000,1.227531982421875,0.001489630900323391,-0.002616284415125847,0.000629364512860775
1772366203636601900,1.237601806640625,0.00012476090341806412,0.00018083350732922554,-0.0028769532218575478
1772366203646672400,1.24767236328125,0.00011918088421225548,-0.0029930993914604187,-0.00044886302202939987
1772366203656742700,1.25774267578125,-0.0010520773939788342,-0.00001914752647280693,0.0002696570008993149
1772366203666813700,1.267813720703125,-0.00020274287089705467,0.0005776016041636467,-0.0006451373919844627
1772366203676883500,1.277883544921875,-0.0005311109125614166,0.00018585054203867912,-0.0013338299468159676
1772366203686953500,1.287953369140625,-0.0003960300236940384,-0.0004946086555719376,-0.002190534956753254
1772366203697023500,1.2980234375,0.0009158425964415073,0.0018271352164447308,0.00114480871707201
1772366203707094500,1.308094482421875,-0.001428417395800352,-0.0014094943180680275,0.0005367770791053772
1772366203717164500,1.31816455078125,0.0011023841798305511,0.0006770924665033817,-0.0027884459123015404
1772366203727234600,1.328234619140625,-0.0009361212141811848,-0.0030587422661483288,0.0009730979800224304
1772366203737304600,1.3383046875,0.0011254320852458477,-0.0013644392602145672,-0.00013850536197423935
1772366203747375600,1.348375732421875,-0.0021451967768371105,0.0002514584921300411,-0.0007935920730233192
1772366203757445600,1.358445556640625,-0.002173693384975195,0.002609687391668558,-0.0010204929858446121
1772366203767515400,1.368515380859375,0.0008157156407833099,-0.001024764496833086,0.0002497592940926552
1772366203777585400,1.37858544921875,-0.0006482237949967384,0.001335594803094864,0.00018344726413488388
1772366203787656400,1.388656494140625,-0.0011677076108753681,-0.0002852668985724449,-0.0015303678810596466
1772366203797726500,1.3987265625,-0.0004190937615931034,0.00014270329847931862,0.000983656384050846
1772366203807796500,1.40879638671875,-0.0022043357603251934,-0.0014633082319051027,0.0019982745870947838
1772366203817866500,1.418866455078125,-0.003127653617411852,-0.001083275070413947,0.0007700249552726746
1772366203827937500,1.4289375,0.00044490769505500793,0.0005458137020468712,0.0008586635813117027
1772366203838007600,1.439007568359375,-0.0009993244893848896,-0.0018473027739673853,0.0006653182208538055
1772366203848077600,1.44907763671875,-0.0005502449348568916,0.00039836857467889786,-0.0010399194434285164
1772366203858147600,1.459147705078125,0.0016617770306766033,0.0024745692498981953,-0.0035254480317234993
1772366203868218400,1.46921826171875,0.00011424347758293152,0.0005614482797682285,-0.0006116582080721855
1772366203878288400,1.479288330078125,0.001823726575821638,-0.0028703012503683567,0.0007936917245388031
1772366203888358700,1.489358642578125,-0.0008042627014219761,-0.0019115488976240158,0.0008843326941132545
1772366203898428400,1.499428466796875,0.0013070916756987572,0.000004861969500780106,0.0007975129410624504
1772366203908499500,1.50949951171875,0.0011332654394209385,-0.0022657131776213646,-0.0002863137051463127
1772366203918569500,1.519569580078125,0.0011271401308476925,0.002345017623156309,0.0008844118565320969
1772366203928639500,1.529639404296875,0.0013688872568309307,-0.0005383300594985485,-0.0013976739719510078
1772366203938709500,1.53970947265625,-0.0027869753539562225,-0.0005103666335344315,-0.0007369443774223328
1772366203948780500,1.549780517578125,-0.0005551725625991821,-0.00008029257878661156,-0.0015054196119308472
1772366203958850600,1.5598505859375,0.0006392551586031914,-0.0001458064652979374,-0.0011192606762051582
1772366203968920600,1.569920654296875,-0.0006607635878026485,-0.0002848152071237564,0.0017372649163007736
1772366203978990600,1.579990478515625,0.0006180861964821815,-0.0026172117795795202,0.00016227085143327713
1772366203989061600,1.5900615234375,-0.0005308086983859539,-0.0010567032732069492,-0.002325518988072872
1772366203999131400,1.60013134765625,-0.0027140681631863117,0.0004802071489393711,-0.0016157859936356544
1772366204009201400,1.610201416015625,0.0010266732424497604,0.0015368671156466007,0.0008184975013136864
1772366204019271700,1.620271728515625,-0.0002476493827998638,-0.000036794692277908325,-0.0001373104751110077
1772366204029342500,1.630342529296875,0.0005598822608590126,-0.000965554267168045,-0.0010871747508645058
1772366204039412500,1.64041259765625,0.00008983444422483444,0.001645408570766449,0.00016051623970270157
1772366204049482500,1.650482421875,0.0025655366480350494,0.0010924958623945713,0.00018481910228729248
1772366204059552500,1.660552490234375,0.0015780366957187653,0.002494916319847107,0.0013645999133586884
1772366204069622500,1.67062255859375,0.0009956462308764458,0.0012141927145421505,0.000647054985165596
1772366204079693600,1.680693603515625,0.0007431786507368088,0.003539665136486292,0.00002201087772846222
1772366204089763300,1.690763427734375,-0.0026424932293593884,0.0010324758477509022,0.0019257515668869019
1772366204099833600,1.70083349609375,-0.00012021325528621674,-0.0007867296226322651,-0.00048653967678546906
1772366204109903600,1.710903564453125,-0.0012159091420471668,-0.0013556797057390213,0.0011229421943426132
1772366204119974700,1.720974609375,0.00004083709791302681,-0.00020892266184091568,0.0007799267768859863
1772366204130044400,1.73104443359375,0.00010519055649638176,-0.0000305655412375927,0.001176644116640091
1772366204140114400,1.741114501953125,-0.0009779171086847782,0.002922080922871828,0.00021524261683225632
1772366204150184400,1.751184326171875,-0.00102626858279109,0.0007527489215135574,-0.0007155807688832283
1772366204160255500,1.76125537109375,0.001355662476271391,0.0026380005292594433,0.0008112089708447456
1772366204170325500,1.771325439453125,-0.0009900662116706371,-0.00025352463126182556,-0.0008156783878803253
1772366204180395500,1.7813955078125,0.00019477400928735733,0.0018607592210173607,-0.0010942453518509865
1772366204190465500,1.791465576171875,0.0018016383983194828,-0.000989433377981186,0.0009532421827316284
1772366204200536600,1.80153662109375,0.0040413569658994675,0.002788793295621872,0.0004997067153453827
1772366204210606600,1.811606689453125,-0.0022473884746432304,-0.002068722154945135,0.00003818608820438385
1772366204220676400,1.82167626953125,0.0017404286190867424,0.0013574347831308842,-0.0016838135197758675
1772366204230746600,1.83174658203125,-0.0018155546858906746,0.001082899048924446,0.0029751332476735115
1772366204240817700,1.841817626953125,0.0017839735373854637,0.0021007596515119076,0.002113867551088333
1772366204250887400,1.851887451171875,0.00005419040098786354,-0.0045576756820082664,0.00022204872220754623
1772366204260957400,1.86195751953125,0.0019093481823801994,0.0036704265512526035,0.002138192765414715
1772366204271027500,1.87202734375,0.00008553639054298401,-0.0012172013521194458,0.00013001449406147003
1772366204281098500,1.882098388671875,-0.0007850509136915207,0.00033195922151207924,0.0015968838706612587
1772366204291168500,1.89216845703125,0.0016919160261750221,0.0007598171941936016,0.0017375918105244637
1772366204301238500,1.902238525390625,-0.0010833642445504665,0.001725479494780302,-0.00040758494287729263
1772366204311308500,1.91230859375,0.00011562695726752281,0.0006669992581009865,-0.0007521333172917366
1772366204321379300,1.92237939453125,-0.00043884292244911194,-0.0011066659353673458,-0.0006964737549424171
1772366204331449600,1.93244970703125,0.00008931104093790054,-0.001202412648126483,-0.002005261369049549
1772366204341519600,1.94251953125,-0.002376243472099304,-0.000006120651960372925,0.00037986598908901215
1772366204351589400,1.95258935546875,-0.0009422381408512592,-0.001027391292154789,-0.0002592112869024277
1772366204361659600,1.96265966796875,-0.0006362409330904484,-0.005041840486228466,-0.001958041451871395
1772366204371730700,1.972730712890625,0.00043295277282595634,0.0008486360311508179,-0.00219695083796978
1772366204381800400,1.982800537109375,0.0011786380782723427,0.0016683568246662617,-0.00026615895330905914
1772366204391870500,1.992870361328125,-0.0006416989490389824,0.0029995841905474663,0.0008966280147433281
1772366204401940500,2.0029404296875,0.00012023141607642174,0.0014709299430251122,0.0007554804906249046
1772366204412011300,2.01301123046875,-0.0012933891266584396,0.0021536340937018394,0.0030041132122278214
1772366204422081500,2.02308154296875,-0.00024170661345124245,0.002560565248131752,0.0016325851902365685
1772366204432151600,2.033151611328125,0.002512918785214424,-0.0002672048285603523,0.000677003525197506
1772366204442221300,2.04322119140625,-0.0009308145381510258,-0.0018624381627887487,-0.00022048130631446838
1772366204452292400,2.053292236328125,0.0005342196673154831,-0.0003112517297267914,-0.0006074225530028343
1772366204462362600,2.063362548828125,0.0008529997430741787,0.000598750077188015,0.0040251463651657104
1772366204472432600,2.0734326171875,-0.0007250853814184666,0.001176703255623579,0.00006315018981695175
1772366204482502400,2.08350244140625,-0.0015312242321670055,-0.0000062729232013225555,-0.0009957225993275642
1772366204492573400,2.093573486328125,0.0004682093858718872,-0.0006760084070265293,0.003913520835340023
1772366204502643700,2.103643798828125,-0.0015350203029811382,0.00039697904139757156,-0.0023896489292383194
1772366204512713500,2.11371337890625,-0.000470050610601902,-0.00410884153097868,-0.001392909325659275
1772366204522783500,2.123783447265625,0.0017587486654520035,-0.0008661765605211258,-0.0016469741240143776
1772366204532854500,2.1338544921875,0.00012866035103797913,0.0006995662115514278,-0.0021591484546661377
1772366204542924300,2.14392431640625,0.0016900720074772835,0.002018896397203207,0.0006339745596051216
1772366204552994600,2.15399462890625,-0.0010393834672868252,-0.0009661717340350151,-0.0021552536636590958
1772366204563064600,2.164064697265625,0.0022267173044383526,0.0014823386445641518,0.00015424005687236786
1772366204573135600,2.174135498046875,-0.0006517223082482815,-0.00044481130316853523,-0.001828392967581749
1772366204583205400,2.184205322265625,0.0008532297797501087,-0.0018903750460594893,-0.001341034658253193
1772366204593275600,2.194275634765625,-0.00032100360840559006,0.0011287983506917953,-0.0011285990476608276
1772366204603345400,2.204345458984375,-0.0020637763664126396,0.0008608843199908733,-0.0007858499884605408
1772366204613416400,2.21441650390625,0.0017567691393196583,0.000898466445505619,-0.0007361797615885735
1772366204623486500,2.224486572265625,-0.0009918794967234135,-0.0007971678860485554,-0.000650160014629364
1772366204633556500,2.234556396484375,0.0005554724484682083,0.002591177821159363,-0.00047883857041597366
1772366204643626200,2.244626220703125,-0.0017098127864301205,0.0007844893261790276,-0.0011771200224757195
1772366204653697300,2.254697265625,-0.001151176169514656,0.0010028192773461342,-0.00022687949240207672
1772366204663767000,2.26476708984375,-0.001987408846616745,-0.0006267689168453217,-0.00011183135211467743
1772366204673837300,2.27483740234375,0.0004659774713218212,0.00011988123878836632,0.0016043288633227348
1772366204683907300,2.2849072265625,0.0012521427124738693,-0.00036641163751482964,-0.0007749395444989204
1772366204693978000,2.29497802734375,0.00040234625339508057,-0.002432235050946474,-0.0018895026296377182
1772366204704048000,2.305048095703125,0.002697991207242012,-0.001831159694120288,-0.00018507987260818481
1772366204714118100,2.3151181640625,-0.0004199906252324581,-0.0021505423355847597,0.0005347365513443947
1772366204724188200,2.325188232421875,0.0007097218185663223,-0.001300461357459426,0.0008918661624193192
1772366204734258200,2.335258056640625,0.0013948539271950722,-0.000947907567024231,0.0005620745941996574
1772366204744329200,2.3453291015625,0.0003210674040019512,-0.0007771989330649376,0.0013069603592157364
1772366204754399000,2.35539892578125,0.002854812890291214,-0.001464602304622531,0.0009962022304534912
1772366204764469200,2.36546923828125,-0.00166696822270751,-0.0008390257135033607,-0.0009950436651706696
1772366204774539300,2.375539306640625,-0.0000017229467630386353,-0.0006500855088233948,0.0014557791873812675
1772366204784610300,2.3856103515625,-0.0023045577108860016,-0.0008144024759531021,-0.00026994943618774414
1772366204794680000,2.39568017578125,0.0014255847781896591,-0.00039453012868762016,-0.0011547412723302841
1772366204804750000,2.40575,0.0006037331186234951,0.005071074701845646,-0.0008138567209243774
1772366204814820000,2.415820068359375,-0.0016239350661635399,-0.0015887308400124311,-0.0007024118676781654
1772366204824891100,2.42589111328125,-0.0011709313839673996,0.0037543694488704205,-0.00041159428656101227
1772366204834961200,2.435961181640625,-0.0014586406759917736,-0.001357976347208023,0.00011354871094226837
1772366204845031200,2.44603125,-0.003459207247942686,-0.0010061729699373245,-0.001725897192955017
1772366204855101200,2.45610107421875,-0.001730168703943491,-0.0030185854993760586,-0.0003849780187010765
1772366204865172200,2.466172119140625,-0.0002835397608578205,0.0011575170792639256,-0.0010265335440635681
1772366204875242200,2.4762421875,-0.0010500717908143997,0.001594681292772293,0.0012673931196331978
1772366204885312000,2.48631201171875,0.0012429100461304188,0.0001307413913309574,-0.00011904910206794739
1772366204895382300,2.49638232421875,-0.00016011390835046768,-0.000676427036523819,0.0014904029667377472
1772366204905453300,2.506453369140625,0.0011352477595210075,0.0031678457744419575,0.000042708590626716614
1772366204915523000,2.516523193359375,0.002135475631803274,0.0016885222867131233,0.0017506703734397888
1772366204925593000,2.526593017578125,-0.0012294286862015724,0.0004520164802670479,0.0019283033907413483
1772366204935663000,2.5366630859375,-0.0023412108421325684,-0.001117877196520567,-0.0007182080298662186
1772366204945734100,2.546734130859375,0.0006226212717592716,0.00016842922195792198,0.00012335088104009628
1772366204955804200,2.55680419921875,-0.000007246620953083038,-0.0010459176264703274,0.0013038795441389084
1772366204965874200,2.566874267578125,0.0006359065882861614,0.002640163991600275,0.0011851023882627487
1772366204975944200,2.576944091796875,0.0009699761867523193,-0.00149863725528121,0.0010168850421905518
1772366204986014200,2.58701416015625,-0.001196239609271288,0.001994364894926548,0.0014043748378753662
1772366204996085200,2.597085205078125,0.0018922719173133373,-0.001995814498513937,0.0017231842502951622
1772366205006155300,2.6071552734375,0.002262983936816454,-0.0014647801872342825,0.0012941490858793259
1772366205016225000,2.61722509765625,-0.0019373022951185703,0.001301574520766735,0.00012199860066175461
1772366205026295300,2.62729541015625,0.00043504172936081886,0.0034118634648621082,-0.0006391322240233421
1772366205036366300,2.637366455078125,-0.000912071205675602,0.000570918433368206,0.0009126439690589905
1772366205046436000,2.64743603515625,0.001736974809318781,-0.0009143264032900333,-0.0009483732283115387
1772366205056506000,2.657506103515625,0.0012061060406267643,0.00009434064850211143,0.0021662218496203423
1772366205066576100,2.667576171875,-0.0009486572816967964,0.0021606874652206898,0.0004442213103175163
1772366205076647200,2.677647216796875,0.001010124571621418,-0.0013401657342910767,0.0008327215909957886
1772366205086717200,2.68771728515625,0.0011866921558976173,-0.0005316301248967648,0.0008564237505197525
1772366205096787200,2.697787109375,0.00014214543625712395,-0.004311533644795418,-0.0009688651189208031
1772366205106857000,2.70785693359375,0.00007902830839157104,0.0011556698009371758,0.0005986709147691727
1772366205116928000,2.717927978515625,0.0015355627983808517,0.0009008548222482204,-0.0009776763617992401
1772366205126998300,2.727998291015625,-0.0005699326284229755,-0.002274964703246951,0.000038586556911468506
1772366205137068300,2.738068359375,-0.0012669558636844158,0.001548956148326397,-0.0008858228102326393
1772366205147138000,2.748137939453125,-0.0014624311588704586,0.0024791983887553215,0.00343914981931448
1772366205157209000,2.758208984375,-0.0012740972451865673,0.002808376681059599,0.0012521063908934593
1772366205167279400,2.768279296875,0.0011698855087161064,-0.0035664320457726717,0.0003876443952322006
1772366205177349000,2.77834912109375,0.0008155289106070995,0.0005301889032125473,0.00036753900349140167
1772366205187419100,2.788419189453125,0.0002458789385855198,0.0016018450260162354,-0.00019598565995693207
1772366205197490200,2.798490234375,-0.0008976575918495655,-0.000001976732164621353,-0.0002788389101624489
1772366205207560000,2.808559814453125,0.0005519012920558453,-0.0010323538444936275,-0.00017470866441726685
1772366205217630200,2.818630126953125,-0.0003347066231071949,0.00041523855179548264,-0.0008592903614044189
1772366205227700200,2.8287001953125,0.00013108039274811745,-0.0016545704565942287,0.0005868058651685715
1772366205237771300,2.838771240234375,0.0006362134590744972,-0.0018643431831151247,0.0007255077362060547
1772366205247841000,2.848841064453125,-0.002060503698885441,0.0013452987186610699,-0.00000686105340719223
1772366205257911300,2.858911376953125,-0.00008253613486886024,0.0005033048801124096,-0.0008289767429232597
1772366205267981000,2.86898095703125,-0.0007347436621785164,0.00007320428267121315,0.0019838539883494377
1772366205278052000,2.879052001953125,0.001916395965963602,0.00029264576733112335,-0.0005262391641736031
1772366205288122000,2.8891220703125,0.0009438092820346355,0.0001078224740922451,-0.0002902830019593239
1772366205298192400,2.8991923828125,-0.00008792057633399963,0.0011544357985258102,-0.0016231546178460121
1772366205308262100,2.90926220703125,-0.00046395836398005486,-0.0022235175129026175,-0.0017674975097179413
1772366205318333200,2.919333251953125,-0.0007894551381468773,-0.00015783309936523438,0.0007956447079777718
1772366205328403200,2.9294033203125,-0.0009540384635329247,-0.00007421011105179787,-0.000906381756067276
1772366205338473000,2.939472900390625,0.001005660742521286,0.0009882650338113308,0.0003162361681461334
1772366205348543200,2.949543212890625,0.0014618602581322193,-0.0012916671112179756,-0.0007658060640096664
1772366205358613200,2.95961328125,0.000176294706761837,0.0007835174910724163,-0.00047348346561193466
1772366205368684000,2.96968408203125,0.0013629989698529243,-0.002246360993012786,0.00042986124753952026
1772366205378754000,2.979754150390625,-0.0006331144832074642,0.00006754882633686066,0.0007291864603757858
1772366205388824300,2.98982421875,-0.001936198677867651,-0.00022140424698591232,0.0000956198200583458
1772366205398894000,2.99989404296875,-0.0013494035229086876,-0.0010101301595568657,-0.00026204995810985565
1772366205408965000,3.009965087890625,0.0004940363578498363,-0.004466114565730095,0.0002751089632511139
1772366205419035100,3.02003515625,0.0004809354431927204,-0.000694486778229475,-0.00020570214837789536
1772366205429105400,3.03010546875,0.000602375715970993,-0.0036825533024966717,0.0008616931736469269
1772366205439175200,3.040175048828125,-0.0038693896494805813,-0.002563309157267213,0.0018536783754825592
1772366205449246200,3.05024609375,0.00009019812569022179,0.001324906013906002,0.00009572599083185196
1772366205459316200,3.060316162109375,0.0017966791056096554,-0.0013634497299790382,0.00004376843571662903
1772366205469386000,3.070385986328125,0.0002768132835626602,0.0006192736327648163,0.0008842619135975838
1772366205479456300,3.080456298828125,-0.000490712933242321,-0.003411945654079318,0.0006901649758219719
1772366205489527300,3.09052734375,0.000805713701993227,-0.0010353405959904194,0.0012845825403928757
1772366205499597000,3.10059716796875,0.0015711518935859203,-0.0009294324554502964,-0.0008675241842865944
1772366205509667000,3.1106669921875,0.0005192030221223831,0.0005752537399530411,0.0026041725650429726
1772366205519737300,3.1207373046875,-0.0012029237113893032,-0.001801891252398491,-0.0002409452572464943
1772366205529808400,3.130808349609375,0.0024320250377058983,0.001698833890259266,0.002900785766541958
1772366205539878100,3.140878173828125,-0.0004626139998435974,0.001975982915610075,0.001445346511900425
1772366205549948200,3.1509482421875,0.001750206109136343,-0.0013359240256249905,-0.0004114098846912384
1772366205560018200,3.16101806640625,0.0008553569205105305,0.0019615204073488712,0.0014414284378290176
1772366205570089200,3.171089111328125,-0.0017657256685197353,-0.002031889744102955,0.0005370192229747772
1772366205580159200,3.1811591796875,0.0008588763885200024,-0.0010974602773785591,0.0008657630532979965
1772366205590229200,3.191229248046875,-0.0010572681203484535,0.000039709266275167465,-0.0009659593924880028
1772366205600299000,3.201299072265625,0.0009734481573104858,-0.0007927115075290203,-0.0003008926287293434
1772366205610370000,3.2113701171875,-0.0033805537968873978,-0.0009517022408545017,-0.001705177128314972
1772366205620440300,3.2214404296875,0.00037214159965515137,-0.00003812182694673538,0.0008992627263069153
1772366205630510000,3.231510009765625,-0.0020278990268707275,0.001672958955168724,0.000055573880672454834
1772366205640580000,3.241580078125,-0.0005247523076832294,0.0008093272335827351,0.0010353503748774529
1772366205650651000,3.25165087890625,0.0009751399047672749,0.00021570827811956406,-0.002524763345718384
1772366205660721000,3.261720947265625,-0.0010309917852282524,-0.0009962059557437897,0.00009713694453239441
1772366205670791000,3.271791015625,0.0015088645741343498,0.0021553784608840942,-0.0008333716541528702
1772366205680861000,3.28186083984375,0.0005604727193713188,-0.000646903645247221,0.00002629496157169342
1772366205690931700,3.291931640625,0.000052341725677251816,-0.0016644974239170551,0.00035439617931842804
1772366205701002000,3.302001953125,-0.0005980785936117172,0.0006704330444335938,-0.000371699221432209
1772366205711072000,3.312072021484375,-0.0010572075843811035,0.0010137148201465607,0.0006131371483206749
1772366205721141800,3.322141845703125,-0.000029996037483215332,0.00024941377341747284,-0.002035914920270443
1772366205731212800,3.332212890625,-0.0006467844359576702,0.0008725933730602264,0.00019581429660320282
1772366205741282800,3.34228271484375,0.00023317662999033928,0.0009068828076124191,0.0006134314462542534
1772366205751352800,3.352352783203125,0.0009162770584225655,-0.0010931515134871006,0.0012147733941674232
1772366205761422800,3.3624228515625,0.0011937320232391357,0.0015577813610434532,-0.0007142322137951851
1772366205771494000,3.372493896484375,-0.002206058707088232,0.0025298353284597397,-0.0006146300584077835
1772366205781564000,3.38256396484375,0.0017553390935063362,-0.0004615797661244869,0.0011670254170894623
1772366205791634000,3.392634033203125,-0.0020745526999235153,-0.0017217877320945263,0.0009268084540963173
1772366205801704000,3.402703857421875,0.0011995388194918633,0.0003211195580661297,-0.0018136538565158844
1772366205811775000,3.41277490234375,0.0010591899044811726,-0.0022770604118704796,0.0009203478693962097
1772366205821844700,3.4228447265625,-0.0006970562972128391,-0.0015480974689126015,0.001642557792365551
1772366205831915000,3.4329150390625,-0.0008842763490974903,0.000996552873402834,-0.0010307226330041885
1772366205841985000,3.442985107421875,-0.0021420735865831375,0.00026656128466129303,0.0002772817388176918
1772366205852054800,3.4530546875,0.00003452785313129425,-0.0016975197941064835,-0.001289987936615944
1772366205862125800,3.463125732421875,-0.0012219403870403767,-0.00012472458183765411,-0.0007922165095806122
1772366205872195800,3.47319580078125,0.0011045974679291248,-0.000005947425961494446,-0.0008649202063679695
1772366205882265900,3.483265869140625,0.0021437397226691246,0.0009043556638062,0.0024760812520980835
1772366205892335900,3.4933359375,-0.0002094293013215065,0.0008098133839666843,0.000518125481903553
1772366205902407000,3.503406982421875,0.0007581091485917568,0.0013105790130794048,-0.0015406645834445953
1772366205912476700,3.5134765625,-0.00037479912862181664,0.0024994141422212124,0.002955550327897072
1772366205922547000,3.523546875,0.0011056680232286453,0.0006457255221903324,-0.0007308796048164368
1772366205932617000,3.533616943359375,-0.0009063500910997391,0.0017812973819673061,0.0006667468696832657
1772366205942688000,3.54368798828125,-0.00004592910408973694,-0.0016861567273736,-0.0008959677070379257
1772366205952757800,3.5537578125,0.0027021868154406548,-0.000380941666662693,0.0015741139650344849
1772366205962828000,3.563828125,-0.00015062373131513596,-0.0005308105610311031,0.0008806530386209488
1772366205972897800,3.573897705078125,-0.00022306153550744057,0.0018572458066046238,0.0003389660269021988
1772366205982968800,3.58396875,-0.0008188639767467976,-0.0014869060833007097,-0.000859476625919342
1772366205993038800,3.594038818359375,-0.0004782448522746563,-0.0016035523731261492,-0.0002573365345597267
1772366206003108900,3.60410888671875,-0.0008180937729775906,-0.001018269918859005,0.00028978846967220306
1772366206013179000,3.614178955078125,0.0026951488107442856,0.0017093396745622158,-0.00010169669985771179
1772366206023250000,3.62425,-0.00220609363168478,0.0017328094691038132,0.00048159435391426086
1772366206033320000,3.63431982421875,-0.0005011381581425667,-0.002213995438069105,-0.0006646299734711647
1772366206043389700,3.6443896484375,0.00014558527618646622,0.00206069927662611,0.0007642880082130432
1772366206053460000,3.6544599609375,0.00313258683308959,-0.0015505470801144838,-0.0006455900147557259
1772366206063531000,3.664531005859375,-0.0002522147260606289,-0.00029353052377700806,0.0007400419563055038
1772366206073600800,3.674600830078125,0.00020212028175592422,-0.004119161516427994,0.0017041070386767387
1772366206083670800,3.6846708984375,-0.0003811209462583065,-0.0031361780129373074,0.001668785698711872
1772366206093741000,3.694740966796875,-0.0007020323537290096,0.00018025655299425125,-0.000678524374961853
1772366206103812000,3.70481201171875,-0.0010793982073664665,-0.0000696396455168724,0.001150377094745636
1772366206113881900,3.7148818359375,-0.0019268160685896873,-0.0008291732519865036,-0.0003774790093302727
1772366206123951900,3.724951904296875,-0.0009888620115816593,-0.0002789665013551712,0.000788501463830471
1772366206134022000,3.73502197265625,-0.0013257521204650402,0.0013812482357025146,0.0003157900646328926
1772366206144092700,3.7450927734375,-0.0004095570184290409,-0.00020537199452519417,-0.0021502654999494553
1772366206154163000,3.755162841796875,0.00036888523027300835,0.00040901917964220047,0.003001885488629341
1772366206164233000,3.76523291015625,-0.0003012954257428646,-0.0009955563582479954,0.0018225954845547676
1772366206174302700,3.775302734375,0.00030111148953437805,-0.004226503428071737,-0.0009580114856362343
1772366206184373800,3.785373779296875,-0.0014692442491650581,0.0014849593862891197,-0.0007179928943514824
1772366206194444000,3.795444091796875,0.0006852531805634499,0.0034578293561935425,0.0008508749306201935
1772366206204513800,3.805513671875,0.000011998694390058517,-0.0007655145600438118,0.0007337741553783417
1772366206214583800,3.815583740234375,0.0007004258222877979,-0.0038590424228459597,-0.0005717072635889053
1772366206224654800,3.82565478515625,-0.00005938112735748291,-0.00025089364498853683,-0.0007104845717549324
1772366206234724900,3.835724853515625,-0.00025032972916960716,0.0006926646456122398,0.000957985408604145
1772366206244795000,3.845794921875,0.00225496431812644,0.000012388918548822403,-0.0017303749918937683
1772366206254865000,3.855864990234375,-0.001233510673046112,-0.00018788082525134087,-0.00042063184082508087
1772366206264936000,3.86593603515625,0.001070560421794653,-0.0030931502114981413,-0.00018066074699163437
1772366206275005700,3.876005615234375,0.0017834887839853764,-0.002823904622346163,0.0003253398463129997
1772366206285076000,3.886075927734375,-0.00010561570525169373,0.001330733299255371,0.0002686893567442894
1772366206295146000,3.89614599609375,-0.0002203979529440403,-0.0008517270907759666,-0.0006349207833409309
1772366206305216800,3.906216796875,0.0004177442751824856,-0.0011717858724296093,0.003513679839670658
1772366206315286800,3.916286865234375,0.0016521192155778408,-0.0008625928312540054,0.00048779696226119995
1772366206325357000,3.926357177734375,-0.0005064266733825207,-0.0017425420228391886,-0.0007962193340063095
1772366206335426800,3.9364267578125,0.00113754253834486,-0.00024478044360876083,-0.0005823671817779541
1772366206345497900,3.946497802734375,0.0000614863820374012,0.0024599642492830753,0.004845678806304932
1772366206355567900,3.95656787109375,0.0012521855533123016,0.0018730033189058304,0.0008056629449129105
1772366206365638000,3.966637939453125,-0.0009511299431324005,-0.0016266682650893927,-0.0015016915276646614
1772366206375708000,3.9767080078125,-0.00032448768615722656,0.00019333604723215103,0.0016653398051857948
1772366206385775900,3.98677587890625,0.0004019276238977909,-0.002460976829752326,0.0016645966097712517
1772366206395846000,3.996845947265625,0.00041764043271541595,-0.001253499649465084,0.0019311783835291862
1772366206405917000,4.0069169921875,0.0008353143930435181,-0.0010897815227508545,-0.0021628979593515396
1772366206415986700,4.016986572265625,0.000044621992856264114,0.0009693745523691177,-0.001990591175854206
1772366206426057000,4.027056884765625,-0.00010319938883185387,0.00017686188220977783,-0.0005574561655521393
1772366206436127000,4.037126953125,-0.0015386431477963924,-0.0023014754988253117,-0.0018418990075588226
1772366206446198000,4.047197998046875,-0.0004681679420173168,-0.0012376084923744202,-0.0014099152758717537
1772366206456267800,4.057267822265625,0.0026879445649683475,-0.0002583642490208149,0.0007278043776750565
1772366206466337800,4.067337890625,-0.00021143676713109016,0.001290852203965187,-0.0004937238991260529
1772366206476407800,4.07740771484375,0.001017079222947359,0.003175837453454733,-0.00007587391883134842
1772366206486478800,4.087478759765625,-0.0002406993880867958,0.000798818189650774,0.0007666870951652527
1772366206496548900,4.097548828125,0.00012069148942828178,0.0012592789717018604,0.00017253588885068893
1772366206506619000,4.107618896484375,0.0016460386104881763,0.0026711770333349705,-0.00019446760416030884
1772366206516689000,4.11768896484375,0.0013949028216302395,0.0016514523886144161,-0.004072562791407108
1772366206526760000,4.127760009765625,-0.0005096215754747391,-0.0016371274832636118,-0.0033292118459939957
1772366206536830000,4.137829833984375,-0.0009679514914751053,0.0011866223067045212,0.00020693335682153702
1772366206546899700,4.147899658203125,-0.0004965378902852535,-0.002261184388771653,-0.0009006597101688385
1772366206556970000,4.157969970703125,0.0004936251789331436,0.0005250144749879837,0.0007475707679986954
1772366206567041000,4.168041015625,-0.0009743538685142994,0.0003759409300982952,0.0015681851655244827
1772366206577110800,4.17811083984375,0.0007979799993336201,-0.0010275449603796005,0.0013950802385807037
1772366206587180800,4.188180908203125,0.0015135868452489376,-0.0005818656645715237,0.00027140602469444275
1772366206597250800,4.198250732421875,-0.0033655911684036255,-0.001968041295185685,0.0017934022471308708
1772366206607321900,4.20832177734375,-0.0018559293821454048,0.00026043644174933434,-0.0005547013133764267
1772366206617391900,4.218391845703125,-0.0027848398312926292,-0.0011190813966095448,-0.0005299337208271027
1772366206627462000,4.2284619140625,-0.0010466361418366432,0.0012560239993035793,0.0005214223638176918
1772366206637532000,4.238531982421875,0.0002833465114235878,0.0007689320482313633,0.00040983594954013824
1772366206647603700,4.248603759765625,-0.0022101132199168205,0.0018765185959637165,0.000805780291557312
1772366206657673500,4.258673583984375,-0.0013930555433034897,0.00278652086853981,-0.0005907807499170303
1772366206667743700,4.26874365234375,-0.0012249583378434181,0.00040681706741452217,0.0008295569568872452
1772366206677813800,4.278813720703125,-0.0010020509362220764,-0.000009435229003429413,-0.0015630265697836876
1772366206687884500,4.288884521484375,0.0006519155576825142,-0.00011217733845114708,-0.00034507736563682556
1772366206697954600,4.29895458984375,0.0007549799047410488,-0.00036144955083727837,0.00004880409687757492
1772366206708024800,4.30902490234375,-0.0009761913679540157,0.0005345409736037254,0.000385417602956295
1772366206718094600,4.319094482421875,-0.001808962319046259,0.001995018683373928,-0.0010369764640927315
1772366206728165600,4.32916552734375,-0.0017349664121866226,0.00044012581929564476,0.0010599615052342415
1772366206738235600,4.339235595703125,-0.00048487819731235504,0.0011165686883032322,0.00013504549860954285
1772366206748305700,4.3493056640625,-0.0004999907687306404,-0.002412792993709445,-0.0003684917464852333
1772366206758375700,4.359375732421875,-0.0005029207095503807,-0.00017280830070376396,0.0004541585221886635
1772366206768446700,4.36944677734375,-0.000016497448086738586,-0.0009963084012269974,0.0008757263422012329
1772366206778516700,4.379516845703125,-0.000425026286393404,-0.00017605489119887352,-0.0014010099694132805
1772366206788586500,4.38958642578125,0.0010635517537593842,0.0008996566757559776,-0.0011730333790183067
1772366206798656800,4.39965673828125,-0.0006187669932842255,0.0012876796536147594,-0.0004904652014374733
1772366206808727800,4.409727783203125,-0.0004009706899523735,0.0012128711678087711,-0.0021217791363596916
1772366206818797600,4.419797607421875,0.00011674826964735985,0.0008256477303802967,-0.0020919516682624817
1772366206828867600,4.42986767578125,-0.00017609214410185814,0.002714803908020258,-0.0013501457870006561
1772366206838937900,4.439937744140625,0.0005701254121959209,0.0017845621332526207,0.0029356786981225014
1772366206849008600,4.450008544921875,-0.00035949330776929855,-0.0022205926943570375,-0.0006256252527236938
1772366206859078700,4.46007861328125,-0.0009358013048768044,-0.0010586557909846306,-0.000849330797791481
1772366206869148700,4.470148681640625,0.003114965744316578,-0.0008962554857134819,-0.0023028189316391945
1772366206879218700,4.48021875,-0.000035021454095840454,-0.00007893145084381104,0.0006050858646631241
1772366206889289700,4.490289794921875,0.0029281643219292164,0.0009928951039910316,-0.002310429699718952
1772366206899359700,4.50035986328125,-0.0004676324315369129,0.0009779813699424267,0.001102411188185215
1772366206909429800,4.5104296875,-0.0002119205892086029,0.0007590181194245815,-0.0007528970018029213
1772366206919499500,4.52049951171875,0.0013524200767278671,0.0014109602198004723,0.0003240853548049927
1772366206929570600,4.530570556640625,0.0008950280025601387,-0.00038035307079553604,-0.00039063580334186554
1772366206939640800,4.540640869140625,0.00019195349887013435,-0.0005222996696829796,-0.000772000290453434
1772366206949710600,4.550710693359375,0.0016967393457889557,-0.0016482381615787745,-0.001525726169347763
1772366206959780600,4.560780517578125,0.000828815158456564,-0.000011991709470748901,0.0011693928390741348
1772366206969851600,4.5708515625,-0.0028470661491155624,0.0018089162185788155,0.000510883517563343
1772366206979921700,4.580921630859375,0.003660634160041809,-0.004801848437637091,0.0006807930767536163
1772366206989991700,4.59099169921875,0.0006481930613517761,-0.0032197204418480396,0.00013145804405212402
1772366207000061700,4.601061767578125,-0.0002958974801003933,0.0006189602427184582,-0.0003963802009820938
1772366207010132500,4.611132568359375,-0.0010813893750309944,0.00009203702211380005,0.001840483397245407
1772366207020202800,4.62120263671875,0.001491224393248558,0.0016435948200523853,0.00390470027923584
1772366207030272800,4.631272705078125,0.000246324110776186,0.0006132121197879314,-0.0008203964680433273
1772366207040343800,4.64134375,0.00026203691959381104,0.0005181371234357357,-0.00011785421520471573
1772366207050413600,4.65141357421875,-0.0021909200586378574,-0.0011380212381482124,0.000005641952157020569
1772366207060483600,4.661483642578125,0.0001390795223414898,-0.0005398751236498356,0.0004663681611418724
1772366207070553900,4.671553955078125,-0.0012489152140915394,-0.002221212489530444,0.0006017349660396576
1772366207080623600,4.68162353515625,-0.0033805095590651035,-0.002788732061162591,0.0011855000630021095
1772366207090694700,4.691694580078125,-0.000029259826987981796,-0.0009482940658926964,0.0005119871348142624
1772366207100764700,4.7017646484375,-0.0017826850526034832,0.001027771271765232,0.0007761726155877113
1772366207110834700,4.711834716796875,-0.0021658469922840595,-0.00023712357506155968,0.0004311632364988327
1772366207120905700,4.72190576171875,0.001970574725419283,0.0021147141233086586,0.0005379561334848404
1772366207130975700,4.731975830078125,0.0020167347975075245,0.00013991119340062141,-0.0012431414797902107
1772366207141045500,4.74204541015625,0.0009919502772390842,-0.00028113462030887604,-0.0015331599861383438
1772366207151115800,4.75211572265625,-0.0014884043484926224,-0.002494651125743985,-0.0029555698856711388
1772366207161186800,4.762186767578125,0.0015047220513224602,0.002716889139264822,0.0009395694360136986
1772366207171256800,4.7722568359375,0.0005097123794257641,-0.0014578928239643574,-0.001225464977324009
1772366207181326600,4.78232666015625,0.0000109025277197361,-0.0018824005965143442,-0.0020760782063007355
1772366207191396600,4.792396728515625,0.00035333726555109024,-0.0001861201599240303,0.001113932579755783
1772366207201467600,4.802467529296875,-0.00044268136844038963,0.001049586571753025,0.0006318995729088783
1772366207211537700,4.81253759765625,0.0007692258805036545,0.0023338422179222107,0.0002636536955833435
1772366207221607700,4.822607666015625,-0.00013252068310976028,0.0005804169923067093,0.00041465554386377335
1772366207231677700,4.832677734375,0.0012280787341296673,0.00032429536804556847,0.0008074129000306129
1772366207241748500,4.84274853515625,-0.0023171212524175644,-0.0015180795453488827,-0.0016877027228474617
1772366207251818800,4.85281884765625,0.0007462799549102783,0.006071615032851696,0.002482469193637371
1772366207261888800,4.862888671875,-0.0014393767341971397,-0.0032867328263819218,-0.0004773680120706558
1772366207271958500,4.87295849609375,-0.00024829059839248657,0.005750046577304602,0.0029949424788355827
1772366207282029600,4.883029541015625,-0.0006520259194076061,-0.001246343832463026,0.0006433716043829918
1772366207292099800,4.893099853515625,0.00015328358858823776,0.000078616663813591,-0.0004048440605401993
1772366207302169600,4.903169677734375,-0.00024192919954657555,0.0026323222555220127,0.0010649552568793297
1772366207312239600,4.913239501953125,-0.0020604454912245274,0.0008511976338922977,0.0005485126748681068
1772366207322310700,4.923310546875,0.002100211102515459,0.000997405033558607,0.0014673033729195595
1772366207332380700,4.933380615234375,0.0002896152436733246,-0.0007205652073025703,0.0007311990484595299
1772366207342450700,4.94345068359375,0.0010339687578380108,0.001586531288921833,-0.0031889742240309715
1772366207352520700,4.953520751953125,-0.0012802104465663433,-0.00019620778039097786,-0.00017984304577112198
1772366207362591700,4.963591796875,-0.0009925891645252705,0.002495715394616127,0.00015757977962493896
1772366207372661500,4.97366162109375,0.0005440311506390572,0.000723633449524641,-0.00041449349373579025
1772366207382731800,4.983731689453125,-0.0011199116706848145,0.002261875197291374,-0.0009194286540150642
1772366207392801800,4.9938017578125,-0.00024611828848719597,-0.0015016347169876099,-0.0006943866610527039
1772366207402872600,5.00387255859375,0.0025701746344566345,-0.0017594285309314728,-0.002115183509886265
1772366207412942600,5.013942626953125,0.0005464814603328705,-0.003077940084040165,-0.00009410548955202103
1772366207423012600,5.0240126953125,-0.00020639412105083466,-0.0004747002385556698,-0.00022886227816343307
1772366207433082600,5.03408251953125,0.0008674520067870617,0.0011169817298650742,0.00008395127952098846
1772366207443153700,5.044153564453125,0.00004213815554976463,-0.00017598317936062813,0.00030446145683526993
1772366207453223700,5.0542236328125,0.00030555902048945427,-0.0009554843418300152,0.0015904540196061134
1772366207463293400,5.06429345703125,0.0012043756432831287,0.00044693611562252045,0.0017859302461147308
1772366207473363700,5.07436376953125,-0.0006635719910264015,0.004346735775470734,0.001286052167415619
1772366207483434800,5.084434814453125,-0.00005503930151462555,-0.002457906724885106,-0.0015004128217697144
1772366207493504800,5.0945048828125,0.0025785122998058796,0.0027133962139487267,-0.0014682048931717873
1772366207503574500,5.104574462890625,0.0000072303228080272675,-0.0014113080687820911,0.000524638220667839
1772366207513644800,5.114644775390625,0.001487703062593937,0.000025241635739803314,-0.0006670458242297173
1772366207523715800,5.1247158203125,0.000019502360373735428,0.001434586476534605,-0.0007056621834635735
1772366207533785600,5.13478564453125,0.0017239777371287346,0.0020424043759703636,-0.0006562573835253716
1772366207543855600,5.144855712890625,0.000504782423377037,0.002772909589111805,-0.0022568171843886375
1772366207553925600,5.154925537109375,-0.0018660002388060093,0.0017968332394957542,-0.00022544525563716888
1772366207563996700,5.16499658203125,0.0005292468704283237,-0.002282863250002265,0.0001450004056096077
1772366207574066700,5.175066650390625,0.0003839475102722645,-0.0016831222455948591,0.0013610245659947395
1772366207584136700,5.18513671875,0.0006979340687394142,-0.00029721297323703766,-0.00007122289389371872
1772366207594206500,5.19520654296875,0.0008384911343455315,-0.0006746542640030384,0.001644606702029705
1772366207604277500,5.205277587890625,-0.0021277382038533688,0.001123512163758278,0.0008600391447544098
1772366207614347800,5.21534765625,-0.0009494363330304623,-0.0010317200794816017,0.001170935109257698
1772366207624417800,5.225417724609375,0.0009235651232302189,0.0006178421899676323,0.0004148641601204872
1772366207634487600,5.235487548828125,0.0028661033138632774,0.0005540852434933186,0.0014203013852238655
1772366207644558600,5.24555859375,0.0018796687945723534,-0.00040704989805817604,0.0010892702266573906
1772366207654627800,5.2556279296875,-0.0025836285203695297,-0.0009871991351246834,0.00017068162560462952
1772366207664697600,5.265697509765625,0.00045849988237023354,0.0026075351051986217,0.00038266927003860474
1772366207674767600,5.275767578125,-0.001916435081511736,0.0024103079922497272,-0.0008823629468679428
1772366207684838700,5.285838623046875,0.0011485973373055458,0.004769868683069944,-0.00019979476928710938
1772366207694909000,5.295908935546875,0.0016531157307326794,-0.0005444907583296299,0.0017759250476956367
1772366207704978700,5.305978759765625,0.0007247375324368477,0.003476882353425026,0.00030372943729162216
1772366207715049700,5.3160498046875,0.0016883499920368195,-0.0004239790141582489,-0.0002010483294725418
1772366207725119700,5.32611962890625,-0.0004701418802142143,-0.0011960291303694248,0.0004112124443054199
1772366207735189800,5.336189697265625,0.0007983120158314705,-0.0021997024305164814,0.0008508330211043358
1772366207745259800,5.346259765625,-0.00035563576966524124,-0.0005943491123616695,-0.0005084443837404251
1772366207755330800,5.356330810546875,-0.0019252020865678787,-0.0015085125342011452,-0.0019929353147745132
1772366207765400600,5.366400634765625,0.0036967312917113304,-0.0018547233194112778,-0.0023868167772889137
1772366207775470800,5.376470947265625,-0.00014928868040442467,-0.0014259784948080778,-0.0000030836090445518494
1772366207785540900,5.386540771484375,-0.0015804716385900974,-0.000968447420746088,0.0003934605047106743
1772366207795612000,5.39661181640625,-0.0013101897202432156,-0.0007668910548090935,-0.0008900947868824005
1772366207805681700,5.406681640625,0.00025068875402212143,-0.0036865142174065113,0.0008050072938203812
1772366207815751700,5.416751708984375,0.0015185126103460789,-0.00260077859275043,0.0003999881446361542
1772366207825821700,5.42682177734375,0.0012444732710719109,0.000144940335303545,-0.0001803142949938774
1772366207835892700,5.436892822265625,0.0009677684865891933,-0.0009952136315405369,0.0016370266675949097
1772366207845962800,5.446962646484375,-0.0014690239913761616,-0.0032415902242064476,-0.001061021350324154
1772366207856032800,5.45703271484375,-0.001753385178744793,0.0017226319760084152,-0.001182612031698227
1772366207866102800,5.467102783203125,0.0007206914015114307,0.0005194158293306828,0.00005043111741542816
1772366207876173800,5.477173828125,0.0003691837191581726,0.0001805368810892105,0.00108382198959589
1772366207886243800,5.487243896484375,-0.000735228881239891,-0.0022400100715458393,-0.0007162084802985191
1772366207896313600,5.497313720703125,0.0005993060767650604,0.0020670988596975803,0.001685907132923603
1772366207906384000,5.5073837890625,-0.0005418583750724792,0.001666027121245861,-0.0013402430340647697
1772366207916455000,5.517454833984375,-0.0013472703285515308,0.0012426222674548626,0.0006018457934260368
1772366207926524700,5.527524658203125,0.001334532629698515,-0.0006543472409248352,0.002101205289363861
1772366207936594700,5.5375947265625,0.0001360829919576645,0.00011578202247619629,-0.0010922197252511978
1772366207946664700,5.547664794921875,0.0019496958702802658,-0.0007710508070886135,-0.001333502121269703
1772366207956735700,5.55773583984375,-0.0005749594420194626,-0.002592225093394518,0.0004192143678665161
1772366207966805800,5.5678056640625,0.000897236168384552,-0.0008667628280818462,0.0028709210455417633
1772366207976875800,5.577875732421875,-0.001332092098891735,-0.004389037378132343,-0.0007372209802269936
1772366207986945800,5.58794580078125,-0.0010857488960027695,0.002223591785877943,-0.0030232779681682587
1772366207997016600,5.5980166015625,-0.000048603396862745285,-0.0018729642033576965,-0.0019096191972494125
1772366208007086800,5.6080869140625,-0.001913880929350853,-0.003557946067303419,-0.0015309182927012444
1772366208017156900,5.618156982421875,0.00039371149614453316,0.0024840529076755047,0.001460299827158451
1772366208027226600,5.6282265625,-0.00020310282707214355,0.0013354313559830189,-0.002283305861055851
1772366208037297700,5.638297607421875,0.0008833026513457298,0.0011400571092963219,0.001248970627784729
1772366208047368000,5.648367919921875,-0.002999852877110243,0.0014748163521289825,0.0008731987327337265
1772366208057437700,5.658437744140625,0.000044681597501039505,0.0010798070579767227,0.0006274990737438202
1772366208067508700,5.6685087890625,0.0008662668988108635,-0.000026736408472061157,0.0005254996940493584
1772366208077578800,5.678578857421875,0.0018727360293269157,0.000002184417098760605,-0.00008476432412862778
1772366208087648800,5.688648681640625,0.0035212328657507896,-0.0010159420780837536,0.0014694565907120705
1772366208097718800,5.69871875,-0.0013493658043444157,-0.0016425757203251123,0.0004152916371822357
1772366208107789800,5.708789794921875,0.0015934272669255733,-0.0028625698760151863,0.0018326258286833763
1772366208117859800,5.71885986328125,0.0006890310905873775,-0.0033246087841689587,0.0005275672301650047
1772366208127929600,5.7289296875,0.0015953048132359982,-0.0012412178330123425,0.0013669952750205994
1772366208138000000,5.738999755859375,-0.0009734826162457466,-0.0005773589946329594,0.001133473590016365
1772366208148071000,5.74907080078125,0.0017754323780536652,0.0017742118798196316,-0.0015406068414449692
1772366208158140700,5.759140625,-0.0005471715703606606,-0.001217585988342762,0.0015812385827302933
1772366208168210700,5.769210693359375,-0.0024276291951537132,-0.00005032261833548546,-0.002025480382144451
1772366208178280700,5.77928076171875,0.0009368155151605606,-0.0032392614521086216,0.0003758911043405533
1772366208188351700,5.789351806640625,0.0003788829781115055,-0.0026352563872933388,0.00005897507071495056
1772366208198421800,5.799421875,0.0016079922206699848,0.00162154296413064,-0.0022090058773756027
1772366208208491800,5.80949169921875,0.000529412180185318,0.0007323133759200573,-0.0001652957871556282
1772366208218561500,5.8195615234375,0.0017133387736976147,-0.00006109569221735,-0.0006597889587283134
1772366208228632600,5.829632568359375,-0.0005620662122964859,0.003220717888325453,0.00017591100186109543
1772366208238702800,5.839702880859375,0.0012875045649707317,-0.0014839295763522387,-0.00003586430102586746
1772366208248772900,5.84977294921875,-0.0011215913109481335,-0.00024422816932201385,0.0005324548110365868
1772366208258842600,5.859842529296875,0.003852547612041235,-0.0025131076108664274,-0.0004821568727493286
1772366208268913700,5.86991357421875,-0.001776043325662613,0.00010611116886138916,0.0003538094460964203
1772366208278984000,5.87998388671875,-0.0007262248545885086,0.000006775371730327606,0.0019172262400388718
1772366208289053700,5.8900537109375,-0.001264716498553753,-0.0021828755270689726,-0.00128229521214962
1772366208299123700,5.900123779296875,-0.001624790020287037,-0.001373974373564124,0.0016260826960206032
1772366208309194800,5.91019482421875,0.00130415428429842,-0.0020714562851935625,-0.0003675594925880432
1772366208319264800,5.9202646484375,0.0007225950248539448,0.00286121666431427,0.0007667206227779388
1772366208329334800,5.930334716796875,-0.0011237747967243195,-0.0008451049216091633,-0.0009922971948981285
1772366208339404800,5.94040478515625,0.0007634726352989674,-0.0008112667128443718,0.0013959268108010292
1772366208349475800,5.950475830078125,0.00019249087199568748,-0.0014943673741072416,-0.0005588335916399956
1772366208359545600,5.960545654296875,-0.0006463979370892048,-0.002518350025638938,0.0003594178706407547
1772366208369616000,5.970615966796875,0.0005613453686237335,-0.001456281403079629,-0.0011175712570548058
1772366208379685600,5.980685546875,-0.0009194775484502316,-0.0024218580219894648,-0.0003854772076010704
1772366208389756700,5.990756591796875,-0.00037246476858854294,0.0006935079582035542,0.0004595443606376648
1772366208399826700,6.00082666015625,0.0016333265230059624,0.0016242749989032745,-0.0005489932373166084
1772366208409897000,6.01089697265625,-0.00013448018580675125,-0.0003675036132335663,0.0007469002157449722
1772366208419967700,6.0209677734375,0.0003292257897555828,0.001861313357949257,-0.001986890099942684
1772366208430037800,6.031037841796875,-0.0023642955347895622,-0.002320382045581937,0.0004014326259493828
1772366208440107800,6.041107666015625,0.00003242911770939827,-0.00027596624568104744,-0.0000085439532995224
1772366208450177800,6.051177734375,-0.002046700567007065,-0.001827257452532649,0.000019152648746967316
1772366208460248800,6.061248779296875,0.0006403443403542042,-0.004172585904598236,0.0002553611993789673
1772366208470318800,6.07131884765625,0.0009356890805065632,-0.00019488856196403503,0.00047800224274396896
1772366208480388600,6.081388671875,-0.0030333842150866985,-0.002321825362741947,-0.00025500450283288956
1772366208490458600,6.091458740234375,0.00007026409730315208,0.001301671378314495,0.00023395195603370667
1772366208500529700,6.10152978515625,0.00033351266756653786,0.0007561580277979374,0.000036883167922496796
1772366208510600000,6.111599853515625,-0.000008969567716121674,-0.002512073377147317,-0.00026884768158197403
1772366208520669700,6.121669677734375,0.001375704538077116,-0.0000792420469224453,-0.0003886716440320015
1772366208530739700,6.13173974609375,-0.0010363203473389149,-0.0001221192069351673,-0.0012914827093482018
1772366208540810800,6.141810791015625,-0.0007952661253511906,-0.0007339254952967167,0.0014580832794308662
1772366208550880800,6.151880859375,0.00011819833889603615,-0.002320370636880398,0.0004452839493751526
1772366208560950800,6.16195068359375,-0.002252778969705105,0.000700721051543951,-0.00027122069150209427
1772366208571020800,6.172020751953125,-0.0017052330076694489,0.0004642321728169918,0.0013314690440893173
1772366208581091600,6.182091552734375,-0.0016772733069956303,0.0009101862087845802,0.0009068679064512253
1772366208591161600,6.19216162109375,0.00039200251922011375,-0.0003140685148537159,0.00081632100045681
1772366208601232000,6.20223193359375,0.0015225335955619812,-0.0012664403766393661,-0.0007238900288939476
1772366208611301600,6.212301513671875,-0.0007081301882863045,0.001139193307608366,0.00043618306517601013
1772366208621372700,6.22237255859375,-0.002039615996181965,0.0015224777162075043,-0.000021046027541160583
1772366208631442700,6.232442626953125,-0.00113680399954319,0.002458578906953335,-0.0015853876248002052
1772366208641513000,6.242512939453125,0.0006913691759109497,-0.002760122297331691,0.0008927108719944954
1772366208651583200,6.252583251953125,-0.0009115869179368019,0.00021063396707177162,-0.00032275542616844177
1772366208661654300,6.262654296875,-0.0006032520905137062,0.00007263477891683578,0.0004346584901213646
1772366208671724000,6.27272412109375,0.00015388429164886475,0.0014558807015419006,0.0014093751087784767
1772366208681794000,6.2827939453125,-0.0021122279576957226,-0.00173591123893857,0.00037378445267677307
1772366208691864300,6.2928642578125,-0.0013260631822049618,-0.0022373844403773546,0.0004150634631514549
1772366208701935000,6.30293505859375,-0.0004519573412835598,0.0044718715362250805,0.0005606133490800858
1772366208712005000,6.313005126953125,-0.0007414431311190128,0.0003277268260717392,0.00045968033373355865
1772366208722075100,6.3230751953125,0.0007753227837383747,0.0003879191353917122,-0.001153736375272274
1772366208732146200,6.333146240234375,-0.0021357787773013115,-0.0029072100296616554,0.0000734478235244751
1772366208742216200,6.34321630859375,-0.0012306449934840202,-0.001020135823637247,-0.0012999549508094788
1772366208752286200,6.3532861328125,0.0013233260251581669,-0.0010009612888097763,0.0004481440410017967
1772366208762356200,6.363356201171875,-0.0009236233308911324,0.00017455220222473145,-0.0005923546850681305
1772366208772427000,6.373427001953125,0.001112363301217556,0.00013673538342118263,0.0012066112831234932
1772366208782497300,6.383497314453125,0.0004783845506608486,0.0002728900872170925,0.0002533877268433571
1772366208792567300,6.3935673828125,-0.0011027338914573193,-0.0008078208193182945,-0.0009964331984519958
1772366208802637000,6.403636962890625,0.0006685522384941578,-0.0016036781016737223,-0.002926015295088291
1772366208812708000,6.4137080078125,-0.0003322632983326912,0.0014570928178727627,-0.00009800400584936142
1772366208822778000,6.423778076171875,0.001046225894242525,-0.0016475948505103588,0.0013290802016854286
1772366208832848100,6.43384814453125,-0.0001910785213112831,0.0006017112173140049,0.0003482373431324959
1772366208842918100,6.443918212890625,0.0018432792276144028,-0.0024129352532327175,0.00289745070040226
1772366208852989200,6.4539892578125,0.00020490214228630066,0.0018470571376383305,-0.0009779809042811394
1772366208863059200,6.46405908203125,0.0009283949621021748,-0.0007193395867943764,0.0018191849812865257
1772366208873129200,6.474129150390625,-0.00018161023035645485,0.002376851625740528,0.0038919225335121155
1772366208883199200,6.48419921875,0.0005346592515707016,-0.0006865053437650204,-0.001729605719447136
1772366208893270300,6.494270263671875,0.00012453226372599602,0.0038746902719140053,0.00021423585712909698
1772366208903340000,6.504340087890625,0.0005240980535745621,0.0012068906798958778,0.00026936642825603485
1772366208913410300,6.514410400390625,0.0015643290244042873,-0.00008527468889951706,0.0046851541846990585
1772366208923480300,6.524480224609375,-0.0021419264376163483,-0.003205963410437107,0.0013114428147673607
1772366208933551000,6.534551025390625,-0.000055872369557619095,-0.0026751954574137926,0.000005427747964859009
1772366208943621000,6.54462109375,-0.0009839963167905807,-0.0009925346821546555,0.0005135657265782356
1772366208953691100,6.554691162109375,0.00009378558024764061,-0.0010167695581912994,0.002919466234743595
1772366208963762200,6.56476220703125,-0.001058319117873907,0.0005146116018295288,0.0012148041278123856
1772366208973832200,6.574832275390625,0.0005491655319929123,0.000021127983927726746,0.0004787072539329529
1772366208983902200,6.584902099609375,0.0010531996376812458,0.0014315391890704632,-0.0009462051093578339
1772366208993972000,6.594971923828125,0.0007517295889556408,0.002065638080239296,0.0009760651737451553
1772366209004043000,6.60504296875,0.0017242170870304108,-0.0003805919550359249,0.001877971924841404
1772366209014113300,6.61511328125,-0.002087565138936043,-0.00012439582496881485,0.0001168232411146164
1772366209024183300,6.625183349609375,-0.00021843193098902702,0.00018449779599905014,-0.0016197459772229195
1772366209034253000,6.635253173828125,-0.0004288218915462494,0.0024881321005523205,0.0026580896228551865
1772366209044324000,6.645323974609375,0.0007207365706562996,-0.0008258051238954067,0.002460719086229801
1772366209054394400,6.655394287109375,-0.0008784914389252663,0.00033693108707666397,-0.0011486634612083435
1772366209064464100,6.665464111328125,-0.0011902274563908577,0.003815462812781334,0.0006211884319782257
1772366209074534100,6.6755341796875,0.0015541603788733482,0.00010567950084805489,-0.0011277096346020699
1772366209084605200,6.685605224609375,-0.00012056948617100716,-0.0004584500566124916,0.0013091471046209335
1772366209094675000,6.695675048828125,0.0021218121983110905,-0.0005487310700118542,-0.001974530518054962
1772366209104745200,6.7057451171875,-0.0012714257463812828,-0.000746122095733881,-0.0011283289641141891
1772366209114815200,6.715815185546875,0.0010159630328416824,0.0015279515646398067,0.0004647737368941307
1772366209124886300,6.72588623046875,-0.00038578687235713005,-0.0018555799033492804,-0.0002046758309006691
1772366209134956000,6.7359560546875,-0.0007461127825081348,-0.004046828486025333,-0.0003399644047021866
1772366209145026300,6.7460263671875,-0.0006039943546056747,0.00030791526660323143,-0.00128121767193079
1772366209155096000,6.756095947265625,-0.0009065298363566399,-0.0013688108883798122,0.0017934022471308708
1772366209165167000,6.7661669921875,-0.0009019882418215275,0.0004112096503376961,-0.0014812992885708809
1772366209175237000,6.776237060546875,0.0002077510580420494,-0.002336107427254319,-0.00038141384720802307
1772366209185307400,6.786307373046875,0.0017671603709459305,0.0012221261858940125,-0.0008116504177451134
1772366209195377200,6.796377197265625,-0.0015234416350722313,-0.0004218430258333683,0.00041260477155447006
1772366209205448200,6.8064482421875,-0.000011223368346691132,-0.000586255919188261,-0.0010226648300886154
1772366209215518200,6.816518310546875,-0.001177954487502575,-0.0018957320135086775,-0.001006951555609703
1772366209225588000,6.826587890625,-0.000894252210855484,0.0004957295022904873,-0.000046584755182266235
1772366209235659000,6.836658935546875,0.0033090151846408844,0.0018398268148303032,-0.0012692417949438095
1772366209245729300,6.846729248046875,0.0005335188470780849,0.0038648443296551704,-0.0033558914437890053
1772366209255799000,6.856799072265625,0.001270681619644165,0.0013750549405813217,0.000041768886148929596
1772366209265869000,6.866869140625,0.0018866825848817825,-0.0009445385076105595,0.0006747748702764511
1772366209275940000,6.876940185546875,0.0017276923172175884,0.0025079837068915367,0.0001615835353732109
1772366209286010400,6.88701025390625,-0.0002620215527713299,0.0007310491055250168,0.0016780681908130646
1772366209296080100,6.897080078125,-0.0008274102583527565,-0.0020397037733346224,-0.0009126542136073112
1772366209306150100,6.907150146484375,0.0024710786528885365,0.0004189717583358288,0.0002802042290568352
1772366209316221200,6.91722119140625,-0.0017910441383719444,0.0015071392990648746,0.0002690190449357033
1772366209326291200,6.927291259765625,0.0016437075100839138,0.000428859144449234,-0.0021267924457788467
1772366209336361200,6.937361328125,-0.0000021262094378471375,-0.002070784103125334,-0.00226607546210289
1772366209346431200,6.94743115234375,0.0008709286339581013,0.0008618016727268696,0.000380602665245533
1772366209356502000,6.957501953125,-0.001469723880290985,0.005514610558748245,0.001192334108054638
1772366209366572000,6.967572021484375,0.001789717935025692,0.001357031986117363,-0.0009018070995807648
1772366209376642300,6.977642333984375,-0.0008409526199102402,0.0014198827557265759,0.0008934298530220985
1772366209386712000,6.987712158203125,-0.001219678670167923,-0.0007485370151698589,-0.00011548865586519241
1772366209396783000,6.997783203125,-0.0008694734424352646,-0.0018747879657894373,-0.0015480024740099907
1772366209406853000,7.00785302734375,0.00019840477034449577,0.0036810170859098434,0.001577586866915226
1772366209416923400,7.01792333984375,0.0004697809927165508,0.0024865888990461826,-0.0012688003480434418
1772366209426993200,7.0279931640625,0.00029879016801714897,0.00175456702709198,-0.001208847388625145
1772366209437064200,7.038064208984375,-0.0009742006659507751,0.0012376471422612667,0.0013943929225206375
1772366209447134200,7.04813427734375,-0.0010312972590327263,0.0028397012501955032,0.00046814046800136566
1772366209457204200,7.058204345703125,0.001904305536299944,-0.0007600933313369751,0.0014463197439908981
1772366209467274200,7.068274169921875,-0.001964774914085865,0.0009070774540305138,0.0013178754597902298
1772366209477345300,7.07834521484375,-0.0008355947211384773,-0.0028573009185492992,-0.0010336963459849358
1772366209487415000,7.0884150390625,-0.00023321667686104774,0.00039268750697374344,-0.0014331033453345299
1772366209497485000,7.098485107421875,0.0004618684761226177,-0.001357275526970625,-0.001325511373579502
1772366209507556000,7.10855615234375,-0.0001398976892232895,-0.0013013638090342283,-0.00019217748194932938
1772366209517626400,7.11862646484375,0.0014215135015547276,0.002174593973904848,-0.0024007363244891167
1772366209527696100,7.128696044921875,0.000003359280526638031,-0.0032155965454876423,0.0015916777774691582
1772366209537766100,7.13876611328125,-0.0015599164180457592,0.001226822379976511,-0.0022802921012043953
1772366209547837200,7.148837158203125,-0.0009334268979728222,-0.0022183284163475037,0.0003673117607831955
1772366209557907200,7.1589072265625,-0.00013101613149046898,-0.0006238939240574837,0.0012996848672628403
1772366209567977200,7.168977294921875,0.00035040685907006264,0.0009102663025259972,-0.00044555775821208954
1772366209578047200,7.179047119140625,-0.001542567741125822,-0.0014993620570749044,0.0008950773626565933
1772366209588118000,7.189117919921875,-0.00003122957423329353,-0.0009224177338182926,0.0015383223071694374
1772366209598188300,7.199188232421875,0.000892354641109705,-0.001079011708498001,-0.00023720692843198776
1772366209608258300,7.20925830078125,0.00040761660784482956,0.00044272933155298233,0.00014605093747377396
1772366209618328000,7.219328125,-0.0003252853639423847,0.0010347496718168259,0.0006187614053487778
1772366209628399000,7.229399169921875,-0.00024052336812019348,0.000173068605363369,-0.0018492862582206726
1772366209638469000,7.23946923828125,0.0005576256662607193,0.0006433827802538872,0.001168075017631054
1772366209648539100,7.2495390625,-0.0004728231579065323,0.0005769054405391216,0.0016465233638882637
1772366209658609400,7.259609375,0.0001958971843123436,0.0027535073459148407,0.0002821860834956169
1772366209668680400,7.269680419921875,-0.00025178492069244385,0.0025182534009218216,-0.000626077875494957
1772366209678750500,7.27975048828125,-0.0024406369775533676,0.002947022672742605,-0.00005988962948322296
1772366209688820500,7.289820556640625,0.0005615362897515297,-0.00009468058124184608,-0.0006218878552317619
1772366209698891500,7.2998916015625,-0.0004587201401591301,0.0015993560664355755,0.0008348617702722549
1772366209708961500,7.30996142578125,0.0006692525930702686,0.00042348168790340424,-0.0021183695644140244
1772366209719031600,7.320031494140625,-0.0006466149352490902,0.0006903302855789661,-0.00035455822944641113
1772366209729101300,7.330101318359375,0.0012908857315778732,0.0013877223245799541,-0.00009706243872642517
1772366209739172400,7.34017236328125,-0.0003826441243290901,-0.0009468048810958862,0.0010273242369294167
1772366209749242600,7.35024267578125,-0.0007672058418393135,0.00014439178630709648,-0.0005338117480278015
1772366209759312400,7.3603125,-0.0004950305446982384,-0.0014348628465086222,0.0025352155789732933
1772366209769382400,7.37038232421875,0.00019533466547727585,-0.00037076137959957123,0.0007419167086482048
1772366209779453400,7.380453369140625,0.00021557463333010674,-0.0002402663230895996,-0.00009218510240316391
1772366209789523700,7.390523681640625,0.0008508511818945408,0.0027582449838519096,-0.0005792565643787384
1772366209799593500,7.400593505859375,0.0006572394631803036,0.0007757875137031078,-0.0010644849389791489
1772366209809663500,7.41066357421875,-0.000411180779337883,0.0016635307110846043,0.0018147574737668037
1772366209819734500,7.420734619140625,-0.000645538792014122,0.00025711534544825554,-0.0009618550539016724
1772366209829804500,7.430804443359375,0.0034777112305164337,0.0028811385855078697,0.0022471798583865166
1772366209839874600,7.44087451171875,-0.000048846472054719925,0.001504284329712391,-0.000010914169251918793
1772366209849944600,7.450944580078125,-0.0002505658194422722,0.0004938007332384586,-0.0017770901322364807
1772366209860015400,7.461015380859375,-0.004021602217108011,0.0015835659578442574,-0.001707315444946289
1772366209870085400,7.47108544921875,-0.0011723767966032028,0.0011483118869364262,0.00456884503364563
1772366209880155600,7.48115576171875,-0.001972390338778496,-0.0035974408965557814,-0.001049892045557499
1772366209890225400,7.491225341796875,0.00041580386459827423,-0.0025408153887838125,-0.002039502374827862
1772366209900296400,7.50129638671875,0.00015108566731214523,-0.00024330615997314453,-0.000940149649977684
1772366209910366500,7.511366455078125,-0.0005234237760305405,-0.002212714171037078,0.0013381615281105042
1772366209920436700,7.521436767578125,0.002565577160567045,0.001441142987459898,-0.00014628469944000244
1772366209930507500,7.531507568359375,0.00031878333538770676,-0.0014851430896669626,-0.0021831421181559563
1772366209940577500,7.54157763671875,0.0016668755561113358,-0.004457497037947178,-0.00006379839032888412
1772366209950647600,7.5516474609375,-0.00021847616881132126,-0.0006680074147880077,-0.0004332084208726883
1772366209960717300,7.56171728515625,0.0001956452615559101,-0.000890115275979042,0.0015292754396796227
1772366209970788400,7.571788330078125,0.0013416041620075703,-0.0012523671612143517,-0.00017612893134355545
1772366209980858600,7.581858642578125,0.000593255739659071,-0.0005207965150475502,-0.00019343942403793335
1772366209990928400,7.591928466796875,-0.00009934231638908386,0.0008497065864503384,-0.00013649463653564453
1772366210000998400,7.601998291015625,0.00045752478763461113,0.00279914028942585,0.00007282942533493042
1772366210011069400,7.6120693359375,-0.000012652482837438583,0.0006641675718128681,0.00017010793089866638
1772366210021139700,7.6221396484375,-0.0011833780445158482,-0.0011582337319850922,0.0003304295241832733
1772366210031209500,7.63220947265625,0.0008649090304970741,-0.002460781019181013,0.002941836602985859
1772366210041279500,7.642279541015625,0.001669183373451233,-0.003546019084751606,-0.0013008452951908112
1772366210051350500,7.6523505859375,0.0006922027096152306,-0.0006788214668631554,-0.0036926399916410446
1772366210061420500,7.662420654296875,0.0009665084071457386,0.002103915438055992,0.00016601476818323135
1772366210071490600,7.672490478515625,-0.0003937934525310993,-0.0022187046706676483,-0.0009331591427326202
1772366210081560600,7.682560546875,0.0008131512440741062,0.00000476837158203125,0.0005265194922685623
1772366210091631400,7.69263134765625,-0.0005077463574707508,0.00045322952792048454,0.001811058260500431
1772366210101701400,7.702701416015625,0.0003641722723841667,-0.0014562569558620453,-0.0001325160264968872
1772366210111771600,7.712771728515625,0.0009200307540595531,0.00009707175195217133,0.0012947972863912582
1772366210121842700,7.7228427734375,0.0008121724240481853,0.0005969470366835594,-0.00048392731696367264
1772366210131912400,7.732912353515625,-0.0012545902281999588,0.0013557574711740017,-0.0020454097539186478
1772366210141982500,7.742982421875,-0.000937141478061676,0.0022071702405810356,0.0006254743784666061
1772366210152052500,7.753052490234375,-0.0005701258778572083,-0.0005481056869029999,0.0011151470243930817
1772366210162123500,7.76312353515625,-0.0015224721282720566,-0.003198749851435423,-0.00029206741601228714
1772366210172193500,7.773193603515625,0.0023192306980490685,0.0008709407411515713,0.0026787202805280685
1772366210182263600,7.783263671875,-0.0005732285790145397,0.004820941481739283,0.0019205184653401375
1772366210192333600,7.79333349609375,0.0016834521666169167,0.0007940102368593216,0.0024736281484365463
1772366210202404600,7.803404541015625,-0.001361872535198927,0.00046990346163511276,-0.0012212414294481277
1772366210212474600,7.813474609375,-0.0020501064136624336,0.004009265918284655,0.0006972271949052811
1772366210222544400,7.82354443359375,0.00006098160520195961,0.0017429161816835403,0.001267942599952221
1772366210232614400,7.833614501953125,-0.0012437314726412296,-0.0016069579869508743,0.0007685534656047821
1772366210242685400,7.843685546875,0.0027294382452964783,-0.0006114686839282513,-0.0019609201699495316
1772366210252755500,7.85375537109375,0.00029771914705634117,-0.004021016415208578,-0.0004645800217986107
1772366210262825500,7.863825439453125,0.0007419344037771225,0.0038776532746851444,0.0015423782169818878
1772366210272895500,7.8738955078125,-0.0012527275830507278,-0.00871269777417183,-0.0007932232692837715
1772366210282966500,7.883966552734375,0.0008786004036664963,0.0015226295217871666,0.00006697792559862137
1772366210293036500,7.89403662109375,0.0019496455788612366,0.0010182508267462254,0.002153671346604824
1772366210303106600,7.9041064453125,0.0004675965756177902,0.000287745613604784,0.00006069336086511612
1772366210313177600,7.914177490234375,-0.0009490326046943665,-0.0008088955655694008,-0.00011529307812452316
1772366210323247400,7.924247314453125,-0.0017660902813076973,-0.0034004177432507277,0.0020051151514053345
1772366210333317600,7.934317626953125,0.0012665973044931889,-0.003434860846027732,0.0025380952283740044
1772366210343387600,7.9443876953125,0.0010309075005352497,-0.0021344393026083708,-0.0005762055516242981
1772366210353458400,7.95445849609375,0.0018395627848803997,-0.0018524662591516972,-0.0010159919038414955
1772366210363528400,7.964528564453125,-0.0018696882762014866,0.0012458553537726402,0.0017193416133522987
1772366210373598500,7.974598388671875,-0.0006074784323573112,0.0056992811150848866,0.0017669405788183212
1772366210383669500,7.98466943359375,0.0013584666885435581,-0.002261705929413438,-0.000870121642947197
1772366210393739500,7.994739501953125,0.0006835963577032089,-0.002133942674845457,0.0010335836559534073
1772366210403809500,8.0048095703125,0.00021354807540774345,-0.0002596098929643631,-0.00009373202919960022
1772366210413879300,8.01487939453125,0.0005296515300869942,0.0012437696568667889,0.0014863722026348114
1772366210423950300,8.024950439453125,-0.0003547845408320427,0.0017825267277657986,-0.0003810366615653038
1772366210434020600,8.0350205078125,-0.00140428077429533,-0.0007303552702069283,-0.0026445453986525536
1772366210444090600,8.045090576171875,-0.00035526230931282043,-0.0013814980629831553,0.0021888259798288345
1772366210454160400,8.055160400390625,-0.00010724645107984543,-0.002100894460454583,-0.002286718226969242
1772366210464231400,8.0652314453125,-0.0003349469043314457,-0.002550169825553894,-0.000764189288020134
1772366210474301700,8.0753017578125,0.0019666380248963833,0.0005722721107304096,0.0013392530381679535
1772366210484371500,8.085371337890624,-0.00006588641554117203,-0.0006730216555297375,-0.0010967403650283813
1772366210494442500,8.0954423828125,0.0015856614336371422,-0.0014038286171853542,0.00014042388647794724
1772366210504512500,8.105512451171874,-0.002046357374638319,0.0012076669372618198,-0.0015157964080572128
1772366210514582300,8.115582275390626,0.00021746288985013962,-0.0011902772821485996,-0.0022087739780545235
1772366210524652500,8.125652587890626,-0.0020973565988242626,-0.00016389507800340652,-0.0010356521233916283
1772366210534723600,8.1357236328125,0.000034650787711143494,0.00042696716263890266,0.00036430638283491135
1772366210544793600,8.145793701171876,0.001184337306767702,0.0016307160258293152,-0.0022959252819418907
1772366210554863400,8.15586328125,-0.0014499281533062458,0.005642940755933523,-0.00025471393018960953
1772366210564934400,8.165934326171875,0.003037231508642435,0.001208245288580656,0.0011407826095819473
1772366210575004700,8.176004638671875,0.0010291826911270618,-0.003968607634305954,-0.0023002149537205696
1772366210585074400,8.186074462890625,0.0029898015782237053,0.0011116387322545052,0.00028278492391109467
1772366210595144400,8.19614453125,-0.0020609586499631405,0.002724227961152792,0.0009873230010271072
1772366210605215500,8.206215576171875,0.00028049247339367867,-0.003019144758582115,0.0014413921162486076
1772366210615285500,8.216285400390625,-0.0005805967375636101,0.0018257061019539833,-0.0022624125704169273
1772366210625355500,8.22635546875,-0.00028685014694929123,0.0007476583123207092,-0.0003537256270647049
1772366210635426600,8.236426513671875,0.0017655612900853157,-0.000930294394493103,0.00014553777873516083
1772366210645496600,8.24649658203125,-0.001785497646778822,-0.0017412269953638315,-0.0012587467208504677
1772366210655566000,8.256566162109374,-0.0005103894509375095,0.001045974437147379,-0.0003145504742860794
1772366210665635800,8.2666357421875,-0.001982585061341524,-0.0004848106764256954,0.0018572574481368065
1772366210675707000,8.276706787109376,0.0024441867135465145,0.004834702704101801,0.00046982429921627045
1772366210685777000,8.28677685546875,0.0013914392329752445,0.00009161327034235,-0.0006052935495972633
1772366210695847000,8.296846923828125,0.0013224342837929726,-0.0013353219255805016,-0.0013746367767453194
1772366210705918000,8.30691796875,0.0014454727061092854,0.000693208072334528,0.0005146097391843796
1772366210715988000,8.316988037109375,0.0008184248581528664,-0.0007203049026429653,-0.0004599587991833687
1772366210726057700,8.3270576171875,-0.00018159253522753716,-0.0005248291417956352,-0.000009618699550628662
1772366210736127700,8.337127685546875,0.0008390573784708977,-0.0018148808740079403,0.00006778724491596222
1772366210746198800,8.34719873046875,-0.00004724273458123207,-0.00043589621782302856,0.0007809819653630257
1772366210756269000,8.35726904296875,0.00009139813482761383,0.0000615227036178112,-0.0037279799580574036
1772366210766338800,8.3673388671875,0.000012035947293043137,-0.0010969522409141064,-0.00016680080443620682
1772366210776409900,8.377409912109375,-0.0010081264190375805,-0.004065725486725569,0.0014770971611142159
1772366210786479900,8.38747998046875,-0.002161807846277952,0.00004539592191576958,0.0008176984265446663
1772366210796550000,8.3975498046875,-0.001597757451236248,-0.0030955106485635042,0.000155608169734478
1772366210806621000,8.407620849609375,0.0005130642093718052,-0.0021442295983433723,0.00045841000974178314
1772366210816691000,8.41769091796875,-0.00009653158485889435,-0.0019021655898541212,0.0012084636837244034
1772366210826760700,8.4277607421875,-0.000738353468477726,0.001138898078352213,-0.0007223282009363174
1772366210836831000,8.4378310546875,0.00022653117775917053,-0.0013560722582042217,-0.00003679096698760986
1772366210846902000,8.447902099609376,0.0005527683533728123,0.000583241693675518,-0.0007305452600121498
1772366210856972000,8.457971923828126,0.0003242315724492073,-0.0007424419745802879,0.000117461197078228
1772366210867041800,8.468041748046875,0.001946096308529377,0.0003047129139304161,0.0005872426554560661
1772366210877112800,8.47811279296875,-0.0005910671316087246,0.00008844677358865738,-0.00197664275765419
1772366210887182800,8.488182861328125,-0.000027276109904050827,-0.0014993299264460802,-0.0008578486740589142
1772366210897252900,8.4982529296875,-0.0000232611782848835,-0.001479164231568575,0.002667405642569065
1772366210907324000,8.508323974609375,0.0010465304367244244,-0.0018267068080604076,0.0018285103142261505
1772366210917394000,8.518393798828125,0.001380035188049078,-0.0021371201146394014,-0.0017785197123885155
1772366210927463700,8.528463623046875,0.00008946750313043594,0.0018978351727128029,-0.0005015339702367783
1772366210937534000,8.538533935546875,0.0006327345035970211,-0.00298908818513155,-0.0030995523557066917
1772366210947605000,8.54860498046875,0.00026042433455586433,-0.0009405845776200294,0.0001511024311184883
1772366210957675000,8.558675048828125,-0.0004547000862658024,0.00020216824486851692,0.0018916437402367592
1772366210967744800,8.568744873046874,0.001573297195136547,-0.00193022470921278,0.00030173640698194504
1772366210977815800,8.57881591796875,0.0009950683452188969,-0.0025452368427067995,-0.000439508818089962
1772366210987885800,8.5888857421875,0.0006912015378475189,0.0018953178077936172,0.0006023198366165161
1772366210997955800,8.598955810546874,0.0008223513141274452,-0.0009320704266428947,-0.00030513200908899307
1772366211008027000,8.60902685546875,0.0012226244434714317,-0.0006764070130884647,-0.0016662739217281342
1772366211018097000,8.619096923828126,0.0008321474306285381,-0.00011344021186232567,0.0028718169778585434
1772366211028166700,8.629166748046876,-0.0018022512085735798,0.001593646127730608,-0.0008555436506867409
1772366211038237700,8.63923779296875,-0.0004552006721496582,0.0007323934696614742,0.0016026338562369347
1772366211048308000,8.649307861328126,0.0008121975697577,-0.002071116352453828,0.002555246464908123
1772366211058378000,8.6593779296875,0.0005918145179748535,-0.0012277397327125072,0.0002779504284262657
1772366211068447700,8.66944775390625,0.00003920821473002434,-0.00038857758045196533,-0.0002751881256699562
1772366211078518800,8.679518798828125,-0.002850649878382683,-0.0021931102965027094,-0.00017604045569896698
1772366211088589000,8.689589111328125,0.0019209361635148525,-0.0034519867040216923,0.0011866986751556396
1772366211098658800,8.699658935546875,-0.001684888731688261,-0.00038843415677547455,0.001346738077700138
1772366211108729900,8.709729736328125,0.0003162110224366188,-0.0023069754242897034,-0.0020360099151730537
1772366211118800000,8.7197998046875,-0.0019018747843801975,-0.002028798218816519,-0.00022756587713956833
1772366211128870000,8.729869873046875,-0.0005931970663368702,-0.00008282670751214027,-0.0008001448586583138
1772366211138941000,8.73994091796875,-0.0011425428092479706,0.0004460010677576065,-0.002525757998228073
1772366211149011000,8.750010986328125,-0.000285537913441658,0.0005911430343985558,0.00043594278395175934
1772366211159081000,8.7600810546875,0.00007182732224464417,0.0016750250943005085,0.0006921598687767982
1772366211169151700,8.77015185546875,-0.00043337419629096985,-0.0006595021113753319,0.0010386370122432709
1772366211179221800,8.7802216796875,0.0021844864822924137,0.0009014136157929897,-0.0003124391660094261
1772366211189292000,8.7902919921875,-0.0009372704662382603,-0.0017617472913116217,0.00009262748062610626
1772366211199361800,8.80036181640625,0.002252950333058834,-0.0029222345910966396,-0.0008781552314758301
1772366211209432800,8.810432861328126,0.0010939422063529491,-0.006436808034777641,0.0010499730706214905
1772366211219502800,8.8205029296875,-0.0005992786027491093,-0.0006420183926820755,0.0003978116437792778
1772366211229572900,8.83057275390625,0.0025459150783717632,-0.0016734607052057981,0.000819922424852848
1772366211239644000,8.840643798828125,-0.001718337181955576,-0.00011835526674985886,0.0010853242129087448
1772366211249714000,8.8507138671875,-0.0008421572856605053,0.0016095032915472984,-0.002348821610212326
1772366211259784000,8.860783935546875,0.0009795334190130234,0.002261693589389324,0.0012735892087221146
1772366211269854700,8.870854736328125,-0.0003722868859767914,-0.0005769697017967701,-0.0008036764338612556
1772366211279925000,8.880925048828125,0.0026160264387726784,0.002109954599291086,-0.0004010545089840889
1772366211289995000,8.8909951171875,0.0014205332845449448,-0.0006421562284231186,0.0016610315069556236
1772366211300066000,8.901066162109375,0.00019435444846749306,-0.002136011142283678,-0.000812930054962635
1772366211310135800,8.9111357421875,-0.0002951347269117832,-0.000607623253017664,-0.0004691164940595627
1772366211320205800,8.921205810546875,0.0005005155690014362,-0.0004903157241642475,0.0023080334067344666
1772366211330275800,8.93127587890625,-0.00045023346319794655,-0.0004748692736029625,0.00028669461607933044
1772366211340347000,8.941346923828124,-0.0009348555468022823,0.0008224812336266041,-0.000007027760148048401
1772366211350417000,8.9514169921875,0.001641752663999796,0.00014923419803380966,-0.00032847095280885696
1772366211360487000,8.96148681640625,-0.0012992187403142452,-0.00046973535791039467,0.0003206497058272362
1772366211370557700,8.9715576171875,-0.0006850934587419033,0.0017382912337779999,0.0004500793293118477
1772366211380628000,8.9816279296875,-0.00036353571340441704,0.00022139539942145348,-0.0012193070724606514
1772366211390698000,8.991697998046876,0.00014353031292557716,-0.0017245763447135687,-0.0014291638508439064
1772366211400769000,9.00176904296875,-0.0020999033004045486,-0.0001788390800356865,-0.0015584612265229225
1772366211410838800,9.0118388671875,-0.00005139969289302826,-0.00009548244997859001,-0.0002670949324965477
1772366211420908800,9.02190869140625,-0.0009420844726264477,0.0010329359211027622,-0.0022949371486902237
1772366211430979800,9.031979736328125,0.0006203921511769295,-0.004399646073579788,-0.0031314361840486526
1772366211441049900,9.0420498046875,-0.0004497687332332134,0.003762858919799328,0.0001495731994509697
1772366211451119900,9.052119873046875,-0.0013078399933874607,-0.00010911142453551292,-0.000517548993229866
1772366211461191000,9.06219091796875,-0.00018273433670401573,0.0023715151473879814,0.00002045370638370514
1772366211471260700,9.0722607421875,0.0004644137807190418,0.0013270233757793903,0.0011549601331353188
1772366211481331000,9.0823310546875,0.001295892521739006,-0.0005393074825406075,0.0007255151867866516
1772366211491402000,9.092402099609375,-0.0006820373237133026,0.0024202638305723667,-0.0021887822076678276
1772366211501472000,9.102471923828125,-0.00014730030670762062,-0.0027016280218958855,0.00006820913404226303
1772366211511541800,9.112541748046874,0.0021869605407118797,-0.001197740901261568,-0.001581353135406971
1772366211521612000,9.122612060546874,-0.002349928952753544,0.0007689218036830425,0.0005796188488602638
1772366211531683000,9.13268310546875,0.0005523837171494961,0.000660531222820282,-0.0006148088723421097
1772366211541752800,9.1427529296875,-0.000002950429916381836,-0.0008487598970532417,0.00016751792281866074
1772366211551822800,9.15282275390625,0.00008280342444777489,-0.0031995321623981,-0.00018055643886327744
1772366211561894000,9.162893798828126,-0.0022828234359622,0.0007679248228669167,0.0005879905074834824
1772366211571964000,9.1729638671875,0.0015111160464584827,-0.0020108171738684177,-0.0004117600619792938
1772366211582034000,9.183033935546876,-0.003275484312325716,0.0010491982102394104,0.0011207768693566322
1772366211592105000,9.19310498046875,-0.00026904186233878136,-0.001206765417009592,-0.0004435637965798378
1772366211602175000,9.203175048828125,0.000443111639469862,-0.0004661106504499912,0.0002746535465121269
1772366211612244700,9.21324462890625,-0.0004149582237005234,-0.00005012471228837967,-0.0015677213668823242
1772366211622315800,9.223315673828125,-0.0000021490268409252167,-0.0017163066659122705,0.0026761796325445175
1772366211632386000,9.233385986328125,0.001242346130311489,-0.0006997780874371529,-0.0004306640475988388
1772366211642455800,9.243455810546875,0.001793190836906433,0.0033664731308817863,0.002906245179474354
1772366211652527600,9.253527587890625,-0.0006539877504110336,-0.0006919177249073982,0.0007762489840388298
1772366211662597400,9.263597412109375,0.0017568874172866344,-0.000481276772916317,-0.00046581588685512543
1772366211672667400,9.27366748046875,-0.001627724152058363,-0.0016322950832545757,-0.0005928492173552513
1772366211682738400,9.283738525390625,-0.000056679826229810715,0.002369118854403496,-0.0001238994300365448
1772366211692808400,9.293808349609375,-0.001660702284425497,-0.00214041187427938,-0.0008027395233511925
1772366211702878500,9.30387841796875,0.0018232264555990696,-0.0007712659426033497,0.001154695637524128
1772366211712949500,9.313949462890625,-0.0003477823920547962,-0.001343312906101346,0.0009176740422844887
1772366211723019500,9.32401953125,-0.0020014741457998753,-0.004146200139075518,0.0008553983643651009
1772366211733089500,9.334089599609374,0.0018201624043285847,-0.0019336456898599863,0.0017491551116108894
1772366211743160600,9.34416064453125,-0.00017566652968525887,-0.002069043694064021,-0.00017898157238960266
1772366211753230600,9.354230712890624,0.0017705713398754597,-0.0007611652836203575,0.0003264863044023514
1772366211763300400,9.36430029296875,0.001439316663891077,0.0001561325043439865,0.001692064106464386
1772366211773371400,9.374371337890626,-0.0003431369550526142,0.003318636678159237,-0.0005242181941866875
1772366211783441700,9.384441650390626,0.00009680213406682014,0.003955488558858633,-0.0022441595792770386
1772366211793511400,9.394511474609375,-0.00011332100257277489,0.001100047491490841,-0.0013823602348566055
1772366211803581400,9.40458154296875,0.000645248219370842,0.0004233065992593765,0.0016075065359473228
1772366211813652500,9.414652587890625,-0.0006205523386597633,-0.00004647532477974892,-0.00027454923838377
1772366211823722500,9.424722412109375,0.0002569742500782013,0.00004778429865837097,-0.0014636600390076637
1772366211833792500,9.43479248046875,0.0015763044357299805,0.000042191240936517715,0.00028257444500923157
1772366211843863600,9.444863525390625,0.00037472043186426163,-0.000999304000288248,0.000040615908801555634
1772366211853933600,9.45493359375,-0.00044260406866669655,-0.0007510972209274769,-0.0020702052861452103
1772366211864003300,9.46500341796875,0.0010769348591566086,-0.0005312897264957428,0.0012727407738566399
1772366211874074400,9.475074462890625,-0.001733499113470316,-0.0003651087172329426,0.0017395922914147377
1772366211884144600,9.48514453125,0.000048245303332805634,0.0024156845174729824,-0.0008434252813458443
1772366211894214400,9.49521435546875,-0.00013498030602931976,-0.00002057524397969246,-0.0009592724964022636
1772366211904285400,9.505285400390624,-0.00090429512783885,-0.0009577008895576,0.0021851062774658203
1772366211914355500,9.51535546875,0.0005505895242094994,0.00022634072229266167,-0.0012583611533045769
1772366211924425700,9.52542578125,0.00004008179530501366,-0.0008787456899881363,0.0014410195872187614
1772366211934496500,9.53549658203125,-0.0002009342424571514,0.000620880164206028,0.0009286273270845413
1772366211944566500,9.54556640625,0.0024549970403313637,-0.000004760921001434326,0.0007196692749857903
1772366211954636500,9.555636474609376,0.0006048991344869137,-0.0017201029695570469,-0.0007277587428689003
1772366211964707600,9.56570751953125,-0.0011572763323783875,-0.0005685989744961262,0.00014666467905044556
1772366211974777300,9.57577734375,-0.0011207908391952515,0.0002684323117136955,0.0018287170678377151
1772366211984847600,9.58584765625,-0.00012746639549732208,-0.0014581726863980293,0.0009771492332220078
1772366211994918700,9.595918701171875,0.0006443178281188011,0.002149078994989395,-0.002283891662955284
1772366212004988400,9.605988525390625,0.0015957714058458805,0.0006839213892817497,0.0008518500253558159
1772366212015058400,9.616058349609375,0.001748903188854456,0.0023388094268739223,0.0017605200409889221
1772366212025129500,9.62612939453125,0.0009314096532762051,0.00014270609244704247,0.0004538819193840027
1772366212035199500,9.636199462890625,-0.0017634429968893528,0.0012668264098465443,-0.0007093865424394608
1772366212045269500,9.64626953125,-0.00015409523621201515,-0.0034352338407188654,-0.0025524524971842766
1772366212055340500,9.656340576171875,0.0006038402207195759,0.0017637894488871098,0.0010835612192749977
1772366212065410600,9.66641064453125,-0.00006760051473975182,0.0030732322484254837,-0.00012519117444753647
1772366212075480600,9.67648046875,-0.0005501657724380493,-0.002925271401181817,-0.0007547624409198761
1772366212085551600,9.686551513671875,-0.0003899461589753628,-0.0005750982090830803,0.001385694369673729
1772366212095621600,9.69662158203125,-0.0020794556476175785,-0.002100290497764945,-0.0005680005997419357
1772366212105691400,9.70669140625,-0.0008852225728332996,-0.001540160970762372,-0.00012224167585372925
1772366212115762400,9.716762451171874,-0.0007211719639599323,0.0008470965549349785,0.0012615369632840157
1772366212125832400,9.72683251953125,0.0007273908704519272,0.0016907751560211182,0.00018224120140075684
1772366212135902500,9.73690234375,-0.0021837111562490463,0.00017889868468046188,-0.00039273593574762344
1772366212145973500,9.746973388671876,0.0007007205858826637,0.0014622071757912636,0.0017244135960936546
1772366212156043500,9.75704345703125,-0.002291873563081026,-0.0007468853145837784,-0.0007256949320435524
1772366212166113500,9.767113525390625,0.00045752059668302536,0.0014529298059642315,-0.00159373227506876
1772366212176183600,9.77718359375,0.003189390990883112,0.00006888480857014656,0.0017834221944212914
1772366212186254600,9.787254638671875,-0.0005498486571013927,0.00008830102160573006,-0.00019972492009401321
1772366212196324600,9.79732470703125,0.0018107770010828972,-0.001249138731509447,0.001329728402197361
1772366212206394400,9.807394287109375,-0.0002942606806755066,0.0026649264618754387,0.0008454415947198868
1772366212216465400,9.81746533203125,0.001382465474307537,-0.0001777317374944687,0.000509616918861866
1772366212226535700,9.82753564453125,-0.0010509691201150417,-0.0010971389710903168,-0.0009582377970218658
1772366212236605400,9.83760546875,0.002289966680109501,-0.0035661556757986546,0.0024492768570780754
1772366212246676500,9.847676513671875,-0.000935024581849575,0.001702948473393917,0.0008460609242320061
1772366212256746500,9.85774658203125,-0.0005339523777365685,0.0008691125549376011,0.0014223689213395119
1772366212266816500,9.86781640625,-0.0005586673505604267,-0.0016809110529720783,-0.0015343865379691124
1772366212276887300,9.87788720703125,0.0006916867569088936,-0.0013813055120408535,0.0002454034984111786
1772366212286957600,9.88795751953125,0.0015514018014073372,-0.0021663159132003784,0.0008586309850215912
1772366212297027600,9.898027587890626,0.00003366637974977493,-0.00016175443306565285,-0.0008710920810699463
1772366212307098400,9.908098388671876,-0.000269218347966671,-0.0003516930155456066,0.0014540879055857658
1772366212317168400,9.91816845703125,-0.0006175595335662365,0.0014515332877635956,0.0009044110774993896
1772366212327238700,9.92823876953125,0.0007176985964179039,-0.0003822827711701393,0.00023801997303962708
1772366212337309700,9.938309814453126,-0.0021609128452837467,0.0018132273107767105,0.003617038019001484
1772366212347379500,9.94837939453125,0.0001434125006198883,-0.0013919433113187551,-0.0008469633758068085
1772366212357449500,9.958449462890625,0.0017522280104458332,0.006368241272866726,-0.0012083547189831734
1772366212367520500,9.9685205078125,0.0012126723304390907,0.0003744252026081085,-0.0010496973991394043
1772366212377590500,9.978590576171875,0.0011319788172841072,0.00369325652718544,0.0007647136226296425
1772366212387660500,9.98866064453125,0.00045967334881424904,0.0018042637966573238,0.0007879491895437241
1772366212397731600,9.998731689453125,0.0009241290390491486,0.00031662220135331154,0.0017027445137500763
1772366212407801300,10.00880126953125,-0.0008297241292893887,-0.0006677699275314808,-0.0019014496356248856
1772366212417871400,10.018871337890625,0.0005173026584088802,-0.000399057287722826,0.00025943852961063385
1772366212427942400,10.0289423828125,-0.001166807021945715,-0.0019134024623781443,0.0023586442694067955
1772366212438012700,10.0390126953125,-0.00038889842107892036,-0.00014932453632354736,0.0009365156292915344
1772366212448082400,10.04908251953125,0.0018595783039927483,0.002679449040442705,-0.0007668584585189819
1772366212458153500,10.059153564453124,-0.000019015278667211533,-0.0002180701121687889,-0.0010938942432403564
1772366212468223500,10.069223388671874,0.0003631063736975193,0.00196835957467556,-0.000828402116894722
1772366212478293500,10.07929345703125,0.00012635113671422005,-0.0030852549243718386,0.0007194271311163902
1772366212488363500,10.089363525390626,-0.00021741073578596115,0.0017462805844843388,0.0015109311789274216
1772366212498434600,10.0994345703125,0.0003565005026757717,0.004683481529355049,0.0010832278057932854
1772366212508504300,10.10950439453125,-0.0004237741231918335,0.0044780028983950615,0.00000719074159860611
1772366212518574600,10.11957470703125,0.0016127456910908222,0.0014657019637525082,0.0028037764132022858
1772366212528645600,10.129645751953126,-0.000005509704351425171,-0.0008417763747274876,0.0011272318661212921
1772366212538715600,10.139715576171875,0.00008397269994020462,0.0038954541087150574,0.0012822281569242477
1772366212548785400,10.149785400390625,0.0007058680057525635,0.0030797873623669147,0.00012539979070425034
1772366212558856400,10.1598564453125,0.001371125690639019,-0.0020840822253376245,-0.0006940551102161407
1772366212568926500,10.169926513671875,-0.0016888226382434368,0.002448198851197958,-0.0016787545755505562
1772366212578996500,10.17999658203125,-0.00009252363815903664,0.0028396835550665855,-0.0004888540133833885
1772366212589067500,10.190067626953125,-0.0006454740650951862,0.0042387330904603004,-0.00008942745625972748
1772366212599137500,10.200137451171875,0.0008019539527595043,0.0029827868565917015,-0.0000896938145160675
1772366212609207300,10.210207275390625,0.0023057814687490463,0.0011405572295188904,0.0019255690276622772
1772366212619278300,10.2202783203125,-0.0003275522030889988,0.0013605342246592045,-0.000009217299520969391
1772366212629348600,10.2303486328125,0.000706956721842289,0.004240414127707481,-0.0003199940547347069
1772366212639418600,10.240418701171874,0.0009274664334952831,0.005969338119029999,0.0007665762677788734
1772366212649489400,10.250489501953124,-0.0010455381125211716,-0.0016867415979504585,0.0007042465731501579
1772366212659559400,10.260559326171874,0.0013718130066990852,0.0011436659842729568,-0.0012638289481401443
1772366212669629700,10.270629638671876,-0.0011089066974818707,0.0038604778237640858,-0.003223898820579052
1772366212679700700,10.28070068359375,0.00042054662480950356,-0.0007909988053143024,-0.0009508905932307243
1772366212689770500,10.2907705078125,0.00011120177805423737,0.00338610727339983,-0.00039128679782152176
1772366212699840500,10.300840576171876,0.0010406449437141418,0.020831143483519554,0.008927379734814167
1772366212709911600,10.31091162109375,-0.0011735083535313606,0.0005040373653173447,-0.0013209832832217216
1772366212719981300,10.320981201171875,0.0011639483273029327,-0.0004975772462785244,0.0006795832887291908
1772366212730051600,10.331051513671875,-0.0018233824521303177,-0.007073407061398029,-0.0006089117377996445
1772366212740122600,10.34112255859375,-0.0005381405353546143,-0.007598315831273794,-0.0004935963079333305
1772366212750192400,10.3511923828125,0.00107216602191329,-0.005693820770829916,-0.0037925606593489647
1772366212760262400,10.361262451171875,-0.001106566283851862,-0.00531378760933876,-0.0014103632420301437
1772366212770332700,10.371332763671875,0.0007822019979357719,-0.0028515837620943785,-0.001927979290485382
1772366212780403700,10.38140380859375,-0.000273208599537611,-0.0027770150918513536,0.00009788665920495987
