time,seconds_elapsed,z,y,x
1772366269307703000,0.113703125,-0.039032033705711365,0.007145350843155756,0.009695391518995166
1772366269317773000,0.12377294921875,-0.030799627411365507,0.007409956596093252,0.005246595416590571
1772366269327843000,0.133843017578125,-0.037678281009197234,0.01637711603892967,0.0044580388547852635
1772366269337913000,0.1439130859375,-0.031987960413098336,0.003970976857049391,0.005439779901131987
1772366269347983000,0.153983154296875,-0.0255453601449728,0.007587340723304078,0.002642952256835997
1772366269358054100,0.16405419921875,-0.037515199401974675,0.013833404639177024,0.0072973539339378475
1772366269368124200,0.174124267578125,-0.03990998558402061,0.016323166495142503,0.01100698557421565
1772366269378194200,0.184194091796875,-0.0310831205278635,0.006022995749721303,0.012590564971230924
1772366269388264200,0.19426416015625,-0.04799509236216545,0.012720803754776716,0.009856463832221924
1772366269398334000,0.204333984375,-0.05443477002084255,0.0063342536559794094,0.00422112482637167
1772366269408404200,0.214404296875,-0.025407412979006765,0.008738693582359701,0.005964461362361908
1772366269418474200,0.22447412109375,-0.04081599451303482,0.014515569083904847,0.007229695525206625
1772366269428545300,0.234545166015625,-0.04305938952565193,0.011169162999140099,0.0065013812506571405
1772366269438615000,0.244614990234375,-0.0348258141875267,0.006196114693768322,0.01180197187680751
1772366269448685000,0.25468505859375,-0.034378070420026774,0.01577743311272934,0.004863331720046699
1772366269458755000,0.264755126953125,-0.04335749568939209,0.012522979627735912,0.0040716333530843255
1772366269468825000,0.2748251953125,-0.040517303827404975,0.006077264953916892,0.0017543693866580723
1772366269478895000,0.28489501953125,-0.033033085551857945,0.009246268645161763,-0.0028666780101135373
1772366269488966100,0.294966064453125,-0.04125613949596882,0.008700306933885439,0.007153671146929263
1772366269499036200,0.3050361328125,-0.03810498198866844,0.013622474435390903,0.0025428163506090637
1772366269509106200,0.315106201171875,-0.03526303656101227,0.0130965508651454,0.002694170987419784
1772366269519176200,0.32517626953125,-0.03197100927829742,0.01273939885739237,0.007322378777340054
1772366269529246200,0.33524609375,-0.03751052322685718,0.014034407103992997,0.009636464405991136
1772366269539316200,0.345316162109375,-0.028383798441290853,0.003665043579880148,0.00495711095072329
1772366269549386000,0.355385986328125,-0.042757776230573655,0.00743542896406725,0.0067245590146630995
1772366269559457000,0.36545703125,-0.041704467785358426,0.010415074962517246,0.009232596312835812
1772366269569527000,0.375527099609375,-0.03556815698742866,0.005512562009552494,0.0089408833572641
1772366269579597300,0.385597412109375,-0.040808395728468894,0.01011441151550971,0.009012852614931762
1772366269589667000,0.3956669921875,-0.03003916443288326,0.00808814811860211,-0.002448890989460051
1772366269599737000,0.405737060546875,-0.03123860335052013,0.011852103762002662,0.005586714091151953
1772366269609807000,0.41580712890625,-0.04141162231862545,0.007750678058853372,0.014006094324961305
1772366269619877000,0.425877197265625,-0.027494156125187873,0.0039058848647400735,0.005369052752479911
1772366269629948200,0.4359482421875,-0.03900982187390327,0.0115274840506725,0.005802548798918724
1772366269640018200,0.44601806640625,-0.028388474616408345,0.007103575794352218,0.00021499445755034685
1772366269650088200,0.456088134765625,-0.026439094114303587,0.008890002553397789,0.0039025238638743754
1772366269660158200,0.466158203125,-0.028530513435602187,0.011429585767304525,0.007113083408214152
1772366269670228200,0.476228271484375,-0.033467969837784765,0.0033514019202906635,0.01969813195411116
1772366269680298000,0.486298095703125,-0.041244449058175085,0.01348462773412466,0.015708331665582952
1772366269690369000,0.496369140625,-0.040349546045064924,0.007611306120781228,0.012041698916815221
1772366269700439300,0.506439208984375,-0.04393734140396118,0.014134406012902036,0.0041799160331487655
1772366269710509600,0.516509521484375,-0.030313889721035957,0.006525264449743553,0.00025817601215094327
1772366269720579600,0.52657958984375,-0.03704465928077698,0.0018135796274524182,0.007189107786491513
1772366269730649300,0.5366494140625,-0.026870471268892287,0.013549244802398606,0.0067253627322614185
1772366269740719600,0.5467197265625,-0.03734744161963462,0.011563614809978752,0.004715191953629255
1772366269750789600,0.55678955078125,-0.04362929836809635,0.0034626620087306946,0.00882145822867751
1772366269760860700,0.566860595703125,-0.031962241449952127,0.012671219858853146,0.005260331680998206
1772366269770930400,0.576930419921875,-0.032711013990640636,0.015271264555724336,0.0039170638458803295
1772366269781000700,0.587000732421875,-0.03780395321547985,0.000228301463695243,0.006501125522330403
1772366269791070700,0.59707080078125,-0.04752689032852649,0.007716437862534076,0.007327895202673971
1772366269801140500,0.607140380859375,-0.040488077732920645,0.0053453522164840245,0.009859824833087623
1772366269811210800,0.617210693359375,-0.03644786243140697,0.00778586810324341,0.00863897780124098
1772366269821280500,0.627280517578125,-0.025225042149424552,0.0007269717008341103,0.007442351895198225
1772366269831351600,0.6373515625,-0.02762625807225704,0.004298665308300405,0.005935125670023262
1772366269841421600,0.647421630859375,-0.032115386185050006,0.012308779754629358,0.008724792921170592
1772366269851491600,0.65749169921875,-0.04214052111506462,0.0048797531318850815,0.014286482168920337
1772366269861561600,0.6675615234375,-0.034058336946368215,0.009235126196639612,0.009839037773385644
1772366269871631600,0.677631591796875,-0.03166939598321915,0.011753922350844367,0.0013416603999212384
1772366269881701400,0.687701416015625,-0.048128363353013986,0.010301157126110046,0.008111373730562628
1772366269891771600,0.697771728515625,-0.02149403892755508,0.009994931587995961,0.011223916260525584
1772366269901842700,0.7078427734375,-0.037654315611720085,0.015056708489591255,0.004340659552812576
1772366269911912700,0.71791259765625,-0.04528407983779907,0.004629212436918169,0.00768817988242954
1772366269921982500,0.727982421875,-0.04049509199559689,0.0016675678860396145,0.003666413553059101
1772366269932052700,0.738052734375,-0.03884849383234978,0.009885205869516358,0.009061039138212799
1772366269942122800,0.748122802734375,-0.04287877226173877,0.01093265996268019,0.00987831033784896
1772366269952192500,0.758192626953125,-0.03224339647889137,0.007199665713123977,0.011624350287578999
1772366269962262500,0.768262451171875,-0.03134147920310497,0.012066130105173215,0.013980375361815095
1772366269972333600,0.77833349609375,-0.03014730098247528,0.002633974365936592,0.004637340944446623
1772366269982403600,0.788403564453125,-0.03447685461938381,0.015395320193655788,0.002555164375528693
1772366269992473600,0.7984736328125,-0.034167642539739605,0.003223373360140249,0.00948898222669959
1772366270002543600,0.808543701171875,-0.03312310192286968,0.000012064897129312157,0.006609627398103475
1772366270012613600,0.818613525390625,-0.04254910191595554,0.0048522714699152855,0.0033451091768220064
1772366270022683600,0.82868359375,-0.04224690409898758,0.01214745171307586,0.008493760644271969
1772366270032753700,0.838753662109375,-0.038655017086863516,0.008152345061767846,0.01794851180780679
1772366270042824400,0.848824462890625,-0.032220015603303905,0.014513788118772207,0.01120707472357899
1772366270052894700,0.858894775390625,-0.0500274749726057,0.00602773585692048,0.004293715138547123
1772366270062964700,0.86896484375,-0.04238777387440204,0.008195965007785707,0.00520122190490365
1772366270073034500,0.879034423828125,-0.038790626165270806,0.011860953788738696,0.013845095076970754
1772366270083104500,0.8891044921875,-0.04148468755483627,0.003975278572831303,0.0015623539458960293
1772366270093174800,0.8991748046875,-0.03340893312692642,0.00267807836914435,-0.005229096292518079
1772366270103244500,0.90924462890625,-0.0316103592723608,0.0002443301498889923,0.007439904209785163
1772366270113315600,0.919315673828125,-0.050013446447253224,-0.00007449914147146046,0.014818689349479972
1772366270123385600,0.929385498046875,-0.04282908790111541,0.0018616200202610342,0.007183116437122225
1772366270133455600,0.93945556640625,-0.036233342897892,0.005588093197485431,0.011005341606400907
1772366270143525600,0.949525634765625,-0.029947979018092152,0.008784386754455044,0.013080211651697754
1772366270153595600,0.959595703125,-0.03758125037550926,0.002542788951145485,0.004378616943024099
1772366270163665400,0.96966552734375,-0.03803308579623699,-0.0013203436172567306,0.004645999174937606
1772366270173735700,0.979735595703125,-0.030705519387125967,0.011580091020744292,0.009191022193431854
1772366270183805700,0.9898056640625,-0.041028175958991046,0.004215307006938383,0.0016014073146507143
1772366270193876500,0.99987646484375,-0.02621463770866394,0.011710521600535139,0.003062054451741278
1772366270203946500,1.009946533203125,-0.029653964507579803,0.007399809661414474,0.010417933639883994
1772366270214016800,1.020016845703125,-0.032196050205826755,0.009050764339370652,0.0017428250793367623
1772366270224086500,1.03008642578125,-0.037733810588717456,0.008399899215204641,0.0005128814255818724
1772366270234156500,1.040156494140625,-0.03638648763298988,0.004319278838066384,0.007060695633850991
1772366270244226800,1.050226806640625,-0.03309679843783379,0.009262781388545409,0.008656769186258316
1772366270254296600,1.060296630859375,-0.034902386555075646,0.006426681179786101,0.004550831704773008
1772366270264367600,1.07036767578125,-0.029368133303523062,0.008102733766380698,0.010610752798244357
1772366270274437600,1.080437744140625,-0.03250701585114002,0.010908785896748303,0.01112904105130583
1772366270284507400,1.09050732421875,-0.0361024099946022,0.0033194358794484285,0.01149027557913214
1772366270294577700,1.10057763671875,-0.04222761487662792,0.0091842453927733,0.0019954116009175777
1772366270304647700,1.110647705078125,-0.03592997603714466,0.007317921797931194,0.009897051570937038
1772366270314717400,1.120717529296875,-0.03712766138911247,0.011025900337239727,0.015709756437689064
1772366270324787700,1.13078759765625,-0.038023733446002,0.007247167249815538,0.010542400269769131
1772366270334857700,1.140857666015625,-0.038463293907046316,0.012133514519268647,0.0056442529646679755
1772366270344928500,1.150928466796875,-0.03426175056397915,0.006229834300279617,0.00854318927656859
1772366270354998500,1.16099853515625,-0.029613047975301742,0.019023529761331155,0.0032471286950632927
1772366270365068800,1.17106884765625,-0.04427519505620003,0.010131472248164936,0.0047875265374779695
1772366270375138600,1.181138671875,-0.03529810787439346,0.006322261824086308,0.013719276740215718
1772366270385208600,1.19120849609375,-0.03290390621423721,0.012004874037764965,0.01147672197781503
1772366270395278600,1.201278564453125,-0.037539164799451824,0.009516135095106437,0.007968092802353203
1772366270405348600,1.2113486328125,-0.04487199190557003,0.012619444005843252,0.009031703445874154
1772366270415419600,1.221419677734375,-0.04277531188726425,0.018862813641130922,0.00861541426256299
1772366270425489700,1.23148974609375,-0.03439619059860706,0.006430845898250118,0.00916851810067892
1772366270435559400,1.241559326171875,-0.021080197429656982,0.008668295227270573,0.001042640920728445
1772366270445629700,1.251629638671875,-0.040543022790551185,0.012808783432329073,0.009370580011419952
1772366270455699700,1.26169970703125,-0.03426233508586883,0.007148200387367978,0.00929280206747353
1772366270465769500,1.27176953125,-0.026929507979750633,0.010423176070582121,0.01333287123851478
1772366270475839500,1.281839599609375,-0.028575521621108053,0.012581614479795097,0.011552563693001866
1772366270485909800,1.29190966796875,-0.03770049284100532,0.004128934764582664,0.0035232787553220986
1772366270495980500,1.30198046875,-0.02602817522585392,0.003993727544974536,0.00919836524967104
1772366270506050600,1.312050537109375,-0.03037117286622524,0.009470578920328989,0.008352525542676448
1772366270516120600,1.32212060546875,-0.03067395520508289,0.008769791973521932,0.004510243966057897
1772366270526190600,1.332190673828125,-0.03277881852984428,0.00922471440047957,0.002347184180654585
1772366270536260600,1.342260498046875,-0.03935936596393585,0.007335959778120741,0.005543788264878094
1772366270546330600,1.35233056640625,-0.032171500286459924,0.009596269392920657,0.011925890517421066
1772366270556400600,1.362400634765625,-0.0383072265625,0.008146317179780453,0.012596300592273473
1772366270566471700,1.3724716796875,-0.039053661015629765,0.010851858944585546,0.007108516830950975
1772366270576541700,1.382541748046875,-0.03680617434978485,0.014396116555854677,0.0034189781306311487
1772366270586611500,1.392611572265625,-0.027839024040102956,0.006540352421021089,0.009468889286741614
1772366270596681500,1.402681396484375,-0.035033319458365436,0.011569140368467196,0.014439151979982853
1772366270606751700,1.412751708984375,-0.033389643904566765,0.011965491875447333,0.010813728024438023
1772366270616821500,1.422821533203125,-0.055690323039889335,0.001987063897680491,0.016412059488147498
1772366270626891500,1.4328916015625,-0.01933130793571472,0.009650593396043404,0.0010609802950173617
1772366270636961800,1.4429619140625,-0.042082653447985646,0.010982006396586075,0.005661277164705097
1772366270647032600,1.453032470703125,-0.04358136757314205,0.01641929294653237,0.014037037452496588
1772366270657102600,1.4631025390625,-0.029817630636692044,0.009957439988665282,0.0071203899318352335
1772366270667172600,1.473172607421875,-0.04536942003369331,0.002323529310431331,0.012434972550719976
1772366270677242600,1.48324267578125,-0.04537117359936237,0.003610226386412978,0.010471636588498949
1772366270687312600,1.493312744140625,-0.02681494168937206,0.008834810900595038,0.002239157228916883
1772366270697382700,1.503382568359375,-0.02517243517935276,0.0006625829614233226,0.008905117924138903
1772366270707452400,1.513452392578125,-0.039538229662179944,-0.0021454967292491344,0.006351962842606008
1772366270717522700,1.523522705078125,-0.04462357010245323,0.006411492743808775,0.004439772545732558
1772366270727593700,1.53359375,-0.020232056167721748,0.005556958273705095,0.0016187603082507848
1772366270737663500,1.54366357421875,-0.033843817412853236,0.0070623487348202615,0.017591843857243657
1772366270747733500,1.5537333984375,-0.04117079930007458,0.006191785578522831,0.020115261387638746
1772366270757803800,1.5638037109375,-0.031441432446241376,0.003506154090585187,0.011044468040391803
1772366270767873500,1.57387353515625,-0.026655951735377312,0.0031753968994133173,0.010528846668452024
1772366270777943600,1.583943603515625,-0.032194881162047384,0.015072125254431738,0.006412680053897201
1772366270788013800,1.594013916015625,-0.040430794587731356,0.0027704328277148305,0.008233027348853648
1772366270798083600,1.60408349609375,-0.03145604549348354,0.0023577786399051545,0.003698817985318601
1772366270808154600,1.614154541015625,-0.03160743666291237,0.007631170731876045,0.010374605954810977
1772366270818224600,1.624224609375,-0.0328127207994461,0.013549098671926184,0.01185698999967426
1772366270828294400,1.63429443359375,-0.04284662355780601,0.009003801658796147,0.015430720300599932
1772366270838364700,1.64436474609375,-0.0379150123745203,0.010506269510462879,-0.00042070963010191917
1772366270848434700,1.6544345703125,-0.03147884184718132,0.013099446075130253,0.012207118611596525
1772366270858504400,1.66450439453125,-0.035971477091312404,0.009227244284283368,0.010670410563610493
1772366270868574700,1.67457470703125,-0.03283610167503357,0.004888575759157538,0.010391082165576517
1772366270878644700,1.684644775390625,-0.041219314616918565,0.0051354814586229616,0.015419395188987254
1772366270888715500,1.694715576171875,-0.04061842611432075,0.002004718285379931,0.002309153725206852
1772366270898785500,1.70478564453125,-0.035375849285721774,0.008024782292498275,0.009913929640501737
1772366270908855600,1.71485546875,-0.03328267639875412,0.013476343962969258,0.01707516303937882
1772366270918925600,1.724925537109375,-0.03806874163150787,0.001566847457922995,0.014719284095615147
1772366270928995600,1.73499560546875,-0.03133680302798748,0.009314886035118252,0.008500994102656841
1772366270939065600,1.745065673828125,-0.037027708145976064,0.004626527289487421,0.002545812025293708
1772366270949135600,1.755135498046875,-0.03837269301414489,0.003957286258414387,0.00814008836839348
1772366270959205600,1.76520556640625,-0.04136427604556083,0.004481127469427883,0.006949819137901068
1772366270969276700,1.775276611328125,-0.0340285263299942,0.0069915576540865,0.010769779284857213
1772366270979346400,1.785346435546875,-0.030583354312181472,0.005205751949548721,0.015777305248565972
1772366270989416700,1.795416748046875,-0.03567044831812381,0.013732885140459984,0.014297624617442488
1772366270999486700,1.80548681640625,-0.022496493968367576,0.018089810841483995,0.013384528360515832
1772366271009556500,1.815556396484375,-0.02668167069852352,0.006552910508494824,0.005516571464389562
1772366271019626500,1.82562646484375,-0.03041910366117954,0.00864423849824816,0.008434322074614465
1772366271029696800,1.83569677734375,-0.035059038421511646,0.005420719007635489,0.013814334612525998
1772366271039766500,1.8457666015625,-0.039247137761116026,0.012965818891255185,0.011626797972992061
1772366271049837600,1.855837646484375,-0.04462824627757072,0.013927859723288565,0.00335121012404561
1772366271059907600,1.865907470703125,-0.03475742512643337,0.0036303467258345335,0.0071741659456863996
1772366271069977600,1.8759775390625,-0.03221650847196579,0.014113472822727634,0.00560695316158235
1772366271080047600,1.886047607421875,-0.036712650847435,0.010337945472542196,0.00635083033144474
1772366271090117600,1.89611767578125,-0.03191723326444626,0.011373754793684928,0.006950367127172648
1772366271100187600,1.906187744140625,-0.03041618105173111,0.006535310919722542,-0.00014024872090667484
1772366271110257700,1.916257568359375,-0.026229250755906104,0.011626743174064903,0.004874766429513693
1772366271120327400,1.926327392578125,-0.02428922260403633,0.006723545234510675,0.0034288054049015043
1772366271130398500,1.9363984375,-0.03282207314968109,0.006395738052250817,0.007382255738414824
1772366271140468500,1.946468505859375,-0.027584172496199606,0.008579457033192739,0.002779328520223498
1772366271150538800,1.956538818359375,-0.029528292301297186,0.01116269672573544,0.005048625159077346
1772366271160608500,1.9666083984375,-0.031626141363382335,0.006995311380596831,0.004838708735443651
1772366271170678500,1.976678466796875,-0.03266951293647289,0.006991237993678077,0.0008940262302756309
1772366271180748800,1.986748779296875,-0.03566226501166821,0.017267461607931182,0.005667378111928701
1772366271190818600,1.996818603515625,-0.03984568817615509,0.011458336937753484,0.011177592900767922
1772366271200888600,2.006888671875,-0.03715513391792774,0.011863145745825022,0.008134243149496614
1772366271210959600,2.016959716796875,-0.029227263528108595,0.004535168344760313,0.007058613274618983
1772366271221029600,2.027029541015625,-0.035361236238479615,0.001625135250110179,0.0010832651920616625
1772366271231099600,2.037099609375,-0.030572832918167113,0.0021617994100786744,0.01079926110766828
1772366271241169700,2.047169677734375,-0.03745440912544727,0.006230354890087619,0.012454882827587424
1772366271251239400,2.057239501953125,-0.03954933557808399,0.00560948304538615,0.005715783830918372
1772366271261309700,2.067309814453125,-0.03385316976308823,0.005751585796661675,0.005782382793724537
1772366271271379500,2.07737939453125,-0.03175590522289276,0.007942574768606573,0.011659494666196405
1772366271281449500,2.087449462890625,-0.02890636101067066,0.007179746303102001,0.01045961735714227
1772366271291520500,2.0975205078125,-0.035191140368580814,0.010500278161093592,0.012703633424267172
1772366271301590800,2.1075908203125,-0.036389410242438316,0.00509364247773774,-0.000945354558713734
1772366271311660500,2.11766064453125,-0.03474515016674995,0.0017971216829959303,0.009949074019119142
1772366271321730600,2.12773046875,-0.034141339054703713,0.013047697621583938,0.010959748899005353
1772366271331800600,2.137800537109375,-0.04266249916255474,0.005883331550704315,0.013420732185058295
1772366271341870600,2.14787060546875,-0.03247954332232475,0.008549098427547142,0.009700250357203184
1772366271351940600,2.157940673828125,-0.04011865989863872,0.014397696591587737,0.008822627272456885
1772366271362010400,2.16801025390625,-0.03637538171708583,0.013366755241807549,0.0069289590129628775
1772366271372081400,2.178081298828125,-0.03712298521399498,0.007358838330209254,0.009623787587508559
1772366271382151700,2.188151611328125,-0.03801145848631859,0.008887564001139252,0.012538725186139344
1772366271392221700,2.1982216796875,-0.03501695284545421,-0.004036059716204181,0.010766966273263096
1772366271402291500,2.20829150390625,-0.038160511568188664,0.0029915373656433076,0.003710873749293387
1772366271412361700,2.21836181640625,-0.03397299675047397,0.00020640929229557512,0.0042689460234716535
1772366271422431500,2.228431396484375,-0.038754385808110234,-0.0039672596631571645,0.006817278799414635
1772366271432501500,2.23850146484375,-0.04277823449671268,0.00945620333510451,0.006687514939904213
1772366271442571500,2.248571533203125,-0.04441723387539386,0.006894499620934948,0.0005573416218161583
1772366271452641500,2.2586416015625,-0.032892800298333164,0.004371429150411859,0.009596132395602763
1772366271462712600,2.268712646484375,-0.03049450698494911,0.015294736762857064,0.014050517988577484
1772366271472782600,2.278782470703125,-0.023304303219914436,0.0018034418259281664,0.006174779644794762
1772366271482852600,2.2888525390625,-0.03138064216971397,0.0036690530347172168,0.010164835661649703
1772366271492922600,2.298922607421875,-0.03078209175467491,0.01186242422661744,0.012741115890443324
1772366271502992600,2.30899267578125,-0.024792495951056478,0.01632014342099428,-0.0028864421565085647
1772366271513062400,2.3190625,-0.023595395120978354,0.0003073215166572481,0.0063844768727198235
1772366271523132700,2.329132568359375,-0.03482406062185764,0.0012007175592705607,0.010145729102380574
1772366271533202700,2.33920263671875,-0.046049218991398806,0.011820457381568849,0.00782272951491177
1772366271543273700,2.349273681640625,-0.035869770282506944,0.013308914974192157,0.005965411210432648
1772366271553343500,2.359343505859375,-0.03302022607028484,0.007732667478127404,0.003969451620243489
1772366271563413500,2.36941357421875,-0.04259703271090984,0.0069960420329589395,0.003975625632703304
1772366271573483800,2.37948388671875,-0.030773908448219298,0.005880144079774618,0.010306399556808173
1772366271583553500,2.389553466796875,-0.030023382341861724,0.006407857748307287,0.0027537922201678155
1772366271593623600,2.39962353515625,-0.02882394342422485,0.008095728636858984,0.007410824245773256
1772366271603693600,2.409693603515625,-0.027179098826646802,0.007388530215574428,-0.0008034253373742104
1772366271613763600,2.419763671875,-0.02209726551771164,0.006355707435961812,0.005359700402244925
1772366271623834600,2.429834716796875,-0.028378537744283675,0.004868053560936823,0.00992609500233084
1772366271633904600,2.439904541015625,-0.03810264390110969,0.007140875597437844,0.00474405272193253
1772366271643974700,2.449974609375,-0.028525837260484695,0.004828123409347608,0.002821012237481773
1772366271654044700,2.460044677734375,-0.020891396859288213,0.003831878913613036,0.011428681585006414
1772366271664114400,2.470114501953125,-0.026440847679972648,0.007707569569488987,0.004250862377509474
1772366271674184400,2.480184326171875,-0.022525135540962218,0.007372108803736045,0.004058189349621534
1772366271684254700,2.490254638671875,-0.020892565903067588,0.006783349130349233,0.0036069019181653853
1772366271694324500,2.500324462890625,-0.019995909324288366,0.008092513766465708,0.009442914595268666
1772366271704394500,2.51039453125,-0.029278701454401014,0.006252986847003921,0.0057678428117185826
1772366271714465500,2.520465576171875,-0.029429508101940154,0.003190868463180959,0.007853928370773791
1772366271724535600,2.53053564453125,-0.0235889653801918,0.010298380647134035,0.007227393970265984
1772366271734605600,2.54060546875,-0.030767478707432745,0.01059539083233103,0.007311711252853274
1772366271744675300,2.55067529296875,-0.012060440149903297,-0.0016837792353238908,0.0064602089900523425
1772366271754745600,2.56074560546875,-0.015650573596358297,-0.0021796364608686414,0.005729593160562217
1772366271764815600,2.570815673828125,-0.023873627540469167,0.001018154933443293,0.005861074053123593
1772366271774885400,2.580885498046875,-0.031055063477158546,0.0073028429598081855,0.00933324367571622
1772366271784956400,2.590956298828125,-0.01803951455950737,0.011621409411821514,0.014797463898360728
1772366271795026400,2.6010263671875,-0.03196457953751087,0.015728780798567456,0.0014570669405162334
1772366271805096400,2.611096435546875,-0.015505612167716025,0.0036639567344915118,0.009070793347246944
1772366271815166500,2.62116650390625,-0.022233459118008614,0.0049812955439090725,0.010546236194670199
1772366271825236500,2.631236572265625,-0.019677929416298864,0.01348442680472508,0.015618351827189325
1772366271835306500,2.641306396484375,-0.02745557768046856,0.012967161464970558,0.013053214046917856
1772366271845376500,2.65137646484375,-0.023711714977025983,0.01264987567672506,0.010452347366139291
1772366271855446500,2.661446533203125,-0.013382628664374351,0.013904168320447205,0.004578888755477965
1772366271865517600,2.671517578125,-0.01696808593571186,0.010219671121425926,0.01085738450307399
1772366271875587600,2.681587646484375,-0.02040624369084835,0.011900153287965804,0.007348901458084583
1772366271885657600,2.69165771484375,0.0008376198679208755,0.021492778552230446,0.011432554042525588
1772366271895727400,2.701727294921875,-0.020115736311674116,0.00744454385228455,0.014486900111846624
1772366271905797400,2.71179736328125,-0.021768179693818092,0.010600468866247683,0.01240395635794848
1772366271915867600,2.72186767578125,-0.02326397120952606,0.007643372626323253,0.00928699338119477
1772366271925937400,2.7319375,-0.0175806648761034,0.009554631341435015,0.012497224131971596
1772366271936008400,2.742008544921875,-0.020724808120727536,0.012294732962967828,0.001961436266079545
1772366271946078500,2.752078369140625,-0.01654196947813034,0.011522040690574794,0.0009040727002546191
1772366271956148500,2.7621484375,-0.012507014873623847,0.016163117095222695,0.009142908735387027
1772366271966218500,2.772218505859375,-0.016254969230294226,0.005532919810991734,0.0023598244665190577
1772366271976288500,2.78228857421875,-0.022995675662159917,0.0013166081570554523,0.005196984121203422
1772366271986358500,2.792358642578125,-0.013273907592892646,0.005028066428238526,0.00567662086430937
1772366271996428500,2.802428466796875,-0.009683774146437644,0.005957995088957249,0.006826521551795303
1772366272006498600,2.81249853515625,-0.01881283701956272,0.0024048874509520826,0.007999912712723016
1772366272016569600,2.822569580078125,-0.02629822433888912,0.011546234416915104,0.005389730214327574
1772366272026639400,2.832639404296875,-0.015085340929031372,0.008752356781531126,0.0005430208355188369
1772366272036709600,2.842709716796875,-0.027509353694319724,0.00790819757496938,0.009252616187557577
1772366272046779400,2.852779296875,-0.02421557284593582,0.013443902998091652,0.0005765943115577101
1772366272056849400,2.862849365234375,-0.01987082163989544,0.0036145555016584693,0.007564115111343563
1772366272066919700,2.872919677734375,-0.017184943556785584,0.0032045955944340673,0.007397270644456147
1772366272076989400,2.882989501953125,-0.019289806881546974,0.006109057464823126,0.005396488748677075
1772366272087060500,2.893060546875,-0.01945113492310047,0.008652065611677244,0.012952018694765866
1772366272097130500,2.903130615234375,-0.010029811105132102,0.0015748024355154483,0.006859693169035017
1772366272107200500,2.913200439453125,-0.024252397724986077,0.008566186559665947,0.012531783988699316
1772366272117270500,2.9232705078125,-0.029944471886754035,0.014583464954653754,0.0034296091224998233
1772366272127340500,2.933340576171875,-0.015276479586958885,0.006198909439053386,0.003948006973415613
1772366272137410300,2.943410400390625,-0.02155950537919998,0.007349622977292165,0.008020261381007731
1772366272147481300,2.9534814453125,-0.02320434997677803,0.008766723233601078,0.003065086659044027
1772366272157551600,2.963551513671875,-0.026641338688135147,0.005771459540911019,0.005560081812553108
1772366272167621600,2.97362158203125,-0.02468962009847164,-0.0010106474804226309,0.007637691804207861
1772366272177691400,2.98369140625,-0.020343699848651885,0.01277483549695462,0.005980097322911024
1772366272187761700,2.99376171875,-0.027817396730184553,0.006872013794491067,0.0068995137227699154
1772366272197831400,3.00383154296875,-0.023923311901092526,0.006229624237725511,0.0030807591522112486
1772366272207901400,3.0139013671875,-0.013897592449188232,-0.0012372593105304986,0.008910743947327136
1772366272217972500,3.023972412109375,-0.011800327908992766,-0.00030297413510270416,0.0049365796193480485
1772366272228042500,3.03404248046875,-0.026021160963177678,0.003032764425175264,0.014999014352448284
1772366272238112500,3.044112548828125,-0.026624387553334235,0.01182388231451623,0.011296470040082931
1772366272248182500,3.0541826171875,-0.03515490001142025,0.002557767324568704,0.0011066095350310205
1772366272258252500,3.06425244140625,-0.03141922061443329,0.002165571402898058,0.006946312006562948
1772366272268322600,3.074322509765625,-0.02258767938315868,0.012589980449341237,0.011348346357792615
1772366272278392600,3.084392578125,-0.02857435257732868,0.00749189925850369,0.00982369407378137
1772366272288463600,3.094463623046875,-0.026764672806859013,0.008694507380761206,0.0048596784582361574
1772366272298533400,3.104533447265625,-0.027211832052469253,0.014144032357772812,0.007127002335712313
1772366272308603600,3.114603759765625,-0.029463410371541977,0.008516821859451011,0.005933847028389573
1772366272318673700,3.124673583984375,-0.027214170140028,-0.0016891860628034919,0.01590414649862796
1772366272328743400,3.134743408203125,-0.03185585846602917,-0.0006198854640126228,0.002829999261535704
1772366272338813400,3.1448134765625,-0.025272388422489165,0.0053896754154004155,0.001927607061713934
1772366272348884500,3.154884521484375,-0.03723872054815292,-0.002669118744553998,0.00951382440701127
1772366272358954500,3.16495458984375,-0.03364566449224949,0.006068853318598121,0.005676292070746421
1772366272369024500,3.1750244140625,-0.030942250752449035,0.008395213906932621,0.008756357103213668
1772366272379094500,3.185094482421875,-0.02794949867725372,0.005178498616442084,0.012369834892638027
1772366272389164500,3.19516455078125,-0.02270925993621349,0.013936801081569864,0.00796652189977467
1772366272399234600,3.205234619140625,-0.017468436673283575,0.0014028525352478027,0.013703202388249337
1772366272409304600,3.2153046875,-0.023456863433122633,-0.0014802286203950642,0.004524162893556058
1772366272419375400,3.225375244140625,-0.022561375898122786,0.005317012037988752,0.009102795920707285
1772366272429445600,3.235445556640625,-0.029886604219675064,0.004604278925061225,0.010722725272737443
1772366272439515600,3.245515625,-0.031221067693829534,0.007842785922251641,0.0017142565719783305
1772366272449585400,3.25558544921875,-0.02912029602229595,0.0000014887041877955197,0.007516330446861684
1772366272459655400,3.265655517578125,-0.029119126978516575,0.004886639530397951,0.009914916021190583
1772366272469725700,3.2757255859375,-0.029710078608989714,0.0050613202438689765,0.010392689600773155
1772366272479796500,3.28579638671875,-0.04093289889097213,0.01173466052794829,0.008021905348822474
1772366272489866500,3.295866455078125,-0.03120294751524925,0.009512280903896317,0.00046896921861916776
1772366272499936500,3.3059365234375,-0.027758944541215896,0.01208068835348822,0.0027748350081965327
1772366272510006500,3.316006591796875,-0.03223755125999451,0.00814271871689707,0.006103869833052158
1772366272520076500,3.32607666015625,-0.02789455361962318,0.005732031712820753,-0.00130542004276067
1772366272530146600,3.336146484375,-0.0350742359906435,0.0030035017980728296,0.009679061438702046
1772366272540216300,3.34621630859375,-0.035977322310209274,0.011533265337487683,0.010313377286866307
1772366272550287400,3.356287353515625,-0.029395605832338332,0.00481885325750336,0.012204086404293775
1772366272560357600,3.366357666015625,-0.02400631400942802,0.005894875858025625,0.007775967763736844
1772366272570427400,3.376427490234375,-0.022809213179349898,0.0058753400404937565,0.011211641300842165
1772366272580497400,3.386497314453125,-0.03702069388329982,0.008890258281724527,0.01535590149872005
1772366272590567700,3.396567626953125,-0.026833061867952344,0.010319149440526962,0.0033407617952674624
1772366272600637400,3.406637451171875,-0.02996902180612087,0.008589247774844988,0.01049384842030704
1772366272610708500,3.41670849609375,-0.018598317486047743,0.006614093510666862,0.004952434775605798
1772366272620778500,3.426778564453125,-0.0193453364610672,0.007405015559494495,0.009466149340383707
1772366272630848500,3.4368486328125,-0.033409517648816105,0.009387476347293705,0.001738258502073586
1772366272640918500,3.44691845703125,-0.03131459119617939,0.006991776849795133,0.004436959534138441
1772366272650988500,3.456988525390625,-0.01949438954293728,0.004111042914865538,0.009331563175283372
1772366272661058300,3.467058349609375,-0.015004092386364937,0.004808742855442688,0.009203077957406639
1772366272671129300,3.47712939453125,-0.020843466064333915,0.006532753636455163,0.005999094284325838
1772366272681199600,3.48719970703125,-0.0230880301207304,0.009952489818911999,0.0029698095910251137
1772366272691269400,3.497269287109375,-0.02158697790801525,0.012496749207936227,0.006061126669868826
1772366272701339400,3.50733935546875,-0.033551556468009947,0.012560279430821537,0.006515811634808778
1772366272711409200,3.5174091796875,-0.04147825781404972,0.01006635285639204,0.008718655441328882
1772366272721479200,3.527479248046875,-0.032196050205826755,0.006013552067941054,0.007923559540882707
1772366272731550200,3.53755029296875,-0.03129705553948879,0.01219818638646975,-0.00011737930197268724
1772366272741620000,3.547619873046875,-0.01737491317093372,0.005918987385975197,0.0015374021677300332
1772366272751690200,3.557690185546875,-0.02410100655555725,0.005593152965093031,0.007990341166779399
1772366272761760300,3.56776025390625,-0.03352408393919468,0.013382802194310352,0.004495046396926045
1772366272771830000,3.577830078125,-0.027535072657465933,0.012660762396920471,0.0057329176288098095
1772366272781900300,3.587900390625,-0.027382512444257736,0.005030952505068853,0.00008296557571738958
1772366272791970000,3.597969970703125,-0.023645079481601713,0.0008870850328356027,0.013148381517082452
1772366272802041000,3.608041015625,-0.026636077991127965,0.004912842550734058,0.0065987041452899575
1772366272812111000,3.618111083984375,-0.025738836890459058,0.014319598987232892,-0.0009296455329284071
1772366272822181000,3.62818115234375,-0.023642741394042967,0.006294003843981772,0.01119648026432842
1772366272832251100,3.638251220703125,-0.026781623941659925,0.009034123731823638,0.0051154798502102495
1772366272842321200,3.648321044921875,-0.01945171944499016,-0.0017088132118806242,0.004626125430688262
1772366272852391200,3.65839111328125,-0.020052607947587966,-0.0016990864023100584,0.0027806071618571874
1772366272862462000,3.6684619140625,-0.024096914902329444,0.008539353351667523,0.00912814955767244
1772366272872532200,3.6785322265625,-0.02260521503984928,0.008832755940826609,0.008570625272765755
1772366272882602200,3.688602294921875,-0.02530044547319412,0.0068371616768185045,0.005684913768619298
1772366272892672000,3.698672119140625,-0.026348493221402168,0.0074997446382418275,0.010889642804861068
1772366272902742300,3.7087421875,-0.012282558467984199,0.005368596094753593,0.0068085109710693354
1772366272912812300,3.718812255859375,-0.03189034525752067,0.00008028042828664183,0.0035346403995528816
1772366272922883000,3.728883056640625,-0.027404724276065825,0.005280844746064394,0.011076543679088353
1772366272932953000,3.738953125,-0.031145664370059965,0.005599354377016425,0.005847191658243537
1772366272943023000,3.749023193359375,-0.037275545427203176,0.0030430483571719374,0.0024932050552219152
1772366272953093000,3.759093017578125,-0.01946808605790138,0.004504170418297872,0.006528598051145673
1772366272963163100,3.7691630859375,-0.024855039793252945,-0.000019170491350814698,0.010384031370282173
1772366272973233200,3.779233154296875,-0.024113281515240666,0.00902958455402404,0.006634140784852206
1772366272983304000,3.789303955078125,-0.026663550519943235,0.010575973745808005,0.015001023646444081
1772366272993374200,3.799374267578125,-0.014701310047507285,0.015582294133119285,0.011015132348053156
1772366273003444200,3.8094443359375,-0.016062077006697654,0.004236468525975943,0.0024782997470349072
1772366273013514000,3.819513916015625,-0.0192103119045496,0.011199549004249274,0.005766162311285734
1772366273023584000,3.829583984375,-0.03567629353702068,0.007675019006757065,0.003861205472797155
1772366273033654300,3.839654296875,-0.029248306316137312,0.0060499111561104655,0.005216675202362239
1772366273043725000,3.84972509765625,-0.023711714977025983,0.003369211571617052,0.004915975222736597
1772366273053795000,3.859795166015625,-0.027744916015863416,0.012987574065336956,0.009986081561259925
1772366273063865000,3.869864990234375,-0.02489478728175163,0.009033064285898581,0.0125276192702353
1772366273073935000,3.87993505859375,-0.020259528696537018,0.005601637665648013,0.008706380481645465
1772366273084005000,3.890005126953125,-0.03656768941879272,0.013085627612331882,0.00846588625665754
1772366273094075100,3.9000751953125,-0.029985388419032095,0.005516955056879669,0.017834676169790325
1772366273104146200,3.910146240234375,-0.016364274823665616,0.007496255773212761,0.009396189376711845
1772366273114216200,3.92021630859375,-0.0344686713129282,0.004130523933470249,0.0072129635861143465
1772366273124286200,3.9302861328125,-0.034627076745033264,0.005313057382078841,0.004766410684213042
1772366273134356000,3.94035595703125,-0.012784078249335288,0.00528095434391871,0.0024639789607375858
1772366273144426000,3.950426025390625,-0.017279051581025124,0.009459546069661155,0.009623056935146451
1772366273154496300,3.960496337890625,-0.021028759503364563,0.004823949557729065,0.01044759812578559
1772366273164567300,3.9705673828125,-0.028816929161548613,0.013700562906591222,0.011166523517481982
1772366273174637000,3.980636962890625,-0.024031448450684546,0.006050413479609415,0.008370682253874839
1772366273184705000,3.990705078125,-0.03285948255062103,0.004975368126621469,0.009880502294935286
1772366273194775000,4.000775146484375,-0.03494914830625057,-0.00021569771044887602,0.008502090081200004
1772366273204845300,4.01084521484375,-0.02790858214497566,0.0023888770310673863,0.00521546962596476
1772366273214915000,4.0209150390625,-0.027304771032929418,0.00337392427935265,0.004867167644947767
1772366273224985000,4.030985107421875,-0.021023498806357382,0.001669622845808044,0.000022796353697776793
1772366273235055000,4.04105517578125,-0.020730068817734718,0.015152433082181959,0.004113280537724495
1772366273245126100,4.051126220703125,-0.02686637961566448,0.00817842935109511,0.013376637315005064
1772366273255196200,4.061196044921875,-0.02073825212419033,0.0069976220686919985,0.012302213016524911
1772366273265266200,4.07126611328125,-0.015207506003975867,0.012015477630170062,0.010504625542648137
1772366273275336000,4.0813359375,-0.009971358916163443,-0.001429831873718649,0.008243804471194743
1772366273285406200,4.09140625,-0.024930443117022513,0.002903941280581057,-0.0006709945967420935
1772366273295477200,4.101477294921875,-0.017754267877340316,0.007035068002250045,0.004298500911518931
1772366273305547300,4.11154736328125,-0.022251579296588896,0.006216125435335561,0.006075009064748883
1772366273315617000,4.121616943359375,-0.022257424515485763,0.0013339976832736282,0.005026961316540837
1772366273325687300,4.131687255859375,-0.027503508475422857,0.0022195757456123827,0.004649725501984357
1772366273335757000,4.141757080078125,-0.029304420417547224,-0.001551448959391564,0.003179141492769122
1772366273345827000,4.1518271484375,-0.03574234451055527,0.00865788343111053,0.007299290162697434
1772366273355898000,4.161898193359375,-0.03709259007573128,0.002063207006966695,0.002405380641296506
1772366273365968100,4.171968017578125,-0.03035597529709339,0.0010986636905930935,0.005749247709102928
1772366273376038100,4.1820380859375,-0.0315583368241787,0.007877409711061045,0.006957965911738574
1772366273386108200,4.192108154296875,-0.02632394330203533,0.011286259173322469,0.00733308283444494
1772366273396178200,4.20217822265625,-0.029318448942899703,0.0014690131066367029,0.0038315044542774554
1772366273406248200,4.212248291015625,-0.04113748155236244,0.003690251086372882,0.00623809067197144
1772366273416319200,4.2223193359375,-0.03515314644575119,0.009603804245404898,0.010392799198627472
1772366273426389200,4.23238916015625,-0.0163040690690279,0.003363001026539132,0.007739106352068484
1772366273436459000,4.242458984375,-0.01630056193768978,0.00736819068044424,0.010493921485543251
1772366273446529000,4.252529052734375,-0.02453939797282219,-0.005343973110150546,0.009852481776848434
1772366273456599300,4.262599365234375,-0.03158171769976616,0.010470860270364209,0.006948102104850113
1772366273466669000,4.2726689453125,-0.03533434823155403,0.009799664744222536,0.010715966738387941
1772366273476740000,4.282739990234375,-0.044323125851154326,0.007243833648413419,0.004789608896709979
1772366273486810000,4.29281005859375,-0.03864566473662853,0.005914804401202127,0.0033768194893375038
1772366273496880000,4.302880126953125,-0.03626198447048664,0.008228278108499944,0.00865983792617917
1772366273506950100,4.3129501953125,-0.026546646142005918,0.004816432971553877,0.010512918446958064
1772366273517020200,4.323020263671875,-0.03282967193424702,0.0032437585610430686,0.0044093408748507494
1772366273527090200,4.333090087890625,-0.05901975972354412,0.01130145674245432,0.004324475602991879
1772366273537161200,4.3431611328125,-0.01158230124413967,0.002213136871671304,0.003482508353516459
1772366273547231200,4.353231201171875,-0.03328092283308506,0.0043148492581211026,0.0031668665330857036
1772366273557301000,4.363301025390625,-0.04091010253727436,0.010861923680873587,-0.00008497486971318721
1772366273567371000,4.37337109375,-0.025496844828128813,0.010591792369447649,0.009511011395417154
1772366273577441300,4.383441162109375,-0.03372165233790874,0.010989395118597894,0.004254990563355386
1772366273587512000,4.393511962890625,-0.030720132434368132,0.004770602802140638,0.003123648445867002
1772366273597582000,4.40358203125,-0.03281096723377704,-0.0019087653639260679,0.007674626281112432
1772366273607652000,4.413652099609375,-0.034005145454406735,0.005552647424768656,0.0098272742703557
1772366273617722000,4.42372216796875,-0.03490355559885502,0.006238428598688915,0.009544913665018976
1772366273627792100,4.433792236328125,-0.03161269735991955,-0.0008863269810099154,0.004290317605063319
1772366273637862100,4.443862060546875,-0.04208440701365471,0.005709107494959608,0.007466938347183168
1772366273647933200,4.45393310546875,-0.03864215760529041,0.006844157673185691,0.002860357867181301
1772366273658003200,4.464003173828125,-0.02323006893992424,0.009648337506875396,0.0065806204993277785
1772366273668073200,4.4740732421875,-0.035651743617653844,0.0003340816594194621,0.008926891364529729
1772366273678143000,4.48414306640625,-0.04208557605743408,-0.000576201585913077,0.0077339552529156206
1772366273688213000,4.494212890625,-0.026532033094763756,0.00388793821609579,0.005450593556091189
1772366273698283300,4.504283203125,-0.04045125285387039,0.011144558280846104,0.005995148761570453
1772366273708354300,4.514354248046875,-0.0314753347158432,0.007616292823152617,0.006855528450571
1772366273718423800,4.524423828125,-0.020702596288919448,0.009470615452947095,0.01265109951943159
1772366273728493800,4.534493896484375,-0.03223053699731827,-0.006808273509051651,0.011002199801243841
1772366273738564000,4.544564208984375,-0.029682021558284758,0.002359395208256319,0.007486592895723879
1772366273748633900,4.5546337890625,-0.03371931425035,0.007371880474872887,0.011278934383392333
1772366273758703900,4.564703857421875,-0.03117255237698555,-0.0033703166833147407,0.002969261601753533
1772366273768775000,4.57477490234375,-0.04074526736438274,0.0027291053034830836,0.009968984295986591
1772366273778846000,4.584845947265625,-0.03939268371164799,-0.003538558522844687,0.01398136174250394
1772366273788917000,4.5949169921875,-0.04014437886178493,-0.005371262975875288,0.012408669065684079
1772366273798987000,4.604987060546875,-0.029071196183562277,0.011722997489618137,0.0017591186270117759
1772366273809057000,4.61505712890625,-0.030111645147204397,-0.0003693265027366578,0.002958521012030542
1772366273819126800,4.625126708984375,-0.03534603866934776,0.0014004505156073718,0.010356814569793642
1772366273829197000,4.635197021484375,-0.028756723406910895,0.005448776058340445,0.00969319956190884
1772366273839267000,4.64526708984375,-0.03668868544995785,0.010395192085113376,0.011584164407663047
1772366273849338000,4.655338134765625,-0.036243279770016665,0.01170631121629849,0.008658851545490323
1772366273859408000,4.665407958984375,-0.04447743963003158,0.011727801528898999,0.0162264372555539
1772366273869478000,4.675477783203125,-0.041483518511056895,0.004872729736054316,0.01640910034608096
1772366273879548200,4.685548095703125,-0.02771568992137909,0.00915477270311676,0.01478749049361795
1772366273889618000,4.695617919921875,-0.03758943368196487,0.005011754614254459,0.008591594995558262
1772366273899688000,4.70568798828125,-0.03040390609204769,0.011400734132155775,0.01405979727357626
1772366273909759000,4.715759033203125,-0.022321721923351287,0.006084918537409976,0.004813610826805234
1772366273919829000,4.7258291015625,-0.029058336701989172,0.009012176761496812,0.004136478750221431
1772366273929899000,4.73589892578125,-0.032203648990392686,0.006674481928395107,0.005126804961822926
1772366273939969000,4.745968994140625,-0.044323125851154326,0.007968887386796996,0.0030832068376243113
1772366273950038800,4.756038818359375,-0.050609074252843854,-0.0009626984191592783,0.006805844089947641
1772366273960109000,4.766109130859375,-0.04342179309725761,0.008735862304456532,0.006306808526627719
1772366273970180000,4.77618017578125,-0.03533785536289215,0.008586544361105189,0.009699446639604866
1772366273980249900,4.786249755859375,-0.02666121243238449,0.013054364824388175,0.012372940165176987
1772366273990319900,4.79631982421875,-0.04745616317987442,0.008098002792336046,0.006634250382706522
1772366274000390100,4.80639013671875,-0.028452187502384183,0.013380445840442552,0.009189012899436057
1772366274010460000,4.8164599609375,-0.03682780165970325,0.0054065078191924834,0.0025394918823614717
1772366274020530000,4.826530029296875,-0.02380991465449333,0.008408804040867834,0.01090052952505648
1772366274030601000,4.83660107421875,-0.0303992299169302,0.003575365135585889,0.00258504805713892
1772366274040671000,4.8466708984375,-0.04387245947420597,0.00699300982565619,0.010823007309436798
1772366274050741000,4.856740966796875,-0.034600773259997365,-0.004076592655992135,0.004712086681090295
1772366274060811000,4.86681103515625,-0.028017303216457366,-0.0089511764224153,0.009499795881658791
1772366274070880800,4.876880859375,-0.02442775429189205,-0.0017247870991472154,0.010187924276292323
1772366274080951000,4.886950927734375,-0.032654899889230725,-0.000225661982037127,0.0048612858934327955
1772366274091022000,4.89702197265625,-0.03340659503936767,0.010233672247314826,0.000752170074172318
1772366274101091800,4.907091796875,-0.041189504000544545,0.0037140794865321365,0.005623319774493575
1772366274111161900,4.917161865234375,-0.039836335825920104,0.003369969623442739,0.009205489110201597
1772366274121232100,4.927232177734375,-0.029060674789547918,0.011961884279409423,0.009699811965785921
1772366274131302000,4.937302001953125,-0.0365425549775362,0.008501943950727581,0.005661204099468887
1772366274141372000,4.947371826171875,-0.03729541917145252,0.007870879505574703,0.00883771524373442
1772366274151443000,4.95744287109375,-0.03864098856151104,0.007097739708609879,0.009190437671542167
1772366274161513000,4.967512939453125,-0.037892216020822524,0.0008507259446661919,0.005321268087998032
1772366274171583000,4.9775830078125,-0.023079846814274788,0.009090310898469761,0.0037892727477475997
1772366274181653000,4.987653076171875,-0.03655073828399181,0.004470642608031631,0.0016191621670499444
1772366274191722800,4.99772265625,-0.0354968453168869,-0.0015139390937518329,0.012087182026356459
1772366274201793000,5.00779296875,-0.036243279770016665,0.011054304447816684,0.0058447074402123685
1772366274211864000,5.017864013671875,-0.03653670975863933,0.0016888481360860168,0.007156045767106115
1772366274221934000,5.02793408203125,-0.02815700394809246,0.0014542995946947484,0.006865136529132724
1772366274232003800,5.03800390625,-0.033250527694821355,0.0036486678338143973,0.005113068697415292
1772366274242074000,5.04807421875,-0.03086041768789291,0.005765102865360677,0.004427534118667245
1772366274252143900,5.058143798828125,-0.03908873232901096,0.002338224556064233,0.013889299544878303
1772366274262214000,5.0682138671875,-0.028167525342106817,0.0048373844280373305,0.004592734617739916
1772366274272285000,5.078284912109375,-0.02741758375763893,0.003686579558253288,0.00493975795712322
1772366274282355000,5.08835498046875,-0.03280453749299049,0.010588175640255212,0.00838675660584122
1772366274292425000,5.098425048828125,-0.0425204603433609,-0.0038291024346370247,0.009204648859985173
1772366274302495000,5.108494873046875,-0.03623042028844356,0.0036209304435178636,0.012935250223055481
1772366274312564700,5.118564697265625,-0.030241993528604506,0.00720646991324611,0.01479092455971986
1772366274322635000,5.128635009765625,-0.037569559937715526,0.003883335106214508,0.00860434487927705
1772366274332706000,5.1387060546875,-0.034279286220669745,0.003981543916836381,0.012745390206761657
1772366274342776000,5.148776123046875,-0.04011749085485935,-0.00018770459182560444,0.013301818513125181
1772366274352845800,5.158845703125,-0.03293780848383903,0.000994216935429722,0.0033566169515252113
1772366274362916000,5.168916015625,-0.03817454009354114,0.008329665256896986,0.004264452511444688
1772366274372986000,5.178986083984375,-0.04714636657834053,0.0027252693785820153,0.008159523721225559
1772366274383056000,5.189055908203125,-0.03353635889887809,0.0056619164855219424,0.010868782679922879
1772366274393126000,5.1991259765625,-0.025910686326026916,0.013459849485894664,0.009399038920924066
1772366274403197000,5.209197021484375,-0.03114800245761871,0.014697547187842427,0.003273870571516454
1772366274413267000,5.219266845703125,-0.029207389783859252,0.004567737173801288,0.00494421493653208
1772366274423337000,5.2293369140625,-0.04238894291818142,0.005625940989842638,0.00599755991436541
1772366274433407000,5.239406982421875,-0.03386602924466133,0.0035748902115505187,0.008587101483531296
1772366274443477000,5.24947705078125,-0.03641454468369484,0.010574265845911576,0.003240077899768948
1772366274453547000,5.259547119140625,-0.03387888872623444,0.00851739724818617,0.0009473638527095317
1772366274463618000,5.2696181640625,-0.04195990385115146,0.012972129901032895,0.01248056525811553
1772366274473687800,5.279687744140625,-0.03148001089096069,0.003619441739330068,0.012281754750385879
1772366274483758000,5.289758056640625,-0.03821194949448108,0.0065547188730910415,0.003594078969210386
1772366274493828000,5.299828125,-0.03955693436264991,0.006059610566217452,0.008708060982078313
1772366274503897900,5.30989794921875,-0.03267594267725944,0.009543607623921707,0.01476385388970375
1772366274513967900,5.3199677734375,-0.04060907376408577,0.0030595885000191626,0.014144370284490287
1772366274524039000,5.330038818359375,-0.045399230650067325,-0.003056976417824626,0.0028807430680841207
1772366274534109000,5.34010888671875,-0.03956804027855396,0.007841014090273529,0.01340166215840727
1772366274544179000,5.350178955078125,-0.038974166038632393,0.009412957848422228,0.0028011384932324288
1772366274554249000,5.3602490234375,-0.03344809609353542,-0.005239206694578752,0.007218406946212053
1772366274564319000,5.370319091796875,-0.035092356169223786,0.0011588785783853382,0.010087130782939492
1772366274574389000,5.380388916015625,-0.0261117618560791,0.006820374938799068,0.006995484910532832
1772366274584460000,5.3904599609375,-0.043323008897900576,0.010122713552974163,0.01022171694803983
1772366274594529800,5.40052978515625,-0.046616205224394795,0.0049295744898263365,0.010061557950265705
1772366274604600000,5.41060009765625,-0.021173136410117147,0.003067260349821299,0.005021773684769869
1772366274614670000,5.420670166015625,-0.030448914277553557,0.006732276530237868,0.010583535997755826
1772366274624739800,5.43073974609375,-0.03433949197530746,0.00828435567729175,0.0113381172247231
1772366274634809900,5.440809814453125,-0.037490064960718154,0.004916030021663755,0.008780651294253766
1772366274644881000,5.450880859375,-0.03539572302997112,0.010312628368195145,0.0032102672833949327
1772366274654951000,5.460950927734375,-0.035541853502392765,0.01509796294858679,0.011217705715447664
1772366274665021000,5.47102099609375,-0.05005670106709003,-0.0011228391506243496,0.014081716844439505
1772366274675091000,5.481091064453125,-0.03463876718282699,0.008575694173527881,0.004604534653387964
1772366274685161000,5.491160888671875,-0.03269347833395004,0.005780638361210003,0.006109240127913654
1772366274695231000,5.50123095703125,-0.04197919307351112,0.00014496142864227294,0.00234937613774091
1772366274705301000,5.511301025390625,-0.04063713081479072,0.00697778485706076,0.0006315393691882491
1772366274715372500,5.52137255859375,-0.03315992680191993,0.009867752411216497,0.007534341027587652
1772366274725442300,5.5314423828125,-0.04528174175024032,0.005551843707170337,0.00643386897239834
1772366274735512600,5.5415126953125,-0.036304070046544075,-0.0011540928054135293,0.014809884988516568
1772366274745582600,5.55158251953125,-0.03316401845514774,0.004849604588793591,0.006406359910964965
1772366274755652400,5.56165234375,-0.023586627292633056,0.005881623650807887,0.006453815781883895
1772366274765722600,5.57172265625,-0.02597615277767181,0.006899230594979599,0.009246917099133133
1772366274775792400,5.58179248046875,-0.03569441371560097,-0.000054324003122746945,0.0007552753467112779
1772366274785863400,5.591863525390625,-0.02611351542174816,0.00720288971667178,0.0037062341067939995
1772366274795933400,5.601933349609375,-0.02312251691222191,-0.00655953204552643,0.009657397596165537
1772366274806003500,5.61200341796875,-0.03224690361022949,0.008236516213882715,0.012843443753756583
1772366274816073500,5.622073486328125,-0.03688976098001003,0.0050488352216314526,0.0109830201767385
1772366274826143500,5.6321435546875,-0.029711832174658774,0.016553477252833543,0.008061068315431475
1772366274836213200,5.642213134765625,-0.036596330991387364,-0.0022672508122399447,0.012974632385373115
1772366274846284300,5.6522841796875,-0.03869418005347252,0.010441232317080721,0.017255926433764397
1772366274856354600,5.6623544921875,-0.034648704054951664,0.007367734022717922,0.01214504969343543
1772366274866424600,5.672424560546875,-0.03928045550882816,0.0042104847013484685,0.008413352351821958
1772366274876494300,5.682494384765625,-0.03298924641013145,0.0013157313742209226,0.009290317849442363
1772366274886564600,5.692564697265625,-0.03464052074849605,0.009082611649204046,0.0038103520683944224
1772366274896634600,5.702634521484375,-0.04347498458921909,0.00520520396027714,0.010146971211396157
1772366274906704400,5.712704345703125,-0.04227729923725128,0.00714243736686185,0.009116824446059763
1772366274916775400,5.722775390625,-0.03957914619445801,0.00972775941863656,0.006806282481364906
1772366274926845400,5.732845458984375,-0.035839959666132924,0.011366165142273529,0.012451667957194148
1772366274936915500,5.74291552734375,-0.03329436683654785,0.0056521166107151655,0.009072327717207371
1772366274946985500,5.7529853515625,-0.030592706662416456,-0.004427068327786401,0.007740859917737543
1772366274957055500,5.763055419921875,-0.027898645272850988,0.0011942969516385345,0.013011420731805265
1772366274967125500,5.77312548828125,-0.03567395544946193,0.004389092671265826,0.010727145719528198
1772366274977196500,5.783196533203125,-0.04285188425481319,-0.00011726970411837101,0.006638780427351594
1772366274987266600,5.7932666015625,-0.028183891955018043,0.003442231142055243,0.008499861591495572
1772366274997336300,5.80333642578125,-0.04104629613757133,0.0075539042445831,0.0056662456007674335
1772366275007406600,5.813406494140625,-0.02907411879301071,-0.0021828421981073915,0.008260938269086181
1772366275017476600,5.8234765625,-0.041190088522434234,0.006206636087782681,0.010167283347062767
1772366275027546400,5.83354638671875,-0.047016602718830104,0.010448100449284538,0.011577186677604913
1772366275037616400,5.843616455078125,-0.042375498914718625,0.005631968871830031,0.009987579398602247
1772366275047687400,5.8536875,-0.028150574207305906,0.003661289853369817,0.008681538301333785
1772366275057757400,5.86375732421875,-0.028443419674038885,0.006394057551817968,0.008241795177198946
1772366275067827500,5.873827392578125,-0.023348726883530617,0.008487166506703942,0.013332542444951832
1772366275077897500,5.8838974609375,-0.02439677463173866,-0.0027775475550908596,0.014654986687749623
1772366275087967500,5.893967529296875,-0.03232406049966812,0.003463045601220801,0.006943316331878304
1772366275098037500,5.90403759765625,-0.0344248321712017,0.0017581505126319824,0.0012977116603404282
1772366275108107500,5.914107421875,-0.030977906587719914,0.0061640573213808236,0.008162044471874833
1772366275118178300,5.92417822265625,-0.03711421738564968,0.006667495065182447,0.008000387636758387
1772366275128248600,5.93424853515625,-0.03591770107746124,0.0026555194774642585,0.009073204500041902
1772366275138318600,5.944318603515625,-0.03366436919271946,0.011484868751652538,0.014830635515600443
1772366275148388400,5.954388427734375,-0.033064649733901025,0.015726954167662188,0.003643580666743219
1772366275158458400,5.964458251953125,-0.03291267404258251,0.00673745502885431,0.004778247252479195
1772366275168528600,5.974528564453125,-0.030671617117524145,0.0018822061505634337,0.005022431271895766
1772366275178599400,5.984599365234375,-0.029925767186284064,0.006439147935714572,0.012428981201350688
1772366275188669400,5.99466943359375,-0.03336450946331024,0.004659388379473239,0.009958718630298971
1772366275198739500,6.004739501953125,-0.03290916691124439,0.007480793342599645,0.002906608161702752
1772366275208809500,6.0148095703125,-0.03604220423996448,0.006891211685305461,0.0038709962144494055
1772366275218879500,6.02487939453125,-0.03439151442348957,0.0032538324304856358,0.00039787674378603696
1772366275228949500,6.034949462890625,-0.03752805888354778,0.0035206118742004034,0.008898651650734245
1772366275239019500,6.04501953125,-0.04200725012421608,-0.00019301095460541546,0.008238068850152195
1772366275249090600,6.055090576171875,-0.034224925684928895,0.0006416132386308162,0.012462225883826613
1772366275259160600,6.06516064453125,-0.030773908448219298,0.0033930125723127275,0.005475691464729607
1772366275269230300,6.075230224609375,-0.03361526935398578,0.008222725150547922,0.00476841997820884
1772366275279300400,6.08530029296875,-0.03974982658624649,0.004845777797047049,0.010156542757339775
1772366275289370600,6.09537060546875,-0.03840075006484985,0.0036602304074447598,0.008678761822357774
1772366275299440400,6.1054404296875,-0.03690262046158314,-0.00008439948097802698,0.007668123475089669
1772366275309510400,6.115510498046875,-0.032712767556309696,0.006088517000293359,0.01051781381778419
1772366275319581400,6.12558154296875,-0.040491584864258766,-0.00029985972940921784,0.01118643379434943
1772366275329651500,6.1356513671875,-0.04317629390358925,0.008450716086989269,0.005849274017475545
1772366275339721500,6.145721435546875,-0.0464636450111866,0.008308211476914584,0.007718721151165664
1772366275349791500,6.15579150390625,-0.036736616244912146,0.008452780179912224,0.009083104839548469
1772366275359861200,6.165861328125,-0.02701017200052738,0.005702513357391581,0.010751074584387243
1772366275369931500,6.175931640625,-0.043617607930302615,0.006492558623384684,0.007369213593751192
1772366275380001500,6.18600146484375,-0.02864800233542919,0.0024294647697824983,0.014229052893258631
1772366275390072300,6.196072265625,-0.03806874163150787,0.0025561781556811183,0.007150638939626515
1772366275400142300,6.206142333984375,-0.03341945452094078,0.0030474414044991136,0.009189633953943848
1772366275410212600,6.216212646484375,-0.034165888974070545,0.005502835199981928,0.009092420657165349
1772366275420282400,6.226282470703125,-0.0371568874835968,0.0065857259327080095,0.009282682532258332
1772366275430352400,6.236352294921875,-0.03625321664214134,0.00997710367036052,0.005361088641732931
1772366275440422700,6.246422607421875,-0.02592179224193096,0.0025284407653845846,0.0028263094671070574
1772366275450492400,6.256492431640625,-0.029216742134094236,0.0048816528280265625,0.011612075327895582
1772366275460563500,6.2665634765625,-0.031164369070529937,0.005066717938194051,0.008568652511388063
1772366275470633500,6.276633544921875,-0.03415887471139431,0.011933050910569726,0.009167823980934917
1772366275480703200,6.286703125,-0.027572482058405876,0.014886676551774143,0.005943272443860769
1772366275490773500,6.2967734375,-0.0416401703774929,0.0007028510397300124,0.007714958291500806
1772366275500843500,6.306843505859375,-0.03909808467924595,0.00032557869255542754,0.00858801479898393
1772366275510913300,6.316913330078125,-0.028773090019822117,0.009623568391799927,0.014274499470181763
1772366275520983600,6.326983642578125,-0.03804185362458229,0.00372281078225933,0.005327478633075952
1772366275531054600,6.3370546875,-0.04252981269359588,0.007148072523204609,0.006543795620277524
1772366275541124400,6.347124267578125,-0.03310264365673065,0.014096622152626513,0.011012830793112516
1772366275551194400,6.3571943359375,-0.04656944347321987,0.004226001930888742,0.012376958753168582
1772366275561264600,6.3672646484375,-0.03520166176259518,0.004060381306707859,0.011405118046328424
1772366275571334400,6.37733447265625,-0.03310089009106159,0.0005113561887759716,0.016480558147095144
1772366275581404400,6.387404296875,-0.037889877933263774,0.004437964181136339,0.010348631263338029
1772366275591474400,6.397474365234375,-0.029949732583761213,0.012569796177837997,0.00948141997475177
1772366275601545500,6.40754541015625,-0.03802782509922981,0.0024032800157554445,0.007139277295395732
1772366275611615500,6.417615478515625,-0.04266483725011348,-0.00015159209882840513,0.010019216645881533
1772366275621685500,6.427685546875,-0.03068973729610443,-0.003608911212161183,0.007564188176579773
1772366275631755300,6.43775537109375,-0.03577800034582615,0.0048040027482435105,0.01115801141746342
1772366275641825500,6.447825439453125,-0.03591477846801281,0.008618017211603,0.01138685173727572
1772366275651895600,6.4578955078125,-0.023790040910243986,0.009306830592826009,0.00039579438455402847
1772366275661965300,6.46796533203125,-0.02798047833740711,-0.0006753419782966375,0.004579546342603862
1772366275672036400,6.478036376953125,-0.041591655060648915,0.01036971058398485,0.009522884496301412
1772366275682106400,6.4881064453125,-0.04233341333866119,0.009705739383073522,0.0027670900931581854
1772366275692176600,6.4981767578125,-0.03035422173142433,0.009812259364314378,0.011781550143286586
1772366275702246400,6.508246337890625,-0.039622400814294814,0.00452177914022468,0.019186017713509498
1772366275712316400,6.51831640625,-0.044858547902107235,0.01667657390953973,0.008737177478708327
1772366275722385700,6.5283857421875,-0.03736731536388397,0.007567521777981891,0.00910506094302982
1772366275732455700,6.53845556640625,-0.03751110774874687,0.009483411002438515,0.012407244293577969
1772366275742526700,6.548526611328125,-0.03450900332331657,0.010690795764513313,0.013360307234711944
1772366275752596700,6.5585966796875,-0.04228548254370689,0.003966191084077582,0.013142755493894218
1772366275762666800,6.568666748046875,-0.04078150772154331,0.007328927249135449,0.00566284806728363
1772366275772736800,6.57873681640625,-0.03704524380266666,0.009686669356422498,0.002891264462098479
1772366275782806500,6.588806640625,-0.03704641284644603,0.005453132573049515,0.017242336299829183
1772366275792876800,6.598876708984375,-0.033601240828633305,0.011136192311299965,0.008941869737952947
1772366275802946800,6.60894677734375,-0.02971124765276909,0.00950007900944911,0.007133249413408338
1772366275813017600,6.619017578125,-0.037491818526387215,0.0010609528955537826,0.017053133870661256
1772366275823087600,6.629087646484375,-0.03644727790951729,0.010080271783890203,0.0054732437793165445
1772366275833158000,6.639157958984375,-0.037191958796977995,0.0023095829834695906,0.003451419095508754
1772366275843227600,6.6492275390625,-0.028657939207553863,0.009768657684605568,0.011033837048523128
1772366275853297700,6.659297607421875,-0.0328477921128273,0.009765378882130608,0.008791355351358651
1772366275863367700,6.66936767578125,-0.044214989301562306,0.0042371626457199454,0.015051073333248495
1772366275873437700,6.679437744140625,-0.032848961156606675,0.007888844420528038,0.016709179271198808
1772366275883508700,6.6895087890625,-0.04077916963398456,0.013098441428132355,0.01027903662584722
1772366275893578800,6.699578857421875,-0.03404898459613323,0.005144221887504682,0.008857333259657025
1772366275903648500,6.7096484375,-0.040621933245658874,0.00517765836622566,0.011209668539464474
1772366275913718800,6.71971875,-0.03717383861839771,0.003558121739840135,0.016593991926312446
1772366275923788800,6.729788818359375,-0.03447627009749412,0.014628719735331832,0.015340557799115776
1772366275933858600,6.739858642578125,-0.03402560372054576,0.006757648433512077,0.01045793685670942
1772366275943928800,6.7499287109375,-0.035516134539246555,0.011270221353974192,0.013281250649131833
1772366275954000000,6.759999755859375,-0.03041735009551048,0.001055217274511233,0.011127616279199719
1772366275964069600,6.770069580078125,-0.03625204759836197,0.008737981196306645,0.009367438206262886
1772366275974139600,6.7801396484375,-0.028017887738347052,0.00044441929925233124,0.0096301442630589
1772366275984209700,6.790209716796875,-0.038490181913971896,0.00011867620991542935,0.014611366741731762
1772366275994279700,6.80027978515625,-0.03639642450511455,0.000600532309571281,0.0059188321223482485
1772366276004349700,6.810349609375,-0.038194413837790486,-0.00046664939736947416,0.003015292700566351
1772366276014419700,6.820419677734375,-0.027565467795729635,0.008012151139788329,0.005659450533799827
1772366276024489700,6.83048974609375,-0.04866203183829784,0.018391122742462903,0.011709032896347343
1772366276034560800,6.840560791015625,-0.042968788632750506,0.0015226703894790261,0.009594707623496651
1772366276044630800,6.850630859375,-0.026508652219176292,-0.0026814850357826797,0.01078150625526905
1772366276054700500,6.860700439453125,-0.03204348999261856,0.006201411923393607,0.009490516596660017
1772366276064770800,6.870770751953125,-0.03563479248285294,0.0011721581850666551,0.007821816199459136
1772366276074840800,6.8808408203125,-0.04206628683507442,0.006749328129738569,0.0020666136736050248
1772366276084910600,6.89091064453125,-0.029499650728702545,0.006892965250974521,0.013666596704907715
1772366276094980600,6.900980712890625,-0.03728080612421036,0.01366500753602013,0.009459500403888522
1772366276105051600,6.9110517578125,-0.02380173134803772,-0.00418821807061322,0.008928535332344473
1772366276115121700,6.92112158203125,-0.025895488756895065,0.0022509207319468256,0.009256196384131908
1772366276125191700,6.931191650390625,-0.033224224209785456,-0.0008492737730965017,0.012659027097560465
1772366276135261700,6.94126171875,-0.03696750239133834,0.002444616673141718,0.011721819312684238
1772366276145331700,6.951331787109375,-0.03308393895626068,0.008165341540658845,0.010673479303531347
1772366276155401700,6.961401611328125,-0.026940613895654678,0.003430997361987829,0.01142736641075462
1772366276165471700,6.9714716796875,-0.04459609757363796,0.008723623877391219,0.0048958092175424095
1772366276175542500,6.98154248046875,-0.04010404685139656,0.013186722499784082,0.007837123366445303
1772366276185612800,6.99161279296875,-0.026042203751206396,0.002600199960498139,0.0044568698110058905
1772366276195682800,7.001682861328125,-0.03293313230872154,0.00299496229859069,-0.0020152853451669214
1772366276205752600,7.011752685546875,-0.03906652049720287,0.00022092187483794987,0.012406002184562384
1772366276215822600,7.021822509765625,-0.03383095793128013,0.0021121881146915255,0.010298289315588773
1772366276225892900,7.031892822265625,-0.03667407240271568,0.0042807095265015955,0.01162497134208679
1772366276235962600,7.041962646484375,-0.03622574411332607,0.009270517170429229,0.005633110516145825
1772366276246032600,7.05203271484375,-0.03263736423254013,0.006419475120864808,0.012310761649161577
1772366276256103700,7.062103759765625,-0.03937397901117801,0.005413494682405143,0.0029715631566941737
1772366276266173700,7.072173583984375,-0.04222235417962074,0.00847625238704495,0.007473550751060247
1772366276276243700,7.08224365234375,-0.030991350591182708,0.006990498208161443,0.009906878845207393
1772366276286313700,7.092313720703125,-0.0408691860049963,0.0042642333157360554,0.010462539966590701
1772366276296383700,7.1023837890625,-0.03518412610590458,0.012374848994472994,0.007290376203879714
1772366276306453800,7.112453857421875,-0.03907528832554817,0.010357326026447117,0.006670746468193828
1772366276316523800,7.122523681640625,-0.04176876519322395,0.012098662401596084,0.008006671247072517
1772366276326593500,7.132593505859375,-0.02695931859612465,0.0010899689274840056,0.011658252557180821
1772366276336664600,7.14266455078125,-0.029807109242677685,0.003307252251310274,0.005892126778513192
1772366276346734800,7.15273486328125,-0.029511341166496275,0.0006723097709938884,0.013011165003478526
1772366276356804600,7.1628046875,-0.034600188738107676,0.006853482623957097,0.0070027183689177035
1772366276366874600,7.17287451171875,-0.032658991542458535,0.004430264931870624,0.006310680984146892
1772366276376945000,7.18294482421875,-0.02189151381254196,0.015404170220391825,0.007934373195841908
1772366276387014700,7.1930146484375,-0.03955225818753242,0.014709328957181423,0.00652527358289808
1772366276397084700,7.203084716796875,-0.040136780077219006,0.013967707676487043,0.004740143731795251
1772366276407155700,7.21315576171875,-0.03550035244822502,0.009579108195565641,0.012461750959791242
1772366276417225500,7.2232255859375,-0.03160919022858143,0.0050528720759321,0.009437178974226117
1772366276427295700,7.233295654296875,-0.04552899450957775,0.005568813108280301,0.0002843333667144179
1772366276437365800,7.24336572265625,-0.03580547287464142,0.01027427825233899,0.004127820519730449
1772366276447435500,7.253435546875,-0.04267769673168659,0.002442561713373288,0.00840242909900844
1772366276457505800,7.263505859375,-0.03729308108389377,-0.0014468560737557709,0.00987304964084178
1772366276467575800,7.273575927734375,-0.041780455631017684,0.0032063034943304956,0.008608144271560012
1772366276477645600,7.2836455078125,-0.03787935653924942,0.002207666112110019,0.005713190015032887
1772366276487716600,7.293716552734375,-0.03188274647295475,0.005424317470518872,0.011814502564817666
1772366276497787000,7.303786865234375,-0.027837270474433896,0.016351387942628935,0.0081969331221655
1772366276507856600,7.313856689453125,-0.035168928536772726,0.002138500732881948,0.009251081817597151
1772366276517926700,7.3239267578125,-0.03352525298297405,0.007137368466099724,0.004579875136166811
1772366276527996700,7.33399658203125,-0.035622517523169514,0.0018050857937429098,0.004503631562180817
1772366276538066700,7.344066650390625,-0.04176175093054771,-0.0045561106680892405,0.007688618273846805
1772366276548136700,7.35413671875,-0.044458734929561615,0.006418306077085435,0.014199717200919984
1772366276558206700,7.364206787109375,-0.03623217385411262,0.004973925088206306,0.006618102965503931
1772366276568277500,7.374277587890625,-0.03518061897456646,0.016988535068696364,0.01266837944779545
1772366276578347800,7.38434765625,-0.04506663769483566,0.011123424161272122,-0.00158726919144392
1772366276588417800,7.394417724609375,-0.031301147192716594,0.004396682322677224,0.009912285672686993
1772366276598487600,7.404487548828125,-0.03624152620434761,0.00919386260448955,0.012994506129622458
1772366276608557800,7.414557861328125,-0.03640168520212173,0.003152271752152592,0.007541976344771683
1772366276618627800,7.4246279296875,-0.033113749572634694,-0.00006151179573498667,0.0068434726865962145
1772366276628697600,7.434697509765625,-0.03386369115710258,-0.0004021053943317383,0.0052947454072535035
1772366276638768600,7.4447685546875,-0.0388081618219614,0.0077460932152811435,0.005021992880478501
1772366276648838700,7.454838623046875,-0.03656768941879272,0.004546950114099308,0.004912029699981212
1772366276658908700,7.46490869140625,-0.04464928906559944,0.002755801514163613,0.012213109960965812
1772366276668978700,7.474978759765625,-0.03132628163397312,0.008462625720491633,0.008446450903825462
1772366276679048700,7.485048583984375,-0.024291560691595077,0.003286967515107244,0.005965849601849913
1772366276689118700,7.49511865234375,-0.028182722911238668,-0.000046506022848188875,0.011026311329193413
1772366276699188700,7.505188720703125,-0.03386895185410976,0.0045039238231256605,0.0038602921573445198
1772366276709258800,7.5152587890625,-0.036409868508577345,0.0030926779188681394,0.006638634296879172
1772366276719330600,7.52533056640625,-0.04000876978337765,0.0016862543202005326,0.005408836773596703
1772366276729400600,7.535400634765625,-0.03537292667627334,0.005415202582301572,0.0026389336688444017
1772366276739470600,7.545470703125,-0.02429974399805069,0.008950445770053193,0.006997275008819997
1772366276749540600,7.55554052734375,-0.0256412217348814,0.0008449811904691159,0.0050220659457147114
1772366276759610600,7.565610595703125,-0.034922844821214674,0.00501601066426374,0.010279182756319642
1772366276769680400,7.575680419921875,-0.029689035820960996,0.0038913631490431724,0.005122421047650277
1772366276779750700,7.585750732421875,-0.03972176953554153,0.002371295708604157,0.007662643582373857
1772366276789820700,7.595820556640625,-0.03253448837995529,-0.004229006738727912,0.0055190922150388354
1772366276799891500,7.605891357421875,-0.03028349458277225,0.003110916828457266,0.012356463954411446
1772366276809961500,7.61596142578125,-0.03192366300523281,0.008225876088859514,0.011601005944609642
1772366276820031700,7.62603173828125,-0.03955518079698086,0.008155952657805755,0.011474456955492495
1772366276830101500,7.6361015625,-0.03865793969631195,0.01046795592722483,0.010124942042678595
1772366276840171500,7.646171630859375,-0.02728255920112133,0.011483133452292531,0.001198635200038552
1772366276850241500,7.656241455078125,-0.03490823177397251,0.006142978000734001,0.00014214841704815624
1772366276860311600,7.6663115234375,-0.03416062827706337,-0.0019801044339314102,0.010594240054860711
1772366276870381600,7.676381591796875,-0.03130933049917221,0.01361306728622876,0.009589337328635155
1772366276880452600,7.68645263671875,-0.039082887110114095,0.015388013670034706,0.01125697827991098
1772366276890522400,7.6965224609375,-0.04073182336091995,0.006708146735979244,0.0011665960939601064
1772366276900592600,7.706592529296875,-0.04088029192090034,0.0032221495174337175,0.0032695597225800154
1772366276910662700,7.71666259765625,-0.03863631238639355,0.004997242031712085,0.01463295751903206
1772366276920732400,7.726732421875,-0.03818272339999675,0.006728869863599538,0.01172211157362908
1772366276930802700,7.736802734375,-0.039384500405192376,0.011791824942128732,0.005664163241535425
1772366276940872700,7.746872802734375,-0.03639700902700424,0.0020549963010475037,0.011674326909147202
1772366276950943500,7.756943603515625,-0.025929975548386573,0.0020875285974703726,0.008789565253071487
1772366276961013500,7.767013427734375,-0.03670329849720001,0.007315282316273078,0.01370795162860304
1772366276971083500,7.77708349609375,-0.027423428976535796,0.013723697187006473,0.007313830144703388
1772366276981153500,7.787153564453125,-0.034306758749485015,0.005315870393672957,0.00581420270409435
1772366276991223600,7.7972236328125,-0.0362549702078104,0.004032954443665221,0.009061367931775748
1772366277001293600,7.80729345703125,-0.03594692717194557,-0.003574250890733674,0.011020100784115493
1772366277011363600,7.817363525390625,-0.041323359513282774,0.007544999418919906,0.012461824025027454
1772366277021433600,7.82743359375,-0.04071837935745716,0.008298192406399176,0.005158953665755689
1772366277031503600,7.837503662109375,-0.030539515170454976,-0.001349980703694746,0.0037320626677945254
1772366277041574400,7.847574462890625,-0.027695231655240057,0.0032217019928619263,0.008671455298736691
1772366277051644700,7.857644775390625,-0.01887128920853138,0.0014207078523468225,0.0100345238128677
1772366277061714700,7.867714599609375,-0.034442367827892305,0.004306026630848646,0.013582169824466108
1772366277071784400,7.877784423828125,-0.02053133137524128,0.008405616569938138,0.008206687331199645
1772366277081854500,7.8878544921875,-0.028466216027736663,0.004132788955792784,0.010043328173831105
1772366277091924700,7.8979248046875,-0.04463233793079853,0.007705341079784557,0.010342347653023899
1772366277101994500,7.907994384765625,-0.031766426616907116,0.005872371765272692,0.009067615009471773
1772366277112065500,7.9180654296875,-0.02952069351673126,-0.0023939733312930912,0.008011785813607276
1772366277122135600,7.928135498046875,-0.030419688183069227,0.006141416231309995,0.005107333076372743
1772366277132205600,7.93820556640625,-0.045827100673317904,-0.001946220430638641,0.0117721977930516
1772366277142275600,7.948275634765625,-0.034602526825666426,0.007909394018212333,0.008818572151847183
1772366277152345600,7.958345703125,-0.037595278900861735,0.004733129469119012,-0.00020582477040588854
1772366277162415600,7.96841552734375,-0.031165538114309308,-0.00025254998896270987,0.008661847220174967
1772366277172485600,7.978485595703125,-0.03550795123279094,0.006002647081436589,0.009189597421325742
1772366277182555600,7.9885556640625,-0.030117490366101264,0.0018639581078197806,0.0025386881647631527
1772366277192624600,7.998624755859375,-0.04806640403270721,0.006383801019284874,0.013638795382529496
1772366277202694700,8.008694580078124,-0.0440191744685173,0.011140265698218717,0.020108904712088406
1772366277212764400,8.018764404296874,-0.03982815251946449,0.0013894176649395375,0.00845960264634341
1772366277222834700,8.028834716796876,-0.030400983482599255,-0.0010535459072329102,0.003512318969890475
1772366277232904700,8.03890478515625,-0.03234568780958652,0.008053003739984705,0.01220054274033755
1772366277242975500,8.0489755859375,-0.032196634727716444,0.0030506014759652316,0.009626271805539727
1772366277253045500,8.05904541015625,-0.040871524092555046,0.012136190533544868,0.00910951792243868
1772366277263115500,8.069115478515625,-0.0342898076146841,0.007346809965698048,0.01516823343951255
1772366277273185500,8.079185546875,-0.033848493587970735,0.0020301358544267713,0.0073436042284592985
1772366277283255600,8.089255615234375,-0.03683481592237949,0.005509429337549955,0.004466039498150348
1772366277293325600,8.09932568359375,-0.026509236741065978,0.0036457726238295434,0.009105608932301402
1772366277303395600,8.1093955078125,-0.03174421478509903,-0.006175117571512237,0.0077947089968249195
1772366277313465600,8.119465576171875,-0.034437107130885124,0.0058824091020971535,0.00947608621250838
1772366277323536600,8.12953662109375,-0.03458908282220363,0.002134747006371617,0.01123772559016943
1772366277333606400,8.1396064453125,-0.031900866651535034,0.00037907157861627634,0.012484401183016598
1772366277343676700,8.1496767578125,-0.03938976110219955,-0.00062530142464675,0.013195106735639273
1772366277353746700,8.15974658203125,-0.038346389529109,0.0035560941795352843,0.006972432828508317
1772366277363816400,8.16981640625,-0.04058920001983642,0.002073920197226107,0.011056048880331218
1772366277373886500,8.179886474609376,-0.03280746010243892,0.0023190814641769974,0.008514145845174789
1772366277383956700,8.189956787109375,-0.03728898943066597,-0.0036125279413536187,0.005523110803030431
1772366277394026500,8.200026611328125,-0.04252689008414745,0.009565198401222006,0.007304952718503773
1772366277404097500,8.21009765625,-0.03833119195997715,0.0012958210973534733,0.0005353855183348059
1772366277414167600,8.22016748046875,-0.03623217385411262,0.005447004226362333,0.004069331798143685
1772366277424237600,8.230237548828125,-0.03503624206781387,-0.00224419873021543,0.00653674482498318
1772366277434307600,8.2403076171875,-0.03788052558302879,0.0033154720903839914,0.010706614388152956
1772366277444377600,8.250377685546875,-0.028895839616656302,0.0021666491151321678,0.0008018179021775723
1772366277454447600,8.260447509765624,-0.031442016968131065,-0.001781741450773552,0.010168233195133507
1772366277464517600,8.270517578125,-0.033981764578819275,0.003014516382431611,0.007111293309926986
1772366277474587600,8.280587646484374,-0.03622632863521576,0.0017724895652383565,0.01052099215555936
1772366277484658400,8.290658447265624,-0.032788755401968954,0.007638166728243231,0.014623312907852232
1772366277494728400,8.300728515625,-0.03772621180415153,-0.0013808507659938186,0.00594287058506161
1772366277504798700,8.310798828125,-0.03563888413608074,0.001475278450641781,0.005622844850458205
1772366277514868500,8.320868408203125,-0.029812954461574552,0.0014924487811513243,0.006001761165447533
1772366277524938500,8.3309384765625,-0.02517769587635994,0.0070756648741196835,0.007579458810947835
1772366277535008800,8.3410087890625,-0.031768764704465866,-0.004776000496465712,0.006699753366969525
1772366277545078500,8.35107861328125,-0.03925181393623352,0.005467562957201153,0.009505677633173764
1772366277555148500,8.3611484375,-0.03880465469062328,0.007244299439294263,0.003482362223044038
1772366277565218600,8.371218505859375,-0.027883447703719137,0.002219922805484384,0.009834873054921627
1772366277575289600,8.38128955078125,-0.03416705801784992,0.004396956317313015,0.009850253287144005
1772366277585359600,8.391359619140625,-0.03626139994859695,0.0030696349699981507,0.007474208338186144
1772366277595429600,8.4014296875,-0.038058220237493515,0.003040965997939929,0.00911963745765388
1772366277605499400,8.41149951171875,-0.027135844206809995,0.004907435723254457,0.007314889590628444
1772366277615569700,8.421569580078126,-0.03551087384223938,-0.006263069849601015,0.010716112868860364
1772366277625639700,8.4316396484375,-0.04403787916898727,-0.0021878654330968854,0.011865100240893661
1772366277635709400,8.44170947265625,-0.04522562764883041,0.01465607353313826,0.00816230020020157
1772366277645779700,8.45177978515625,-0.03235153302848339,-0.007665858452767133,0.0022917641989886758
1772366277655850800,8.461850830078125,-0.033250527694821355,0.0038952447397168724,0.0016810484221205114
1772366277665920500,8.47192041015625,-0.03384907810986042,0.005928723328700289,0.00005622369926422834
1772366277675990500,8.481990478515625,-0.017541501909494397,0.008503332190215587,0.006721344144269823
1772366277686060500,8.492060546875,-0.03384907810986042,0.008002616126462817,0.00034906916599720717
1772366277696130600,8.502130615234375,-0.03609948738515377,-0.0012808335907757281,0.012778634889237582
1772366277706200600,8.51220068359375,-0.0335667540371418,0.005721017128461971,0.016116291411966084
1772366277716270600,8.5222705078125,-0.026234511452913282,0.0008908752919640392,0.009855915842950343
1772366277726340900,8.5323408203125,-0.031022330251336095,0.0014432667440269142,0.0029735359180718657
1772366277736412000,8.542411865234374,-0.03071662530303001,0.009948462097765877,0.011345825607143341
1772366277746482000,8.55248193359375,-0.039247137761116026,0.004690459371171891,0.014756620431318878
1772366277756551700,8.5625517578125,-0.0380500369310379,0.010119014625390992,0.012072094055078923
1772366277766622000,8.5726220703125,-0.04208966771066189,0.0044729076303541655,0.0008709010830149054
1772366277776693000,8.58269287109375,-0.02891805144846439,0.008963752776198089,0.00484389636721462
1772366277786763000,8.592762939453126,-0.033415362867712975,0.0037628322653938083,0.006611490561626851
1772366277796832800,8.602832763671875,-0.03715805652737617,0.00006965856957249343,0.0017642331935465334
1772366277806902800,8.61290283203125,-0.03625847733914852,0.0021599636460188777,0.002809760191105306
1772366277816972800,8.622972900390625,-0.030572832918167113,0.004348504932550713,0.01278104604203254
1772366277827042800,8.633042724609375,-0.03296294292509556,0.003793647528765723,0.01033803680408746
1772366277837113900,8.64311376953125,-0.03476619295477867,0.000006722001731395721,0.0037231121763586996
1772366277847184000,8.653183837890625,-0.02907937949001789,0.0005905863042920828,0.004928944302164018
1772366277857254000,8.66325390625,-0.03866320039331913,0.0020808431283570825,0.009110650433599949
1772366277867324000,8.673323974609374,-0.03747136026024818,0.011941919203614815,0.0024362507035955785
1772366277877393700,8.6833935546875,-0.0340285263299942,0.0026323212649673224,0.007839242258295416
1772366277887464000,8.6934638671875,-0.03252630507349968,0.012220379951968788,0.0054022243697196244
1772366277897534000,8.703533935546876,-0.02684592134952545,-0.0013110643322579562,0.006639876405894756
1772366277907603700,8.713603759765626,-0.037923195680975914,-0.0023996541534084827,0.01105889842454344
1772366277917673700,8.723673828125,-0.02521159814596176,0.008638859070232138,0.01163333731163293
1772366277927744800,8.733744873046875,-0.03629237960875034,-0.0043101548166945575,0.003959405150264501
1772366277937815000,8.74381494140625,-0.042729719179868696,0.0009096621908247471,0.01377060506865382
1772366277947884800,8.753884765625,-0.03600011866390705,0.0009116806179750711,-0.0029029914325103164
1772366277957954800,8.763954833984375,-0.041838907819986344,0.0033969306956045326,0.0022551585156470534
1772366277968024800,8.77402490234375,-0.026872224834561347,0.003132087480649352,0.009177432059496641
1772366277978094800,8.7840947265625,-0.039437691897153855,0.0006174377785995602,0.01077474772091955
1772366277988164900,8.794164794921874,-0.02941314148902893,-0.00017850750521756709,0.0023941651275381443
1772366277998234600,8.804234619140624,-0.03315115897357464,0.0036801498174667355,0.0011058788826689124
1772366278008305700,8.8143056640625,-0.040028643527626986,0.0019884704034775495,0.0001737125990912318
1772366278018376000,8.8243759765625,-0.03584054418802261,-0.013322760836454107,0.00704462128188461
1772366278028445700,8.83444580078125,-0.035088849037885665,-0.0009008852293249219,0.0009911664618179202
1772366278038515700,8.844515625,-0.030004677641391753,0.0033613570587243883,0.006157390118576586
1772366278048586000,8.8545859375,-0.03060439710021019,0.0017910572683904318,0.007619535093009472
1772366278058655700,8.86465576171875,-0.02985796264708042,0.007333512092707678,0.005476349051855504
1772366278068725800,8.874725830078125,-0.027466099074482917,0.0029297333089634775,0.0014025968069210648
1772366278078796000,8.884796142578125,-0.02956219457089901,0.002334178568609059,0.005865056108497082
1772366278088865800,8.89486572265625,-0.035547698721289635,0.005614889872865751,0.0036610067255795
1772366278098936800,8.904936767578125,-0.03734159640073776,0.002526869862806052,0.0037056130522862074
1772366278109006800,8.9150068359375,-0.02926584197282791,-0.0033257742886897176,0.011386559476330875
1772366278119076600,8.92507666015625,-0.031359599381685255,-0.0015432747860904782,0.0076688175948336715
1772366278129147000,8.93514697265625,-0.026276597028970717,0.0010821783466730267,0.002334507362172007
1772366278139217000,8.945216796875,-0.025669278785586357,0.005499976522615179,0.005545687961019575
1772366278149286700,8.95528662109375,-0.02731646147072315,0.004423159337649122,0.008953596708364785
1772366278159357000,8.96535693359375,-0.033149989929795266,-0.0004898932756390422,0.0020971549423411486
1772366278169427000,8.975427001953125,-0.02521685884296894,-0.00583263340992853,0.005711911373399198
1772366278179497700,8.985497802734375,-0.0172843122780323,0.005490715503925457,0.007385689804516732
1772366278189567700,8.995567626953125,-0.02102057619690895,-0.00041375016635283824,0.010169767565093933
1772366278199638000,9.005637939453125,-0.038675475353002545,0.0005939016393851489,0.007082396009005606
1772366278209707800,9.015707763671875,-0.02729951033592224,0.0035438283530063925,0.005353124530985951
1772366278219777800,9.02577783203125,-0.023255203381180763,0.009142981800623238,0.008292977375164627
1772366278229847800,9.035847900390625,-0.03402794180810451,0.0029600097162183372,0.008607267488725484
1772366278239917800,9.045917724609374,-0.026697452789545058,0.004902165893092751,0.004986190914735198
1772366278249987800,9.05598779296875,-0.029852117428183556,0.0066638235370628535,0.001890964845754206
1772366278260057900,9.066057861328124,-0.028808161333203314,0.0020138788393698633,0.00004683481641113758
1772366278270128600,9.076128662109374,-0.027005495825409887,0.0014558248315006495,0.00754924633577466
1772366278280199000,9.086198974609376,-0.038977088648080825,-0.007009796563675627,0.008287022558413445
1772366278290269000,9.09626904296875,-0.04047229564189911,0.005784739147592336,0.0014249182365834712
1772366278300338700,9.106338623046875,-0.03359130395650863,0.005291685800487176,0.008085910495743155
1772366278310408700,9.11640869140625,-0.02835866400003433,0.00891927431365475,0.007995711461640895
1772366278320479000,9.12647900390625,-0.032848376634716986,-0.0002814655561931431,0.0029031740956008433
1772366278330548700,9.136548828125,-0.030897827088832854,-0.0009769004744477569,0.0009414455685764551
1772366278340618800,9.14661865234375,-0.03448328436017036,0.003736866707075387,0.010482925167493521
1772366278350689800,9.156689697265625,-0.040758711367845535,0.0016741985562257467,0.013359832310676573
1772366278360759800,9.166759765625,-0.02847673742175102,0.0003100797293242067,0.015414463285543023
1772366278370829800,9.176829833984375,-0.027124153769016265,0.004274133655242622,0.011792363798245787
1772366278380899800,9.18689990234375,-0.03266366771757603,0.013310796404024586,0.008744812795892357
1772366278390969900,9.196969970703124,-0.0401414562523365,0.006684848058782517,0.0070270125599578015
1772366278401040000,9.207039794921876,-0.026525603353977203,-0.005063384336791933,0.011182269075885414
1772366278411110000,9.21710986328125,-0.03250935393869877,0.007214863282255828,0.005420198417827486
1772366278421179600,9.2271796875,-0.038942601856589314,-0.002359112080466002,0.002452982642687857
1772366278431250700,9.237250732421876,-0.022781740650534628,0.0041069512616377325,0.012034757719375193
1772366278441321000,9.247321044921875,-0.040292847421765324,0.003721577806398272,0.0005617986012250185
1772366278451390700,9.257390625,-0.03490647820830345,0.0023135467725340277,0.006550736817717551
1772366278461460700,9.267460693359375,-0.02368015079498291,-0.0013871983083896338,0.012622531012073158
1772366278471531000,9.277531005859375,-0.03340016529858112,-0.0005048077169805765,0.005733282954990863
1772366278481600800,9.287600830078125,-0.038034254840016365,-0.0014774064756464212,0.007167882335372269
1772366278491670800,9.2976708984375,-0.025164251872897146,0.006893330577155575,0.00988437475245446
1772366278501741000,9.307740966796874,-0.030550036564469335,0.0019275796622503548,0.004072985059954226
1772366278511810800,9.317810791015624,-0.04311784171462059,0.001471214196877554,-0.00007744915038347244
1772366278521881900,9.3278818359375,-0.02276420499384403,0.007433647998934611,0.004472030847519636
1772366278531951900,9.337951904296874,-0.036676410490274425,-0.00206344446898438,0.002006919375620782
1772366278542021600,9.348021728515626,-0.03772621180415153,0.009347354399459436,0.010452931888028979
1772366278552092000,9.358091796875,-0.03532382683753967,-0.00021430947096087038,0.0023810133850201962
1772366278562162000,9.368161865234375,-0.0214104522973299,-0.006664645520970225,0.006979081765003502
1772366278572231700,9.378231689453125,-0.03278349470496177,-0.002357605109969154,0.004563837316818535
1772366278582302000,9.388302001953125,-0.03128536510169506,0.006125360145652666,0.004901910164766013
1772366278592372000,9.3983720703125,-0.039514264264702795,0.005918174535222351,0.004465601106733084
1772366278602442800,9.40844287109375,-0.02679506794512272,0.0025137729192152617,0.003305288623087108
1772366278612512800,9.4185126953125,-0.039509003567695614,0.006514432528475299,0.012238719326257705
1772366278622583000,9.4285830078125,-0.024089900639653203,0.005057621316285804,0.0045894466821104285
1772366278632652800,9.43865283203125,-0.035304537615180015,-0.0012284640827216206,0.01371719438098371
1772366278642722800,9.448722900390624,-0.029761516535282133,0.006400770420394837,0.003981726579926907
1772366278652792800,9.458792724609374,-0.030206922215223312,0.0047545649827923624,0.009443937508575617
1772366278662862800,9.46886279296875,-0.032302433189749714,-0.005855174035299569,0.011081475582532583
1772366278672932900,9.478932861328126,-0.03843523685634136,0.008999372078850865,-0.0002656286662444472
1772366278683004000,9.48900390625,-0.04187514817714691,0.0039339327822905034,0.009655278704315423
1772366278693073700,9.49907373046875,-0.030796704801917076,0.007664908604696393,0.009032653293944894
1772366278703144000,9.50914404296875,-0.0384206238090992,0.001431329711060971,0.004533405645936728
1772366278713214000,9.5192138671875,-0.03795885151624679,0.0021585936728399247,0.00928253640178591
1772366278723286800,9.529286865234376,-0.02882277438044548,-0.0011880224744789303,0.01917845546156168
1772366278733357000,9.539357177734376,-0.03540332181453704,0.0025159831426106393,0.0053703313941136
1772366278743427000,9.549427001953125,-0.03809621416032314,-0.0002629435188136995,0.002102744432911277
1772366278753496800,9.559496826171875,-0.025665771654248236,0.0004111837499309331,0.008604564074985683
1772366278763566800,9.56956689453125,-0.03329378231465816,0.005943354642251506,0.008391798107139766
1772366278773638000,9.579637939453125,-0.03388941012024879,0.001145936898421496,0.011258476117253302
1772366278783708000,9.5897080078125,-0.026699206355214118,0.008160181308351456,0.0042771658625453705
1772366278793778000,9.59977783203125,-0.04016542164981365,0.0066861449667252595,0.005052241888269781
1772366278803848000,9.609847900390625,-0.03298866188824177,0.008522274352703243,0.006431275156512856
1772366278813918000,9.61991796875,-0.03793780872821808,-0.0002983710252214223,-0.0021980580335482953
1772366278823988000,9.629988037109374,-0.03749415661394596,0.002871701245103031,0.0024790303993970156
1772366278834058000,9.64005810546875,-0.03525426873266697,0.008418613048829137,0.008959734188206493
1772366278844128000,9.6501279296875,-0.03331131797134876,-0.0037377343567553904,0.002462481123395264
1772366278854199000,9.660198974609376,-0.04094225124120712,-0.003020699528045952,0.0031853520378470417
1772366278864269000,9.67026904296875,-0.033164602977037425,-0.0002960786034353077,0.011043152866140007
1772366278874338800,9.6803388671875,-0.02538227853775024,0.005725592838879675,0.002854329985193908
1772366278884408800,9.690408935546875,-0.025979659909009932,-0.004873953578760847,0.008871252187155187
1772366278894479000,9.70047900390625,-0.023288521128892896,0.005439825566904619,0.010157784866355359
1772366278904548900,9.710548828125,-0.028530513435602187,-0.0024375110789202153,0.007191738134995102
1772366278914619000,9.720618896484375,-0.038705285969376564,0.0019568970882799476,0.007183737491630017
1772366278924689200,9.730689208984375,-0.04319909025728702,0.007243303925450891,0.005890336680226028
1772366278934759000,9.740759033203124,-0.03077683105766773,0.005115361119201406,0.003506729479320347
1772366278944830000,9.750829833984374,-0.03527063534557819,0.0006955719155725092,0.0012959580946713685
1772366278954900000,9.76089990234375,-0.031075521743297575,0.0009540675881318748,0.002297828613594174
1772366278964970000,9.770969970703124,-0.052470776471495624,0.0011112583106849341,0.009848682384565472
1772366278975040000,9.7810400390625,-0.030468203499913214,0.003154810769110918,0.008618556067720055
1772366278985110000,9.791110107421876,-0.025543022057414055,0.005999158216407522,0.006692921767383814
1772366278995179800,9.8011796875,-0.03093114483654499,0.004667169827129692,0.00235383311714977
1772366279005250000,9.81125,-0.046342064458131785,0.00022553411787375806,0.006003478198498487
1772366279015320000,9.821320068359375,-0.0402069227039814,-0.0009260470700450241,0.0043552360674366354
1772366279025390800,9.831390869140625,-0.03153261786103249,0.007390923102060332,0.005322838990576565
1772366279035460900,9.8414609375,-0.04111819233000278,0.0037633893878199157,0.006191621181741357
1772366279045531100,9.85153125,-0.043210196173191065,0.0032181126631330697,0.008971789952181279
1772366279055601000,9.861600830078125,-0.042019525083899494,0.0013534878350328653,0.005509995593130588
1772366279065671000,9.8716708984375,-0.03783610191941261,-0.000591033828863874,0.0014792057070881128
1772366279075741000,9.881740966796874,-0.03633738779425621,-0.00400087880496867,0.015604031040892004
1772366279085811000,9.89181103515625,-0.02645779881477356,-0.0007339220314286649,0.006097293961793184
1772366279095881000,9.901880859375,-0.031252047353982924,0.000749841119768098,0.006415967989526689
1772366279105951000,9.911950927734376,-0.03409983800053596,0.0012175408299081028,0.0045270489703863855
1772366279116021800,9.922021728515626,-0.034544659158587454,-0.001538041488546878,0.01839826486930251
1772366279126092000,9.932092041015625,-0.029463410371541977,0.006173491870006546,0.007310286480747163
1772366279136162000,9.942162109375,-0.020949849048256874,0.010368431942351162,0.006091339145042002
1772366279146231800,9.952231689453125,-0.018265724530816076,0.007865847137430682,0.012775968008115887
1772366279156302000,9.962302001953125,-0.0426642527282238,0.0044031211966183035,0.010206519378907979
1772366279166372000,9.9723720703125,-0.04596855497062206,0.0010007106082979588,0.002011266757175326
1772366279176441900,9.98244189453125,-0.0453787723839283,0.0027696017106529323,0.00854622148387134
1772366279186512000,9.992511962890624,-0.03760404672920704,0.0034761699442751705,0.007045023140683769
1772366279196583000,10.0025830078125,-0.04642915821969509,0.006728805931517854,0.0028861498955637215
1772366279206653000,10.01265283203125,-0.03925006037056446,0.01062857158272527,-0.0015578239012509583
1772366279216723000,10.022722900390624,-0.030730069306492802,0.003074685604451224,0.004196684504859149
1772366279226793000,10.03279296875,-0.03477437626123428,0.004887059655506163,0.008298676463589071
1772366279236863000,10.042863037109376,-0.026850013002753255,-0.004960353220580145,0.008164967081323266
1772366279246933000,10.05293310546875,-0.04390928435325622,-0.004810642551584169,0.0029207097522914406
1772366279257003000,10.0630029296875,-0.03791851950585842,-0.00540476338667795,0.008718874637037514
1772366279267073000,10.073072998046875,-0.03132335902452469,-0.004147593799280002,0.008688808292336762
1772366279277143000,10.08314306640625,-0.0353705885887146,0.002861599976196885,-0.0019494170347228645
1772366279287214000,10.093214111328125,-0.021752397602796552,0.0010866444592364131,0.0028279169023036955
1772366279297283800,10.103283935546875,-0.036409283986687656,0.0028153040159028023,0.010025354125723243
1772366279307353900,10.113353759765625,-0.036711481803655625,0.0044807621432468294,0.014028671482950448
1772366279317424000,10.123424072265625,-0.02280161439478397,0.0038657994495239108,0.005053922388702631
1772366279327494000,10.133493896484374,-0.01218494331240654,0.0015142770204693077,0.008484371761418879
1772366279337564000,10.14356396484375,-0.02311667169332504,0.0040602625756990165,0.01384107648897916
1772366279347634200,10.15363427734375,-0.022977555483579635,-0.005737529871845617,0.011264102140441537
1772366279357704000,10.163703857421876,-0.034653380230069156,-0.0013342442784458398,0.0025075989067554474
1772366279367774000,10.17377392578125,-0.03256371447443962,-0.001118500902224332,0.00835131996627897
1772366279377845000,10.183844970703126,-0.02419336101412773,-0.001964395408146083,0.0006412205129861831
1772366279387915000,10.1939150390625,-0.02735094826221466,0.002124508740147576,-0.0010685790795832873
1772366279397985000,10.203985107421875,-0.03320844211876392,0.0015194189864676446,0.005904219075106084
1772366279408055000,10.214054931640625,-0.014383330139517782,-0.0006299684666097164,-0.0013444368788972495
1772366279418124800,10.224124755859375,-0.01727262184023857,0.000090792689146474,0.007920052409544586
1772366279428195000,10.234195068359375,0.06121463941931724,0.01008531328518875,-0.01413859813082963
1772366279438264800,10.244264892578125,0.05168225644230842,0.011122337315883487,-0.0048926674123853445
1772366279448334800,10.2543349609375,-0.20900456948578355,-0.027014601580472662,0.05418134324904531
1772366279458406000,10.264406005859374,-0.09660568627417088,0.013480992738623172,-0.0017543693866580723
1772366279468476200,10.27447607421875,-0.1346668291211128,-0.0049275469295214855,0.02762012059241533
1772366279478546000,10.2845458984375,-0.05869944172799587,0.0024233729557134208,0.006189173496328294
1772366279488616000,10.294615966796876,-0.03660568334162235,-0.005364276112662628,0.01307641225941479
1772366279498686000,10.30468603515625,0.000862169787287712,-0.0000336100086569786,0.006310132994875312
1772366279508756000,10.314755859375,0.004184592208266258,-0.004544374564522877,-0.00011544307321310043
1772366279518826000,10.324825927734375,-0.00013619360029697419,-0.0031979466579388823,0.0016429449014365672
