time,seconds_elapsed,z,y,x
1772366257072087600,0.112087646484375,0.001449130941182375,-0.0010617231018841267,-0.0017444631084799767
1772366257082157600,0.122157470703125,0.000024287495762109756,-0.0010232096537947655,0.0014870129525661469
1772366257092227600,0.1322275390625,0.0016829045489430428,-0.0011015068739652634,0.0016752984374761581
1772366257102298600,0.142298583984375,0.0012354371137917042,0.002403007820248604,0.0002399533987045288
1772366257112368600,0.15236865234375,0.0004833606071770191,-0.0030692557338625193,0.0007145283743739128
1772366257122438400,0.1624384765625,0.0005220235325396061,0.002347338479012251,-0.0008912486955523491
1772366257132509400,0.172509521484375,0.00044425949454307556,-0.0011621750891208649,-0.0012092292308807373
1772366257142579500,0.182579345703125,-0.00022194581106305122,-0.0022751211654394865,0.001014738343656063
1772366257152649500,0.1926494140625,0.0020782267674803734,-0.0012008021585643291,0.0009833136573433876
1772366257162719500,0.202719482421875,0.0014030719175934792,-0.0022009150125086308,-0.0006268611177802086
1772366257172790500,0.21279052734375,-0.0013820622116327286,-0.0024001195561140776,-0.001050303690135479
1772366257182860500,0.222860595703125,-0.0009232126176357269,0.0014275331050157547,-0.0009750761091709137
1772366257192930600,0.2329306640625,0.0008073090575635433,0.00003416743129491806,0.00048540160059928894
1772366257203000600,0.24300048828125,0.0012380536645650864,-0.000998116098344326,0.0007466450333595276
1772366257213071600,0.253071533203125,-0.002829125616699457,-0.001027677208185196,-0.00016175955533981323
1772366257223141400,0.263141357421875,-0.00016117841005325317,0.0005289199762046337,-0.002057640813291073
1772366257233211400,0.27321142578125,0.0008162017911672592,0.0019507813267409801,-0.0010341880843043327
1772366257243282400,0.283282470703125,-0.0020649731159210205,0.002462996169924736,-0.0002015717327594757
1772366257253352400,0.2933525390625,0.0019614603370428085,0.0004496467299759388,-0.0001283343881368637
1772366257263422500,0.30342236328125,0.00025416817516088486,0.0030382932163774967,-0.0018438789993524551
1772366257273492500,0.313492431640625,0.002625446766614914,-0.0037104228977113962,0.0013002483174204826
1772366257283563500,0.3235634765625,0.00002588098868727684,0.0018656826578080654,0.0004663271829485893
1772366257293633500,0.333633544921875,-0.00037439214065670967,0.003964786417782307,-0.0022751307114958763
1772366257303703600,0.34370361328125,-0.00033492548391222954,0.0017680451273918152,0.003397139720618725
1772366257313774600,0.353774658203125,-0.0012443950399756432,0.0028642024844884872,0.0011033602058887482
1772366257323844400,0.36384423828125,0.0009490000084042549,-0.00008041877299547195,0.0007453840225934982
1772366257333914600,0.37391455078125,-0.0015040375292301178,-0.0012000116985291243,0.0004468439146876335
1772366257343984600,0.383984619140625,0.0006620660424232483,0.00003494368866086006,0.001562456600368023
1772366257354055400,0.394055419921875,0.0006876322440803051,0.00038914429023861885,0.000492132268846035
1772366257364125400,0.40412548828125,-0.0005852081812918186,-0.0032056523486971855,-0.000611097551882267
1772366257374195500,0.414195556640625,-0.0006283516995608807,-0.0028722246643155813,0.0009521776810288429
1772366257384265500,0.424265380859375,0.0004992382600903511,0.0016080336645245552,0.0014765309169888496
1772366257394336500,0.43433642578125,0.000021999701857566833,-0.0010716388933360577,0.0037263697013258934
1772366257404406500,0.444406494140625,-0.0005641663447022438,0.0005639726296067238,0.00012614578008651733
1772366257414476300,0.454476318359375,-0.0022062715142965317,-0.000005145091563463211,-0.0008954424411058426
1772366257424547300,0.46454736328125,0.0025391681119799614,0.0031842547468841076,0.0007319068536162376
1772366257434617600,0.47461767578125,0.0018523386679589748,0.0004206923767924309,-0.00010352674871683121
1772366257444687600,0.4846875,0.0025393171235919,0.0026266048662364483,-0.00006088055670261383
1772366257454757400,0.49475732421875,-0.00030999910086393356,0.0020457697100937366,0.0006171604618430138
1772366257464828400,0.504828369140625,-0.0005441471002995968,-0.0007702037692070007,0.0029525859281420708
1772366257474898700,0.514898681640625,-0.0012562763877213001,-0.0009326562285423279,-0.00045253150165081024
1772366257484968400,0.524968505859375,0.0013206596486270428,0.0008687586523592472,0.00034369342029094696
1772366257495038500,0.53503857421875,-0.0025880616158246994,0.001161706168204546,-0.00028747599571943283
1772366257505109500,0.545109619140625,-0.0012593180872499943,-0.0017947112210094929,0.0001979973167181015
1772366257515179500,0.555179443359375,0.00027120020240545273,-0.0021587652154266834,0.00037882570177316666
1772366257525249500,0.56524951171875,0.0025321654975414276,-0.0013785699848085642,0.00013355258852243423
1772366257535320600,0.575320556640625,0.000551572535187006,0.0001287790946662426,0.00020519178360700607
1772366257545390600,0.585390625,0.002471581567078829,-0.0008056666702032089,-0.0009817462414503098
1772366257555460400,0.59546044921875,0.002468385733664036,0.00014614686369895935,-0.0007806774228811264
1772366257565530600,0.605530517578125,-0.0010800668969750404,-0.0025973280426114798,-0.002302618697285652
1772366257575601700,0.6156015625,0.000043254345655441284,-0.0003930293023586273,0.0016364622861146927
1772366257585671400,0.62567138671875,-0.0006426889449357986,-0.0004900624044239521,-0.0003760978579521179
1772366257595741400,0.635741455078125,-0.0011971592903137207,0.001351779792457819,-0.0007457444444298744
1772366257605811700,0.645811767578125,-0.001914524007588625,-0.0032929396256804466,0.0014398423954844475
1772366257615882500,0.655882568359375,-0.0015640524215996265,0.00013375002890825272,-0.0011575380340218544
1772366257625952500,0.665952392578125,0.0006433576345443726,-0.002204278716817498,-0.00017731264233589172
1772366257636022500,0.6760224609375,-0.0020882468670606613,0.0011726096272468567,-0.0021009137853980064
1772366257646093600,0.686093505859375,-0.00007304549217224121,-0.0003424151800572872,-0.0013044318184256554
1772366257656163300,0.696163330078125,-0.0006821104325354099,0.000007257796823978424,0.00000397954136133194
1772366257666233600,0.706233642578125,-0.00022591417655348778,-0.0006430172361433506,0.0004178043454885483
1772366257676303400,0.716303466796875,-0.0005042147822678089,0.0017442405223846436,-0.0026096776127815247
1772366257686374400,0.72637451171875,-0.0003635035827755928,0.000669489149004221,0.0012990953400731087
1772366257696444000,0.73644384765625,-0.0028671417385339737,0.001421565655618906,0.00006578583270311356
1772366257706514000,0.746513916015625,-0.0009336890652775764,0.00037006800994277,-0.0008946657180786133
1772366257716585000,0.7565849609375,0.0008831191807985306,-0.002150081330910325,0.0015229517593979836
1772366257726654700,0.76665478515625,-0.0018875631503760815,-0.0011266202200204134,0.0012798681855201721
1772366257736724700,0.776724853515625,0.0006685387343168259,-0.0007910621352493763,-0.0010325545445084572
1772366257746795000,0.786794921875,-0.002036833204329014,-0.001558853080496192,-0.001841687597334385
1772366257756865800,0.79686572265625,0.0008617518469691277,-0.000366289634257555,0.0005381135269999504
1772366257766935800,0.806935791015625,0.00023228395730257034,0.0007177069783210754,-0.0001317085698246956
1772366257777005800,0.817005859375,-0.00003429874777793884,0.005968395620584488,-0.0032364213839173317
1772366257787075800,0.827075927734375,-0.002884318120777607,0.00032993126660585403,-0.0012525878846645355
1772366257797147000,0.83714697265625,-0.0018241135403513908,0.0041566276922822,0.0013256184756755829
1772366257807217000,0.847216796875,0.001414257101714611,0.002161109820008278,-0.00029808562248945236
1772366257817286700,0.85728662109375,-0.001526405569165945,-0.005075231660157442,-0.0001662587746977806
1772366257827357700,0.867357666015625,0.0006148619577288628,0.0002201385796070099,-0.0006742831319570541
1772366257837428000,0.877427978515625,0.0014577521942555904,-0.00009597837924957275,0.0017886077985167503
1772366257847498000,0.887498046875,-0.001184599008411169,-0.0020112930797040462,0.000036281533539295197
1772366257857567700,0.897567626953125,0.000495589803904295,-0.0038379551842808723,0.00020299572497606277
1772366257867638800,0.907638671875,-0.0013010879047214985,-0.0013545984402298927,0.00033459439873695374
1772366257877708800,0.917708740234375,0.0016694022342562675,0.0013224110007286072,-0.0010310746729373932
1772366257887778800,0.92777880859375,-0.0005901805125176907,0.00010177865624427795,0.00003547128289937973
1772366257897848800,0.937848876953125,0.0016367542557418346,0.0020757135935127735,0.0011057956144213676
1772366257907920000,0.947919921875,0.000036353711038827896,-0.0020747052039951086,-0.0010042274370789528
1772366257917989600,0.95798974609375,0.0008089365437626839,0.0004513030871748924,0.0007510622963309288
1772366257928060000,0.968059814453125,0.001357735600322485,0.0002646413631737232,0.00027881842106580734
1772366257938131000,0.978130859375,0.00045918533578515053,-0.0003422931768000126,0.001357930712401867
1772366257948201000,0.988200927734375,-0.0003526615910232067,-0.002228363649919629,0.0012502660974860191
1772366257958270700,0.998270751953125,0.0006612041033804417,0.0009072422981262207,0.000025478191673755646
1772366257968341000,1.008341064453125,-0.0006017214618623257,-0.0010851970873773098,-0.00003065168857574463
1772366257978412000,1.018412109375,-0.00006216485053300858,0.0020088637247681618,-0.0006615547463297844
1772366257988481800,1.028481689453125,0.0012916135601699352,-0.00047579966485500336,-0.00018064957112073898
1772366257998551800,1.0385517578125,-0.000015731900930404663,-0.00107261398807168,0.0018257759511470795
1772366258008621800,1.048621826171875,-0.000877021811902523,-0.001637022476643324,-0.0013685934245586395
1772366258018692600,1.058692626953125,0.000026588793843984604,0.0038565462455153465,-0.002714022994041443
1772366258028763000,1.068762939453125,-0.00007636193186044693,0.002662487793713808,0.0016827387735247612
1772366258038833000,1.0788330078125,0.0013566850684583187,-0.0014459704980254173,-0.0015961453318595886
1772366258048904000,1.088904052734375,0.0017491457983851433,0.0037543042562901974,-0.0000858129933476448
1772366258058973700,1.0989736328125,-0.0010423795320093632,-0.002026885747909546,-0.0014687925577163696
1772366258069044000,1.1090439453125,0.0002727094106376171,0.0018736007623374462,-0.0001309569925069809
1772366258079113700,1.11911376953125,0.0004274388775229454,0.0003950139507651329,-0.00012642983347177505
1772366258089184800,1.129184814453125,-0.00014894409105181694,0.002006026916205883,-0.0003514448180794716
1772366258099254800,1.1392548828125,-0.0006259158253669739,-0.001054744003340602,0.00080117117613554
1772366258109325000,1.149324951171875,-0.0019459929317235947,-0.0028070539701730013,-0.00025688856840133667
1772366258119394800,1.159394775390625,-0.00209939107298851,-0.0009164758957922459,0.0015058573335409164
1772366258129465900,1.1694658203125,0.0017947899177670479,-0.0005886969156563282,-0.0004450567066669464
1772366258139536000,1.179535888671875,-0.0017938194796442986,-0.0001295679248869419,-0.002669595181941986
1772366258149605600,1.189605712890625,0.00016740616410970688,-0.000992518849670887,0.0010041594505310059
1772366258159676000,1.199676025390625,-0.00037161773070693016,-0.0010851970873773098,-0.0008789617568254471
1772366258169747000,1.209746826171875,0.0007711010985076427,-0.002125525614246726,-0.000013814307749271393
1772366258179816700,1.219816650390625,-0.0013303998857736588,-0.0020552182104438543,-0.0023467428982257843
1772366258189886700,1.22988671875,-0.00035508908331394196,0.002697667572647333,0.003491050563752651
1772366258199957800,1.239957763671875,-0.00034496933221817017,0.0007628812454640865,0.0009043216705322266
1772366258210028000,1.250028076171875,0.00026297103613615036,-0.00043522240594029427,0.0006379950791597366
1772366258220097800,1.260097900390625,0.00014898739755153656,0.0020417841151356697,-0.00132661871612072
1772366258230167800,1.270167724609375,-0.0017139837145805359,-0.00004642130807042122,-0.0011264104396104813
1772366258240238800,1.28023876953125,0.0006929808296263218,0.0006627785041928291,0.0016808267682790756
1772366258250308900,1.290308837890625,-0.001449749805033207,-0.00138176791369915,-0.000850677490234375
1772366258260379000,1.30037890625,0.0012965016067028046,-0.0013458151370286942,0.00004281289875507355
1772366258270449000,1.310448974609375,0.00026441551744937897,-0.0002951142378151417,-0.000053143128752708435
1772366258280519700,1.320519775390625,-0.00009724171832203865,0.0019536586478352547,0.0007213037461042404
1772366258290589700,1.330589599609375,0.0014727343805134296,-0.0008278903551399708,0.0002803746610879898
1772366258300660000,1.340659912109375,-0.0002761632204055786,-0.0020438898354768753,-0.000016034580767154694
1772366258310731000,1.35073095703125,0.0006021917797625065,-0.002232934581115842,0.0014116829261183739
1772366258320800800,1.36080078125,0.0010658479295670986,-0.001397234620526433,0.0003389613702893257
1772366258330870800,1.370870849609375,0.000059003476053476334,0.002463199198246002,0.00022631976753473282
1772366258340941000,1.380941162109375,-0.0006446042098104954,0.000019482802599668503,-0.0006551863625645638
1772366258351011800,1.39101171875,0.00018387939780950546,0.000330890528857708,0.00004236679524183273
1772366258361081900,1.401081787109375,0.0013053365983068943,-0.0006414297968149185,-0.0015123868361115456
1772366258371152000,1.41115185546875,0.0008123717270791531,0.0007703956216573715,0.0012721950188279152
1772366258381222000,1.421221923828125,-0.0003775283694267273,0.0009131412953138351,0.001337176188826561
1772366258391293000,1.43129296875,0.0012525194324553013,-0.0007339720614254475,-0.001070491038262844
1772366258401363000,1.441363037109375,-0.00090757105499506,-0.00007164385169744492,0.0001644166186451912
1772366258411432700,1.4514326171875,0.0027225716039538383,0.0021807621233165264,-0.00032274890691041946
1772366258421502700,1.461502685546875,-0.0023150634951889515,0.0018265615217387676,-0.0009733587503433228
1772366258431573800,1.47157373046875,0.0033013462089002132,-0.00485078152269125,-0.0010193400084972382
1772366258441644000,1.48164404296875,-0.0011724983341991901,-0.0019436751026660204,-0.00034635886549949646
1772366258451713800,1.4917138671875,0.0006454866379499435,-0.0021864082664251328,-0.0004679327830672264
1772366258461784800,1.501784912109375,0.00047025084495544434,-0.0008492348715662956,0.0017131958156824112
1772366258471854800,1.511854736328125,-0.0004142965190112591,-0.000011686701327562332,-0.0002048090100288391
1772366258481924900,1.5219248046875,0.0002568196505308151,0.0005784695968031883,-0.002021883614361286
1772366258491995000,1.531994873046875,0.00042369170114398,-0.001858687261119485,-0.00034256838262081146
1772366258502066000,1.54206591796875,0.001412789337337017,-0.00037290994077920914,-0.0008781300857663155
1772366258512135700,1.5521357421875,-0.00019388040527701378,-0.00005825795233249664,0.0005608061328530312
1772366258522206000,1.5622060546875,-0.001044760923832655,-0.0018255317118018866,-0.00024453457444906235
1772366258532276000,1.57227587890625,-0.0005380576476454735,-0.0004047742113471031,0.0005777981132268906
1772366258542347000,1.582346923828125,0.00043239863589406013,-0.0027584759518504143,0.0008489079773426056
1772366258552416800,1.592416748046875,-0.0001717573031783104,0.0005778609775006771,0.002453971654176712
1772366258562486800,1.60248681640625,-0.0003826790489256382,-0.002046151552349329,0.00007177423685789108
1772366258572556800,1.612556884765625,-0.0005320091731846333,0.0008620461449027061,0.002836192026734352
1772366258582627800,1.6226279296875,0.0005388474091887474,-0.000971540343016386,0.00018395017832517624
1772366258592697900,1.63269775390625,0.0007669492624700069,0.0021638497710227966,-0.0006175339221954346
1772366258602768000,1.642767822265625,-0.00046023493632674217,-0.0006780093535780907,0.0020656008273363113
1772366258612838000,1.652837890625,-0.0010933876037597656,0.0016523497179150581,0.0001331781968474388
1772366258622909000,1.662908935546875,0.0002254103310406208,0.000339411199092865,-0.0003461912274360657
1772366258632979000,1.67297900390625,0.0012830947525799274,0.0010898453183472157,0.00006616394966840744
1772366258643048700,1.683048583984375,0.001991229597479105,0.0011068894527852535,-0.00015248078852891922
1772366258653119700,1.69311962890625,-0.0006673922762274742,-0.0005159042775630951,0.0024615908041596413
1772366258663190000,1.70318994140625,-0.00011984631419181824,-0.0014344286173582077,-0.00022740289568901062
1772366258673259800,1.713259765625,-0.00013745948672294617,0.0010625594295561314,0.0004887925460934639
1772366258683329800,1.723329833984375,0.0007485738024115562,0.0009653540328145027,0.00042514316737651825
1772366258693400800,1.73340087890625,0.00015742331743240356,0.0000013113021850585938,0.0007422138005495071
1772366258703471000,1.74347119140625,-0.0009259507060050964,-0.0005526263266801834,0.0006143823266029358
1772366258713541000,1.753541015625,-0.00019890721887350082,-0.0021736922208219767,0.0019084122031927109
1772366258723611100,1.763611083984375,0.0006952951662242413,0.0007958812639117241,0.002597399987280369
1772366258733682200,1.77368212890625,0.0008545964956283569,0.0004407544620335102,-0.0009375931695103645
1772366258743752000,1.783751953125,-0.00019495561718940735,0.0002237069420516491,0.0024994825944304466
1772366258753822200,1.793822265625,-0.0012606941163539886,-0.0008396077901124954,-0.0003470638766884804
1772366258763892200,1.803892333984375,-0.0010210098698735237,0.001466955989599228,0.0012790625914931297
1772366258773963000,1.813962890625,0.0034820768050849438,-0.0003026016056537628,-0.0007243640720844269
1772366258784033000,1.824032958984375,-0.000553410965949297,0.00018981657922267914,-0.0006167721003293991
1772366258794103000,1.83410302734375,0.0006249304860830307,0.002431063447147608,-0.0010636746883392334
1772366258804173000,1.844173095703125,-0.002119190990924835,-0.0009727226570248604,0.0016490211710333824
1772366258814244000,1.854244140625,0.0006736475042998791,0.003958115819841623,0.0004110792651772499
1772366258824314000,1.864314208984375,0.0005064010620117188,0.0020803208462893963,-0.0008214311674237251
1772366258834384100,1.874384033203125,-0.0005726730450987816,-0.00009650783613324165,-0.00003185868263244629
1772366258844455000,1.884454833984375,0.0002832668833434582,0.0009144279174506664,-0.00048672687262296677
1772366258854525200,1.894525146484375,-0.0006494787521660328,-0.00032021012157201767,-0.001220465637743473
1772366258864595200,1.90459521484375,0.002216881141066551,0.0018444070592522621,0.00045359693467617035
1772366258874665000,1.9146650390625,0.00038984185084700584,-0.0004981644451618195,-0.0011376840993762016
1772366258884736000,1.924736083984375,0.001101172063499689,-0.002065967535600066,-0.0028178729116916656
1772366258894806300,1.93480615234375,0.0012282822281122208,0.0015363339334726334,0.0005552442744374275
1772366258904876000,1.9448759765625,0.0002817949280142784,0.0026098540984094143,0.00005377084016799927
1772366258914946000,1.954946044921875,0.0015437006950378418,0.0001813611015677452,0.0015650605782866478
1772366258925017000,1.96501708984375,0.0015950999222695827,0.001544899307191372,-0.000003009103238582611
1772366258935087000,1.975087158203125,0.0028730188496410847,0.0017422167584300041,-0.0006804624572396278
1772366258945157000,1.9851572265625,-0.0009353016503155231,0.0018125241622328758,0.00019065756350755692
1772366258955227100,1.99522705078125,0.0019738199189305305,0.0016319705173373222,0.0013668667525053024
1772366258965298200,2.005298095703125,-0.0006781560368835926,-0.00004342431202530861,-0.001710149459540844
1772366258975368000,2.015367919921875,0.0009415978565812111,0.0028055300936102867,0.0000902591273188591
1772366258985438200,2.025438232421875,0.0001809988170862198,0.001153571531176567,0.0004921304062008858
1772366258995508200,2.03550830078125,0.0007098671048879623,0.0001299399882555008,0.0024464931339025497
1772366259005579000,2.0455791015625,-0.00017403578385710716,0.001957134809345007,0.001131691038608551
1772366259015649000,2.05564892578125,-0.0007094149477779865,0.0007725115865468979,-0.0009608957916498184
1772366259025719000,2.065718994140625,0.0017353668808937073,0.004631698597222567,0.0007283473387360573
1772366259035789000,2.0757890625,0.00045839976519346237,0.0014981217682361603,-0.0018545985221862793
1772366259045860000,2.085860107421875,0.00032177986577153206,-0.0011567836627364159,0.0018258905038237572
1772366259055930000,2.09593017578125,0.0005319253541529179,-0.00039458274841308594,0.00033869221806526184
1772366259066000000,2.105999755859375,-0.0007043140940368176,0.0006555016152560711,0.001343236304819584
1772366259076070100,2.116070068359375,0.0018446729518473148,0.0001713247038424015,0.0033973008394241333
1772366259086141200,2.12614111328125,-0.0009673587046563625,-0.0006454666145145893,-0.00010662060230970383
1772366259096211200,2.136211181640625,0.000052338000386953354,0.001943203154951334,-0.0008050510659813881
1772366259106281000,2.146281005859375,0.000038489699363708496,0.0020683719776570797,0.00006074272096157074
1772366259116352000,2.15635205078125,0.001472285483032465,0.0035725156776607037,0.001369076780974865
1772366259126422300,2.16642236328125,-0.0010611792095005512,0.0004113437607884407,-0.0012975465506315231
1772366259136492000,2.176491943359375,0.000514536164700985,0.000005967915058135986,0.0017300806939601898
1772366259146562000,2.18656201171875,0.0012983041815459728,0.0016981405206024647,0.0008871899917721748
1772366259156633000,2.196633056640625,0.001185290515422821,-0.0006351950578391552,-0.0010571610182523727
1772366259166703000,2.206703125,0.000015896745026111603,0.002759802620857954,0.000662975013256073
1772366259176773000,2.216773193359375,0.0009034397080540657,0.0025172159075737,0.00003905594348907471
1772366259186843100,2.226843017578125,0.0005921162664890289,0.001996567938476801,-0.00008531380444765091
1772366259196914200,2.2369140625,-0.0017366991378366947,-0.00014461809769272804,-0.0008224137127399445
1772366259206984000,2.24698388671875,-0.00021496880799531937,0.0018876399844884872,-0.0007387902587652206
1772366259217054200,2.25705419921875,-0.0006191139109432697,0.0013585570268332958,0.00028785504400730133
1772366259227124000,2.2671240234375,0.000470651313662529,-0.000292070209980011,0.0007371306419372559
1772366259237195000,2.277195068359375,0.0012680641375482082,0.0019432827830314636,-0.0004720306023955345
1772366259247265000,2.28726513671875,-0.0010267817415297031,0.001518508419394493,0.0005911029875278473
1772366259257335300,2.297335205078125,0.0006645633839070797,-0.0018055310938507318,0.0004984894767403603
1772366259267405000,2.307405029296875,-0.001115760300308466,0.0013625654391944408,-0.001135626807808876
1772366259277476000,2.31747607421875,0.0011914195492863655,0.0017795264720916748,-0.000558897852897644
1772366259287546000,2.327546142578125,0.0007959404028952122,0.0011323783546686172,0.0006725471466779709
1772366259297616100,2.3376162109375,0.0002766004763543606,-0.0019958072807639837,-0.0008589616045355797
1772366259307686100,2.34768603515625,-0.0001652175560593605,0.004001630935817957,0.0020068660378456116
1772366259317757200,2.357757080078125,-0.0015517808496952057,-0.001571286702528596,-0.0002858908846974373
1772366259327827000,2.367826904296875,0.0026336433365941048,0.0019672554917633533,-0.0015378426760435104
1772366259337897000,2.37789697265625,-0.001856254879385233,0.0002506882883608341,0.0022673839703202248
1772366259347967200,2.38796728515625,0.00016668252646923065,-0.0011211060918867588,0.00033259764313697815
1772366259358038300,2.398038330078125,0.00043652579188346863,0.001932806335389614,0.00273895263671875
1772366259368108000,2.40810791015625,0.0023489417508244514,-0.0018337022047489882,-0.0009684329852461815
1772366259378178000,2.418177978515625,0.0008287481032311916,0.003780266735702753,-0.0012239497154951096
1772366259388248300,2.428248291015625,0.001294535119086504,0.0017032679170370102,-0.0008582985028624535
1772366259398319000,2.438319091796875,-0.0011064433492720127,0.0028710761107504368,0.0005274591967463493
1772366259408389000,2.44838916015625,0.00020569656044244766,0.0010119229555130005,0.0008281301707029343
1772366259418459100,2.458459228515625,-0.0008202278986573219,-0.002576162340119481,0.0007059695199131966
1772366259428529200,2.468529052734375,-0.0002995803952217102,-0.0016187559813261032,0.00046042632311582565
1772366259438600000,2.478599853515625,0.0028096805326640606,-0.001295209862291813,0.0002535330131649971
1772366259448670200,2.488670166015625,-0.000269466545432806,0.00040175626054406166,0.0009600697085261345
1772366259458740000,2.498739990234375,0.0008095130324363708,-0.0017221232410520315,0.001829393208026886
1772366259468811000,2.50881103515625,0.0012057912535965443,0.00011279480531811714,-0.0015709307044744492
1772366259478881000,2.518881103515625,-0.00016233604401350021,0.001742274034768343,-0.0012279227375984192
1772366259488951300,2.528951416015625,0.0014699152670800686,-0.001964579802006483,0.001698625274002552
1772366259499021000,2.53902099609375,-0.0013959314674139023,-0.00021824054419994354,0.000547424890100956
1772366259509092000,2.549092041015625,0.0007369942031800747,0.0004621967673301697,0.0005767196416854858
1772366259519162000,2.559162109375,0.0005867541767656803,-0.00025062263011932373,-0.00016593839973211288
1772366259529232100,2.569232177734375,-0.0010399045422673225,-0.0011925825383514166,0.0010918723419308662
1772366259539302100,2.57930224609375,-0.0031582009978592396,-0.0009942860342562199,-0.0002544848248362541
1772366259549373200,2.589373291015625,0.00011935131624341011,-0.000059250276535749435,0.0005303481593728065
1772366259559443000,2.59944287109375,0.0004651052877306938,-0.0009192987345159054,0.0012282971292734146
1772366259569513000,2.609512939453125,-0.0012030992656946182,0.0010945838876068592,-0.00001779664307832718
1772366259579583200,2.619583251953125,0.00001967465505003929,-0.0006830189377069473,0.0018633725121617317
1772366259589654300,2.629654296875,0.00023299409076571465,0.002276552375406027,-0.0003236159682273865
1772366259599724000,2.63972412109375,-0.0024060718715190887,-0.0018573531415313482,-0.0019043730571866035
1772366259609794000,2.6497939453125,0.001711441669613123,0.0018249996937811375,0.0029076924547553062
1772366259619864000,2.659864013671875,-0.00010028574615716934,-0.00024920422583818436,0.001639646477997303
1772366259629935000,2.66993505859375,0.0004896046593785286,0.0006070020608603954,-0.00045253243297338486
1772366259640005000,2.680005126953125,0.0006307787261903286,0.0011307052336633205,-0.0027317404747009277
1772366259650075100,2.6900751953125,-0.0011072000488638878,-0.0018597582820802927,0.0020222682505846024
1772366259660145200,2.700145263671875,0.00027556344866752625,-0.00033959653228521347,-0.0010432926937937737
1772366259670216200,2.71021630859375,0.0019986284896731377,-0.002096217591315508,-0.002272874116897583
1772366259680286200,2.7202861328125,-0.000020098406821489334,0.0012150080874562263,0.00005468074232339859
1772366259690356000,2.73035595703125,-0.00006510596722364426,0.0019319308921694756,-0.0006425352767109871
1772366259700426500,2.740426513671875,0.00020104879513382912,0.0023269150406122208,-0.002327578142285347
1772366259710497300,2.750497314453125,0.0018141255713999271,-0.00019003823399543762,0.001786205917596817
1772366259720567600,2.760567626953125,-0.00038177380338311195,0.000530922319740057,0.0004071136936545372
1772366259730637600,2.770637451171875,0.0006448742933571339,0.003776516765356064,0.0013725096359848976
1772366259740707300,2.780707275390625,0.00021595600992441177,0.0007936581969261169,-0.00036620162427425385
1772366259750778400,2.7907783203125,-0.0006080255843698978,0.0008820747025310993,0.0017611319199204445
1772366259760848600,2.8008486328125,0.0012851199135184288,0.002528150100260973,0.001736256293952465
1772366259770918400,2.81091845703125,-0.0018893680535256863,-0.0009267688728868961,0.00001771841198205948
1772366259780988400,2.820988525390625,0.0022199717350304127,-0.00041345739737153053,-0.001146417111158371
1772366259791059500,2.8310595703125,0.00212755985558033,-0.0022984426468610764,-0.001429777592420578
1772366259801129500,2.84112939453125,0.000819813460111618,0.0008816979825496674,0.0022017844021320343
1772366259811199500,2.851199462890625,0.0031519439071416855,0.0040505933575332165,0.0008779270574450493
1772366259821269500,2.86126953125,0.0019028335809707642,0.0009626718237996101,-0.0006381748244166374
1772366259831340500,2.871340576171875,-0.0008577993139624596,0.002582139801234007,-0.00018437206745147705
1772366259841410300,2.881410400390625,-0.0003457353450357914,-0.004148595966398716,0.0004947446286678314
1772366259851480600,2.89148046875,-0.000009377952665090561,0.0012890463694930077,0.0006276369094848633
1772366259861550600,2.901550537109375,-0.0015508448705077171,0.001973788719624281,0.0009497180581092834
1772366259871621400,2.911621337890625,0.002140030264854431,0.0006882809102535248,0.0025753118097782135
1772366259881691400,2.92169140625,-0.001207166351377964,-0.0008759507909417152,0.001963973045349121
1772366259891761700,2.93176171875,0.00060671241953969,0.0010660262778401375,-0.0015426110476255417
1772366259901831400,2.94183154296875,-0.0028822533786296844,-0.002332955366000533,0.0003118710592389107
1772366259911902500,2.95190234375,0.0013487106189131737,0.0008828118443489075,0.0011616861447691917
1772366259921972500,2.961972412109375,0.002232331782579422,0.001023284625262022,-0.00018226169049739838
1772366259932042200,2.972042236328125,-0.00015252921730279922,-0.003056145505979657,0.0017906082794070244
1772366259942112500,2.982112548828125,0.000599477905780077,-0.0002731345593929291,0.0003583170473575592
1772366259952183600,2.99218359375,-0.0006958832964301109,0.0012094471603631973,-0.0008409041911363602
1772366259962253600,3.002253662109375,0.0008104895241558552,0.0015425407327711582,0.0001740260049700737
1772366259972323300,3.0123232421875,-0.0010353471152484417,0.0020192465744912624,-0.0013945763930678368
1772366259982393600,3.0223935546875,0.0008302382193505764,-0.002314517507329583,-0.002626742236316204
1772366259992464600,3.032464599609375,-0.0008973544463515282,-0.0020367498509585857,-0.001260540448129177
1772366260002534400,3.042534423828125,-0.000609289389103651,-0.0009052441455423832,0.0010935282334685326
1772366260012604400,3.0526044921875,-0.0018319464288651943,0.0006894567050039768,0.000650377944111824
1772366260022674700,3.0626748046875,0.0014700572937726974,0.000015012919902801514,-0.00312101561576128
1772366260032745500,3.072745361328125,0.0008591278456151485,-0.000348508358001709,0.00019781570881605148
1772366260042815500,3.0828154296875,0.0012258579954504967,0.0023161424323916435,0.0026274342089891434
1772366260052885500,3.092885498046875,0.00008203042671084404,-0.002739602467045188,-0.003116205334663391
1772366260062955300,3.102955322265625,0.0005878796800971031,0.0023043430410325527,0.0012550102546811104
1772366260073026300,3.1130263671875,-0.0004286491312086582,-0.0000019543804228305817,0.0003777649253606796
1772366260083096600,3.1230966796875,-0.0018837759271264076,0.0010139811784029007,0.0006813975051045418
1772366260093166300,3.133166259765625,-0.0013327673077583313,0.0003860075958073139,-0.002596154808998108
1772366260103236400,3.143236328125,0.0005580959841609001,-0.0006350814364850521,-0.0004168907180428505
1772366260113307400,3.153307373046875,-0.0014384761452674866,0.0005750590935349464,0.0017445310950279236
1772366260123377700,3.163377685546875,-0.0006628921255469322,0.00012636929750442505,0.0002453317865729332
1772366260133447400,3.173447509765625,-0.001294061541557312,0.0003865603357553482,0.00016836728900671005
1772366260143517400,3.183517333984375,0.0005475841462612152,-0.0032023731619119644,0.0007051452994346619
1772366260153588500,3.19358837890625,0.00040856702253222466,-0.0023102143313735723,0.0012870458886027336
1772366260163658500,3.203658447265625,0.0011231070384383202,-0.00041598035022616386,-0.0021519791334867477
1772366260173728500,3.213728515625,-0.001050299033522606,-0.0009797713719308376,0.0010371562093496323
1772366260183798500,3.223798583984375,0.00016149505972862244,0.00013436423614621162,0.0008393833413720131
1772366260193869300,3.233869384765625,0.0014352849684655666,-0.00016337726265192032,-0.0003103036433458328
1772366260203939300,3.243939208984375,-0.00009505078196525574,0.0016933181323111057,0.0002914499491453171
1772366260214009600,3.254009521484375,-0.00007081590592861176,0.001337253488600254,-0.0010720882564783096
1772366260224079400,3.264079345703125,0.00018486101180315018,0.0000598439946770668,-0.0003652423620223999
1772366260234150400,3.274150390625,-0.0007914537563920021,0.00019886111840605736,-0.00033195316791534424
1772366260244220400,3.284220458984375,0.0012571611441671848,-0.0007949201390147209,0.0011605806648731232
1772366260254290700,3.294290771484375,0.0005335803143680096,0.0018424084410071373,0.0015491358935832977
1772366260264360400,3.3043603515625,-0.0015265815891325474,0.0004715481773018837,0.0013888506218791008
1772366260274431500,3.314431396484375,0.0003986177034676075,-0.0017383431550115347,0.001841055229306221
1772366260284501500,3.32450146484375,0.000707707367837429,0.0003249784931540489,-0.0017537064850330353
1772366260294571500,3.334571533203125,0.0011857450008392334,-0.00013521593064069748,-0.0010314574465155602
1772366260304641500,3.3446416015625,0.00041360408067703247,0.0007313434034585953,0.0013001514598727226
1772366260314712600,3.354712646484375,0.00007618172094225883,-0.0016103743109852076,-0.0014152079820632935
1772366260324782300,3.3647822265625,-0.0008710715919733047,-0.0003664512187242508,-0.0005429033190011978
1772366260334852400,3.374852294921875,-0.0015168879181146622,-0.0011651329696178436,-0.0018664943054318428
1772366260344922600,3.384922607421875,-0.0006055315025150776,-0.0017151362262666225,0.0015325630083680153
1772366260354993700,3.39499365234375,0.000635235570371151,-0.0030091663356870413,0.0003218892961740494
1772366260365063400,3.4050634765625,-0.0005655749700963497,-0.00009458884596824646,0.0003162706270813942
1772366260375133400,3.415133544921875,-0.0009485366754233837,0.001908640842884779,-0.0009143762290477753
1772366260385203500,3.425203369140625,-0.0013822070322930813,0.000312077347189188,-0.0008168285712599754
1772366260395274500,3.4352744140625,0.0010292846709489822,-0.0030589518137276173,-0.0022714463993906975
1772366260405344500,3.445344482421875,0.0008782483637332916,0.002488491591066122,-0.0004953918978571892
1772366260415414500,3.45541455078125,-0.0003468059003353119,0.00011401716619729996,0.00014270097017288208
1772366260425484500,3.465484619140625,-0.0008524949662387371,0.0008261962793767452,-0.0008256882429122925
1772366260435555600,3.4755556640625,0.0017163902521133423,-0.00029339641332626343,0.0006060274317860603
1772366260445625600,3.48562548828125,0.0017846571281552315,0.00032563647255301476,0.0020003803074359894
1772366260455695400,3.4956953125,-0.0016769194044172764,0.0006135241128504276,0.00016519613564014435
1772366260465765400,3.505765380859375,0.00003639655187726021,-0.002143921097740531,-0.002241566777229309
1772366260475836400,3.51583642578125,-0.000227256678044796,-0.00001712050288915634,-0.0005555190145969391
1772366260485906400,3.525906494140625,-0.0011156960390508175,0.00013544736430048943,-0.002814842388033867
1772366260495976400,3.5359765625,0.00029498059302568436,0.0009533041156828403,-0.0023495880886912346
1772366260506046500,3.54604638671875,0.0006922283209860325,-0.0007502888329327106,-0.00030534621328115463
1772366260516117500,3.556117431640625,-0.000020433682948350906,-0.0014376507606357336,0.00019905716180801392
1772366260526187500,3.5661875,0.0005292966961860657,-0.0009109079837799072,-0.0010967962443828583
1772366260536257500,3.576257568359375,0.0005005346611142159,0.00018871109932661057,0.0003325222060084343
1772366260546327300,3.586327392578125,0.0015757754445075989,-0.0025472017005085945,0.0003903266042470932
1772366260556398300,3.5963984375,0.001214916817843914,0.0017316993325948715,0.0013405419886112213
1772366260566468400,3.60646826171875,0.0005586366169154644,-0.00062525924295187,0.0019870074465870857
1772366260576538600,3.61653857421875,0.000445452518761158,-0.0013496391475200653,-0.0005531152710318565
1772366260586608400,3.6266083984375,-0.0007286956533789635,-0.0011520846746861935,0.001958555541932583
1772366260596679400,3.636679443359375,-0.0015247147530317307,0.0007041385397315025,0.0015396401286125183
1772366260606749400,3.64674951171875,-0.0013180989772081375,0.0003739600069820881,0.00014404673129320145
1772366260616819500,3.6568193359375,-0.00048479530960321426,-0.0003405660390853882,0.00091583002358675
1772366260626889500,3.666889404296875,0.0005422779358923435,0.0007922262884676456,-0.0009682774543762207
1772366260636960500,3.67696044921875,0.0008498732931911945,0.002277471125125885,-0.0020543141290545464
1772366260647030300,3.6870302734375,-0.0020299102179706097,-0.0016859474126249552,0.00042351149022579193
1772366260657100500,3.6971005859375,-0.0010405457578599453,0.0030211899429559708,-0.00025639403611421585
1772366260667170600,3.707170654296875,-0.00014978833496570587,0.0012858761474490166,0.0011731339618563652
1772366260677241600,3.71724169921875,0.0008004275150597095,0.000050702132284641266,-0.002241837792098522
1772366260687311400,3.727311279296875,-0.0012258854694664478,0.0025290781632065773,0.00046584848314523697
1772366260697384400,3.737384521484375,-0.00021894415840506554,-0.0007575289346277714,0.00012975744903087616
1772366260707454500,3.747454345703125,0.0005377763882279396,-0.0019371041562408209,-0.0018542911857366562
1772366260717525500,3.757525390625,0.0015468480996787548,-0.0020252547692507505,0.0003683837130665779
1772366260727595500,3.767595458984375,-0.0009197243489325047,-0.000988672487437725,-0.0003866693004965782
1772366260737665500,3.77766552734375,-0.0012595434673130512,-0.0007250197231769562,0.0006823241710662842
1772366260747735600,3.787735595703125,0.0013279062695801258,0.00006630411371588707,0.0016378676518797874
1772366260757806600,3.797806640625,-0.0018966486677527428,0.0025672786869108677,-0.0016553979367017746
1772366260767876400,3.80787646484375,-0.0009226063266396523,-0.0008597155101597309,0.0000439230352640152
1772366260777946400,3.8179462890625,-0.003429439850151539,0.0011232742108404636,0.0029366491362452507
1772366260788016600,3.8280166015625,-0.0014111599884927273,0.0015289811417460442,-0.001154232770204544
1772366260798087400,3.83808740234375,-0.0002926317974925041,0.0012791766785085201,-0.0004796544089913368
1772366260808157400,3.848157470703125,-0.0019683116115629673,0.0004924372769892216,-0.000513128936290741
1772366260818227500,3.8582275390625,-0.00016322126612067223,0.0006745974533259869,-0.00011392123997211456
1772366260828297500,3.86829736328125,-0.0020885090343654156,0.00042440230026841164,-0.0011430438607931137
1772366260838368500,3.878368408203125,-0.0012416238896548748,-0.003515477990731597,-0.0004996238276362419
1772366260848438500,3.8884384765625,0.002198423258960247,0.002492864616215229,0.0012019425630569458
1772366260858508300,3.89850830078125,0.00018853554502129555,-0.004331485368311405,0.0008432148024439812
1772366260868578600,3.90857861328125,-0.0009423419833183289,-0.0008725407533347607,0.0018737725913524628
1772366260878649600,3.918649658203125,-0.0012403493747115135,-0.000738849863409996,0.0008950605988502502
1772366260888719600,3.9287197265625,0.0031682560220360756,-0.0001724488101899624,-0.0014916053041815758
1772366260898789400,3.938789306640625,-0.00014737946912646294,-0.00029522040858864784,0.0010178908705711365
1772366260908859400,3.948859375,-0.000780902337282896,-0.0026110715698450804,0.0027393046766519547
1772366260918929700,3.9589296875,0.00046918541193008423,0.002192738465964794,0.0002572387456893921
1772366260929000400,3.96900048828125,0.0015835720114409924,-0.0007886681705713272,-0.0014873072504997253
1772366260939070500,3.979070556640625,-0.001307822298258543,-0.0005391300655901432,-0.0018737316131591797
1772366260949140500,3.989140380859375,-0.00010512769222259521,-0.0012342536356300116,0.002939569763839245
1772366260959208400,3.99920849609375,0.00021019065752625465,0.0016097361221909523,0.001438879407942295
1772366260969278500,4.009278564453125,0.0023865578696131706,-0.0010447981767356396,-0.000010282732546329498
1772366260979349200,4.019349365234375,-0.0011176294647157192,-0.003210746916010976,-0.001733614131808281
1772366260989419500,4.02941943359375,-0.0018609496764838696,-0.0038779000751674175,0.0008802386000752449
1772366260999489500,4.039489501953125,0.0000690435990691185,-0.004005997907370329,0.0006109923124313354
1772366261009559300,4.049559326171875,-0.0025948588736355305,-0.000011776108294725418,-0.0010552182793617249
1772366261019630300,4.05963037109375,-0.0002419557422399521,0.0009067482315003872,-0.0008091423660516739
1772366261029700600,4.06970068359375,0.0007952339947223663,-0.00005286606028676033,0.0013520652428269386
1772366261039770400,4.079770263671875,-0.0008378163911402225,0.003288601990789175,0.002840505912899971
1772366261049840400,4.08984033203125,0.0016765380278229713,-0.0018659140914678574,0.00013612117618322372
1772366261059911400,4.099911376953125,-0.0006742337718605995,0.00005795340985059738,0.0029084719717502594
1772366261069981700,4.109981689453125,0.0024168509989976883,-0.0010303515009582043,0.001763894222676754
1772366261080051500,4.120051513671875,-0.001044992357492447,-0.0006588404066860676,-0.00021323654800653458
1772366261090121500,4.13012158203125,0.00020072562620043755,0.0013765380717813969,-0.0007796222344040871
1772366261100192500,4.140192626953125,0.0010430836118757725,0.00010887347161769867,0.000396164134144783
1772366261110262300,4.15026220703125,-0.0007854076102375984,0.0006799083203077316,-0.0005862517282366753
1772366261120332500,4.16033251953125,-0.0023204535245895386,-0.0009627295657992363,-0.0006621517241001129
1772366261130402600,4.170402587890625,0.00043949438259005547,-0.0014112580101937056,-0.00027310382574796677
1772366261140473300,4.180473388671875,0.00006318977102637291,0.00015121838077902794,-0.00036258623003959656
1772366261150543400,4.19054345703125,0.0022063888609409332,-0.001789691625162959,-0.00009548570960760117
1772366261160613600,4.200613525390625,-0.0007180282846093178,0.0013933186419308186,0.001723187044262886
1772366261170683400,4.210683349609375,-0.0009336280636489391,0.000026801135390996933,-0.0005656583234667778
1772366261180754400,4.22075439453125,-0.0009277691133320332,-0.0026083968114107847,-0.0005419561639428139
1772366261190824400,4.230824462890625,0.002189955208450556,0.00023077474907040596,-0.0004973448812961578
1772366261200894500,4.24089453125,-0.00103380111977458,0.0018092305399477482,0.0012723254039883614
1772366261210964500,4.250964599609375,-0.0011473693884909153,-0.000888108741492033,-0.0019316012039780617
1772366261221034500,4.261034423828125,0.00025212159380316734,0.0026269974187016487,-0.00023516826331615448
1772366261231105500,4.27110546875,0.002834357786923647,-0.0013708409387618303,-0.0005644513294100761
1772366261241175300,4.28117529296875,0.0003019580617547035,-0.0012105186469852924,0.00034794770181179047
1772366261251245600,4.29124560546875,0.0007131174206733704,0.0015921229496598244,0.001979983411729336
1772366261261315300,4.3013154296875,-0.0007691984064877033,0.001670952420681715,-0.00007677637040615082
1772366261271386400,4.311386474609375,0.0010742335580289364,-0.002535360399633646,0.001872471533715725
1772366261281456400,4.321456298828125,0.0013687792234122753,-0.0020599861163645983,-0.001907086931169033
1772366261291526700,4.331526611328125,-0.00045241881161928177,0.0007421323098242283,-0.0017971573397517204
1772366261301596400,4.341596435546875,0.0012698476202785969,-0.0012083665933459997,-0.001163857989013195
1772366261311667500,4.35166748046875,-0.0020756497979164124,-0.0013845658395439386,0.0006776498630642891
1772366261321737500,4.361737548828125,-0.001808001659810543,-0.00029480038210749626,0.0018297331407666206
1772366261331807500,4.371807373046875,-0.0026528346352279186,0.001597963273525238,0.00005381554365158081
1772366261341877500,4.38187744140625,-0.0016030161641538143,-0.0019187410362064838,0.0007960386574268341
1772366261351948500,4.391948486328125,0.00012272782623767853,0.0015144189819693565,-0.0005269823595881462
1772366261362018300,4.402018310546875,-0.0019920887425541878,-0.0008669793605804443,-0.002312632277607918
1772366261372088300,4.41208837890625,-0.0012163762003183365,0.0014799265190958977,0.0016380734741687775
1772366261382158600,4.42215869140625,0.0012832670472562313,-0.000004785601049661636,0.0018015922978520393
1772366261392229600,4.432229736328125,-0.002060693223029375,-0.0008635218255221844,-0.0009431717917323112
1772366261402299400,4.44229931640625,-0.0019986419938504696,0.0011218646541237831,0.0020536836236715317
1772366261412369400,4.452369384765625,0.0006366753950715065,-0.0009566573426127434,0.0016623837873339653
1772366261422439700,4.462439697265625,-0.0018131663091480732,0.0012449780479073524,0.000531073659658432
1772366261432510500,4.472510498046875,0.0002813562750816345,0.0008262284100055695,-0.0019072117283940315
1772366261442580500,4.48258056640625,-0.0001394231803715229,-0.0014161532744765282,-0.0005511296913027763
1772366261452650500,4.492650390625,-0.0004740930162370205,-0.000732792541384697,-0.0007857866585254669
1772366261462720500,4.502720458984375,0.001730471383780241,-0.000173262320458889,0.0011655120179057121
1772366261472791600,4.51279150390625,-0.0034304638393223286,-0.002485160483047366,-0.002602357417345047
1772366261482861600,4.522861572265625,0.00013151438906788826,-0.0009232163429260254,0.0017330031841993332
1772366261492931300,4.532931396484375,-0.0003185570240020752,0.0023425929248332977,0.0013762488961219788
1772366261503001300,4.54300146484375,0.0004918426275253296,0.0010155397467315197,0.00040366314351558685
1772366261513072400,4.553072265625,0.0020786654204130173,-0.0014812040608376265,0.0016406383365392685
1772366261523142700,4.563142578125,0.000551875215023756,-0.0009581591002643108,0.0014723259955644608
1772366261533212400,4.57321240234375,-0.0010326579213142395,-0.0007318500429391861,0.00101473368704319
1772366261543285200,4.58328515625,-0.0010044286027550697,0.0025353161618113518,0.0006413580849766731
1772366261553355500,4.59335546875,0.00027277180925011635,0.00037437397986650467,0.00007420498877763748
1772366261563425500,4.603425537109375,0.0016863779164850712,0.0033382060937583447,-0.0005271369591355324
1772366261573495300,4.613495361328125,-0.00009705685079097748,0.00011593755334615707,-0.0024734921753406525
1772366261583566300,4.62356640625,-0.002014532219618559,0.0006349873729050159,-0.0005024867132306099
1772366261593636600,4.63363671875,0.00033024605363607407,-0.000005693640559911728,0.000553586520254612
1772366261603706400,4.643706298828125,-0.000028481706976890564,0.0006667543202638626,-0.0002482915297150612
1772366261613776400,4.6537763671875,-0.0006771287880837917,-0.002570143435150385,0.0004069320857524872
1772366261623847400,4.663847412109375,0.0010496643371880054,-0.0007645203731954098,0.0007222499698400497
1772366261633917700,4.673917724609375,-0.00044156983494758606,-0.0030368093866854906,-0.0013098642230033875
1772366261643987500,4.683987548828125,0.0015177181921899319,-0.00016032904386520386,0.0017421180382370949
1772366261654057500,4.694057373046875,0.000030030030757188797,-0.002509062411263585,0.0005918769165873528
1772366261664128500,4.70412841796875,0.00007583620026707649,-0.002649411093443632,-0.0005849739536643028
1772366261674198300,4.7141982421875,-0.0007679569534957409,-0.0016604531556367874,0.0007802210748195648
1772366261684268500,4.7242685546875,0.00059132045134902,-0.0007592393085360527,-0.0010091569274663925
1772366261694338600,4.734338623046875,-0.0025615179911255836,0.001306749414652586,0.00037963874638080597
1772366261704405800,4.74440576171875,0.0005743545480072498,0.0000982070341706276,0.0008611390367150307
1772366261714475500,4.7544755859375,-0.0009758928790688515,0.0012161177583038807,0.003926677629351616
1772366261724545800,4.7645458984375,-0.0005809459835290909,-0.002317630685865879,0.0016968119889497757
1772366261734615800,4.77461572265625,-0.00026296451687812805,-0.001098861452192068,0.0006211148574948311
1772366261744686600,4.7846865234375,-0.00011462625116109848,0.002821311354637146,-0.001613011583685875
1772366261754756600,4.794756591796875,-0.0009738430380821228,0.0005550207570195198,0.0008533075451850891
1772366261764827000,4.804826904296875,0.00038383621722459793,-0.0017845663242042065,-0.0016146441921591759
1772366261774896600,4.814896728515625,-0.0010964330285787582,-0.0008467906154692173,0.0002766931429505348
1772366261784966700,4.824966552734375,0.002801635768264532,-0.0011237594299018383,0.00021570641547441483
1772366261795037700,4.83503759765625,-0.0015988051891326904,-0.00033407052978873253,-0.002636384218931198
1772366261805107700,4.845107666015625,0.00007792050018906593,0.0007149488665163517,0.0004480890929698944
1772366261815177700,4.855177734375,-0.0012447871267795563,-0.0003157416358590126,0.0015409821644425392
1772366261825247700,4.865247802734375,-0.0005523646250367165,-0.0015293441247195005,0.00015454087406396866
1772366261835318800,4.87531884765625,-0.0009444602765142918,0.0014396286569535732,-0.0002997983247041702
1772366261845388500,4.885388427734375,0.0007610279135406017,0.0015869014896452427,0.0018714768812060356
1772366261855458800,4.895458740234375,-0.0007478822953999043,0.002184589859098196,0.00047258008271455765
1772366261865528800,4.90552880859375,-0.0004802350886166096,-0.001021057367324829,-0.0002672458067536354
1772366261875599600,4.915599609375,0.0012421095743775368,0.0004907809197902679,-0.0023184679448604584
1772366261885669600,4.925669677734375,0.0005044140852987766,0.001264961902052164,0.0004608072340488434
1772366261895740000,4.935739990234375,-0.0011917678639292717,0.0013748621568083763,0.00017184671014547348
1772366261905809700,4.9458095703125,-0.0004942864179611206,0.0008741877973079681,-0.0019941022619605064
1772366261915880700,4.955880615234375,0.0012704157270491123,0.002359179314225912,0.0006383908912539482
1772366261925950700,4.96595068359375,-0.0014936788938939571,-0.0011332901194691658,-0.0009856047108769417
1772366261936020700,4.976020751953125,-0.002204117365181446,-0.0018921885639429092,0.000898490659892559
1772366261946090800,4.9860908203125,0.002853225450962782,0.001025038305670023,-0.0028427178040146828
1772366261956161800,4.996161865234375,-0.0006903368048369884,0.0038440581411123276,0.004014463163912296
1772366261966231800,5.006231689453125,-0.0001145615242421627,0.00188876548781991,0.0004658019170165062
1772366261976301600,5.016301513671875,0.002638972830027342,-0.0034925509244203568,0.0007772594690322876
1772366261986371800,5.026371826171875,-0.0001208609901368618,-0.003202799241989851,0.002012966200709343
1772366261996443000,5.03644287109375,0.0012430623173713684,0.0008409875445067883,0.0005981000140309334
1772366262006512600,5.0465126953125,-0.00011674780398607254,-0.0018634526059031487,0.0005144765600562096
1772366262016582700,5.056582763671875,0.0005092667415738106,0.0011445935815572739,-0.0002884957939386368
1772366262026653000,5.06665283203125,-0.0013701263815164566,0.0010069082491099834,-0.0019657546654343605
1772366262036723700,5.0767236328125,-0.0010819663293659687,0.0004519210197031498,-0.0005794521421194077
1772366262046793700,5.086793701171875,-0.000044664833694696426,-0.0007853838615119457,0.0018512150272727013
1772366262056863700,5.09686376953125,0.001375436782836914,-0.000977028626948595,-0.0010341843590140343
1772366262066933500,5.10693359375,0.00007208576425909996,0.0006046229973435402,0.0018476219847798347
1772366262077003800,5.117003662109375,-0.0008276565931737423,0.0012056580744683743,0.0023931432515382767
1772366262087074800,5.12707470703125,0.0009404155425727367,-0.00023937318474054337,0.00027593038976192474
1772366262097144600,5.13714453125,-0.0005113724619150162,0.00011154823005199432,-0.0014541614800691605
1772366262107214600,5.147214599609375,0.0015722843818366528,-0.0019441456533968449,0.0004947399720549583
1772366262117284900,5.157284912109375,-0.00006240047514438629,0.003267104271799326,0.0006591351702809334
1772366262127356000,5.16735595703125,0.001635896973311901,-0.0018432356882840395,-0.001919337548315525
1772366262137425700,5.17742578125,-0.00003787362948060036,0.0019416571594774723,0.0001939786598086357
1772366262147495700,5.18749560546875,-0.000028552953153848648,0.0015826630406081676,-0.00030429940670728683
1772366262157566000,5.19756591796875,-0.0011534527875483036,0.0014984370209276676,0.00046185310930013657
1772366262167636700,5.20763671875,-0.0001526367850601673,0.00004674820229411125,0.000025360845029354095
1772366262177706800,5.217706787109375,0.00366854015737772,0.00042600417509675026,-0.0033054929226636887
1772366262187776800,5.22777685546875,-0.00032513635233044624,0.001865176483988762,-0.0004487205296754837
1772366262197846500,5.237846435546875,0.002778715919703245,-0.0001228218898177147,-0.0002174433320760727
1772366262207917600,5.24791748046875,-0.0008530374616384506,-0.0007409416139125824,0.0004097316414117813
1772366262217987800,5.25798779296875,0.0021182438358664513,0.00047482969239354134,-0.002868078649044037
1772366262228057600,5.2680576171875,0.001120890025049448,-0.0013632839545607567,-0.00004166644066572189
1772366262238127600,5.278127685546875,-0.0006496058776974678,0.00007192417979240417,0.001917603425681591
1772366262248198700,5.28819873046875,0.000013787299394607544,0.00007964763790369034,0.0013596713542938232
1772366262258268700,5.2982685546875,-0.0013025859370827675,0.0033244723454117775,-0.001894165761768818
1772366262268338700,5.308338623046875,-0.000123604666441679,-0.0002787848934531212,0.000026239082217216492
1772366262278408700,5.31840869140625,0.002791226375848055,0.0019705770537257195,-0.0006481073796749115
1772366262288479700,5.328479736328125,0.0007304721511900425,0.00030290568247437477,0.0005172919481992722
1772366262298549800,5.3385498046875,-0.0019850884564220905,-0.0002608061768114567,0.0007486613467335701
1772366262308619800,5.348619873046875,0.000018674414604902267,0.001666523516178131,0.0022469554096460342
1772366262318689800,5.358689697265625,0.0012585613876581192,-0.000561167486011982,-0.001247938722372055
1772366262328759600,5.368759521484375,0.0009152800776064396,-0.0017539970576763153,0.0019036456942558289
1772366262338830600,5.37883056640625,-0.0024769455194473267,-0.0006407643668353558,0.0004015853628516197
1772366262348900900,5.38890087890625,-0.0008255196735262871,0.0009073312394320965,-0.0011339932680130005
1772366262358970600,5.398970703125,0.0012889388017356396,-0.0027278007473796606,0.0008898722007870674
1772366262369040600,5.40904052734375,-0.00118913222104311,0.0007819789461791515,0.000014491379261016846
1772366262379111700,5.419111572265625,0.0016932375729084015,-0.0006319219246506691,0.00029509421437978745
1772366262389181700,5.429181640625,-0.000483896117657423,0.0012948750518262386,0.00118325836956501
1772366262399251700,5.439251708984375,-0.0004845741204917431,-0.0006030364893376827,-0.0016018357127904892
1772366262409321700,5.44932177734375,-0.000568730290979147,-0.003335173474624753,-0.0011661425232887268
1772366262419392800,5.459392822265625,0.0017157252877950668,0.003925330005586147,0.0005903523415327072
1772366262429462800,5.469462890625,-0.00023637153208255768,-0.0005178875289857388,0.00004174187779426575
1772366262439532800,5.47953271484375,0.000594364944845438,0.00018729455769062042,0.0017023896798491478
1772366262449602600,5.4896025390625,0.0013360553421080112,0.0006512175314128399,0.0013748211786150932
1772366262459673600,5.499673583984375,0.00026046670973300934,-0.0010397695004940033,0.0006940839812159538
1772366262469743600,5.50974365234375,0.001458622980862856,0.0008891578763723373,0.0005484092980623245
1772366262479814000,5.51981396484375,0.000039258506149053574,-0.0009587928652763367,-0.000912700779736042
1772366262489883600,5.529883544921875,0.00038520339876413345,0.00043963268399238586,0.0014580460265278816
1772366262499954700,5.53995458984375,0.0010244585573673248,0.004063799511641264,0.0015067756175994873
1772366262510024700,5.550024658203125,-0.00027170218527317047,-0.0009293616749346256,0.0017792172729969025
1772366262520094700,5.5600947265625,-0.0010782689787447453,0.0004266742616891861,0.00029403064399957657
1772366262530164700,5.570164794921875,-0.00032592611387372017,0.0006562387570738792,0.00016566645354032516
1772366262540234800,5.58023486328125,0.0014374800957739353,-0.0006852061487734318,0.0007967036217451096
1772366262550305500,5.590305419921875,0.001279288437217474,-0.0022402259055525064,-0.0005812160670757294
1772366262560375800,5.600375732421875,0.00018834834918379784,-0.00040713418275117874,0.0016673216596245766
1772366262570445800,5.61044580078125,-0.000601012259721756,0.0007052682340145111,-0.0030962741002440453
1772366262580515600,5.620515625,-0.001551312394440174,0.0007286686450242996,-0.0007230313494801521
1772366262590586600,5.630586669921875,0.0009629777632653713,0.0020469333976507187,-0.0014016050845384598
1772366262600656600,5.64065673828125,-0.000351849477738142,-0.0011663625482469797,0.002748657949268818
1772366262610726700,5.6507265625,-0.000997134018689394,0.002548480872064829,0.0029499921947717667
1772366262620796700,5.660796630859375,-0.002077928278595209,0.00022191274911165237,-0.0006154999136924744
1772366262630867700,5.67086767578125,0.0003487439826130867,0.001071194652467966,-0.0006780838593840599
1772366262640937700,5.680937744140625,-0.0012429840862751007,0.0009189136326313019,0.000304211862385273
1772366262651007700,5.6910078125,0.00046303635463118553,-0.00042971130460500717,-0.0011336291208863258
1772366262661077800,5.701077880859375,0.0016141622327268124,0.00043614115566015244,-0.0006990609690546989
1772366262671147800,5.711147705078125,-0.001735827885568142,0.0006651729345321655,-0.0014205118641257286
1772366262681218600,5.721218505859375,0.001375760417431593,-0.0008770753629505634,-0.0008187703788280487
1772366262691288800,5.731288818359375,-0.0004136171191930771,0.001147193368524313,0.0017162924632430077
1772366262701358800,5.74135888671875,0.0009904615581035614,-0.0006921016611158848,-0.0009514326229691505
1772366262711428900,5.751428955078125,0.001862113829702139,0.000952666625380516,-0.002139468677341938
1772366262721500000,5.7615,-0.0009627705439925194,0.0010622572153806686,-0.00048300065100193024
1772366262731569700,5.771569580078125,-0.0008690273389220238,0.0017256508581340313,0.00005815364420413971
1772366262741640000,5.781639892578125,0.0008482686243951321,-0.001879154471680522,0.0010869000107049942
1772366262751710000,5.7917099609375,0.0028690751641988754,-0.0005212086252868176,0.0004578614607453346
1772366262761780700,5.80178076171875,-0.0007833889685571194,0.0022164033725857735,0.0009517930448055267
1772366262771850800,5.811850830078125,0.00018387055024504662,0.0014811046421527863,0.00037868041545152664
1772366262781921000,5.821921142578125,-0.0022275536321103573,0.0018572723492980003,0.0011012405157089233
1772366262791990800,5.83199072265625,0.0003107045777142048,0.0010098544880747795,0.0007286639884114265
1772366262802061800,5.842061767578125,0.002218162640929222,0.0028590220026671886,0.0010822173207998276
1772366262812131800,5.8521318359375,0.001179263461381197,0.0008392808958888054,-0.0001087486743927002
1772366262822201900,5.862201904296875,0.0029762168414890766,-0.0033933105878531933,-0.0011578891426324844
1772366262832272000,5.87227197265625,-0.0005197147838771343,-0.0021248471457511187,0.0007492005825042725
1772366262842342000,5.882341796875,0.001642347313463688,-0.0019560984801501036,0.002822526730597019
1772366262852413000,5.892412841796875,-0.0013851341791450977,-5.392357707023621e-7,0.00023872777819633484
1772366262862482700,5.902482666015625,0.00036446284502744675,0.0010472624562680721,0.00016692467033863068
1772366262872553000,5.912552978515625,-0.0022670067846775055,0.001343672163784504,0.0015232721343636513
1772366262882623000,5.922623046875,0.0007766988128423691,0.0025844741612672806,-0.00037018489092588425
1772366262892693800,5.93269384765625,-0.0009703352116048336,0.000860077328979969,-0.0005792425945401192
1772366262902763800,5.942763671875,0.0003336966037750244,0.00019410718232393265,-0.00023016240447759628
1772366262912834000,5.952833984375,-0.0029363990761339664,0.0006974446587264538,0.0017605507746338844
1772366262922903800,5.96290380859375,-0.0009242575615644455,0.0016019698232412338,0.0004853932186961174
1772366262932974800,5.972974853515625,0.0023799268528819084,-0.0023869129363447428,-0.00010982248932123184
1772366262943044900,5.983044921875,-0.0009243795648217201,-0.0028746568132191896,-0.00025712791830301285
1772366262953114600,5.993114501953125,-0.0004761703312397003,-0.0022200518287718296,-0.0010851044207811356
1772366262963185000,6.003184814453125,-0.0004828888922929764,-0.00009043421596288681,0.0011502932757139206
1772366262973255000,6.0132548828125,-0.0007734391838312149,0.002798828762024641,-0.0009259069338440895
1772366262983325700,6.02332568359375,0.00003892090171575546,0.0007690782658755779,-0.0021229665726423264
1772366262993395700,6.033395751953125,-0.0009344639256596565,-0.0007111066952347755,-0.0020137764513492584
1772366263003466000,6.043466064453125,-0.00028942711651325226,-0.000842004083096981,0.0009610997512936592
1772366263013535700,6.05353564453125,0.0006235046312212944,0.0035492819733917713,0.001044456847012043
1772366263023606800,6.063606689453125,0.0006672227755188942,0.0008210726082324982,-0.001592414453625679
1772366263033676800,6.0736767578125,-0.00044997362419962883,0.0002697980962693691,0.0018662326037883759
1772366263043747000,6.0837470703125,0.0005436795763671398,-0.000796325970441103,0.0005278754979372025
1772366263053816800,6.09381689453125,0.0009452844969928265,-0.00030310871079564095,-0.0010907938703894615
1772366263063888000,6.103887939453125,0.0004344834014773369,-0.0007111267186701298,-0.0020261872559785843
1772366263073958000,6.1139580078125,-0.0004994869232177734,0.0014883782714605331,-0.0007228367030620575
1772366263084027600,6.124027587890625,-0.0005938969552516937,0.0008350741118192673,0.0006120381876826286
1772366263094098000,6.134097900390625,-0.0011094845831394196,-0.0001268596388399601,-0.0010154200717806816
1772366263104169000,6.1441689453125,-0.001479285303503275,-0.0013341645244508982,-0.001639355905354023
1772366263114238700,6.15423876953125,-0.00003691716119647026,0.00047705136239528656,-0.0013043303042650223
1772366263124308700,6.164308837890625,0.0015425272285938263,0.0018476364202797413,0.00036746077239513397
1772366263134379000,6.17437890625,0.00047513237223029137,0.001677726861089468,-0.0011987444013357162
1772366263144448800,6.18444873046875,-0.00028441473841667175,-0.00036207959055900574,-0.0003612665459513664
1772366263154519800,6.194519775390625,0.0008439663797616959,-0.0009208107367157936,0.0003234324976801872
1772366263164589800,6.20458984375,0.001432684250175953,-0.001797693083062768,-0.0013898275792598724
1772366263174659800,6.214659912109375,-0.001232607290148735,-0.0004754336550831795,0.0017215441912412643
1772366263184729900,6.224729736328125,0.0010812594555318356,-0.0001878472976386547,-0.000037503428757190704
1772366263194801000,6.23480078125,0.0007771262899041176,-0.000597707461565733,0.0005638385191559792
1772366263204871000,6.244870849609375,-0.000022511929273605347,-0.0006686435081064701,-0.0025799674913287163
1772366263214940700,6.254940673828125,-0.0000028046779334545135,-0.00004333304241299629,-0.00048698950558900833
1772366263225011000,6.265010986328125,-0.00009375018998980522,-0.0012969104573130608,0.0007623257115483284
1772366263235082000,6.27508203125,-0.0011576833203434944,-0.003046873491257429,0.00009786710143089294
1772366263245151700,6.28515185546875,-0.00026303017511963844,0.0010003778152167797,-0.0020050760358572006
1772366263255221800,6.2952216796875,-0.0007469267584383488,0.0023458069190382957,0.0006724661216139793
1772366263265292000,6.3052919921875,0.00018819328397512436,-0.0019997444469481707,0.0005850465968251228
1772366263275361800,6.31536181640625,0.0015677106566727161,-0.00045830709859728813,-0.0022163325920701027
1772366263285432800,6.325432861328125,-0.0000723651610314846,-0.0012919183354824781,-0.0006301393732428551
1772366263295502800,6.3355029296875,0.001129519660025835,0.000665771309286356,-0.002250406891107559
1772366263305572900,6.34557275390625,-0.004367139656096697,0.0008457479998469353,-0.000950133427977562
1772366263315643000,6.355642822265625,-0.001100239809602499,-0.0007761167362332344,0.0008917087689042091
1772366263325714000,6.3657138671875,0.0016769682988524437,-0.001968944212421775,0.0006969068199396133
1772366263335783700,6.37578369140625,-0.0009209448471665382,-0.0019084906671196222,-0.00004238635301589966
1772366263345853700,6.385853759765625,0.0002567446790635586,0.002279096283018589,-0.0007987190037965775
1772366263355924000,6.395924072265625,-0.0023385058157145977,0.0014135688543319702,0.0009147590026259422
1772366263365995000,6.4059951171875,-0.0010217945091426373,0.0001358063891530037,0.0009122937917709351
1772366263376064800,6.416064697265625,0.0027132886461913586,0.002727061975747347,-0.0005447221919894218
1772366263386134800,6.426134765625,-0.0008437102660536766,0.0038095847703516483,0.0013650162145495415
1772366263396205000,6.436205078125,0.0005270191468298435,0.0009693237952888012,0.001284855417907238
1772366263406274800,6.44627490234375,0.0007935096509754658,0.00035954592749476433,0.00047252606600522995
1772366263416345900,6.456345947265625,0.001522683072835207,0.0018602372147142887,0.0016618939116597176
1772366263426415900,6.466415771484375,-0.003131978213787079,-0.0008401521481573582,-0.00008736923336982727
1772366263436486000,6.47648583984375,-0.0009577730670571327,-0.00009659770876169205,-0.0022346768528223038
1772366263446556000,6.486555908203125,0.0006625582464039326,0.0009660650976002216,0.0013668248429894447
1772366263456627000,6.496626953125,-0.0005774097517132759,0.0003354283981025219,0.0022872136905789375
1772366263466696700,6.50669677734375,0.0012229583226144314,-0.0006864671595394611,0.0001686355099081993
1772366263476766700,6.5167666015625,0.0006857984699308872,0.00007546320557594299,-0.0011126110330224037
1772366263486837000,6.5268369140625,0.0033753421157598495,0.0024737329222261906,0.0015702936798334122
1772366263496906800,6.53690673828125,-0.0017432528547942638,0.0011424184776842594,0.0017226263880729675
1772366263506977800,6.546977783203125,0.001906190998852253,0.0003883033059537411,0.0016513308510184288
1772366263517047800,6.5570478515625,-0.0022603250108659267,0.00019549066200852394,-0.00026028603315353394
1772366263527117800,6.567117919921875,0.00034611113369464874,-0.0027711126022040844,0.0006886301562190056
1772366263537187800,6.577187744140625,-0.0007487144321203232,-0.0014243521727621555,0.0011022193357348442
1772366263547259000,6.5872587890625,0.0008523012511432171,-0.0009248964488506317,0.00039444025605916977
1772366263557329000,6.597328857421875,-0.001500601414591074,0.00014569424092769623,0.0007345257326960564
1772366263567399000,6.60739892578125,-0.0007049394771456718,-0.00027083512395620346,0.0015369858592748642
1772366263577469000,6.617468994140625,-0.0029137656092643738,-0.0036839426029473543,0.0004280460998415947
1772366263587540000,6.6275400390625,0.00013471068814396858,-0.0006960062310099602,0.001625235192477703
1772366263597609700,6.637609619140625,-0.00014465488493442535,-0.0008342242799699306,0.0005298769101500511
1772366263607679700,6.6476796875,-0.002477805595844984,-0.0010020975023508072,0.0019586868584156036
1772366263617750000,6.65775,-0.0007321038283407688,0.001086886040866375,-0.0017596185207366943
1772366263627819800,6.66781982421875,-0.0012449724599719048,-0.0016262121498584747,-0.00038692448288202286
1772366263637890800,6.677890869140625,0.0007768995128571987,-0.0013875928707420826,0.0008258791640400887
1772366263647960800,6.6879609375,-0.00035072630271315575,0.0011385115794837475,0.00045500509440898895
1772366263658030800,6.69803076171875,0.0007749916985630989,0.000467661302536726,-0.00019374117255210876
1772366263668100900,6.708100830078125,0.0009753522463142872,-0.0011604474857449532,0.0003902409225702286
1772366263678172000,6.718171875,0.0010334090329706669,0.0004132143221795559,0.000862685963511467
1772366263688241700,6.72824169921875,-0.00003455672413110733,0.0033484664745628834,0.0007650507614016533
1772366263698311700,6.738311767578125,-0.0012508230283856392,0.0017889193259179592,0.000915253534913063
1772366263708382500,6.748382568359375,-0.0023035695776343346,0.0017432160675525665,0.0003405604511499405
1772366263718453200,6.758453369140625,-0.00008169421926140785,0.0010891440324485302,0.0021520424634218216
1772366263728523300,6.768523193359375,0.0007654214277863503,0.0029717707075178623,-0.0018330598250031471
1772366263738593300,6.77859326171875,-0.0007911967113614082,-0.0012874230742454529,0.0017627403140068054
1772366263748663300,6.788663330078125,-0.0013046199455857277,-0.0012763796839863062,-0.0016867322847247124
1772366263758733300,6.7987333984375,0.0005065957084298134,0.0016480372287333012,0.0018962845206260681
1772366263768804400,6.808804443359375,0.0023538796231150627,0.004636554513126612,0.0018636230379343033
1772366263778874000,6.8188740234375,0.00017221784219145775,0.0018471600487828255,0.0003690570592880249
1772366263788944100,6.828944091796875,0.001409853808581829,0.000019958242774009705,-0.0010137064382433891
1772366263799014400,6.839014404296875,0.0002484493888914585,-0.001163817010819912,0.002927771769464016
1772366263809085400,6.84908544921875,-0.0009235613979399204,-0.0005731550045311451,0.0008498691022396088
1772366263819155200,6.8591552734375,0.0005976366810500622,-0.00022321566939353943,0.0011095274239778519
1772366263829225200,6.86922509765625,0.0006332732737064362,0.0034425449557602406,-0.0002468256279826164
1772366263839295200,6.879295166015625,0.00000982731580734253,0.002550119999796152,-0.0008931746706366539
1772366263849365200,6.889365234375,0.00001672143116593361,-0.0013519828207790852,-0.00022477749735116959
1772366263859436300,6.899436279296875,0.0013994346372783184,0.0014328849501907825,0.000273766927421093
1772366263869506300,6.90950634765625,-0.00120913190767169,0.000508768018335104,0.002585390582680702
1772366263879576300,6.919576416015625,0.00278219161555171,0.00040273647755384445,-0.0010940860956907272
1772366263889646300,6.929646240234375,-0.000346367247402668,0.004536825232207775,0.0014240508899092674
1772366263899717400,6.93971728515625,0.0015692445449531078,-0.0006368984468281269,0.000452529639005661
1772366263909787100,6.949787109375,-0.0010405206121504307,-0.0028078160248696804,-0.0018576430156826973
1772366263919857200,6.959857177734375,0.0011720331385731697,0.00039623305201530457,-0.0008456418290734291
1772366263929927400,6.969927490234375,-0.0003152131102979183,-0.0015413970686495304,0.0013021165505051613
1772366263939997200,6.9799970703125,0.00004617776721715927,0.0006280140951275826,-0.000215885229408741
1772366263950068200,6.990068115234375,-0.00018064258620142937,-0.0015830197371542454,-0.0012338608503341675
1772366263960138200,7.00013818359375,-0.00003816373646259308,-0.004033394157886505,0.00047109462320804596
1772366263970208300,7.010208251953125,0.0006458978168666363,0.000464526005089283,0.00005942024290561676
1772366263980278300,7.0202783203125,-0.0016273767687380314,-0.002971750684082508,0.00018378999084234238
1772366263990349300,7.030349365234375,0.0008115265518426895,-0.0020436651539057493,0.0008780825883150101
1772366264000419000,7.040419189453125,-0.00039595039561390877,0.0027684010565280914,0.0017468053847551346
1772366264010489300,7.0504892578125,0.0003282157704234123,0.00106784887611866,0.0005738027393817902
1772366264020559400,7.060559326171875,-0.001554639544337988,0.0017621349543333054,-0.000973227433860302
1772366264030630400,7.07063037109375,-0.0021679322235286236,-0.0006528808735311031,0.00009760260581970215
1772366264040700200,7.0807001953125,0.001721082255244255,0.0005311607383191586,-0.0019042957574129105
1772366264050770200,7.090770263671875,-0.001173524186015129,-0.004234171472489834,0.001424010843038559
1772366264060840400,7.10084033203125,0.001131175085902214,-0.00047005945816636086,-0.0005746912211179733
1772366264070910200,7.11091015625,-0.0008373595774173737,0.00205207709223032,0.0019156821072101593
1772366264080981200,7.120981201171875,-0.00031484756618738174,-0.0028699771501123905,0.000699150376021862
1772366264091051300,7.13105126953125,-0.0013618436641991138,0.0012066187337040901,0.00012925360351800919
1772366264101121300,7.141121337890625,0.00006960565224289894,0.0003490806557238102,-0.001726171001791954
1772366264111191300,7.15119140625,0.000984544400125742,0.0004379269666969776,0.001902061514556408
1772366264121262300,7.161262451171875,0.00014644768089056015,-0.0005021686665713787,-0.0010982565581798553
1772366264131332000,7.17133203125,0.0024784510023891926,-0.0025451108813285828,0.00034775491803884506
1772366264141402400,7.18140234375,-0.0007181409746408463,-0.0011046072468161583,0.0031478023156523705
1772366264151472400,7.191472412109375,0.0019785366021096706,-0.004068221431225538,0.0025344770401716232
1772366264161542100,7.201542236328125,0.0006048781797289848,0.0009254715405404568,-0.0002927342429757118
1772366264171613200,7.21161328125,-0.0002807904966175556,0.00013336678966879845,0.0012468257918953896
1772366264181683200,7.22168310546875,-0.00009010825306177139,-0.003912773914635181,0.0021517686545848846
1772366264191753200,7.231753173828125,-0.001161439809948206,0.0006007798947393894,0.001464536413550377
1772366264201823200,7.2418232421875,-0.0012485249899327755,-0.0008628936484456062,0.0004975432530045509
1772366264211894300,7.251894287109375,0.000347306951880455,-0.0008879438973963261,0.0008412329480051994
1772366264221964300,7.26196435546875,0.0012671630829572678,0.0004249941557645798,-0.0007169824093580246
1772366264232034300,7.272034423828125,0.0016391463577747345,0.00006198650225996971,0.00005073379725217819
1772366264242104300,7.282104248046875,0.0007906635291874409,-0.003307977458462119,0.00017936434596776962
1772366264252174000,7.292174072265625,0.0001112520694732666,-0.00004501687362790108,-0.0027678320184350014
1772366264262245000,7.3022451171875,0.00030220067128539085,0.003455176018178463,0.0015747183933854103
1772366264272315100,7.312315185546875,-0.0009118011221289635,0.0015461607836186886,0.001555771566927433
1772366264282385400,7.322385498046875,0.00003228941932320595,-0.0007462878711521626,-0.0022634677588939667
1772366264292455200,7.332455078125,-0.0010270415805280209,-0.001273770583793521,-0.0020003588870167732
1772366264302526200,7.342526123046875,-0.0003572567366063595,-0.0006561838090419769,0.0011751940473914146
1772366264312596200,7.35259619140625,0.0007285485044121742,-0.0016747370827943087,0.0012703388929367065
1772366264322666200,7.362666259765625,0.0006670295260846615,-0.0018076286651194096,0.0008596796542406082
1772366264332736300,7.372736328125,0.0016054646112024784,0.00048776576295495033,0.001646219752728939
1772366264342806300,7.38280615234375,0.0006653689779341221,-0.0038963297847658396,-0.00019482336938381195
1772366264352877000,7.392876953125,-0.0006403438746929169,0.0007410142570734024,0.0027340147644281387
1772366264362947300,7.402947265625,-0.0001346096396446228,-0.003894750028848648,0.0017089638859033585
1772366264373017300,7.413017333984375,-0.0010336856357753277,-0.0019841226749122143,0.00017291773110628128
1772366264383087000,7.423087158203125,0.0020704949274659157,-0.0016759948339313269,0.0018648235127329826
1772366264393158100,7.433158203125,-0.00038078706711530685,-0.0006490075029432774,-0.000052626244723796844
1772366264403228200,7.443228271484375,0.0022333720698952675,-0.0005230400711297989,-0.0007588965818285942
1772366264413298400,7.45329833984375,-0.0030392776243388653,-0.00312210014089942,0.0004564635455608368
1772366264423368200,7.4633681640625,-0.002008101437240839,-0.0027841448318213224,0.0018157409504055977
1772366264433438200,7.473438232421875,0.0022955527529120445,-0.00041733961552381516,0.0021081306040287018
1772366264443509200,7.48350927734375,0.000013223383575677872,0.0010058535262942314,-0.0009039044380187988
1772366264453579300,7.493579345703125,-0.0001851092092692852,-0.0010423646308481693,0.00025310274213552475
1772366264463649300,7.503649169921875,-0.0009148148819804192,-0.0008562095463275909,0.0001710774376988411
1772366264473719300,7.51371923828125,-0.0006479923613369465,0.0008009634912014008,0.0003600483760237694
1772366264483790000,7.5237900390625,0.0029033333994448185,0.0006797895766794682,0.0005970699712634087
1772366264493860400,7.5338603515625,-0.0011003999970853329,-0.0006159422919154167,-0.001186874695122242
1772366264503930400,7.543930419921875,0.00022771814838051796,-0.0013134239707142115,-0.0005855327472090721
1772366264514000100,7.554000244140625,0.001154187135398388,-0.000018914230167865753,0.0016693146899342537
1772366264524070100,7.564070068359375,0.0017837584018707275,-0.0018687457777559757,-0.0015938570722937584
1772366264534141200,7.57414111328125,0.0006057084538042545,-0.0009047589264810085,-0.0005033891648054123
1772366264544211200,7.584211181640625,0.00126936798915267,-0.002553788246586919,0.0014369897544384003
1772366264554281200,7.59428125,-0.000687439925968647,-0.004001406952738762,-0.000772484578192234
1772366264564351200,7.604351318359375,0.0009626545943319798,-0.0008721929043531418,0.001592135988175869
1772366264574422300,7.61442236328125,-0.0004171435721218586,-0.0016564808320254087,-0.00009837280958890915
1772366264584492300,7.6244921875,0.0012798230163753033,-0.0014074752107262611,-0.00048532988876104355
1772366264594562300,7.634562255859375,-0.00022269180044531822,-0.001677568070590496,0.0019174600020051003
1772366264604632000,7.644632080078125,-0.00010418100282549858,-0.002388365799561143,0.00095392856746912
1772366264614702300,7.654702392578125,0.0010142894461750984,0.000466284342110157,0.0007815491408109665
1772366264624773400,7.6647734375,0.0006667468696832657,-0.0004604957066476345,-0.0007822588086128235
1772366264634843400,7.674843505859375,-0.0004399046301841736,-0.002716146409511566,0.0007808757945895195
1772366264644913200,7.6849130859375,0.0001209573820233345,0.002605648245662451,0.0008240193128585815
1772366264654983200,7.694983154296875,0.0018030856736004353,-0.0021044816821813583,0.00044821202754974365
1772366264665054200,7.70505419921875,-0.0004387637600302696,-0.0008799601346254349,0.0008282456547021866
1772366264675124200,7.715124267578125,0.0008372711017727852,-0.000004270114004611969,0.0011677173897624016
1772366264685194200,7.7251943359375,-0.0007827295921742916,-0.0006863060407340527,0.00038421526551246643
1772366264695264300,7.73526416015625,-0.0011084810830652714,-0.002157430863007903,0.0008534025400876999
1772366264705337600,7.745337646484375,0.0013584052212536335,0.0015217261388897896,-0.002089923247694969
1772366264715408600,7.75540869140625,-0.0006037997081875801,0.0028732088394463062,0.002306445501744747
1772366264725478400,7.765478515625,-0.0005814293399453163,-0.0017412500455975533,0.0014483751729130745
1772366264735548400,7.77554833984375,-0.00029474683105945587,-0.0002685314975678921,0.001873924396932125
1772366264745618700,7.78561865234375,-0.0011706599034368992,-0.0024214310105890036,-0.0019983118399977684
1772366264755688400,7.7956884765625,0.0006465581245720387,-0.0037152967415750027,0.0017874399200081825
1772366264765759500,7.805759521484375,0.00007504364475607872,-0.00030724937096238136,-0.00046346429735422134
1772366264775829500,7.81582958984375,-0.001078624278306961,0.0013720560818910599,-0.00011555664241313934
1772366264785899500,7.8258994140625,-0.0006759539246559143,-0.0007070736028254032,0.0016045793890953064
1772366264795969500,7.835969482421875,0.0008152434602379799,0.000455725472420454,0.0005305260419845581
1772366264806040600,7.84604052734375,0.001032024621963501,0.0003231004811823368,0.0006394488736987114
1772366264816110300,7.8561103515625,0.0007764017209410667,0.00015289988368749619,-0.000026326626539230347
1772366264826180400,7.866180419921875,0.0027535324916243553,-0.0021619198378175497,-0.0004228707402944565
1772366264836250600,7.876250732421875,0.0027521103620529175,-0.0010046130046248436,0.0015888269990682602
1772366264846320400,7.8863203125,-0.0010002837516367435,0.0005991426296532154,0.0016953535377979279
1772366264856391400,7.896391357421875,0.001696134451776743,-0.00008384883403778076,-0.000880066305398941
1772366264866461400,7.90646142578125,-0.00044717732816934586,-0.0014985199086368084,-0.00030988361686468124
1772366264876531500,7.916531494140625,0.0009293602779507637,-0.0008851583115756512,-0.00011566188186407089
1772366264886601500,7.9266015625,0.00010750861838459969,-0.0023525599390268326,-0.00031593162566423416
1772366264896672500,7.936672607421875,-0.0005094269290566444,0.0008736695162951946,0.0002725031226873398
1772366264906742500,7.946742431640625,0.00025303568691015244,-0.0008107796311378479,0.0010701203718781471
1772366264916812500,7.9568125,-0.0008082622662186623,0.0014414265751838684,-0.0020930934697389603
1772366264926882600,7.966882568359375,-0.001319856382906437,-0.001780998194590211,-0.0014816317707300186
1772366264936952300,7.976952392578125,-0.00048335595056414604,-0.00023811869323253632,0.0017072707414627075
1772366264947023400,7.9870234375,0.0004793764092028141,-0.004837397951632738,0.0008473368361592293
1772366264957091600,7.997091552734375,0.0013052229769527912,0.0005333991721272469,-0.0011170115321874619
1772366264967161300,8.007161376953125,0.00003350246697664261,0.001935469452291727,0.0012159952893853188
1772366264977231600,8.017231689453125,-0.0011590844951570034,0.003072934690862894,-0.0011111646890640259
1772366264987301400,8.02730126953125,0.0005160439759492874,-0.0014765432570129633,-0.00018837954849004745
1772366264997371400,8.037371337890624,0.0001378157176077366,0.000842641107738018,-0.002268778160214424
1772366265007442400,8.0474423828125,-0.00012423936277627945,0.003189418464899063,0.0012796176597476006
1772366265017512400,8.057512451171876,0.001369417179375887,-0.001717254752293229,0.0017020227387547493
1772366265027582500,8.06758251953125,-0.0005568466149270535,0.0016412576660513878,0.00047270767390727997
1772366265037652500,8.077652587890626,-0.0015504839830100536,-0.0024142679758369923,0.0026290928944945335
1772366265047722500,8.087722412109375,0.0016964422538876534,-0.0021681918296962976,0.0009321272373199463
1772366265057793300,8.097793212890625,-0.0011840634979307652,-0.0012772777117788792,-0.0011864639818668365
1772366265067863600,8.107863525390625,0.0016218428499996662,0.001654330175369978,-0.0004090871661901474
1772366265077933600,8.11793359375,0.00016995146870613098,0.0025835963897407055,-0.00024294573813676834
1772366265088003300,8.12800341796875,0.0007364056073129177,-0.0026401940267533064,0.000161854550242424
1772366265098074400,8.138074462890625,-0.0006416542455554008,0.0007289499044418335,-0.0006051259115338326
1772366265108144600,8.14814453125,0.00030856113880872726,0.0006232224404811859,0.001342177391052246
1772366265118214400,8.15821435546875,-0.0017938287928700447,-0.0021659759804606438,0.001800832338631153
1772366265128284400,8.168284423828124,-0.0012614624574780464,-0.0012818065006285906,-0.0031731538474559784
1772366265138354400,8.1783544921875,0.00023724418133497238,-0.0006048050709068775,-0.0008558621630072594
1772366265148425500,8.188425537109374,-0.0007763546891510487,0.0013704616576433182,0.0021093012765049934
1772366265158495500,8.19849560546875,-0.0012393747456371784,-0.00030604470521211624,0.0017764437943696976
1772366265168565500,8.2085654296875,0.0008602617308497429,-0.00034572603181004524,0.0006864117458462715
1772366265178635300,8.21863525390625,-0.0017845998518168926,0.0009366879239678383,0.001149393618106842
1772366265188706300,8.228706298828126,0.00235315365716815,-0.0010039573535323143,0.0008388692513108253
1772366265198776600,8.238776611328126,-0.0027954820543527603,0.0006455793045461178,0.0011818381026387215
1772366265208846600,8.2488466796875,0.002449613530188799,0.00003917748108506203,-0.0004972843453288078
1772366265218916400,8.258916259765625,-0.00044179754331707954,-0.001152288867160678,0.00015138834714889526
1772366265228986600,8.268986572265625,-0.00008013984188437462,0.0004722392186522484,-0.0011996328830718994
1772366265239057700,8.2790576171875,-0.0006232382729649544,0.00003105448558926582,-0.0018756883218884468
1772366265249127400,8.28912744140625,0.00002124672755599022,-0.00045151030644774437,-0.0004237331449985504
1772366265259197400,8.299197509765625,-0.003312579356133938,0.0018429229967296124,-0.0014020530506968498
1772366265269267500,8.309267333984375,-0.0007199924439191818,0.00029536010697484016,0.00033885519951581955
1772366265279338200,8.319338134765625,-0.0011415611952543259,0.001683990005403757,-0.0022558746859431267
1772366265289408500,8.329408447265624,0.00038096820935606956,-0.00029260851442813873,0.00039689987897872925
1772366265299478500,8.339478515625,0.0012407382018864155,0.000347234308719635,0.0005420306697487831
1772366265309548300,8.34954833984375,0.0012319497764110565,0.0015640328638255596,-0.0009530680254101753
1772366265319618600,8.35961865234375,0.0015832465142011642,-0.0022073101717978716,0.0011927010491490364
1772366265329689600,8.369689697265626,0.0009954869747161865,-0.00224992074072361,-0.001693100668489933
1772366265339759400,8.37975927734375,0.00006848573684692383,0.00007223756983876228,-0.000524403527379036
1772366265349829400,8.389829345703125,0.001646675169467926,0.0012408322654664516,0.0015818905085325241
1772366265359899600,8.399899658203125,-0.0006700935773551464,0.001430812757462263,-0.0016324380412697792
1772366265369969400,8.409969482421875,-0.0019577317871153355,-0.0009047794155776501,0.003939428366720676
1772366265380040400,8.42004052734375,0.0004974938929080963,-0.00263647991232574,0.001486232504248619
1772366265390110500,8.4301103515625,-0.0017281095497310162,-0.0012825289741158485,0.0010449467226862907
1772366265400180500,8.440180419921875,0.0006713462062180042,-0.0017053058836609125,-0.00020345952361822128
1772366265410250500,8.45025048828125,0.0004218081012368202,0.0003325450234115124,-0.001050877384841442
1772366265420321500,8.460321533203125,-0.001105570700019598,-0.0012686739210039377,0.0001598028466105461
1772366265430391600,8.4703916015625,-0.0008701472543179989,0.0020581469871103764,0.0004037488251924515
1772366265440461300,8.48046142578125,-0.00009827502071857452,0.0015712510794401169,-0.0006982311606407166
1772366265450531600,8.490531494140624,-0.0008977558463811874,0.0024125436320900917,-0.0008289916440844536
1772366265460601600,8.5006015625,0.000581434927880764,0.001727231778204441,0.001234196126461029
1772366265470672400,8.51067236328125,-0.0010295109823346138,0.0005991165526211262,-0.0006238911300897598
1772366265480742400,8.520742431640626,0.00022077839821577072,-0.0021217409521341324,0.000790090300142765
1772366265490812400,8.5308125,-0.0031140316277742386,0.0008415584452450275,-0.000016314908862113953
1772366265500882400,8.54088232421875,-0.00042587146162986755,-0.0007559508085250854,-0.00020393077284097672
1772366265510952400,8.550952392578125,0.000011952128261327744,0.0003380756825208664,0.0024150218814611435
1772366265521023500,8.5610234375,-0.0005560698918998241,-0.0013128553982824087,0.0005278587341308594
1772366265531093200,8.57109326171875,0.0010290434584021568,-0.00010324781760573387,-0.000875626690685749
1772366265541165300,8.581165283203125,-0.0005318042822182178,0.0009273388423025608,-0.001287725754082203
1772366265551236400,8.591236328125,0.00025196373462677,-0.00007693888619542122,0.0010742321610450745
1772366265561306400,8.601306396484375,-0.002608982380479574,-0.00015580281615257263,-0.0005008941516280174
1772366265571376600,8.611376708984375,0.0012374212965369225,0.0003493991680443287,-0.0011166166514158249
1772366265581446400,8.6214462890625,0.001666639931499958,0.0008544400334358215,-0.0006495695561170578
1772366265591517400,8.631517333984375,0.00005116639658808708,0.0002871868200600147,0.00009078904986381531
1772366265601587500,8.64158740234375,0.00045478763058781624,0.0019615041092038155,-0.0006251167505979538
1772366265611657500,8.651657470703125,-0.0005992911756038666,-0.0006127073429524899,0.0010297717526555061
1772366265621727500,8.6617275390625,0.0014959094114601612,0.002904894296079874,-0.0026673199608922005
1772366265631797500,8.671797607421874,0.001455162651836872,-0.0019322053994983435,0.00030210427939891815
1772366265641868300,8.681868408203124,0.0007383683696389198,0.002214329317212105,0.0004656882956624031
1772366265651938600,8.6919384765625,0.0007285149767994881,0.002411136869341135,-0.0004323292523622513
1772366265662008600,8.702008544921876,-0.0005780225619673729,0.0015218756161630154,0.0008912812918424606
1772366265672078300,8.712078369140626,0.0013450458645820618,0.0010520941577851772,-0.00005786959081888199
1772366265682148400,8.7221484375,0.00005596783012151718,0.0034232325851917267,-0.0006950609385967255
1772366265692219400,8.732219482421876,0.0007470580749213696,0.0028639687225222588,-0.0001475149765610695
1772366265702289700,8.74228955078125,-0.0010730158537626266,-0.000367830041795969,0.0009857434779405594
1772366265712355600,8.75235546875,0.00178162707015872,0.004266070201992989,0.0015324903652071953
1772366265722425300,8.76242529296875,0.0016773100942373276,0.00348042044788599,-0.0012366436421871185
1772366265732496400,8.772496337890624,-0.0005573481321334839,-0.0028714851941913366,-0.0008986890316009521
1772366265742566700,8.782566650390624,-0.0017702048644423485,0.0027794023044407368,-0.0018608393147587776
1772366265752636400,8.792636474609376,-0.0012554153800010681,-0.0006640651263296604,0.0003277463838458061
1772366265762706400,8.80270654296875,0.00040029315277934074,0.0014440095983445644,-0.0008602961897850037
1772366265772776700,8.812776611328125,-0.0011688414961099625,0.0010091154836118221,0.0012023216113448143
1772366265782847500,8.822847412109375,0.0015333867631852627,-0.0013079987838864326,-0.0023888805881142616
1772366265792917500,8.83291748046875,0.0005221841856837273,0.0013620867393910885,0.00034085940569639206
1772366265802987500,8.842987548828125,0.0034746131859719753,-0.0007700705900788307,0.0011146925389766693
1772366265813057500,8.8530576171875,0.0015512779355049133,0.0005657710134983063,0.0002592857927083969
1772366265823127600,8.86312744140625,-0.0008378271013498306,0.0008096601814031601,-0.001424192450940609
1772366265833198600,8.873198486328125,0.0001318296417593956,-0.0001341640017926693,0.0014536194503307343
1772366265843268400,8.883268310546875,-0.00023508025333285332,-0.0017267321236431599,-0.0004135621711611748
1772366265853338400,8.89333837890625,0.0006086090579628944,0.0006626560352742672,-0.0021853623911738396
1772366265863408600,8.90340869140625,-0.0018100212328135967,0.0007264255546033382,-0.00004155654460191727
1772366265873479700,8.913479736328124,0.0007285038009285927,-0.0008325888775289059,0.0006870841607451439
1772366265883549400,8.923549560546874,0.0013377666473388672,0.00011386116966605186,0.0017398791387677193
1772366265893619500,8.933619384765626,-0.0005211201496422291,-0.0016808428335934877,-0.0006140889599919319
1772366265903689700,8.943689697265626,-0.0011349660344421864,0.00039791036397218704,0.00013907160609960556
1772366265913759500,8.953759521484375,-0.00004093954339623451,0.0013566482812166214,0.0002645067870616913
1772366265923830500,8.96383056640625,-0.0012304885312914848,-0.00012088101357221603,0.00035623181611299515
1772366265933900500,8.973900634765625,-0.00015750061720609665,0.0015744874253869057,0.0004877923056483269
1772366265943970600,8.983970458984375,-0.0014539919793605804,0.0028491108678281307,0.0018981052562594414
1772366265954040600,8.99404052734375,0.001336467918008566,0.003970035817474127,0.0009798472747206688
1772366265964110600,9.004110595703125,0.00044828420504927635,0.00399321224540472,-0.0017117392271757126
1772366265974181400,9.014181396484375,0.003609989071264863,0.0008978196419775486,-0.0009988108649849892
1772366265984251400,9.02425146484375,-0.0007007750682532787,0.0009222812950611115,-0.00023943837732076645
1772366265994321700,9.03432177734375,-0.002189215738326311,0.0004210742190480232,-0.000041299499571323395
1772366266004391400,9.044391357421874,-0.0022561191581189632,0.002997131086885929,0.0005832277238368988
1772366266014461400,9.05446142578125,0.0004874696023762226,0.0017009708099067211,-0.00347196776419878
1772366266024532500,9.064532470703124,-0.0008271397091448307,-0.000025505200028419495,-0.000027350150048732758
1772366266034602500,9.0746025390625,0.0010091094300150871,0.002504231408238411,0.0007215309888124466
1772366266044672500,9.084672607421876,0.00028558820486068726,-0.0005479566752910614,-0.0004340521991252899
1772366266054742500,9.094742431640626,-0.002082761377096176,-0.0005743219517171383,0.0006573116406798363
1772366266064813600,9.1048134765625,-0.0003580893389880657,-0.0014567291364073753,-0.0006375955417752266
1772366266074883600,9.114883544921875,0.00044804951176047325,0.0032690498046576977,0.0009078364819288254
1772366266084953600,9.12495361328125,0.001015249639749527,-0.0018007794860750437,0.0010870574042201042
1772366266095023400,9.1350234375,-0.00020554335787892342,0.0009926101192831993,-0.0002889977768063545
1772366266105093400,9.14509326171875,0.0015973011031746864,0.0010805493220686913,-0.0009799106046557426
1772366266115164400,9.155164306640625,-0.0008213822729885578,0.0007646982558071613,0.0004592621698975563
1772366266125234700,9.165234619140625,0.0004977704957127571,0.00033975765109062195,-0.00014703907072544098
1772366266135304400,9.175304443359375,-0.0014191726222634315,-0.0012325728312134743,-0.0009198887273669243
1772366266145374500,9.18537451171875,0.0006656413897871971,0.0014479788951575756,0.00036949291825294495
1772366266155444700,9.19544482421875,0.00022622011601924896,0.0022088438272476196,-0.0009639514610171318
1772366266165515500,9.205515625,0.0014360626228153706,-0.000029006507247686386,0.0007549291476607323
1772366266175585500,9.21558544921875,0.0012965127825737,0.0016429256647825241,-0.00016066525131464005
1772366266185655600,9.225655517578126,-0.001458487007766962,0.0021883337758481503,0.0015481412410736084
1772366266195725600,9.2357255859375,-0.000025174114853143692,-0.0030759365763515234,0.0005963267758488655
1772366266205795600,9.245795654296876,-0.00026252493262290955,-0.000008677132427692413,-0.0019414443522691727
1772366266215866600,9.25586669921875,0.0009960848838090897,0.00008426699787378311,-0.0020181434229016304
1772366266225936400,9.265936279296875,-0.0009515085257589817,-0.0023810670245438814,0.0018703071400523186
1772366266236006400,9.27600634765625,-0.0018897405825555325,-0.0007991492748260498,-0.001689806580543518
1772366266246076700,9.28607666015625,0.0012402269057929516,0.0016916301101446152,0.0008967844769358635
1772366266256147700,9.296147705078125,0.0012916256673634052,0.0011075986549258232,0.00017719902098178864
1772366266266217500,9.306217529296875,0.00045168399810791016,0.0016428320668637753,0.00021853111684322357
1772366266276287500,9.31628759765625,-0.00010944390669465065,-0.0019593597389757633,-0.0008035898208618164
1772366266286357500,9.326357421875,-0.002048150170594454,0.0007191365584731102,-0.0020325863733887672
1772366266296427500,9.336427490234374,0.0013945186510682106,-0.0024252578150480986,-0.0029841335490345955
1772366266306498600,9.34649853515625,0.0016869534738361835,0.00038964441046118736,-0.0016206372529268265
1772366266316568600,9.356568603515624,-0.0011687539517879486,0.00022586015984416008,0.0010840697214007378
1772366266326638300,9.366638427734374,-0.00042981281876564026,-0.0008802651427686214,-0.0003520343452692032
1772366266336708600,9.37670849609375,0.0002439669333398342,-0.0007859892211854458,0.0008911294862627983
1772366266346778400,9.3867783203125,-0.002125302329659462,0.00018169498071074486,-0.0007322449237108231
1772366266356849400,9.396849365234376,-0.000007556285709142685,0.002564957831054926,0.0002182377502322197
1772366266366919400,9.40691943359375,-0.002323920838534832,0.003993077669292688,0.00176303181797266
1772366266376989700,9.41698974609375,0.00018717395141720772,0.0002942131832242012,0.0001872396096587181
1772366266387059500,9.4270595703125,0.000523911789059639,-0.00014074379578232765,0.0029637962579727173
1772366266397129500,9.43712939453125,0.0007090014405548573,0.0027634338475763798,-0.001817110925912857
1772366266407200500,9.447200439453125,0.0013885595835745335,0.0003431858494877815,0.0001792432740330696
1772366266417270500,9.4572705078125,-0.0006442312151193619,-0.002149000531062484,-0.00009319745004177094
1772366266427340500,9.467340576171875,-0.0010406794026494026,-0.0017141916323453188,0.00017020851373672485
1772366266437410600,9.47741064453125,-0.00002228701487183571,-0.0020761152263730764,-0.0020764339715242386
1772366266447481300,9.4874814453125,0.001112485770136118,0.001637929119169712,0.0008224165067076683
1772366266457551400,9.49755126953125,0.0006777369417250156,0.0004929606802761555,0.00015893206000328064
1772366266467621600,9.50762158203125,-0.0000068801455199718475,-0.0007634824141860008,0.0007569678127765656
1772366266477691400,9.51769140625,0.0010189693421125412,0.00032681599259376526,0.0003580264747142792
1772366266487761400,9.527761474609376,0.0015263115055859089,-0.00040889158844947815,0.0014773933216929436
1772366266497832400,9.53783251953125,-0.0024308799766004086,-0.0013141001109033823,-0.0005687130615115166
1772366266507902700,9.54790283203125,-0.00022124312818050385,0.00024056248366832733,-0.0002146884799003601
1772366266517972500,9.557972412109375,0.0014621410518884659,0.0014917156659066677,-0.0003244113177061081
1772366266528042500,9.56804248046875,-0.000994233414530754,0.00043291086331009865,-0.0004332195967435837
1772366266538112500,9.578112548828125,-0.0008466942235827446,0.0012065591290593147,-0.0004262961447238922
1772366266548183600,9.58818359375,0.0013498836196959019,0.0029323878698050976,-0.00016186758875846863
1772366266558253600,9.598253662109375,-0.0005023451521992683,0.0019163917750120163,-0.0006231274455785751
1772366266568323600,9.608323486328125,-0.0013257479295134544,0.0006528380326926708,-0.0005343006923794746
1772366266578393300,9.618393310546875,-0.001111096702516079,-0.0014494615606963634,-0.0008432269096374512
1772366266588463600,9.628463623046875,0.00008211890235543251,-0.0002538817934691906,-0.0009412635117769241
1772366266598534700,9.63853466796875,-0.0023208511993288994,-0.002094392431899905,0.0012960582971572876
1772366266608604400,9.6486044921875,0.0016367402859032154,0.00398310087621212,-0.0006651552394032478
1772366266618674400,9.65867431640625,0.0014471234753727913,0.0005060774274170399,0.0006616311147809029
1772366266628744700,9.66874462890625,-0.0001945197582244873,-0.0017267009243369102,0.0004973141476511955
1772366266638814500,9.678814453125,-0.00018200278282165527,0.0025692442432045937,0.0009617693722248077
1772366266648885500,9.688885498046876,-0.002501091919839382,-0.000787664670497179,-0.00014982838183641434
1772366266658955500,9.69895556640625,-0.0009729694575071335,0.0007676216773688793,0.0002589663490653038
1772366266669025500,9.709025634765625,-0.0012807114981114864,0.000125945545732975,-0.001109226606786251
1772366266679095600,9.719095458984375,0.00039628101512789726,-0.00045915087684988976,-0.000012537464499473572
1772366266689166600,9.72916650390625,-0.000017533078789711,0.00019836239516735077,0.00023058056831359863
1772366266699236400,9.739236328125,-0.0006524301134049892,0.002235148102045059,-0.0010650474578142166
1772366266709307400,9.749307373046875,-0.00004595564678311348,0.000187799334526062,-0.0006322059780359268
1772366266719377400,9.75937744140625,-0.00024089915677905083,0.0022054100409150124,0.0003566257655620575
1772366266729447400,9.769447509765625,0.0015210453420877457,0.00019833864644169807,0.00022914353758096695
1772366266739518500,9.7795185546875,3.7997961044311523e-7,0.0007775761187076569,0.0006645703688263893
1772366266749588500,9.78958837890625,-0.001089748926460743,0.0034323004074394703,0.0005199089646339417
1772366266759658500,9.799658447265625,0.0009321230463683605,0.0004181349650025368,-0.0015869177877902985
1772366266769728500,9.809728515625,0.002663207706063986,-0.0014495805371552706,0.0017315279692411423
1772366266779798500,9.819798583984374,-0.001020209863781929,0.0018993443809449673,-0.00022190064191818237
1772366266789869600,9.82986962890625,-0.00005623837932944298,0.0003050439991056919,-0.00007601268589496613
1772366266799939300,9.839939208984376,0.0005941055715084076,-0.0011706138029694557,0.001574615016579628
1772366266810009600,9.850009521484376,0.0003603622317314148,-0.0011902186088263988,-0.00017673801630735397
1772366266820079600,9.86007958984375,0.0023848973214626312,0.00025481265038251877,-0.0019988734275102615
1772366266830149400,9.8701494140625,-0.0013197516091167927,-0.0039200615137815475,0.000680156983435154
1772366266840220400,9.880220458984375,-0.00034716492518782616,-0.0004129447042942047,0.001438625156879425
1772366266850290400,9.89029052734375,0.00104227801784873,-0.003595646470785141,-0.0008799443021416664
1772366266860360400,9.9003603515625,0.0011346898972988129,-0.0014099900145083666,0.0013286154717206955
1772366266870430500,9.910430419921875,-0.0015414683148264885,-0.0032070912420749664,0.0012566987425088882
1772366266880500500,9.92050048828125,-0.0002197418361902237,-0.0004310118965804577,0.001707306131720543
1772366266890571300,9.9305712890625,0.00017545465379953384,-0.0016450569964945316,0.00017000455409288406
1772366266900641500,9.9406416015625,-0.0013635861687362194,-0.0026647814083844423,0.0014232881367206573
1772366266910711600,9.950711669921875,-0.0000670342706143856,-0.0030300095677375793,0.0007894914597272873
1772366266920781300,9.96078125,-0.0008374867029488087,0.0004701828584074974,0.0008307704702019691
1772366266930851600,9.9708515625,0.0016621747054159641,0.0007191179320216179,0.0014804312959313393
1772366266940922600,9.980922607421874,-0.0024550724774599075,-0.00037384312599897385,0.002964344806969166
1772366266950992400,9.990992431640626,-0.00047956500202417374,0.002759021706879139,-0.0004808399826288223
1772366266961062400,10.0010625,-0.0008859634399414062,-0.003020304022356868,0.002794315107166767
1772366266971132400,10.01113232421875,-0.0003721201792359352,-0.00438822153955698,0.0003918539732694626
1772366266981202400,10.021202392578125,0.00038075540214776993,-0.000024099834263324738,-0.00031947623938322067
1772366266991273500,10.0312734375,0.0004472644068300724,0.0016148388385772705,0.0001512160524725914
1772366267001343500,10.041343505859375,0.0005042562261223793,0.0011889995075762272,0.0003719916567206383
1772366267011413500,10.05141357421875,-0.0004094713367521763,-0.0031889816746115685,0.0007103849202394485
1772366267021483500,10.0614833984375,0.0014134622178971767,0.0018265494145452976,0.000723433680832386
1772366267031553500,10.071553466796875,0.0009845285676419735,-0.0028701017145067453,0.001658647321164608
1772366267041624600,10.08162451171875,-0.00006395811215043068,0.006161742843687534,0.0015502572059631348
1772366267051694300,10.0916943359375,0.0029437984339892864,0.001725645735859871,-0.0019387667998671532
1772366267061764400,10.101764404296874,-0.001269322820007801,-0.0016427203081548214,0.0008229315280914307
1772366267071834600,10.111834716796874,0.00021007051691412926,-0.0017801194917410612,0.0010704929009079933
1772366267081904400,10.121904296875,0.0005775867030024529,0.005025056190788746,0.0018111178651452065
1772366267091975400,10.131975341796876,0.002540603280067444,0.0006203949451446533,-0.0005441522225737572
1772366267102045400,10.14204541015625,-0.0003294851630926132,-0.000353256706148386,0.0012851729989051819
1772366267112115500,10.152115478515626,-0.00085838558152318,0.0007569626905024052,-0.000044483691453933716
1772366267122185500,10.162185546875,-0.00006183423101902008,-0.0016079244669526815,-0.00007830560207366943
1772366267132255500,10.17225537109375,-0.000700339674949646,-0.003633581567555666,-0.000675019808113575
1772366267142326300,10.182326171875,-0.0011615995317697525,-0.000974148977547884,0.002238744869828224
1772366267152396500,10.192396484375,-0.0013730153441429138,-0.001417109975591302,-0.00011837482452392578
1772366267162466600,10.202466552734375,-0.00009736139327287674,-0.0011646426282823086,-0.0008270423859357834
1772366267172536300,10.212536376953125,-0.0022526406683027744,0.0005320771597325802,0.0007456010207533836
1772366267182606300,10.2226064453125,-0.0006733858026564121,0.004985149018466473,0.0008145766332745552
1772366267192677400,10.232677490234375,0.0015001511201262474,0.000237906351685524,0.0006305314600467682
1772366267202747400,10.242747314453124,-0.0016865874640643597,0.07079622894525528,0.04187490791082382
1772366267212817400,10.2528173828125,-0.0008492670021951199,0.023844081908464432,0.015136843547224998
1772366267222887400,10.262887451171874,0.0006879093125462532,0.029024727642536163,0.017043666914105415
1772366267232958500,10.27295849609375,0.0007212022319436073,0.006282599177211523,0.006686014123260975
1772366267243028500,10.283028564453126,-0.003127597738057375,-0.0024384546559304,0.0022228220477700233
1772366267253098500,10.293098388671876,-0.00032330257818102837,-0.02043786272406578,-0.007176713552325964
1772366267263168500,10.30316845703125,0.00015553366392850876,-0.03931461274623871,-0.020792657509446144
1772366267273238500,10.313238525390625,0.0025697704404592514,-0.031025029718875885,-0.014758284203708172
1772366267283308500,10.32330859375,0.0009084907360374928,-0.014382405206561089,-0.011976879090070724
1772366267293379600,10.333379638671875,-0.0014705709181725979,-0.0008448371663689613,-0.0056776199489831924
1772366267303449300,10.343449462890625,0.0045673479326069355,0.0001868712715804577,-0.00035129766911268234
1772366267313519400,10.353519287109375,-0.00044892914593219757,-0.004699882119894028,-0.001708979718387127
