time,seconds_elapsed,z,y,x
1772366243421331200,0.108331298828125,0.0015913443639874458,0.004160827025771141,0.0008957618847489357
1772366243431401200,0.118401123046875,-0.0002446761354804039,0.002496113535016775,0.0008361702784895897
1772366243441471200,0.12847119140625,0.00022297492250800133,0.000970921479165554,-0.0004040645435452461
1772366243451542300,0.138542236328125,0.0002095201052725315,0.0005006943829357624,0.00012662354856729507
1772366243461612300,0.1486123046875,-0.00006718235090374947,-0.0017057345248758793,-0.0011698035523295403
1772366243471682300,0.158682373046875,-0.0014638546854257584,0.0008070250041782856,-0.0003012474626302719
1772366243481753300,0.16875341796875,0.002080013509839773,-0.003571211826056242,-0.0007507884874939919
1772366243491823000,0.178822998046875,0.0005678846500813961,0.0013797469437122345,0.002580203115940094
1772366243501893400,0.188893310546875,0.0018677734769880772,0.0017699003219604492,-0.0011652670800685883
1772366243511963400,0.19896337890625,-0.0013282154686748981,-0.003780975705012679,0.0012448802590370178
1772366243522034200,0.2090341796875,-0.0011734864674508572,0.001387154683470726,-0.0007836492732167244
1772366243532104200,0.219104248046875,0.000502836424857378,0.001689583994448185,0.0012411465868353844
1772366243542174500,0.229174560546875,0.0013273507356643677,0.004886708687990904,0.0006081126630306244
1772366243552244200,0.239244140625,-0.000863522756844759,0.001611516810953617,-0.00016384199261665344
1772366243562315300,0.249315185546875,0.0020201480947434902,0.0018647834658622742,0.0017152847722172737
1772366243572385300,0.25938525390625,-0.0008770786225795746,-0.0014112230855971575,0.0001780940219759941
1772366243582455000,0.269455078125,0.0017527923919260502,-0.0005606096237897873,-0.001212875358760357
1772366243592525300,0.279525390625,-0.0009165708906948566,0.0009695407934486866,0.0006924765184521675
1772366243602596400,0.289596435546875,0.0014496478252112865,0.002468101680278778,-0.001162947155535221
1772366243612666400,0.299666259765625,-0.0012264787219464779,0.0011646016500890255,0.00046662241220474243
1772366243622736100,0.309736083984375,-0.0006155497394502163,-0.002018408151343465,0.00042507704347372055
1772366243632806400,0.319806396484375,0.0028263344429433346,-0.0014192531816661358,0.0005928194150328636
1772366243642877400,0.32987744140625,-0.0003524143248796463,0.0016172830946743488,-0.0026021748781204224
1772366243652947200,0.339947265625,0.0005856044590473175,0.0026213317178189754,-0.002265600487589836
1772366243663017200,0.350017333984375,-0.0013334699906408787,0.00047509046271443367,-0.0010594548657536507
1772366243673087200,0.360087158203125,0.0036864655558019876,0.0007892386056482792,0.0036258408799767494
1772366243683157500,0.370157470703125,0.0006280913949012756,0.0015399837866425514,-0.0001121722161769867
1772366243693227500,0.3802275390625,0.0010858369059860706,0.0032291030511260033,0.0016584740951657295
1772366243703297300,0.39029736328125,0.0011020819656550884,0.0023633092641830444,0.0013383617624640465
1772366243713368300,0.400368408203125,0.001786806620657444,0.0005849404260516167,0.0009933765977621078
1772366243723438600,0.4104384765625,0.00032020406797528267,0.0014507342129945755,0.0005417047068476677
1772366243733508600,0.420508544921875,0.0004982007667422295,0.0006195963360369205,-0.0003697238862514496
1772366243743578400,0.430578369140625,0.0010521383956074715,-0.0016491503920406103,0.0007139164954423904
1772366243753649400,0.4406494140625,0.0002703270874917507,0.0005068741738796234,-0.000603891909122467
1772366243763719700,0.4507197265625,-0.00016509974375367165,0.0020368602126836777,0.0004994561895728111
1772366243773789400,0.46078955078125,0.0008892882615327835,0.00304434634745121,0.0009626895189285278
1772366243783859500,0.470859375,-0.0004092687740921974,-0.0026068813167512417,0.00019330158829689026
1772366243793930500,0.480930419921875,0.0026969281025230885,-0.0007623005658388138,0.0009137624874711037
1772366243804000300,0.491000244140625,0.00045454641804099083,0.0020872815512120724,0.000005358830094337463
1772366243814070500,0.501070556640625,0.0002949787303805351,-0.0012809056788682938,0.00007095374166965485
1772366243824140500,0.511140625,0.00023638922721147537,-0.000696075614541769,0.00043074600398540497
1772366243834211600,0.521211669921875,0.0007396549917757511,-0.0005086436867713928,0.0007074587047100067
1772366243844281300,0.53128125,-0.0017453408800065517,0.002234412357211113,0.00040039606392383575
1772366243854351600,0.5413515625,-0.00020949309691786766,0.0005394150502979755,-0.0021293796598911285
1772366243864421400,0.55142138671875,-0.000075535848736763,-0.0001024068333208561,-0.0013227080926299095
1772366243874492400,0.561492431640625,-0.0008925520814955235,0.0027716425247490406,0.002779676578938961
1772366243884562400,0.5715625,-0.0011524767614901066,0.00003790762275457382,0.00030533410608768463
1772366243894632700,0.5816328125,-0.0008587688207626343,-0.00048114778473973274,0.00019549299031496048
1772366243904702500,0.591702392578125,-0.0005232105031609535,0.0010951776057481766,-0.0010157134383916855
1772366243914773500,0.6017734375,-0.00035792356356978416,0.0009692274034023285,-0.001000712625682354
1772366243924843500,0.611843505859375,0.0008391672745347023,0.0020326278172433376,-0.0008409228175878525
1772366243934913300,0.621913330078125,-0.0022142422385513783,0.0016627674922347069,-0.00020411238074302673
1772366243944984300,0.631984375,0.001146933063864708,0.0013192198239266872,0.0007687397301197052
1772366243955054600,0.6420546875,0.0007837973535060883,-0.0008004568517208099,0.0012538693845272064
1772366243965124400,0.652124267578125,0.0009470488876104355,0.0011393898166716099,-0.002178412862122059
1772366243975194400,0.6621943359375,0.00018697232007980347,-0.002473643748089671,-0.0015699351206421852
1772366243985265400,0.672265380859375,-0.0004207612946629524,0.0008214851841330528,0.00021944288164377213
1772366243995335700,0.682335693359375,-0.000369091983884573,-0.00005976622924208641,-0.0003768661990761757
1772366244005405400,0.692405517578125,0.0002530226483941078,0.0007282630540430546,0.0027558105066418648
1772366244015475500,0.702475341796875,0.00014255661517381668,0.000002830754965543747,-0.0012867692857980728
1772366244025546500,0.71254638671875,-0.0006049927324056625,0.000482998788356781,0.0020610904321074486
1772366244035616500,0.722616455078125,0.0008878773078322411,0.0014772373251616955,-0.002225903794169426
1772366244045686500,0.7326865234375,0.0004729568026959896,0.0012407489120960236,-0.0006948523223400116
1772366244055756500,0.742756591796875,-0.0007826010696589947,-0.0009075268171727657,-0.0011037243530154228
1772366244065827300,0.752827392578125,0.00021981261670589447,0.0034163817763328552,-0.0020637940615415573
1772366244075897300,0.7628974609375,0.00007033208385109901,-0.0008805566467344761,-0.0022789454087615013
1772366244085967600,0.772967529296875,0.00242323474958539,-0.0010573908220976591,-0.0022248830646276474
1772366244096037400,0.783037353515625,0.000009310897439718246,-0.0007536415942013264,0.0010427292436361313
1772366244106108400,0.7931083984375,0.002403226215392351,-0.0017472668550908566,0.00029411446303129196
1772366244116178400,0.803178466796875,-0.001711694523692131,0.001147114671766758,-0.000138845294713974
1772366244126248400,0.81324853515625,-0.002175350673496723,0.0030089309439063072,0.00011229142546653748
1772366244136318500,0.823318359375,0.0010507390834391117,0.000563459936529398,-0.002082514576613903
1772366244146389500,0.833389404296875,0.0014406261034309864,0.002447646576911211,0.00004215538501739502
1772366244156459500,0.84345947265625,0.0012775720097124577,0.0010059680789709091,-0.0011200448498129845
1772366244166529500,0.853529541015625,-0.00027531711384654045,0.0012749475426971912,0.0007532220333814621
1772366244176600600,0.8636005859375,0.00014972221106290817,-0.002100917510688305,-0.0002337070181965828
1772366244186670600,0.873670654296875,0.0007997998036444187,-0.0038732513785362244,0.0002557821571826935
1772366244196740400,0.883740234375,0.0014135781675577164,0.0006559845060110092,-0.000016751699149608612
1772366244206810400,0.893810302734375,-0.001177145168185234,0.0029585538432002068,-0.0006026467308402061
1772366244216880600,0.903880615234375,-0.0005769035778939724,0.0009069018997251987,0.0005069253966212273
1772366244226951400,0.913951416015625,0.0005810386501252651,0.0022944086231291294,0.0002121133729815483
1772366244237021400,0.924021484375,-0.00031442567706108093,0.0009192591533064842,-0.0010329755023121834
1772366244247091500,0.934091552734375,-0.00006169173866510391,0.0003072647377848625,0.001779322512447834
1772366244257162500,0.94416259765625,-0.0010663256980478764,0.0012251469306647778,0.0012422297149896622
1772366244267232500,0.954232421875,0.000625313725322485,-0.002453477354720235,-0.00018682237714529037
1772366244277302500,0.964302490234375,0.0010434221476316452,-0.000370862428098917,-0.0023152483627200127
1772366244287372500,0.97437255859375,0.0001941397786140442,-0.0004941667430102825,0.0013663051649928093
1772366244297443300,0.984443359375,-0.0020956131629645824,-0.0006801113486289978,-0.0015811063349246979
1772366244307513600,0.994513671875,-0.0008737551979720592,-0.0013437708839774132,0.00048018060624599457
1772366244317583600,1.00458349609375,0.0002710050903260708,-0.00045548658818006516,0.0003516785800457001
1772366244327653400,1.0146533203125,-0.00022247852757573128,-0.0010493714362382889,-0.002050759270787239
1772366244337724400,1.024724365234375,0.001965748146176338,0.000589379109442234,-0.0011703325435519218
1772366244347794400,1.03479443359375,0.0015577515587210655,0.00023491214960813522,0.000017170794308185577
1772366244357864400,1.044864501953125,0.0017554308287799358,-0.00042348308488726616,-0.001767837442457676
1772366244367934500,1.0549345703125,-0.0007157167419791222,-0.003897576592862606,-0.0020376164466142654
1772366244378005500,1.065005615234375,-0.000786997377872467,-0.0008435412310063839,0.0011018309742212296
1772366244388075500,1.075075439453125,0.002469516359269619,-0.0008925432339310646,-0.0007658433169126511
1772366244398145500,1.0851455078125,-0.00029003433883190155,0.00025626225396990776,-0.0011472394689917564
1772366244408215600,1.095215576171875,0.0017930902540683746,-0.0005458821542561054,0.0010469397529959679
1772366244418286600,1.10528662109375,0.0008231890387833118,0.002945978194475174,0.0022437991574406624
1772366244428356400,1.1153564453125,-0.0005416814237833023,0.0017281146720051765,0.0015580356121063232
1772366244438426400,1.12542626953125,0.001787656918168068,0.0002698875032365322,-0.0013542035594582558
1772366244448496600,1.13549658203125,-0.0007551289163529873,0.0012121140025556087,-0.0015707183629274368
1772366244458567400,1.1455673828125,-0.0011455733329057693,-0.0017223022878170013,0.0030383747071027756
1772366244468637400,1.155637451171875,0.0012281020171940327,-0.0022669187746942043,-0.002153990790247917
1772366244478707500,1.16570751953125,0.00018425891175866127,-0.0029711765237152576,-0.0013486184179782867
1772366244488777500,1.175777587890625,-0.00045037269592285156,0.0021010800264775753,0.0004926910623908043
1772366244498848500,1.1858486328125,-0.0004214327782392502,0.001200096681714058,0.0007227323949337006
1772366244508918500,1.19591845703125,-0.001749284565448761,0.0005865045823156834,-0.0024075470864772797
1772366244518988300,1.20598828125,0.00035739969462156296,-0.0012105831410735846,-0.0029191942885518074
1772366244529058600,1.21605859375,0.0010583437979221344,0.0005039600655436516,-0.0020659174770116806
1772366244539129600,1.226129638671875,-0.0010812114924192429,0.0014236150309443474,-0.00024850480258464813
1772366244549199600,1.23619970703125,0.0009790095500648022,0.00026647141203284264,-0.0018589189276099205
1772366244559269400,1.246269287109375,-0.0006314530037343502,0.0007846849039196968,0.0013200491666793823
1772366244569340400,1.25634033203125,0.00021623121574521065,-0.0005791201256215572,0.00042123254388570786
1772366244579410400,1.266410400390625,-0.0013265344314277172,0.0002149520441889763,-0.0005092732608318329
1772366244589480400,1.27648046875,0.001283097080886364,0.0013071144931018353,-0.0008381735533475876
1772366244599550500,1.286550537109375,0.00020006205886602402,-0.0006426838226616383,0.001721440814435482
1772366244609621500,1.29662158203125,-0.0007331096567213535,0.00034188665449619293,0.0018599256873130798
1772366244619691300,1.306691162109375,-0.0013454258441925049,-0.0016052648425102234,0.000825909897685051
1772366244629761500,1.316761474609375,-0.0009358320385217667,-0.0015040647704154253,-0.0019408483058214188
1772366244639831600,1.32683154296875,-0.00021620560437440872,-0.0011654715053737164,0.0010226024314761162
1772366244649902600,1.336902587890625,-0.0006106202490627766,-0.0012490947265177965,0.0006415043026208878
1772366244659972400,1.346972412109375,-0.000052527058869600296,0.002506786026060581,-0.0004926268011331558
1772366244670042600,1.357042724609375,-0.000746813602745533,-0.0008591832593083382,-0.001109682023525238
1772366244680112400,1.3671123046875,0.0015139933675527573,-0.00045886170119047165,0.0012539727613329887
1772366244690183400,1.377183349609375,-0.0016413195990025997,0.0018064230680465698,-0.002141823060810566
1772366244700253200,1.387253173828125,-0.001353515312075615,-0.0011522909626364708,0.0020445706322789192
1772366244710323500,1.397323486328125,0.0006582364439964294,-0.0014340532943606377,-0.0002657221630215645
1772366244720393500,1.4073935546875,-0.0007733148522675037,-0.0021360653918236494,0.000024446286261081696
1772366244730464500,1.417464599609375,-0.0008734497241675854,0.0011452152393758297,0.0006657354533672333
1772366244740534300,1.4275341796875,-0.0014492683112621307,-0.0014218282885849476,-0.0014248136430978775
1772366244750604300,1.437604248046875,0.0024453382939100266,0.002363855019211769,0.00021995417773723602
1772366244760674300,1.44767431640625,0.0000738692469894886,-0.000296534039080143,-0.00009983684867620468
1772366244770745300,1.457745361328125,0.0007846672087907791,-0.002192704938352108,-0.0009254161268472672
1772366244780815400,1.4678154296875,-0.0008242428302764893,0.00289717223495245,-0.0007806560024619102
1772366244790885400,1.477885498046875,-0.00015392526984214783,-0.0023114385548979044,0.0028641466051340103
1772366244800955400,1.487955322265625,0.004217971581965685,0.0014602728188037872,-0.0025716181844472885
1772366244811026400,1.4980263671875,-0.0015810616314411163,-0.001511814771220088,-0.0009857062250375748
1772366244821096400,1.508096435546875,-0.00012149987742304802,-0.0021086132619529963,-0.0013200808316469193
1772366244831166200,1.518166259765625,0.0011672037653625011,-0.0034567052498459816,-0.00219626072794199
1772366244841236500,1.528236572265625,0.001822473481297493,0.003151513170450926,0.00007059052586555481
1772366244851307500,1.5383076171875,0.00017956923693418503,0.003908383194357157,-0.0004577813670039177
1772366244861377300,1.548377197265625,0.001982581801712513,0.0003921003080904484,0.0008515669032931328
1772366244871447300,1.558447265625,-0.00035860342904925346,0.0012064948678016663,-0.00018893089145421982
1772366244881517300,1.568517333984375,-0.0005306154489517212,0.0015139193274080753,-0.00015122070908546448
1772366244891588400,1.57858837890625,0.0005189366638660431,-0.0024368802551180124,-0.001654042862355709
1772366244901658400,1.588658447265625,-0.00048327911645174026,0.00021878210827708244,0.0005715908482670784
1772366244911728400,1.598728271484375,0.0008927755989134312,-0.0008938866667449474,0.0012661432847380638
1772366244921798400,1.60879833984375,-0.0021231388673186302,0.0011691469699144363,0.0006631528958678246
1772366244931869200,1.618869140625,0.0003789006732404232,0.0016367980279028416,-0.0005573742091655731
1772366244941939500,1.628939453125,0.0005172467790544033,0.0013422248885035515,-0.0006307009607553482
1772366244952009500,1.639009521484375,-0.0008918317034840584,-0.000673255417495966,-0.0004027336835861206
1772366244962079200,1.649079345703125,0.0008199471049010754,0.00018786266446113586,0.001944093033671379
1772366244972150300,1.659150390625,-0.0010786205530166626,0.0017183814197778702,-0.0006868438795208931
1772366244982220300,1.66922021484375,-0.0009002191945910454,-0.0003882134333252907,-0.0004497002810239792
1772366244992290300,1.679290283203125,0.0005288328975439072,0.0005026143044233322,0.0016171792522072792
1772366245002361300,1.689361328125,0.0006671394221484661,-0.0034511040430516005,0.0017260517925024033
1772366245012431400,1.699431396484375,0.0008599520660936832,0.0014294050633907318,-0.0000798376277089119
1772366245022501000,1.709501220703125,0.0007000169716775417,0.00031469110399484634,0.0011070827022194862
1772366245032571400,1.7195712890625,0.0010930998250842094,0.0016854200512170792,0.00064901914447546
1772366245042642400,1.729642333984375,-0.0017861970700323582,0.0016801543533802032,0.0009928755462169647
1772366245052712400,1.73971240234375,0.001397612038999796,-0.002668521134182811,0.0001627691090106964
1772366245062782200,1.7497822265625,-0.0012218519113957882,0.002235407941043377,0.0014889677986502647
1772366245072852500,1.7598525390625,-0.0012769787572324276,0.0005245935171842575,0.0019022906199097633
1772366245082923500,1.769923583984375,0.0010557477362453938,0.0005742772482335567,0.003733714111149311
1772366245092993300,1.7799931640625,-0.0010433560237288475,0.0024305004626512527,-0.0021002059802412987
1772366245103063300,1.790063232421875,0.0006311177276074886,-0.0025899119209498167,0.0026371870189905167
1772366245113133300,1.80013330078125,0.0006172689609229565,-0.0011022700928151608,0.0017397012561559677
1772366245123204400,1.810204345703125,0.00016508856788277626,-0.001493197400122881,0.0009922031313180923
1772366245133274400,1.8202744140625,-0.0020951363258063793,0.003090369049459696,0.00009738095104694366
1772366245143344400,1.830344482421875,-0.00027378322556614876,0.0008176229894161224,-0.00035325251519680023
1772366245153414100,1.8404140625,-0.0018535698764026165,0.0016458663158118725,-0.0003969278186559677
1772366245163485200,1.850485107421875,-0.0003209752030670643,-0.0008489228785037994,0.0017108041793107986
1772366245173555500,1.860555419921875,-0.0001041940413415432,0.0017846766859292984,-0.000020517036318778992
1772366245183625500,1.87062548828125,-0.0004684128798544407,0.0016513597220182419,0.0019338605925440788
1772366245193695200,1.8806953125,0.0018253680318593979,-0.0009870338253676891,-0.001013193279504776
1772366245203766300,1.890766357421875,0.000310488510876894,0.0018612067215144634,-0.002525695599615574
1772366245213836500,1.90083642578125,0.0014471258036792278,0.00007156282663345337,0.0016943495720624924
1772366245223906300,1.91090625,-0.00003641610965132713,-0.0013010420370846987,0.0012582922354340553
1772366245233977300,1.920977294921875,0.0011636042036116123,0.002583444584161043,0.001186653971672058
1772366245244047400,1.93104736328125,-0.0012925583869218826,0.000020067207515239716,-0.001122678630053997
1772366245254117400,1.941117431640625,-0.00014606770128011703,0.0016573788598179817,-0.00015941355377435684
1772366245264187400,1.9511875,-0.0008913059718906879,-0.001209842972457409,-0.0005217455327510834
1772366245274258400,1.961258544921875,-0.0025914679281413555,-0.0008902633562684059,0.000924350693821907
1772366245284328400,1.971328369140625,-0.0014265524223446846,-0.00005078734830021858,-0.0018682051450014114
1772366245294398200,1.981398193359375,-0.0014569126069545746,0.002606780733913183,0.001702827401459217
1772366245304468500,1.991468505859375,0.0014290455728769302,0.0003139497712254524,0.0008604181930422783
1772366245314539500,2.00153955078125,-0.002165955025702715,0.0012452569790184498,0.00004762131720781326
1772366245324609300,2.011609375,0.0005670082755386829,-0.00010332046076655388,-0.002939339727163315
1772366245334679300,2.02167919921875,-0.0029843165539205074,0.0024631675332784653,-0.0003896299749612808
1772366245344749600,2.03174951171875,-0.0003316625952720642,-0.0012168679386377335,0.0005384432151913643
1772366245354820400,2.0418203125,0.001477422658354044,-0.0033370102755725384,-0.002852826379239559
1772366245364890400,2.051890380859375,-0.0007689758203923702,-0.0017364777158945799,0.0016550496220588684
1772366245374960400,2.06196044921875,-0.001875519286841154,0.0017024618573486805,0.0010102977976202965
1772366245385030100,2.072030029296875,-0.001344884280115366,0.003565770573914051,-0.00008908845484256744
1772366245395101200,2.08210107421875,0.00035368045791983604,0.002789459191262722,-0.000501878559589386
1772366245405171500,2.09217138671875,-0.002158971969038248,0.000592897180467844,0.0018786406144499779
1772366245415241200,2.1022412109375,0.0006192377768456936,-0.0010686488822102547,-0.000045493245124816895
1772366245425311200,2.112311279296875,0.0004292391240596771,-0.001458190381526947,0.0004639439284801483
1772366245435382300,2.12238232421875,0.0009243208914995193,-0.005150663200765848,0.0008469056338071823
1772366245445452500,2.13245263671875,0.0011364854872226715,-0.000986558385193348,0.0009321765974164009
1772366245455522300,2.142522216796875,-0.0011887201108038425,-0.0023506293073296547,0.0003617275506258011
1772366245465593300,2.15259326171875,-0.0007551424205303192,-0.00419647665694356,-0.002025243826210499
1772366245475663400,2.162663330078125,-0.0015282584354281425,0.001207343302667141,-0.0011370796710252762
1772366245485733400,2.1727333984375,-0.0009791986085474491,-0.0007845843210816383,0.002084963023662567
1772366245495803400,2.182803466796875,-0.003193883690983057,-0.004415005445480347,-0.0007864572107791901
1772366245505874400,2.19287451171875,0.0021405438892543316,-0.0020067880395799875,-0.0006606290116906166
1772366245515944200,2.202944091796875,-0.0023077335208654404,0.002725116442888975,0.0030366377905011177
1772366245526014200,2.21301416015625,-0.0006241756491363049,-0.0007493826560676098,0.0028411680832505226
1772366245536084500,2.22308447265625,-0.0016185999847948551,0.0017172368243336678,0.0009921351447701454
1772366245546155500,2.233155517578125,-0.000614577904343605,0.002851237542927265,0.0006687752902507782
1772366245556225300,2.243225341796875,-0.0012127235531806946,0.0004706382751464844,-0.001052691601216793
1772366245566295300,2.25329541015625,-0.0005980907008051872,-0.0001987922005355358,-0.0004986533895134926
1772366245576365300,2.263365234375,-0.0009171376004815102,-0.0014084000140428543,0.0007852567359805107
1772366245586436400,2.273436279296875,-0.0021126787178218365,0.0015766299329698086,-0.0025440286844968796
1772366245596506400,2.28350634765625,0.00038936082273721695,-0.0005957107059657574,-0.000055038370192050934
1772366245606576400,2.293576416015625,-0.0013196775689721107,0.0018518413417041302,0.00032294541597366333
1772366245616646400,2.303646484375,-0.00047545507550239563,0.0034345583990216255,0.0013591814786195755
1772366245626717400,2.313717529296875,0.0026991856284439564,-0.0011625527404248714,0.000501914881169796
1772366245636787500,2.323787353515625,0.0006171264685690403,0.0003304150886833668,0.00005636829882860184
1772366245646857200,2.333857177734375,0.00034973863512277603,0.0008519282564520836,0.0006141085177659988
1772366245656927200,2.34392724609375,0.0005348282866179943,-0.0007656756788492203,-0.0020184265449643135
1772366245666998300,2.353998291015625,-0.0011536073870956898,-0.0029986980371177197,-0.0005682585760951042
1772366245677068300,2.364068359375,-0.0013000811450183392,-0.001261251512914896,0.003089592792093754
1772366245687142700,2.374142578125,-0.00010421685874462128,0.004059590399265289,0.0003556618466973305
1772366245697213700,2.384213623046875,0.00008353590965270996,-0.0011034803465008736,0.0011732522398233414
1772366245707283500,2.394283447265625,0.00061850156635046,-0.0011078696697950363,-0.0004368843510746956
1772366245717353500,2.404353515625,0.0012723077088594437,-0.0012072054669260979,-0.0019703321158885956
1772366245727423700,2.414423828125,0.0005968334153294563,0.0005153249949216843,-0.00001888815313577652
1772366245737494800,2.424494873046875,0.00010548019781708717,-0.002214148873463273,-0.0009416732937097549
1772366245747564500,2.434564453125,-0.0010437313467264175,0.0006276080384850502,0.0022703539580106735
1772366245757634600,2.444634521484375,-0.0006908625364303589,-0.003023852128535509,0.0016045644879341125
1772366245767704600,2.45470458984375,0.001968017779290676,-0.0028706693556159735,-0.00012292340397834778
1772366245777775600,2.464775634765625,0.0018487083725631237,-0.0012405486777424812,-0.0008121496066451073
1772366245787845600,2.474845703125,-0.00026413891464471817,0.0015538171865046024,0.00029276683926582336
1772366245797915600,2.48491552734375,-0.00023324601352214813,0.0012547443620860577,0.0001321779564023018
1772366245807985700,2.494985595703125,-0.001281040720641613,0.0006536268629133701,0.000034267082810401917
1772366245818056700,2.505056640625,-0.002419808879494667,0.0016424586065113544,0.0009543895721435547
1772366245828126700,2.515126708984375,-0.0012216521427035332,-0.0004198933020234108,0.0000819377601146698
1772366245838196500,2.525196533203125,0.00025488901883363724,0.0005477252416312695,0.002826080657541752
1772366245848266500,2.5352666015625,0.0008407412096858025,0.0016711186617612839,0.0005690865218639374
1772366245858337500,2.545337646484375,0.0021294448524713516,-0.0017377273179590702,-0.0003513023257255554
1772366245868407600,2.555407470703125,0.0010761767625808716,0.0007140017114579678,-0.0006950730457901955
1772366245878477600,2.5654775390625,-0.0018040323629975319,-0.0009307665750384331,0.0016900533810257912
1772366245888548600,2.575548583984375,0.000032242387533187866,-0.0005030641332268715,0.00004505738615989685
1772366245898618600,2.58561865234375,0.0009824582375586033,-0.0014016146305948496,0.0003388039767742157
1772366245908688600,2.595688720703125,-0.0002382737584412098,-0.0016310112550854683,0.0007741767913103104
1772366245918758700,2.605758544921875,-0.0007304265163838863,-0.00008158432319760323,-0.00003622286021709442
1772366245928829700,2.61582958984375,0.0014377492479979992,-0.0016055009327828884,-0.00045026279985904694
1772366245938899500,2.6258994140625,-0.0017694951966404915,-0.0010797930881381035,0.0007388386875391006
1772366245948969700,2.6359697265625,-0.00040390994399785995,-0.001392639009281993,0.000040490180253982544
1772366245959039700,2.646039794921875,-0.002271052449941635,0.0027634897269308567,0.001371537335216999
1772366245969110500,2.656110595703125,0.0009540044702589512,-0.001185593195259571,-0.0017524566501379013
1772366245979180500,2.6661806640625,0.0002567889168858528,-0.0004068845883011818,-0.0006570983678102493
1772366245989250600,2.67625048828125,0.0011877440847456455,-0.0025137250777333975,-0.0009973524138331413
1772366245999320600,2.686320556640625,-0.001874624751508236,-0.0009163608774542809,0.0011973585933446884
1772366246009391600,2.6963916015625,0.0004361923784017563,0.0010909275151789188,0.0011977385729551315
1772366246019461600,2.706461669921875,-0.0010730214416980743,-0.0015325522981584072,0.0028664758428931236
1772366246029531600,2.71653173828125,0.0012287003919482231,-0.0031117608305066824,0.0007455451413989067
1772366246039601700,2.7266015625,0.00011390121653676033,0.00031839078292250633,-0.00012291129678487778
1772366246049672700,2.736672607421875,-0.0025323666632175446,0.001261062454432249,-0.0019133789464831352
1772366246059742700,2.74674267578125,0.001983822323381901,0.0010645212605595589,0.0014414051547646523
1772366246069812500,2.7568125,-0.0013116146437823772,0.0004034028388559818,0.0018743043765425682
1772366246079883500,2.766883544921875,0.00020878342911601067,0.0005882261320948601,0.0014447364956140518
1772366246089953500,2.77695361328125,-0.002321304753422737,-0.0005581323057413101,0.000741015188395977
1772366246100023600,2.7870234375,-0.0013599032536149025,-0.0028969203121960163,0.0010938839986920357
1772366246110093600,2.797093505859375,-0.00018128985539078712,-0.0013410837855190039,0.0003548581153154373
1772366246120164600,2.80716455078125,0.0004219161346554756,-0.0009775622747838497,-0.0005953582003712654
1772366246130234400,2.817234375,0.0006293351761996746,-0.0021151939872652292,0.002494598738849163
1772366246140304600,2.8273046875,0.0008708839304745197,-0.002703752601519227,0.0016791382804512978
1772366246150374700,2.837374755859375,0.000979861244559288,0.00005276687443256378,0.002185671590268612
1772366246160445700,2.84744580078125,0.001993193756788969,-0.00007399963214993477,-0.00045831501483917236
1772366246170515500,2.857515380859375,0.0006988998502492905,0.0031550461426377296,0.000504794530570507
1772366246180585700,2.867585693359375,-0.0014894194900989532,-0.003253851318731904,-0.0009833797812461853
1772366246190655700,2.87765576171875,-0.00024307193234562874,-0.0009251679293811321,0.0004549659788608551
1772366246200726500,2.8877265625,-0.0007088589482009411,0.0013571609742939472,0.000509028322994709
1772366246210796500,2.897796630859375,-0.000915884505957365,-0.002230987185612321,-0.0004369337111711502
1772366246220866600,2.907866455078125,0.00006016390398144722,-0.0013321703299880028,0.002903468906879425
1772366246230936600,2.9179365234375,-0.0019835089333355427,0.001791495829820633,0.003476865589618683
1772366246241007600,2.928007568359375,0.0012900489382445812,-0.0033167132642120123,0.00168668944388628
1772366246251077600,2.93807763671875,0.0007162662222981453,-0.0010473155416548252,0.0014150161296129227
1772366246261147400,2.9481474609375,-0.0016249190084636211,-0.0018691672012209892,-0.000036407262086868286
1772366246271218400,2.958218505859375,0.0005008019506931305,-0.0024473469238728285,0.000843435525894165
1772366246281288700,2.968288818359375,-0.0013708681799471378,0.0011828080751001835,0.0022005820646882057
1772366246291358700,2.978358642578125,0.0015813391655683517,0.003913071006536484,0.00004545971751213074
1772366246301428500,2.988428466796875,-0.00032362015917897224,-0.002026843372732401,0.0016809068620204926
1772366246311499500,2.99849951171875,0.0015837750397622585,0.00010715285316109657,0.0009040301665663719
1772366246321569800,3.00856982421875,0.0013054744340479374,0.0002949056215584278,0.000008408911526203156
1772366246331639600,3.0186396484375,-0.0011628125794231892,-0.00010913843289017677,-0.0009885579347610474
1772366246341709600,3.02870947265625,-0.0008442983962595463,-0.0018532427493482828,0.0002633938565850258
1772366246351780600,3.038780517578125,-0.0009182244539260864,-0.0012540644966065884,0.00020921509712934494
1772366246361850600,3.0488505859375,0.0002285325899720192,0.003718856256455183,0.003022843971848488
1772366246371920600,3.058920654296875,-0.00032022874802351,0.000400506891310215,-0.0005525350570678711
1772366246381990700,3.06899072265625,0.0027328189462423325,-0.0012828772887587547,0.0001409519463777542
1772366246392061700,3.079061767578125,-0.0013869646936655045,0.000818443950265646,0.0019572097808122635
1772366246402131500,3.08913134765625,-0.0002684374339878559,-0.0008553527295589447,0.00017422344535589218
1772366246412201700,3.09920166015625,-0.0014927936717867851,0.001596834510564804,0.0005119331181049347
1772366246422272800,3.109272705078125,-0.00008850870653986931,0.0006343680433928967,0.0009196633473038673
1772366246432342500,3.119342529296875,-0.00018343795090913773,-0.0019542137160897255,0.0004176432266831398
1772366246442412500,3.12941259765625,-0.0010375133715569973,0.00020587630569934845,0.00044880248606204987
1772366246452482800,3.13948291015625,0.0005554230883717537,0.0012962264008820057,0.0017319144681096077
1772366246462553600,3.1495537109375,-0.0006235581822693348,0.0023923837579786777,-0.00010140519589185715
1772366246472623600,3.15962353515625,-0.0018566036596894264,-0.002658411394804716,-0.0015309164300560951
1772366246482693600,3.169693603515625,-0.001505599357187748,-0.004809180274605751,0.001555420458316803
1772366246492763400,3.179763427734375,0.0026105819270014763,0.001533285714685917,-0.0006126761436462402
1772366246502834400,3.18983447265625,0.0006148088723421097,0.00017986726015806198,-0.0006419708952307701
1772366246512904700,3.19990478515625,0.0016768556088209152,-0.0006230496801435947,0.0013306932523846626
1772366246522974500,3.209974365234375,-0.0003862949088215828,-0.00023955432698130608,0.0009498614817857742
1772366246533044500,3.22004443359375,0.00013412395492196083,-0.00092721963301301,-0.0019876621663570404
1772366246543115500,3.230115478515625,0.0013514547608792782,-0.0010441322810947895,0.0008070589974522591
1772366246553185800,3.240185791015625,-0.00013487180694937706,-0.0010251766070723534,-0.00038081686943769455
1772366246563255600,3.250255615234375,0.001179930754005909,0.000019315164536237717,0.000111335888504982
1772366246573325600,3.26032568359375,-0.0006258436478674412,-0.0015876695979386568,0.00026560667902231216
1772366246583396600,3.270396728515625,-0.0003267703577876091,-0.0027615909930318594,-0.0023488178849220276
1772366246593466600,3.280466552734375,0.0020468817092478275,-0.00008308235555887222,0.0032743606716394424
1772366246603536600,3.29053662109375,0.0000050361268222332,-0.0019547520205378532,-0.00048309285193681717
1772366246613607700,3.300607666015625,0.00037904875352978706,-0.0010627438314259052,0.0027211708948016167
1772366246623677400,3.310677490234375,0.0005385722033679485,-0.002484072931110859,-0.0003180289641022682
1772366246633747500,3.32074755859375,-0.00008175242692232132,0.0017596040852367878,0.0009370706975460052
1772366246643817700,3.330817626953125,0.00006951531395316124,-0.0009424388408660889,0.0027618687599897385
1772366246653888800,3.340888671875,-0.0007713846862316132,0.0005115070380270481,0.0006341235712170601
1772366246663958500,3.35095849609375,0.0007053385488688946,0.0012867534533143044,0.0011409232392907143
1772366246674028500,3.361028564453125,-0.0023589455522596836,-0.0020815380848944187,0.0031006215140223503
1772366246684095200,3.37109521484375,0.0010672109201550484,-0.00027538230642676353,-0.00045043695718050003
1772366246694166300,3.381166259765625,-0.0014928551390767097,-0.0030407924205064774,-0.0012087011709809303
1772366246704236300,3.391236328125,0.0017689848318696022,-0.0008231783285737038,0.003976208157837391
1772366246714306000,3.40130615234375,-0.0013035070151090622,0.0002648932859301567,0.002949177287518978
1772366246724376300,3.411376220703125,0.00010903365910053253,-0.0008696136064827442,0.0003139795735478401
1772366246734447400,3.421447265625,0.0004950999282300472,0.0017938180826604366,0.001683463342487812
1772366246744517400,3.431517333984375,-0.001105726696550846,-0.0012831981293857098,0.001239781267940998
1772366246754587100,3.441587158203125,0.002379330340772867,0.00038705579936504364,-0.0010319305583834648
1772366246764657200,3.4516572265625,-0.0005248468369245529,-0.004128866363316774,0.0011915424838662148
1772366246774728200,3.461728271484375,-0.0010081497021019459,0.00014832615852355957,-0.0013979272916913033
1772366246784798200,3.471798095703125,-0.0002110651694238186,0.000778962392359972,-0.0019191084429621696
1772366246794868200,3.4818681640625,0.0014072130434215069,0.0022212956100702286,0.0007651299238204956
1772366246804939300,3.491939208984375,-0.0026274756528437138,0.0012625576928257942,0.002313758246600628
1772366246815009000,3.502009033203125,0.002122115809470415,-0.0033204336650669575,0.0011289948597550392
1772366246825079300,3.512079345703125,-0.00003983825445175171,0.0018652738071978092,0.0006821164861321449
1772366246835149300,3.5221494140625,0.001191962044686079,0.0003849598579108715,-0.0003307713195681572
1772366246845220400,3.532220458984375,0.0014039496891200542,-0.0016377109568566084,0.0011816378682851791
1772366246855290000,3.5422900390625,-0.0005527609027922153,0.0015681730583310127,0.0001179603859782219
1772366246865360400,3.5523603515625,-0.00024942727759480476,-0.0008065677247941494,0.00017015822231769562
1772366246875430100,3.56243017578125,-0.0011544246226549149,0.0004694601520895958,-0.002065710723400116
1772366246885501200,3.572501220703125,-0.0008886409923434258,-0.002083446132019162,-0.00026541389524936676
1772366246895571200,3.5825712890625,-0.002793789841234684,-0.001730418298393488,0.0018385611474514008
1772366246905641200,3.59264111328125,0.0004382221959531307,0.000009424984455108643,0.0012302957475185394
1772366246915711200,3.602711181640625,0.0000879121944308281,-0.003277635434642434,-0.0008489023894071579
1772366246925782300,3.6127822265625,-0.0006721541285514832,-0.000991844106465578,0.00046616699546575546
1772366246935852300,3.622852294921875,0.00159810995683074,0.0005438518710434437,-0.000603528693318367
1772366246945922000,3.632922119140625,-0.00193697027862072,0.0008993842639029026,0.001996515318751335
1772366246955992300,3.642992431640625,-0.0007090023718774319,-0.0004987451247870922,0.0017116805538535118
1772366246966063400,3.6530634765625,0.000616985373198986,-0.0018713383469730616,-0.0018931739032268524
1772366246976133000,3.663133056640625,-0.0004363423213362694,0.00008486630395054817,-0.00009274668991565704
1772366246986203100,3.673203125,-0.0022784508764743805,-0.0037250518798828125,-0.0020048962906003
1772366246996274200,3.683274169921875,-0.0035323300398886204,0.00020933663472533226,-0.0010098135098814964
1772366247006344200,3.69334423828125,-0.000695264432579279,-0.0009576608426868916,-0.0010713320225477219
1772366247016414200,3.703414306640625,-0.0023327632807195187,0.0005643749609589577,0.0029112128540873528
1772366247026484200,3.713484130859375,0.0010497178882360458,-0.0015011727809906006,-0.001833474263548851
1772366247036555300,3.72355517578125,-0.0018775006756186485,-0.0009553772397339344,-0.0008857501670718193
1772366247046625000,3.733625,-0.0013123778626322746,0.0012587751261889935,0.00023970194160938263
1772366247056695300,3.7436953125,0.0006651598960161209,0.0016822600737214088,9.30391252040863e-7
1772366247066765300,3.753765380859375,0.00044864509254693985,0.0011221971362829208,0.0002568596974015236
1772366247076836000,3.763836181640625,0.0023940172977745533,0.0035479040816426277,0.0010687503963708878
1772366247086906000,3.773906005859375,-0.0017192349769175053,0.0003057713620364666,-0.0008756229653954506
1772366247096976400,3.783976318359375,0.0009238459169864655,-0.003150886157527566,0.0004241056740283966
1772366247107046100,3.794046142578125,0.00026418082416057587,-0.0005966485477983952,0.001310405321419239
1772366247117117200,3.8041171875,-0.0003570113331079483,-0.0008763987571001053,-0.0004018368199467659
1772366247127187200,3.814187255859375,-0.0009551579132676125,-0.0013126246631145477,0.0016874130815267563
1772366247137257200,3.82425732421875,0.0003843340091407299,0.001441814936697483,0.0019352100789546967
1772366247147328300,3.834328369140625,0.0002557034604251385,-0.00023464486002922058,-0.0017082607373595238
1772366247157398300,3.844398193359375,0.0013580513186752796,0.0019750804640352726,-0.001866004429757595
1772366247167468300,3.85446826171875,-0.00039111264050006866,0.00009195925667881966,-0.0006430810317397118
1772366247177538000,3.8645380859375,-0.00220733555033803,-0.001125341048464179,0.00010910257697105408
1772366247187609000,3.874609130859375,0.002819114364683628,0.0008597793057560921,-0.00031567085534334183
1772366247197679400,3.884679443359375,0.003963606897741556,0.000864401925355196,-0.000798739492893219
1772366247207749000,3.8947490234375,0.0008964445441961288,-0.0017055484931915998,-0.0010679848492145538
1772366247217819100,3.904819091796875,-0.000785505399107933,-0.000264591071754694,-0.001128840260207653
1772366247227890200,3.91489013671875,-0.00036206282675266266,0.0026137535460293293,-0.0010089986026287079
1772366247237960400,3.92496044921875,0.0007996233180165291,0.0005027884617447853,-0.0029861852526664734
1772366247248030200,3.9350302734375,0.0007202611304819584,0.0005869441665709019,0.0006112130358815193
1772366247258100200,3.945100341796875,-0.0005959062837064266,0.0009518270380795002,0.0006839120760560036
1772366247268171300,3.955171142578125,0.001150062307715416,-0.00018614204600453377,-0.000769641250371933
1772366247278241300,3.9652412109375,-0.0016577295027673244,0.0028415024280548096,0.0009513739496469498
1772366247288311300,3.975311279296875,0.0016773468814790249,-0.002047794871032238,0.0006022332236170769
1772366247298382300,3.98538232421875,-0.0007596714422106743,-0.0011567906476557255,-0.00009888876229524612
1772366247308449300,3.99544921875,0.0011942898854613304,-0.000732815358787775,-0.0034544719383120537
1772366247318520300,4.005520263671875,-0.00015098927542567253,-0.0005533131770789623,0.002149699255824089
1772366247328590000,4.015590087890625,-0.002104417886584997,0.0004253988154232502,0.001661541871726513
1772366247338660400,4.025660400390625,-0.0011917967349290848,0.0025549661368131638,0.00007949769496917725
1772366247348731400,4.0357314453125,-0.00018272455781698227,0.0015765205025672913,-0.00003341957926750183
1772366247358801200,4.04580126953125,0.0025698798708617687,-0.0003268956206738949,-0.0011768266558647156
1772366247368871200,4.05587109375,0.0016476274468004704,0.0014845863915979862,-0.0010817516595125198
1772366247378941200,4.065941162109375,-0.0011305222287774086,-0.0009665056131780148,-0.00046010687947273254
1772366247389012200,4.07601220703125,-0.00008656317368149757,-0.00014971429482102394,0.0018379343673586845
1772366247399082200,4.086082275390625,0.0005417475476861,0.0017210091464221478,0.0009665004909038544
1772366247409152300,4.09615234375,-0.000574916135519743,-0.000978903379291296,-0.001100911758840084
1772366247419222000,4.106221923828125,0.0014946325682103634,0.0014198953285813332,-0.001611076295375824
1772366247429293000,4.11629296875,-0.000258792657405138,0.0017240280285477638,-0.00005525723099708557
1772366247439363300,4.12636328125,-0.00047948723658919334,0.0015866528265178204,0.0008406620472669601
1772366247449433300,4.136433349609375,0.0006172023713588715,-0.00009832903742790222,-0.0013428637757897377
1772366247459503000,4.146503173828125,0.00029635895043611526,0.0015125400386750698,-0.0003683231770992279
1772366247469574100,4.15657421875,-0.00005650985985994339,-0.0000525997020304203,0.0033811405301094055
1772366247479644400,4.16664453125,-0.0006868983618915081,0.00010392721742391586,-0.0005230847746133804
1772366247489714200,4.176714111328125,-0.0002916851080954075,-0.002074272371828556,-0.0015015294775366783
1772366247499785200,4.18678515625,-0.0014321953058242798,-0.0019209908787161112,-0.0005293097347021103
1772366247509855200,4.196855224609375,0.0010453439317643642,-0.0014456165954470634,0.0045533329248428345
1772366247519925000,4.206925048828125,0.0004418962635099888,0.0005846577696502209,-0.0003300784155726433
1772366247529995300,4.216995361328125,-0.00027342839166522026,-0.002469987841323018,0.00011493638157844543
1772366247540066300,4.22706640625,-0.001125058624893427,0.000864831730723381,-0.002308533526957035
1772366247550136300,4.23713623046875,0.00032663019374012947,0.0021849609911441803,0.002644945867359638
1772366247560206000,4.2472060546875,0.0017852014862000942,0.001021102536469698,-0.0010338127613067627
1772366247570276400,4.2572763671875,-0.00023347465321421623,0.0029601496644318104,0.0013723531737923622
1772366247580347400,4.267347412109375,-0.0006551453843712807,0.0030423318967223167,0.0005956031382083893
1772366247590417200,4.277417236328125,-0.0015358524397015572,0.0022207465954124928,0.0013189176097512245
1772366247600487200,4.287487060546875,0.0013023912906646729,0.0012650596909224987,-0.0008607599884271622
1772366247610558200,4.29755810546875,0.00004804274067282677,0.0017710602842271328,0.00025643594563007355
1772366247620628200,4.307628173828125,-0.00003348151221871376,0.0018419278785586357,-0.0011132415384054184
1772366247630698200,4.3176982421875,-0.000845479778945446,0.0016387286596000195,-0.00013639405369758606
1772366247640768300,4.327768310546875,0.00008146604523062706,-0.0007630609907209873,-0.0010950248688459396
1772366247650839300,4.33783935546875,0.00045803701505064964,-0.00036731502041220665,-0.00008275732398033142
1772366247660909000,4.347908935546875,0.0017798980697989464,0.0014496669173240662,0.00046224333345890045
1772366247670979300,4.357979248046875,-0.0011019082739949226,0.0001465822570025921,-0.00015694182366132736
1772366247681049000,4.368049072265625,0.0007172594778239727,0.0028066691011190414,0.0009421221911907196
1772366247691119600,4.37811962890625,0.0005518770776689053,0.0006457800045609474,0.0006225435063242912
1772366247701189600,4.388189697265625,-0.002190182451158762,0.0027597984299063683,-0.0008520418778061867
1772366247711259600,4.398259765625,-0.0015829815529286861,0.001008237712085247,0.0006723515689373016
1772366247721330700,4.40833056640625,-0.002126480918377638,-0.0015177272725850344,0.00004428531974554062
1772366247731400700,4.418400634765625,0.0003015226684510708,-0.00014673219993710518,0.0008472278714179993
1772366247741470500,4.428470458984375,0.0011454485356807709,-0.00038039032369852066,0.0006150538101792336
1772366247751540700,4.438540771484375,-0.00007161637768149376,0.0006523835472762585,0.001858483999967575
1772366247761611800,4.44861181640625,0.0006196959875524044,0.0011480427347123623,0.0018506599590182304
1772366247771681500,4.458681640625,0.0006609749980270863,-0.0033439109101891518,-0.002827715128660202
1772366247781751600,4.46875146484375,-0.00027593038976192474,0.001932063139975071,-0.0003856271505355835
1772366247791821800,4.47882177734375,0.001404257956892252,-0.0010858308523893356,0.0002231718972325325
1772366247801892900,4.488892822265625,0.0002866610884666443,0.0026384107768535614,-0.0015288060531020164
1772366247811962600,4.498962646484375,0.0007180934771895409,0.0008748653344810009,-0.002032943069934845
1772366247822032600,4.50903271484375,0.0001287367194890976,0.0008201193995773792,0.002120131626725197
1772366247832103700,4.519103759765625,0.0007884018123149872,0.0004869583062827587,0.0008229054510593414
1772366247842173700,4.529173583984375,0.0016874643042683601,0.0008886959403753281,-0.0012135384604334831
1772366247852243700,4.53924365234375,0.00028451113030314445,-0.0008492828346788883,0.0014376379549503326
1772366247862313700,4.549313720703125,0.0007973364554345608,-0.0008694869466125965,-0.00005068723112344742
1772366247872384500,4.559384521484375,0.000695337075740099,0.0005292054265737534,0.001530432142317295
1772366247882454500,4.56945458984375,0.001174895092844963,0.0028841402381658554,-0.0007659206166863441
1772366247892524800,4.57952490234375,-0.0011361963115632534,-0.001378781395033002,0.00018109939992427826
1772366247902597600,4.58959765625,0.0017950031906366348,-0.0008295378647744656,-0.0013251937925815582
1772366247912667600,4.599667724609375,-0.0011323434300720692,0.000040250830352306366,0.00047803204506635666
1772366247922737700,4.609737548828125,-0.0002993023954331875,0.001585646066814661,-0.00011885631829500198
1772366247932808700,4.61980859375,-0.0022604544647037983,-0.0008175903931260109,-0.00008370261639356613
1772366247942878700,4.629878662109375,-0.0012287367135286331,0.0007331962697207928,0.0019119977951049805
1772366247952948500,4.639948486328125,0.0010543912649154663,0.0029974160715937614,-0.00044410116970539093
1772366247963018800,4.650018798828125,0.000109061598777771,-0.00006459187716245651,0.0005486039444804192
1772366247973089800,4.66008984375,0.00005979323759675026,0.0011378251947462559,0.002712688408792019
1772366247983159600,4.67015966796875,-0.0031401291489601135,0.002017870545387268,0.0002292376011610031
1772366247993229600,4.6802294921875,0.0003723134286701679,0.00032010534778237343,-0.000763588584959507
1772366248003300600,4.690300537109375,-0.0009708874858915806,0.001894407905638218,-0.0018690526485443115
1772366248013371000,4.700370849609375,-0.0004467773251235485,0.004266751930117607,-0.0022552115842700005
1772366248023440600,4.710440673828125,0.0004427633248269558,0.0006041526794433594,0.0008959975093603134
1772366248033510700,4.7205107421875,-0.00018201442435383797,-0.0005817529745399952,-0.000022260472178459167
1772366248043581700,4.730581787109375,-0.0007766117341816425,-0.00007806206122040749,0.0008201980963349342
1772366248053651500,4.7406513671875,-0.0001797969453036785,0.0015169051475822926,0.0004361700266599655
1772366248063721700,4.7507216796875,0.0017528757452964783,0.001447832677513361,0.00009513925760984421
1772366248073791700,4.760791748046875,-0.000908954069018364,-0.0018219964113086462,-0.0015408406034111977
1772366248083862500,4.770862548828125,0.0015555834397673607,-0.0010619440581649542,0.00020762719213962555
1772366248093932500,4.7809326171875,-0.0023331642150878906,0.0031053703278303146,0.00037540681660175323
1772366248104002800,4.7910029296875,0.0015659607015550137,0.0014202045276761055,0.00081646628677845
1772366248114073900,4.801073974609375,-0.0010708346962928772,0.0005573402158915997,-0.0006943447515368462
1772366248124143600,4.8111435546875,-0.0023658922873437405,-0.001608861144632101,-0.00042012520134449005
1772366248134213600,4.821213623046875,0.0005470733158290386,0.0036080051213502884,-0.0006254548206925392
1772366248144283600,4.83128369140625,-0.0012684725224971771,0.000363075640052557,0.0003675771877169609
1772366248154354700,4.841354736328125,-0.0017494400963187218,0.0024773594923317432,-0.000004200264811515808
1772366248164424700,4.8514248046875,0.00009563891217112541,0.0004395940341055393,0.0008238479495048523
1772366248174494700,4.86149462890625,-0.00014564348384737968,0.0006909966468811035,0.0018369145691394806
1772366248184564500,4.871564453125,0.00044420594349503517,-0.000460832379758358,0.0002775220200419426
1772366248194635500,4.881635498046875,0.0009763059206306934,-0.002229969948530197,-0.0022572744637727737
1772366248204705800,4.891705810546875,0.0006162598729133606,0.0026098634116351604,0.002755807712674141
1772366248214775600,4.901775634765625,-0.00150734419003129,0.004153165500611067,0.0017086518928408623
1772366248224846600,4.9118466796875,-0.00018722191452980042,-0.000332479365170002,0.0006929673254489899
1772366248234916600,4.92191650390625,0.00022450275719165802,-0.0004406035877764225,0.0024530505761504173
1772366248244986600,4.931986572265625,-0.0003403429873287678,0.003663173411041498,0.004501844756305218
1772366248255056600,4.942056640625,-0.002266873139888048,0.0019672727212309837,-0.001374153420329094
1772366248265127700,4.952127685546875,-0.0007207579910755157,0.0008470704779028893,0.0017898781225085258
1772366248275197700,4.96219775390625,0.0012651612050831318,-0.0020400623325258493,-0.0003925822675228119
1772366248285267700,4.972267822265625,-0.00039066700264811516,-0.00024922238662838936,0.00028347596526145935
1772366248295337700,4.982337646484375,0.0007214690558612347,0.0027108811773359776,0.0003489898517727852
1772366248305408800,4.99240869140625,0.00019532116129994392,0.0026056114584207535,0.00042614899575710297
1772366248315478500,5.002478515625,0.00032475078478455544,0.0002894601784646511,0.001166773959994316
1772366248325548500,5.012548583984375,0.0010884557850658894,-0.0000024135224521160126,-0.000057736411690711975
1772366248335619600,5.02261962890625,0.0018184282816946507,0.0017012106254696846,-0.00017757900059223175
1772366248345689600,5.032689697265625,-0.0004494115710258484,0.0019165324047207832,-0.00042549334466457367
1772366248355759600,5.042759521484375,-0.000555671751499176,0.00040678633376955986,-0.0015365639701485634
1772366248365829600,5.05282958984375,-0.0012473664246499538,0.000714300200343132,0.0007594656199216843
1772366248375900700,5.062900634765625,-0.001181319821625948,0.0008772853761911392,-0.00046026241034269333
1772366248385970700,5.072970703125,-0.0008283522911369801,0.0003980454057455063,0.0002354700118303299
1772366248396040700,5.083040771484375,-0.0010765590704977512,-0.0009897276759147644,-0.001050303690135479
1772366248406110500,5.0931103515625,-0.0009916038252413273,-0.001272289315238595,0.0008828844875097275
1772366248416181500,5.103181396484375,-0.002131825778633356,0.0005601407028734684,0.00032276660203933716
1772366248426251800,5.113251708984375,-0.0007949848659336567,0.0025090081617236137,-0.00013548322021961212
1772366248436321800,5.12332177734375,0.002349675167351961,-0.0015331378672271967,-0.0007168510928750038
1772366248446391600,5.1333916015625,-0.0011064736172556877,0.002100740559399128,0.0012915441766381264
1772366248456462600,5.143462646484375,-0.0015070131048560143,-0.0024535309057682753,0.0013227025046944618
1772366248466532600,5.15353271484375,-0.0004157614894211292,-0.0023294442798942327,0.0003684442490339279
1772366248476602600,5.1636025390625,0.0006100884638726711,-0.0004444587975740433,0.0005561970174312592
1772366248486673700,5.173673583984375,-0.001631749328225851,0.001045140903443098,-0.0008922815322875977
1772366248496743700,5.18374365234375,0.0014274241402745247,0.0010680444538593292,-0.00038202013820409775
1772366248506813400,5.1938134765625,0.001734420657157898,0.0016108318231999874,0.0033909836784005165
1772366248516883700,5.2038837890625,0.0004853978753089905,-0.0014121225103735924,-0.0017577055841684341
1772366248526954800,5.213954833984375,-0.0011892924085259438,-0.0010338490828871727,-0.0007374519482254982
1772366248537024800,5.224024658203125,-0.002123529091477394,0.005112460348755121,-0.002216039225459099
1772366248547094500,5.234094482421875,0.0006778961978852749,0.001017231959849596,0.0011671772226691246
1772366248557165600,5.24416552734375,0.00020838063210248947,0.0024582683108747005,0.00029286090284585953
1772366248567235600,5.254235595703125,0.0023122886195778847,0.0010996349155902863,-0.000655309297144413
1772366248577305600,5.2643056640625,-0.0008057397790253162,-0.0010705753229558468,0.0012123659253120422
1772366248587375600,5.274375732421875,0.00029895827174186707,0.0023240894079208374,0.00039457809180021286
1772366248597446700,5.28444677734375,0.0008100187405943871,-0.001660798443481326,-0.00021155737340450287
1772366248607516400,5.294516357421875,0.00020463531836867332,0.003962834365665913,-0.0007117036730051041
1772366248617586700,5.304586669921875,-0.0010923240333795547,-0.00003137439489364624,0.00014556851238012314
1772366248627656700,5.31465673828125,-0.0008357008919119835,-0.005345766432583332,0.00038480106741189957
1772366248637727700,5.324727783203125,0.002392582595348358,-0.004572917241603136,-0.0012221504002809525
1772366248647797500,5.334797607421875,-0.0025492729619145393,0.005847189575433731,-0.0021978523582220078
1772366248657867800,5.34486767578125,0.0011714291758835316,0.00013231253251433372,0.000773170031607151
1772366248667938800,5.354938720703125,-0.0008042901754379272,0.0033666444942355156,0.0003016982227563858
1772366248678008600,5.365008544921875,0.00035232119262218475,-0.00005418574437499046,-0.00036995112895965576
1772366248688083200,5.375083251953125,0.0029424228705465794,0.001444951631128788,-0.00202799029648304
1772366248698153200,5.3851533203125,-0.0017340881749987602,-0.0011596197728067636,-0.0009368928149342537
1772366248708224300,5.395224365234375,-0.0002656197175383568,0.0025273580104112625,0.0011735958978533745
1772366248718294000,5.4052939453125,0.0004712771624326706,0.0025662402622401714,0.0013978341594338417
1772366248728364300,5.4153642578125,0.000829081516712904,0.0001970278099179268,-0.0010815886780619621
1772366248738435300,5.425435302734375,-0.0030447528697550297,-0.0009129773825407028,0.00019779428839683533
1772366248748505000,5.435505126953125,-0.0006178822368383408,0.0005129012279212475,0.001802004873752594
1772366248758575000,5.4455751953125,-0.00133507139980793,-0.0003598164767026901,-0.0006941761821508408
1772366248768645400,5.455645263671875,0.00048591289669275284,0.002532774582505226,0.00040150806307792664
1772366248778716400,5.46571630859375,-0.0002946597523987293,0.0015412797220051289,0.002631106413900852
1772366248788786200,5.4757861328125,0.0016621681861579418,-0.00038236333057284355,0.0013467101380228996
1772366248798856200,5.485856201171875,0.0008304626680910587,-0.0011613378301262856,0.003556334413588047
1772366248808927200,5.49592724609375,-0.00026612309738993645,0.0018298281356692314,-0.0019778087735176086
1772366248818997200,5.505997314453125,0.00036904076114296913,0.0007997173815965652,0.0027631502598524094
1772366248829067300,5.5160673828125,0.0010765236802399158,-0.002149018459022045,0.0012034093961119652
1772366248839137300,5.52613720703125,-0.0001538568176329136,0.0016047069802880287,-0.0007441602647304535
1772366248849208000,5.5362080078125,-0.0009381542913615704,0.0004453384317457676,-0.0009178435429930687
1772366248859278000,5.546278076171875,0.00038064317777752876,-0.001373600447550416,0.000561809167265892
1772366248869348400,5.556348388671875,0.0009503006003797054,-0.0013167222496122122,-0.0006757713854312897
1772366248879419400,5.56641943359375,-0.0022652000188827515,-0.0009638536721467972,0.0023090997710824013
1772366248889489200,5.5764892578125,-0.000832672230899334,0.0006691073067486286,-0.0005619293078780174
1772366248899559200,5.58655908203125,0.0015918691642582417,0.0015418250113725662,0.0009480835869908333
1772366248909629200,5.596629150390625,0.002687421627342701,0.0029955999925732613,0.0016670990735292435
1772366248919700200,5.6067001953125,-0.0008047819137573242,-0.0016271146014332771,0.0006702784448862076
1772366248929770200,5.616770263671875,-0.001809537410736084,0.00127785699442029,0.0003253445029258728
1772366248939840300,5.62684033203125,-0.0010670488700270653,0.0018152827396988869,0.0030273878946900368
1772366248949911000,5.6369111328125,0.00007497845217585564,0.0016379072330892086,-0.0009299656376242638
1772366248959981300,5.646981201171875,0.0008600782603025436,0.0021689413115382195,-0.003032265231013298
1772366248970051300,5.65705126953125,0.0014187172055244446,0.0020458237268030643,0.0009313793852925301
1772366248980122400,5.667122314453125,0.0012389537878334522,0.0010945424437522888,-0.0014015501365065575
1772366248990192000,5.677192138671875,-0.00002977624535560608,-0.0017946148291230202,0.0023831212893128395
1772366249000262100,5.68726220703125,0.0007180394604802132,-0.001011645421385765,0.00006164424121379852
1772366249010332200,5.697332275390625,-0.0008423794060945511,0.000649068970233202,0.0008293911814689636
1772366249020403200,5.7074033203125,-0.002276492305099964,0.0004932740703225136,0.0006996951997280121
1772366249030473200,5.71747314453125,0.00039660651236772537,0.001744226086884737,-0.00040131714195013046
1772366249040543200,5.727543212890625,-0.0010156678035855293,0.0013080001808702946,0.000540642999112606
1772366249050614000,5.737614013671875,-0.001253853552043438,-0.0024464207235723734,0.0028059743344783783
1772366249060684300,5.747684326171875,0.0002108854241669178,-0.0008170986548066139,-0.0009147282689809799
1772366249070754300,5.75775439453125,-0.0011248006485402584,0.0024002976715564728,-0.00036695506423711777
1772366249080824000,5.767823974609375,0.0011474085040390491,-0.0011134771630167961,-0.001005580648779869
1772366249090895000,5.77789501953125,0.0013639861717820168,-0.0019223818089812994,-0.0002452479675412178
1772366249100965400,5.78796533203125,0.00026436708867549896,-0.0027857786044478416,-0.0007392643019556999
1772366249111035100,5.79803515625,-0.0015003485605120659,-0.005151266232132912,0.0005766097456216812
1772366249121106200,5.808106201171875,0.00042431801557540894,-0.00419359328225255,-0.00036481767892837524
1772366249131176200,5.81817626953125,0.00040389085188508034,0.0001055537723004818,0.0022287340834736824
1772366249141246200,5.82824609375,-0.0012640468776226044,-0.003966685850173235,-0.0015321820974349976
1772366249151317000,5.83831689453125,0.000792747363448143,0.0007646912708878517,0.00035744253545999527
1772366249161387300,5.84838720703125,-0.0014911796897649765,-0.003054015338420868,0.002660010941326618
1772366249171457300,5.858457275390625,0.0017806943506002426,-0.0011119171977043152,-0.0013266447931528091
1772366249181528300,5.8685283203125,-0.0018736948259174824,-0.0007590483874082565,-0.0019562160596251488
1772366249191598000,5.87859814453125,-0.0010598516091704369,-0.0022785253822803497,-0.0017538396641612053
1772366249201668400,5.88866845703125,-0.0007834155112504959,-0.0013658602256327868,0.00002781488001346588
1772366249211738000,5.898738037109375,-0.0000080866739153862,-0.0009525972418487072,0.0002250615507364273
1772366249221809200,5.90880908203125,0.0003921864554286003,-0.001417052699252963,-0.0011603143066167831
1772366249231879200,5.918879150390625,-0.0001019439660012722,0.002057763747870922,0.00033652782440185547
1772366249241949400,5.928949462890625,0.0017987540923058987,0.002512098755687475,-0.000011014752089977264
1772366249252020200,5.939020263671875,-0.0023167310282588005,0.003750463481992483,-0.00035095587372779846
1772366249262090200,5.94909033203125,0.0018649650737643242,-0.0009920932352542877,-0.00040768180042505264
1772366249272160300,5.95916015625,0.00020683463662862778,0.0036347350105643272,0.0029518548399209976
1772366249282231300,5.969231201171875,0.0019117901101708412,0.0005087163299322128,0.002105502411723137
1772366249292301000,5.979301025390625,0.0011575501412153244,0.001517004333436489,0.0017494000494480133
1772366249302371300,5.989371337890625,0.000438762828707695,-0.000881704967468977,-0.0015931334346532822
1772366249312442400,5.9994423828125,0.0007479437626898289,-0.002497298875823617,0.00003610365092754364
1772366249322512100,6.00951220703125,0.0014962917193770409,-0.0017793106380850077,-0.00021503213793039322
1772366249332582100,6.01958203125,0.00039223581552505493,0.0010691513307392597,0.0006269402801990509
1772366249342652400,6.02965234375,0.0005991635844111443,-0.0006187604740262032,-0.0005887923762202263
1772366249352723200,6.03972314453125,0.001572408713400364,0.0005600168369710445,-0.0004670349881052971
1772366249362793200,6.049793212890625,0.0010541575029492378,-0.0039055715315043926,-0.0022731907665729523
1772366249372863200,6.05986328125,0.002246695104986429,0.0021847733296453953,-0.0005237758159637451
1772366249382934300,6.069934326171875,0.001012053806334734,0.0014710458926856518,-0.0007088659331202507
1772366249393004300,6.08000439453125,-0.0010978993959724903,0.0015505100600421429,0.0006529400125145912
1772366249403074300,6.09007421875,0.00042276596650481224,-0.0005177007988095284,-0.00048396363854408264
1772366249413145300,6.100145263671875,0.0002817264758050442,0.00251870509237051,0.0001458851620554924
1772366249423215000,6.110215087890625,-0.0013585141859948635,0.000021459069103002548,-0.0016922280192375183
1772366249433285000,6.12028515625,-0.0008281189948320389,0.004193568602204323,0.0003233840689063072
1772366249443356200,6.130356201171875,-0.001111745834350586,0.002042533829808235,0.0002485495060682297
1772366249453426200,6.14042626953125,-0.00040612369775772095,-0.00028231553733348846,-0.00022081658244132996
1772366249463496200,6.15049609375,-0.0009632566943764687,-0.0003550196997821331,0.0029099956154823303
1772366249473567200,6.160567138671875,0.0005286191590130329,-0.0003126743249595165,-0.00048811640590429306
1772366249483637200,6.17063720703125,0.0010761646553874016,-0.00028843991458415985,0.002456807531416416
1772366249493707300,6.180707275390625,-0.00014137942343950272,0.0002466742880642414,0.00017904769629240036
1772366249503777300,6.19077734375,-0.0024830964393913746,0.0004847608506679535,-0.0017440207302570343
1772366249513848300,6.200848388671875,0.0008649192750453949,0.001789388246834278,-0.001157965511083603
1772366249523918000,6.21091796875,-0.0001603979617357254,-0.0039758225902915,-0.00009349919855594635
1772366249533988400,6.22098828125,-0.001121210865676403,-0.0015466951299458742,-0.0006851125508546829
1772366249544059400,6.231059326171875,0.0006226273253560066,-0.0014132708311080933,-0.0023660995066165924
1772366249554129200,6.241129150390625,-0.0010674269869923592,-0.0008227885700762272,0.0005284231156110764
1772366249564199200,6.25119921875,0.0005768085829913616,-0.003811654169112444,-0.0009698709473013878
1772366249574270200,6.261270263671875,-0.0008833673782646656,0.0013262201100587845,0.00014425534754991531
1772366249584340200,6.27134033203125,-0.0006247744895517826,-0.0026091330219060183,0.0012955404818058014
1772366249594410200,6.28141015625,-0.0010568313300609589,0.0005918825045228004,0.00015460141003131866
1772366249604481300,6.291481201171875,0.0014745034277439117,0.00044940365478396416,0.0013857809826731682
1772366249614551300,6.30155126953125,-0.0013628331944346428,-0.0006697159260511398,-0.0009551728144288063
1772366249624621000,6.31162109375,0.001434817910194397,0.001991847064346075,0.0015106480568647385
1772366249634692000,6.321692138671875,-0.0005428902804851532,0.0003347680903971195,-0.000989922322332859
1772366249644762400,6.331762451171875,0.0009479471482336521,0.0006506191566586494,0.00021995138376951218
1772366249654832000,6.34183203125,-0.002510328311473131,-0.00004438124597072601,-0.001260446384549141
1772366249664902100,6.351902099609375,0.00048759207129478455,-0.004218353424221277,0.0003875177353620529
1772366249674973200,6.36197314453125,0.00045981770381331444,-0.0016872799023985863,0.00020630750805139542
1772366249685039900,6.372039794921875,-0.0012163752689957619,0.00281692435964942,0.0017546694725751877
1772366249695110000,6.38210986328125,0.0013285870663821697,-0.0020839727949351072,-0.0018473071977496147
1772366249705181000,6.392180908203125,-0.00043975142762064934,-0.0020637325942516327,-0.0003516757860779762
1772366249715251000,6.4022509765625,0.0005693472921848297,-0.0019971251022070646,0.0016351118683815002
1772366249725320700,6.41232080078125,0.001839941367506981,0.0007003908976912498,-0.001545235514640808
1772366249735391700,6.422391845703125,-0.00021139951422810555,0.002786851953715086,-0.001832648180425167
1772366249745462000,6.4324619140625,-0.00011845538392663002,0.0017602033913135529,0.000827849842607975
1772366249755531800,6.44253173828125,-0.00036141276359558105,-0.0002977079711854458,0.0007280074059963226
1772366249765602800,6.452602783203125,0.000588536262512207,0.0039020967669785023,0.00021508242934942245
1772366249775672800,6.4626728515625,-0.003314799163490534,0.0006161457858979702,0.0004511512815952301
1772366249785743000,6.4727431640625,-0.000724076759070158,0.0008566295728087425,0.00015101302415132523
1772366249795814000,6.48281396484375,0.0018343301489949226,0.0014738603495061398,-0.0004889443516731262
1772366249805884000,6.4928837890625,-0.000125223770737648,-0.0021016995888203382,0.0003736531361937523
1772366249815954000,6.502953857421875,-0.0008295080624520779,0.0030347988940775394,0.0003031836822628975
1772366249826025000,6.51302490234375,0.0013281852006912231,0.002242774236947298,0.0013623228296637535
1772366249836095000,6.523094970703125,0.0011474201455712318,0.00011226953938603401,-0.0012146597728133202
1772366249846165000,6.5331650390625,-0.0012060152366757393,-0.00046856608241796494,-0.0029973797500133514
1772366249856236000,6.543236083984375,-0.00030341465026140213,0.0013606762513518333,0.0005845241248607635
1772366249866305800,6.553305908203125,0.00033095013350248337,-0.0012984902132302523,0.0023544607684016228
1772366249876375800,6.563375732421875,-0.0011982559226453304,-0.000799801666289568,-0.0006187409162521362
1772366249886446000,6.573446044921875,0.0003434475511312485,0.0007863771170377731,-0.0007521659135818481
1772366249896516900,6.583516845703125,0.00031981151551008224,-0.00014075124636292458,0.0005102371796965599
1772366249906587000,6.5935869140625,0.0006441846489906311,-0.000012653414160013199,0.001275363378226757
1772366249916657000,6.603656982421875,0.00030456436797976494,0.00040043657645583153,0.004788000136613846
1772366249926727700,6.613727783203125,0.0014393371529877186,-0.00017800182104110718,-0.00013325456529855728
1772366249936798000,6.6237978515625,-0.0021343440748751163,0.0024390541948378086,0.001127690076828003
1772366249946868000,6.633867919921875,-0.0007529626600444317,-0.00332189560867846,-0.0014550434425473213
1772366249956939000,6.64393896484375,-0.0020369598641991615,0.0008175643160939217,0.0028271591290831566
1772366249967008800,6.6540087890625,-0.0018127216026186943,0.0019946815446019173,0.00197388231754303
1772366249977079000,6.6640791015625,0.001602280419319868,0.000635683536529541,-0.002111242152750492
1772366249987150000,6.674150146484375,-0.001284053549170494,-0.00003942800685763359,-0.0015788758173584938
1772366249997219800,6.6842197265625,0.0004949965514242649,0.0009491746313869953,-0.0007787123322486877
1772366250007289900,6.694289794921875,0.00044226599857211113,0.00023198546841740608,0.002788059413433075
1772366250017361000,6.70436083984375,0.000609575305134058,0.002842934802174568,0.001867496408522129
1772366250027430700,6.7144306640625,-0.0019161663949489594,0.0018213465809822083,-0.0001573050394654274
1772366250037501000,6.7245009765625,-0.0007276358082890511,0.0017788708209991455,-0.0017614606767892838
1772366250047572000,6.734572021484375,-0.0005270997062325478,0.004088097717612982,0.0017714882269501686
1772366250057642000,6.74464208984375,0.00030568428337574005,0.0005891295149922371,0.0008992785587906837
1772366250067711700,6.754711669921875,0.001660434529185295,-0.002185618272051215,-0.0016818568110466003
1772366250077782800,6.76478271484375,-0.0009259027428925037,-0.0025974861346185207,-0.0001234486699104309
1772366250087853000,6.77485302734375,-0.0009490731172263622,-0.0011745591182261705,0.000005714595317840576
1772366250097922800,6.7849228515625,-0.002237860579043627,0.0008274991996586323,0.0023710941895842552
1772366250107992800,6.794992919921875,-0.0002554035745561123,-0.0018449828494340181,-0.001251869834959507
1772366250118063900,6.80506396484375,0.0014034095220267773,0.0015714182518422604,0.0013111801818013191
1772366250128134000,6.8151337890625,0.00178104592487216,0.0021000560373067856,-0.0020097820088267326
1772366250138204000,6.825203857421875,0.00008330540731549263,0.001823520753532648,-0.0004145260900259018
1772366250148275000,6.83527490234375,0.0006660050712525845,0.0025175404734909534,0.0008222451433539391
1772366250158345000,6.845344970703125,0.0009707976132631302,0.0028335261158645153,-0.0006153136491775513
1772366250168414700,6.855414794921875,-0.0005607856437563896,0.002442574594169855,0.0013197390362620354
1772366250178485800,6.86548583984375,-0.000005093403160572052,0.0036441506817936897,0.0007367236539721489
1772366250188556000,6.87555615234375,-0.0022874227724969387,-0.0016558060888200998,-0.0006941929459571838
1772366250198625800,6.885625732421875,0.0014736494049429893,-0.0009343479759991169,-0.0010020378977060318
1772366250208696800,6.89569677734375,-0.002227079588919878,0.0018625035881996155,0.0012515289708971977
1772366250218766800,6.905766845703125,-0.002216136083006859,0.00046851206570863724,-0.0006549926474690437
1772366250228836900,6.9158369140625,-0.0006896117702126503,0.0009790398180484772,-0.000043264590203762054
1772366250238908000,6.925907958984375,-0.0022967150434851646,-0.0012936186976730824,-0.0007759658619761467
1772366250248978000,6.93597802734375,-0.00006898073479533195,0.0017027040012180805,-0.0005189701914787292
1772366250259048000,6.9460478515625,-0.0017084190621972084,0.0038244971074163914,0.00015243515372276306
1772366250269118700,6.95611865234375,0.00037443963810801506,0.00023402366787195206,-0.0017389412969350815
1772366250279189000,6.96618896484375,-0.0005644047632813454,0.001558195799589157,-0.0010227402672171593
1772366250289259000,6.976259033203125,0.0005144416354596615,-0.0018863368313759565,0.0002984534949064255
1772366250299330000,6.986330078125,0.0007770350202918053,-0.00011061690747737885,0.0008899560198187828
1772366250309399800,6.99639990234375,-0.000461068470031023,0.0032332479022443295,0.0028551025316119194
1772366250319469800,7.0064697265625,0.0004837382584810257,0.0013882750645279884,0.00033959653228521347
1772366250329540900,7.016540771484375,-0.00046674348413944244,0.0007179570384323597,0.0004184255376458168
1772366250339611000,7.02661083984375,-0.0010082842782139778,-0.0018568334635347128,-0.002094825729727745
1772366250349681000,7.036680908203125,-0.0002729855477809906,0.003660703543573618,-0.0007075853645801544
1772366250359752000,7.046751953125,0.00016389507800340652,-0.0008681397885084152,-0.0003282502293586731
1772366250369821700,7.05682177734375,-0.001548517495393753,0.0004972629249095917,0.001033690758049488
1772366250379892000,7.06689208984375,-0.0027874894440174103,0.002136601135134697,-0.0005856892094016075
1772366250389963000,7.076962890625,-0.00043005961924791336,0.004918539430946112,0.0014316551387310028
1772366250400033000,7.087032958984375,-0.0006859521381556988,0.002776967827230692,0.0004752259701490402
1772366250410102800,7.097102783203125,0.0007676016539335251,-0.000012693461030721664,-0.0018459847196936607
1772366250420173800,7.107173828125,-0.0010740328580141068,0.0004815901629626751,-0.001750679686665535
1772366250430244000,7.117244140625,-0.0005129044875502586,-0.0014223034959286451,-0.0018279114738106728
1772366250440313900,7.12731396484375,0.0014333655126392841,0.0006880741566419601,0.00026729702949523926
1772366250450385000,7.137385009765625,0.0005561201833188534,0.002636442892253399,0.0020311083644628525
1772366250460455000,7.147454833984375,0.000576589722186327,-0.0005634012632071972,0.001176438294351101
1772366250470524700,7.157524658203125,-0.001491620671004057,0.0013346336781978607,0.00011676643043756485
1772366250480595000,7.167594970703125,0.00040437187999486923,0.0005227914080023766,0.0008024051785469055
1772366250490666000,7.177666015625,0.00007014535367488861,-0.0013797709252685308,0.0007792357355356216
1772366250500736000,7.187736083984375,0.0004821787588298321,0.0008499817922711372,0.002290823496878147
1772366250510805800,7.1978056640625,0.0011271964758634567,-0.0002469741739332676,-0.00005355756729841232
1772366250520876800,7.207876708984375,-0.00026466697454452515,0.0008304943330585957,0.00027280859649181366
1772366250530947000,7.217947021484375,-0.001337654422968626,0.000197727233171463,-0.0003306642174720764
1772366250541016800,7.228016845703125,-0.0008287937380373478,0.002303468994796276,-0.0008171526715159416
1772366250551087900,7.238087890625,0.003904708195477724,0.001484813168644905,0.0006878003478050232
1772366250561158000,7.248157958984375,0.0007297778502106667,-0.003485524095594883,-0.0020010871812701225
1772366250571228000,7.258227783203125,0.0014453688636422157,0.0009068273939192295,-0.0020727263763546944
1772366250581299000,7.268298828125,0.00034970277920365334,-0.0011222874745726585,-0.0016319891437888145
1772366250591369000,7.278368896484375,0.0006679506041109562,-0.0004642205312848091,-0.0009166635572910309
1772366250601439000,7.28843896484375,0.00022741872817277908,-0.0010231956839561462,0.00030194129794836044
1772366250611509800,7.298509765625,-0.001959569286555052,-0.002185132820159197,0.0007070079445838928
1772366250621579800,7.308579833984375,-0.0010133949108421803,-0.0003395387902855873,0.0002440866082906723
1772366250631650000,7.318650146484375,-0.0013106041587889194,-0.0011443463154137135,0.001127190887928009
1772366250641720800,7.328720947265625,0.0011730990372598171,0.0006252499297261238,0.0006130756810307503
1772366250651790800,7.338790771484375,-0.000459152739495039,-0.0025135513860732317,0.0009867176413536072
1772366250661860900,7.34886083984375,0.0012251324951648712,0.0013955356553196907,0.0017142193391919136
1772366250671932000,7.358931884765625,-0.0010039336048066616,-0.004192308988422155,0.0012108813971281052
1772366250682002000,7.369001953125,0.00048420578241348267,-0.0029941608663648367,-0.0011240243911743164
1772366250692074200,7.37907421875,-0.0016886675730347633,-0.0008452562615275383,0.0010067708790302277
1772366250702145300,7.389145263671875,-0.0002853376790881157,-0.0019248919561505318,0.0002695964649319649
1772366250712215300,7.39921533203125,-0.000199850182980299,-0.0027491403743624687,-0.00022069085389375687
1772366250722285600,7.40928564453125,-0.00041979318484663963,0.0015199068002402782,0.0005312664434313774
1772366250732356400,7.4193564453125,0.002114471048116684,-0.00039330823346972466,-0.00015183445066213608
1772366250742426400,7.42942626953125,0.00047105224803090096,-0.0006192680448293686,-0.0015744958072900772
1772366250752496400,7.439496337890625,-0.00020778784528374672,0.0022596088238060474,0.00008811522275209427
1772366250762567200,7.449567138671875,-0.0004470972344279289,0.0021636150777339935,0.0007527647539973259
1772366250772637400,7.459637451171875,0.0015718447975814342,0.0007364270277321339,-0.0015836264938116074
1772366250782707500,7.46970751953125,-0.0008398420177400112,-0.0022225070279091597,0.0008922377601265907
1772366250792778500,7.479778564453125,-0.0021474543027579784,-0.0032124039717018604,0.0014198105782270432
1772366250802848300,7.48984814453125,-0.0010131080634891987,-0.0030216602608561516,0.0010471874848008156
1772366250812918500,7.49991845703125,-0.0008439966477453709,0.0008652233518660069,0.00008099246770143509
1772366250822988300,7.50998828125,0.00006878795102238655,-0.0021167206577956676,0.0021139970049262047
1772366250833059300,7.520059326171875,0.0013654809445142746,-0.0007723569869995117,0.00006575975567102432
1772366250843129300,7.53012939453125,0.0008256928995251656,0.001861128956079483,0.0038078418001532555
1772366250853199400,7.540199462890625,0.0003212904557585716,-0.00009096832945942879,0.0019353730604052544
1772366250863270400,7.5502705078125,0.001428267452865839,0.0005987826734781265,-0.001393606886267662
1772366250873340400,7.56034033203125,0.0004202611744403839,-0.00108034024015069,-0.0014439402148127556
1772366250883410400,7.570410400390625,-0.001329176127910614,-0.0015968100633472204,0.0018159784376621246
1772366250893481500,7.5804814453125,0.0008487575687468052,-0.0017550017219036818,-0.00033718720078468323
1772366250903551200,7.59055126953125,0.0013104146346449852,0.0001916494220495224,0.0015372000634670258
1772366250913621500,7.60062158203125,0.001873939298093319,0.00008698739111423492,0.0015414608642458916
1772366250923692500,7.610692626953125,0.0008606198243796825,-0.001980722649022937,0.0010719802230596542
1772366250933762300,7.62076220703125,0.0004824511706829071,0.0005378290079534054,0.004092005081474781
1772366250943832300,7.630832275390625,0.0004667332395911217,-0.0027196556329727173,-0.0004287790507078171
1772366250953903400,7.6409033203125,-0.0013018716126680374,-0.0008823410607874393,-0.0001827031373977661
1772366250963973400,7.650973388671875,0.002478044480085373,0.00007660267874598503,0.000031781382858753204
1772366250974043400,7.66104345703125,-0.0006085587665438652,-0.0003401818685233593,0.00039370451122522354
1772366250984114400,7.671114501953125,0.0009400690905749798,0.0003815349191427231,-0.0016750385984778404
1772366250994184400,7.681184326171875,0.0006327093578875065,-0.0008055218495428562,0.0020165657624602318
1772366251004254500,7.69125439453125,0.001992735080420971,0.0019213343039155006,0.0012167282402515411
1772366251014325500,7.701325439453125,-0.00017134938389062881,-0.0044492133893072605,0.0013932958245277405
1772366251024395500,7.7113955078125,0.0002661747857928276,-0.01196077186614275,-0.0030132541432976723
1772366251034465300,7.72146533203125,-0.0017679473385214806,0.004995574709028006,-0.0028337575495243073
1772366251044536300,7.731536376953125,-0.0012132120318710804,0.00017903605476021767,-0.0004317276179790497
1772366251054606300,7.7416064453125,-0.0008512879721820354,-0.009466666728258133,0.0017605861648917198
1772366251064676400,7.75167626953125,-0.001327413134276867,0.005530399736016989,-0.0021604085341095924
1772366251074747400,7.761747314453125,0.0016135158948600292,-0.0018934276886284351,-0.001195278950035572
1772366251084817400,7.7718173828125,-0.0011656386777758598,-0.005153325852006674,0.0017681494355201721
1772366251094887400,7.781887451171875,-0.001562981866300106,0.004245235584676266,-0.0008617229759693146
1772366251104958200,7.791958251953125,-0.0009054914116859436,-0.0030312794260680676,-0.001992570236325264
1772366251115028500,7.802028564453125,0.00008706934750080109,0.0028037065640091896,0.002639998681843281
1772366251125098500,7.812098388671875,-0.0012358943931758404,-0.0030394895002245903,-0.0025288285687565804
1772366251135169500,7.82216943359375,0.00010287715122103691,0.00535799004137516,0.00011622346937656403
1772366251145239300,7.8322392578125,-0.00065615214407444,-0.0021741583477705717,0.0009466540068387985
1772366251155309300,7.842309326171875,-0.0011653490364551544,-0.00034430017694830894,0.0008590361103415489
1772366251165380400,7.85238037109375,0.0009832787327468395,-0.0025300905108451843,0.001031770370900631
1772366251175450400,7.862450439453125,0.0007222886197268963,-0.004155151546001434,-0.0007232530042529106
1772366251185520400,7.872520263671875,0.0011104787699878216,-0.0018115355633199215,-0.001095064915716648
1772366251195591400,7.88259130859375,0.0007408317178487778,0.000020186416804790497,0.0006514359265565872
1772366251205661200,7.8926611328125,0.0014371932484209538,0.0014018109068274498,0.0011762622743844986
1772366251215731500,7.9027314453125,0.0019754180684685707,0.0011490769684314728,0.00003056973218917847
1772366251225802500,7.912802490234375,-0.0028466531075537205,-0.0014660237357020378,0.0014667538926005363
1772366251235872500,7.92287255859375,-0.0003257044591009617,-0.0016700220294296741,0.0006544897332787514
1772366251245942300,7.9329423828125,-0.0029206788167357445,-0.0011392382439225912,0.0020285574719309807
1772366251256013300,7.943013427734375,0.0007046819664537907,-0.00022284453734755516,0.001748393289744854
1772366251266083600,7.95308349609375,-0.002050648909062147,-0.0012968629598617554,-0.0006520859897136688
1772366251276153300,7.9631533203125,-0.0022237547673285007,0.00048026442527770996,0.0019407672807574272
1772366251286224400,7.973224365234375,-0.0033608381636440754,-0.001246545696631074,-0.0019415104761719704
1772366251296294400,7.98329443359375,0.0011835796758532524,-0.002046825597062707,-0.0011145984753966331
1772366251306364400,7.993364501953125,-0.0007231817580759525,0.0009043063037097454,-0.0003561386838555336
1772366251316432400,8.003432373046875,0.0007546059787273407,-0.0017215705011039972,0.0008310982957482338
1772366251326503200,8.013503173828125,0.00037713535130023956,-0.0029118037782609463,-0.001442374661564827
1772366251336573400,8.023573486328125,-0.0022679162211716175,0.0005918508395552635,0.001957949250936508
1772366251346643500,8.0336435546875,0.00021386239677667618,-0.0008316980674862862,0.000353766605257988
1772366251356714500,8.043714599609375,-0.0005483338609337807,-0.0006178459152579308,0.0025697825476527214
1772366251366784300,8.0537841796875,0.001167341135442257,-0.0015006775502115488,-0.0028325477614998817
1772366251376854500,8.0638544921875,-0.00013361312448978424,-0.0018873685039579868,0.0023262612521648407
1772366251386925600,8.073925537109375,0.0006792377680540085,-0.002100672572851181,0.00018398556858301163
1772366251396995300,8.083995361328125,0.0002193097025156021,-0.0012623094953596592,0.0013264818117022514
1772366251407065300,8.0940654296875,-0.001888792496174574,0.00015736930072307587,0.00023490376770496368
1772366251417136400,8.104136474609374,-0.00024801865220069885,-0.0007140170782804489,0.0003520827740430832
1772366251427206400,8.114206298828124,-0.00023997575044631958,-0.0019144664984196424,0.002421882003545761
1772366251437276400,8.1242763671875,-0.0005536964163184166,0.0005939649417996407,0.0015877801924943924
1772366251447347500,8.134347412109374,0.0011826339177787304,0.002024841494858265,0.0014654956758022308
1772366251457417500,8.14441748046875,-0.0022874651476740837,0.0014522620476782322,-0.0002823369577527046
1772366251467487200,8.1544873046875,-0.0022906409576535225,0.0002228827215731144,0.0014525409787893295
1772366251477558300,8.164558349609376,0.0015666820108890533,0.0021028080955147743,0.002068796195089817
1772366251487628500,8.174628662109376,-0.0017795069143176079,0.001173884142190218,-0.00030566658824682236
1772366251497698300,8.1846982421875,-0.00008493708446621895,0.0005293991416692734,-0.0010873042047023773
1772366251507769300,8.194769287109375,-0.0004382315091788769,-0.0009632366709411144,0.0026584938168525696
1772366251517839400,8.20483935546875,0.0014121327549219131,0.0009201508946716785,0.0006065284833312035
1772366251527909400,8.214909423828125,0.0004433766007423401,-0.0007114838808774948,0.000712038017809391
1772366251537980400,8.22498046875,-0.0008557136170566082,0.0018728473223745823,-0.00017692428082227707
1772366251548050400,8.235050537109375,-0.0010898965410888195,0.0013659116812050343,0.00021001975983381271
1772366251558120400,8.245120361328125,0.0016595511697232723,0.002557942643761635,0.0009437203407287598
1772366251568191200,8.255191162109375,0.0005640862509608269,0.0024327924475073814,-0.00022892653942108154
1772366251578261200,8.26526123046875,-0.002001602668315172,0.0008932189084589481,-0.00008777901530265808
1772366251588331500,8.27533154296875,-0.0010923896916210651,-0.0001403195783495903,0.00024839770048856735
1772366251598402600,8.285402587890625,-0.0004098215140402317,0.0000634118914604187,0.0008638538420200348
1772366251608472300,8.295472412109374,0.000011406373232603073,0.0030150613747537136,0.001550130546092987
1772366251618542300,8.305542236328124,0.0007693418301641941,0.0011380650103092194,0.0006806086748838425
1772366251628613400,8.31561328125,0.000033016782253980637,0.0011377306655049324,-0.00009105261415243149
1772366251638683400,8.325683349609376,0.0010375608690083027,-0.0004212837666273117,-0.0014633787795901299
1772366251648753400,8.33575341796875,0.00002826843410730362,-0.00044105853885412216,-0.000705888494849205
1772366251658824400,8.345824462890626,-0.0020476658828556538,-0.0017409475985914469,-0.0001476900652050972
1772366251668894200,8.355894287109376,0.0012491378001868725,-0.00223507359623909,0.001573808491230011
1772366251678964500,8.365964599609375,0.0013071945868432522,-0.0016545045655220747,0.00032212305814027786
1772366251689035500,8.376035400390625,0.0018359832465648651,-0.0007487297989428043,0.002063940279185772
1772366251699102700,8.386102783203125,0.0007502124644815922,-0.0030494346283376217,0.0015257159247994423
1772366251709172700,8.3961728515625,0.00026315776631236076,-0.0024837153032422066,-0.0001899339258670807
1772366251719243800,8.406243896484375,0.0005449200980365276,-0.001297809649258852,0.002540605142712593
1772366251729313500,8.4163134765625,-0.002056893426924944,-0.002688910812139511,0.00006009731441736221
1772366251739383800,8.4263837890625,0.0013237232342362404,0.0013558981008827686,0.0018683839589357376
1772366251749454800,8.436454833984374,-0.0017520473338663578,-0.00116472109220922,-0.0006269402801990509
1772366251759524900,8.44652490234375,-0.0001818481832742691,-0.0008054608479142189,0.0005469806492328644
1772366251769595600,8.456595703125,-0.001141801942139864,0.000630802009254694,0.000855923630297184
1772366251779665700,8.466665771484376,-0.0017793620936572552,0.000003893859684467316,0.0012596584856510162
1772366251789735700,8.476735595703126,0.00045677367597818375,0.0014796825125813484,-0.0009134253486990929
1772366251799806700,8.486806640625,-0.0028937491588294506,0.00006341375410556793,-0.0013113021850585938
1772366251809876700,8.496876708984376,0.0007357965223491192,0.0017541018314659595,-0.00024683400988578796
1772366251819946800,8.50694677734375,0.0004750732332468033,0.0015623541548848152,-0.001565631479024887
1772366251830017800,8.517017822265625,-0.0008048997260630131,-0.0023625881876796484,-0.0008465303108096123
1772366251840087600,8.527087646484375,-0.0022398107685148716,0.0028702570125460625,0.0005937069654464722
1772366251850157800,8.53715771484375,-0.0012661111541092396,-0.000799945555627346,-0.0015584854409098625
1772366251860228900,8.547228759765625,0.0011421851813793182,-0.003039397532120347,-0.001849568448960781
1772366251870298600,8.557298583984375,-0.0004108608700335026,-0.0018441895954310894,0.0005156230181455612
1772366251880368600,8.56736865234375,-0.0001972750760614872,-0.00303675327450037,0.0032426994293928146
1772366251890439700,8.577439697265625,-0.0020614592358469963,0.0019462364725768566,0.0005163745954632759
1772366251900510000,8.587510009765625,0.0002011624164879322,-0.0003448808565735817,0.002274594269692898
1772366251910579700,8.597579833984375,-0.0009212344884872437,0.002340835053473711,-0.001849091611802578
1772366251920650800,8.607650634765625,0.0008500339463353157,0.0006960667669773102,0.0007821116596460342
1772366251930720800,8.617720703125,0.0007701348513364792,0.003315079491585493,-0.00011335872113704681
1772366251940790500,8.62779052734375,-0.0006195027381181717,0.0004338053986430168,-0.004285200498998165
1772366251950861600,8.637861572265624,0.0006025140173733234,-0.0016517036128789186,0.0006969301030039787
1772366251960931800,8.647931884765624,0.000025140587240457535,0.0004862821660935879,-0.0027827564626932144
1772366251971001600,8.658001708984376,0.00011159386485815048,0.0006572455167770386,-0.0006679166108369827
1772366251981072600,8.66807275390625,0.0012293225154280663,-0.001591261476278305,0.003975038416683674
1772366251991142700,8.678142578125,0.0025864252820611,0.0005715242587029934,-0.0002524442970752716
1772366252001213000,8.688212890625,-0.0022797025740146637,0.0029603801667690277,0.0007915142923593521
1772366252011283700,8.69828369140625,0.00003452552482485771,-0.0009188391268253326,-0.0021422551944851875
1772366252021353700,8.708353759765625,0.0014318861067295074,-0.0007689027115702629,-0.0010207975283265114
1772366252031423700,8.718423828125,-0.00139616709202528,0.0011071907356381416,0.0012076329439878464
1772366252041494500,8.72849462890625,0.0012962892651557922,-0.0018158946186304092,-0.0003804098814725876
1772366252051564800,8.738564697265625,-0.0006682444363832474,-0.0017998300027102232,0.0032051168382167816
1772366252061634800,8.748634765625,0.001911825966089964,-0.00013295747339725494,-0.0009776437655091286
1772366252071705900,8.758705810546875,0.0006309901364147663,-0.002494638320058584,-0.0007649362087249756
1772366252081775600,8.768775634765625,0.0008557606488466263,0.0029033226892352104,-0.0005614710971713066
1772366252091845600,8.778845703125,0.0011608637869358063,0.0004959641955792904,-0.0011130189523100853
1772366252101916700,8.788916748046875,-0.0008181314915418625,0.00028078071773052216,0.0007136436179280281
1772366252111986700,8.798986572265624,0.000406001228839159,-0.0016798388678580523,0.00275389663875103
1772366252122057700,8.8090576171875,-0.0011391653679311275,-0.0003844774328172207,0.0015078037977218628
1772366252132127700,8.819127685546874,0.0005223937332630157,-0.0010988188441842794,0.0027376078069210052
1772366252142197500,8.829197509765624,-0.0021479581482708454,-0.005202483851462603,0.00035860575735569
1772366252152268500,8.8392685546875,-0.0003194897435605526,0.0015970957465469837,0.000007366761565208435
1772366252162338800,8.8493388671875,-0.00105612026527524,0.0006378251127898693,0.0006124367937445641
1772366252172408800,8.859408935546876,0.001216019969433546,-0.0020070872269570827,0.0010055042803287506
1772366252182479600,8.869479736328126,0.002530556172132492,0.002851583994925022,-0.00039425306022167206
1772366252192549600,8.879549560546875,-0.0013371431268751621,-0.0015655558090656996,0.001893581822514534
1772366252202620000,8.889619873046875,0.0016778213903307915,0.001270444132387638,-0.0022079525515437126
1772366252212691000,8.89969091796875,0.0027351658791303635,0.0027971393428742886,0.0016168681904673576
1772366252222760700,8.9097607421875,-0.0011666314676404,0.001080998219549656,0.0008272407576441765
1772366252232830700,8.919830810546875,-0.0013767876662313938,0.0007425257936120033,0.0014782538637518883
1772366252242901800,8.92990185546875,0.001691440586000681,0.00016648368909955025,0.00040473416447639465
1772366252252971800,8.9399716796875,-0.001309734769165516,-0.001647614175453782,0.0005796859040856361
1772366252263041800,8.950041748046875,-0.0006431452929973602,-0.0015381581615656614,0.002823133021593094
1772366252273112800,8.96011279296875,0.00012162933126091957,0.0007893717847764492,-0.002067570574581623
1772366252283182600,8.9701826171875,-0.00021392898634076118,-0.0009496724233031273,0.000562300905585289
1772366252293252600,8.980252685546875,0.0008318955078721046,-0.0000030174851417541504,-0.0011456748470664024
1772366252303323600,8.99032373046875,-0.002187596634030342,-0.003591360989958048,0.0025910064578056335
1772366252313394000,9.000393798828124,0.000194525346159935,-0.0020820696372538805,0.0006066383793950081
1772366252323463700,9.010463623046874,-0.0023328145034611225,0.002173129003494978,0.0007616346701979637
1772366252333534700,9.02053466796875,0.0015268386341631413,0.0010760454460978508,0.0004099654033780098
1772366252343604700,9.030604736328126,0.0005896724760532379,0.0005767028778791428,0.0006328728049993515
1772366252353674800,9.0406748046875,-0.0012311139144003391,0.0016887844540178776,-0.0006517106667160988
1772366252363745800,9.050745849609376,0.0012149992398917675,0.000783309806138277,-0.00027860235422849655
1772366252373815800,9.06081591796875,-0.0008304729126393795,0.0006050337105989456,0.00222152192145586
1772366252383885600,9.070885498046875,0.00024304771795868874,-0.004089320078492165,0.0011325553059577942
1772366252393956600,9.08095654296875,-0.0006294264458119869,0.0010858234018087387,-0.001126762479543686
1772366252404026600,9.091026611328125,0.0021855346858501434,-0.00199864967726171,0.0004777926951646805
1772366252414097000,9.101096923828125,0.0024542356841266155,0.002005605958402157,0.0012521268799901009
1772366252424167700,9.111167724609375,-0.0011029480956494808,-0.0006998991593718529,0.0004193568602204323
1772366252434237700,9.12123779296875,0.004890710115432739,-0.0018430785275995731,0.0010901642963290215
1772366252444307700,9.1313076171875,0.0010863845236599445,-0.0009647682309150696,0.002489388920366764
1772366252454378500,9.14137841796875,0.0007285773754119873,0.001993755344301462,0.0015509361401200294
1772366252464448800,9.15144873046875,0.0007011466659605503,0.001221172045916319,-0.0011143554002046585
1772366252474518800,9.161518798828125,-0.0008187307976186275,0.002017009537667036,0.0009180726483464241
1772366252484589800,9.17158984375,-0.0012467005290091038,-0.0020267339423298836,0.000017657876014709473
1772366252494659600,9.18165966796875,0.0003105723299086094,0.0005784532986581326,-0.00003796163946390152
1772366252504729900,9.191729736328124,0.00015877233818173409,0.0006503588519990444,0.00057216826826334
1772366252514801000,9.20180078125,-0.000298134982585907,0.0028815707191824913,-0.004154914990067482
1772366252524870700,9.21187060546875,-0.00022329995408654213,-0.002215719548985362,0.0002507520839571953
1772366252534940700,9.221940673828126,0.000253564678132534,0.00377855496481061,-0.0009197844192385674
1772366252545011700,9.23201171875,-0.0007797414436936378,-0.001275059301406145,0.0005907611921429634
1772366252555081700,9.242081787109376,-0.0013693785294890404,0.0019313967786729336,0.003247835673391819
1772366252565151700,9.25215185546875,0.0016056387685239315,-0.001110465731471777,0.00023420341312885284
1772366252575222800,9.262222900390626,-0.000431582797318697,-0.0018092910759150982,0.0011216821148991585
1772366252585292800,9.272292724609375,0.0010858867317438126,-0.0017477720975875854,0.0001882445067167282
1772366252595363600,9.282363525390625,-0.00018609687685966492,0.00011638086289167404,0.00015835091471672058
1772366252605433600,9.29243359375,-0.0015456406399607658,0.003742008004337549,-0.00019611604511737823
1772366252615504000,9.30250390625,0.0003744014538824558,0.0018834429793059826,0.0005430160090327263
1772366252625575000,9.312574951171875,-0.00018512830138206482,0.0015569394454360008,-0.0006503462791442871
1772366252635644700,9.322644775390625,0.000883814413100481,0.00012576207518577576,-0.0022403905168175697
1772366252645714700,9.332714599609375,0.002220721449702978,0.0029250108636915684,0.0008880244567990303
1772366252655785700,9.34278564453125,0.00016617728397250175,0.0027626603841781616,0.0006977096199989319
1772366252665855700,9.352855712890625,0.000849544070661068,0.002727773040533066,0.00013631489127874374
1772366252675925800,9.36292578125,0.0016445950604975224,-0.00046419398859143257,-0.00036784540861845016
1772366252685996800,9.372996826171875,-0.00043666502460837364,0.0005278335884213448,0.00029634684324264526
1772366252696066300,9.38306640625,-0.00015476392582058907,-0.00028809718787670135,0.00004037190228700638
1772366252706136300,9.39313623046875,0.0017715003341436386,0.0010919529013335705,-0.002681111916899681
1772366252716207400,9.403207275390624,-0.0009438861161470413,0.0029477612115442753,0.0020972546190023422
1772366252726277400,9.41327734375,-0.0009630601853132248,-0.0010701504070311785,0.00008177384734153748
1772366252736347100,9.42334716796875,-0.000592205673456192,0.00231757340952754,0.0004913220182061195
1772366252746418200,9.433418212890626,0.001224336214363575,0.0011401898227632046,0.0015507275238633156
1772366252756488400,9.443488525390626,0.0011526178568601608,-0.00023516500368714333,0.0001915590837597847
1772366252766558200,9.45355810546875,0.00008069537580013275,0.0023110834881663322,0.00025094766169786453
1772366252776629200,9.463629150390625,0.0018426342867314816,-0.002174499211832881,0.0007046842947602272
1772366252786699300,9.47369921875,-0.0014900453388690948,0.0016037272289395332,0.0017108265310525894
1772366252796770300,9.483770263671875,0.0016646673902869225,0.00003665359690785408,-0.0012019770219922066
1772366252806840000,9.493840087890625,-0.0009239250794053078,0.005097191780805588,0.0014425413683056831
1772366252816910300,9.503910400390625,-0.0018544206395745277,0.0006712195463478565,0.00005238596349954605
1772366252826981400,9.5139814453125,-0.0010663913562893867,-0.00177489360794425,-0.0009670723229646683
1772366252837051100,9.524051025390625,-0.0007319925352931023,0.0004596281796693802,0.0006275977939367294
1772366252847121200,9.53412109375,-0.0006257323548197746,-0.0010234862565994263,-0.001977240666747093
1772366252857192200,9.544192138671875,-0.0010396656580269337,0.0000280868262052536,-0.0016870507970452309
1772366252867262500,9.554262451171875,-0.0008159601129591465,0.0007082577794790268,0.00008208677172660828
1772366252877332200,9.564332275390624,-0.0033752666786313057,-0.00009368825703859329,-0.00020941533148288727
1772366252887403300,9.5744033203125,-0.0010295547544956207,-0.0009400411508977413,-0.0017103729769587517
1772366252897473300,9.584473388671874,-0.0026183133013546467,-0.0009956280700862408,0.0002723345533013344
1772366252907543300,9.594543212890626,0.0007383343763649464,-0.0018467744812369347,-0.002306138165295124
1772366252917614300,9.6046142578125,0.0006249845027923584,-0.001210660208016634,0.001653587445616722
1772366252927684400,9.614684326171876,-0.0018695988692343235,-0.002278321422636509,-0.0003429846838116646
1772366252937755400,9.62475537109375,0.0019014067947864532,0.001006296370178461,-0.0031446684151887894
1772366252947825200,9.6348251953125,0.0002675573341548443,0.00152694433927536,-0.000375513918697834
1772366252957895200,9.644895263671875,-0.0009712101891636848,0.003416307270526886,0.0001478642225265503
1772366252967966200,9.65496630859375,-0.0021137064322829247,-0.0007161200046539307,0.0005276305601000786
1772366252978036200,9.6650361328125,-0.0006503979675471783,0.00047170836478471756,-0.0006917314603924751
1772366252988106200,9.675106201171875,0.0006897044368088245,-0.0005054054781794548,0.001088591292500496
1772366252998177300,9.68517724609375,-0.000902300700545311,-0.0002620224840939045,-0.00039829034358263016
1772366253008247300,9.695247314453125,0.0014940113760530949,-0.00018585612997412682,-0.0010401122272014618
1772366253018317300,9.7053173828125,-0.00026209792122244835,-0.0007380773313343525,0.00015813671052455902
1772366253028388400,9.715388427734375,0.001217021606862545,0.0008779289200901985,0.0024298131465911865
1772366253038458400,9.725458251953125,-0.0000657043419778347,-0.0014153828378766775,-0.0007060691714286804
1772366253048528100,9.735528076171875,0.0012392443604767323,0.0008637504652142525,0.0009914301335811615
1772366253058599200,9.74559912109375,-0.0016094837337732315,0.0014860518276691437,-0.00014032144099473953
1772366253068669400,9.75566943359375,0.00023928238078951836,-0.0016596741043031216,0.00048259180039167404
1772366253078740500,9.765740478515625,-0.0004035742022097111,-0.0012040543369948864,0.0011799614876508713
1772366253088810200,9.775810302734374,-0.0008224896155297756,0.0015555131249129772,-0.00004322826862335205
1772366253098880300,9.78588037109375,-0.0005772104486823082,0.0005370941944420338,0.0015279343351721764
1772366253108951300,9.795951416015624,-0.0033349143341183662,0.004890563897788525,0.0022027799859642982
1772366253119021000,9.80602099609375,-0.00015784893184900284,-0.0068175592459738255,0.0007644593715667725
1772366253129091300,9.81609130859375,-0.0010095275938510895,0.0030132336542010307,0.000924781896173954
1772366253139162400,9.826162353515626,0.0004166760481894016,-0.001046723686158657,-0.0018275342881679535
1772366253149232000,9.836232177734376,-0.0011726990342140198,0.0007865964435040951,-0.0004834365099668503
1772366253159302100,9.84630224609375,-0.0003796950913965702,-0.00025460636243224144,0.0010442333295941353
1772366253169373200,9.856373291015625,-0.0011853012256324291,-0.0017963103018701077,0.0013302573934197426
1772366253179443500,9.866443359375,-0.0008304649963974953,-0.0010898434557020664,-0.00039111077785491943
1772366253189514200,9.87651416015625,0.0008404017426073551,-0.00041792821139097214,-0.0023013968020677567
1772366253199584300,9.886584228515625,0.0018371078185737133,-0.0017060847021639347,0.0013459017500281334
1772366253209654300,9.896654296875,-0.0002603977918624878,-0.000816588755697012,0.0038506044074892998
1772366253219725300,9.906725341796875,0.0004300032742321491,0.0013634995557367802,0.0023850882425904274
1772366253229795300,9.91679541015625,0.0005178875289857388,0.0026000053621828556,-0.0008037807419896126
1772366253239865300,9.926865234375,0.0017195646651089191,0.005651955958455801,0.00034405943006277084
1772366253249936400,9.936936279296875,-0.0000791340135037899,0.00812736339867115,-0.0001981602981686592
1772366253260006100,9.947006103515625,0.00008060364052653313,0.06009844318032265,0.0318807028234005
1772366253270076200,9.957076171875,-0.002525032963603735,0.02702997624874115,0.017600832507014275
1772366253280147200,9.967147216796874,0.000027550384402275085,-0.0006944723427295685,0.0023990748450160027
1772366253290217200,9.97721728515625,-0.00017671380192041397,-0.0019440276082605124,0.006081694737076759
1772366253300287200,9.987287353515624,0.0010957173071801662,-0.008132760412991047,0.0016127508133649826
1772366253310358300,9.997358154296874,0.0014786799438297749,-0.010802047327160835,-0.0008810339495539665
1772366253320428300,10.00742822265625,-0.00011309003457427025,-0.02447149157524109,-0.01092169526964426
1772366253330499000,10.0174990234375,0.0009258091449737549,-0.021376900374889374,-0.013302028179168701
1772366253340569300,10.0275693359375,-0.0008497261442244053,-0.016255304217338562,-0.012994259595870972
1772366253350639400,10.037639404296876,-0.002467063721269369,-0.017047328874468803,-0.010929244570434093
1772366253360710400,10.04771044921875,-0.0005138297565281391,-0.0006626294925808907,-0.002517365850508213
