time,seconds_elapsed,z,y,x
1772366573314058500,0.07305859375,-0.03431611109972,0.0016579552409006282,0.0015111717479303478
1772366573324129500,0.083129638671875,-0.0329740488409996,-0.0017177180375438183,0.000054214405268430705
1772366573334199600,0.093199462890625,-0.029831074640154838,0.004047508125402964,-0.00021430033780634402
1772366573344269600,0.10326953125,-0.030873861691355704,-0.0020725821900879965,0.011286460102722048
1772366573354339600,0.113339599609375,-0.03490998533964157,-0.006131196231395006,-0.002081190188229084
1772366573364409300,0.123409423828125,-0.034900048467516896,0.004075802638125606,0.007585084834136068
1772366573374480400,0.13348046875,-0.03309679843783379,0.008003059084457345,0.017210662519931794
1772366573384550700,0.143550537109375,-0.029645196679234504,-0.0076694340827642,0.006395546256005764
1772366573394620400,0.153620361328125,-0.04520224677324295,0.00015827300136443226,0.0023518968883901835
1772366573404690400,0.1636904296875,-0.03561725682616233,0.0016990635694237425,0.009872757379896938
1772366573414760700,0.1737607421875,-0.029327216771245,0.0002714967180276289,0.00803523975443095
1772366573424830500,0.18383056640625,-0.03620353228151798,0.0033063754684757437,0.008934015225060283
1772366573434901500,0.193901611328125,-0.04516659093797207,0.007234417366096749,0.011421594257093966
1772366573444971500,0.203971435546875,-0.033331191715598105,0.004792522373003885,0.007692454198747873
1772366573455041500,0.21404150390625,-0.038867198532819745,-0.0066157009458635,0.014884009670652449
1772366573465111600,0.224111572265625,-0.04349018215835094,0.00372387479476165,0.014238295645639299
1772366573475181600,0.234181640625,-0.03315641967058182,0.0016164815861964598,0.0014097937326878309
1772366573485252600,0.244252685546875,-0.03569090658426285,-0.00540447569231037,0.0033014892308041452
1772366573495322400,0.254322265625,-0.026402269235253333,0.0004337472081882879,0.00022076661121100185
1772366573505392600,0.264392578125,-0.03955927245020866,0.0013906004084507002,0.005396086889877915
1772366573515462400,0.27446240234375,-0.034009237107634545,0.00478314262330532,0.006306662396155297
1772366573525532400,0.284532470703125,-0.0419277551472187,-0.00021754717424046248,0.0036115050280466675
1772366573535602700,0.294602783203125,-0.046401101168990135,0.003867708278819918,-0.005718121918477118
1772366573545673700,0.304673828125,-0.01976560769975185,-0.0032218344236025587,-0.0030357144340872762
1772366573555743500,0.314743408203125,-0.028140637335181233,-0.00014756437768228352,0.0063547027889639136
1772366573565813500,0.3248134765625,-0.035163667839765544,0.0005924905670108273,0.01705200135949999
1772366573575883300,0.33488330078125,-0.025877953100204465,-0.0015001388972625135,0.007193820494227111
1772366573585953500,0.34495361328125,-0.02766542103886604,0.00089599442507606,-0.0011543576668947935
1772366573596024600,0.355024658203125,-0.02496025373339653,-0.0062158057749271385,0.005712678558379411
1772366573606094600,0.365094482421875,-0.03274140912890434,0.0005557159203104674,0.003931896088831126
1772366573616164400,0.375164306640625,-0.029143676897883414,0.0005331296291667968,0.003639963937550783
1772366573626234600,0.385234619140625,-0.025851065093278884,0.00015885295667685567,-0.0014431480130180716
1772366573636304600,0.3953046875,-0.025852818658947944,0.010364459020132197,0.01078055640719831
1772366573646374400,0.40537451171875,-0.02959609684050083,0.002701966134808026,0.007302139706909656
1772366573656445400,0.415445556640625,-0.033927988564968106,-0.002300436129211448,0.0022459157632663844
1772366573666515700,0.425515625,-0.027640286597609517,-0.0020174042370170353,0.008429865095205604
1772366573676585500,0.43558544921875,-0.02703939809501171,0.0034046390780247747,0.01354896167460829
1772366573686655500,0.445655517578125,-0.0330178879827261,-0.0018522676700260489,0.0019064181432127951
1772366573696725500,0.4557255859375,-0.021343232280015945,-0.019837202498083933,0.00556428306363523
1772366573706796300,0.46579638671875,-0.0270224469602108,-0.007813445663335732,0.0054265550933778285
1772366573716866600,0.475866455078125,-0.02088672068417072,0.004540255511831492,0.012756824916228652
1772366573726936600,0.4859365234375,-0.027762451672554013,0.007623571947310119,0.011627199831791222
1772366573737006300,0.49600634765625,-0.02416238135397434,0.0023306029386119917,0.0064409928329288955
1772366573747076600,0.50607666015625,-0.034790158352255816,0.00037192488519940524,0.009234715204685925
1772366573757146600,0.516146728515625,-0.028655601119995114,0.0010990975154330953,0.005638553876243531
1772366573767217400,0.526217529296875,-0.027151041775941846,0.005060443461034446,0.00916453604530543
1772366573777287400,0.536287353515625,-0.024454057776927947,-0.00024083215170539915,0.007468216988816857
1772366573787357700,0.546357666015625,-0.027444471764564514,-0.0007224325230345129,0.014556312086246907
1772366573797427500,0.556427490234375,-0.029988311028480527,-0.0025194309084443376,0.0049758156511932605
1772366573807497500,0.56649755859375,-0.03671732702255249,0.0025102977539179843,0.003013319939188659
1772366573817568500,0.576568603515625,-0.037167408877611156,0.009816871607350185,0.008678031169995664
1772366573827638300,0.58663818359375,-0.03088321404159069,-0.0010419011352118103,0.003880458162538707
1772366573837708500,0.59670849609375,-0.030584523355960843,0.001178108435240574,0.008204604971967637
1772366573847778600,0.606778564453125,-0.026546061620116232,-0.00048081492003984746,0.011444573273882269
1772366573857848300,0.616848388671875,-0.036572365593910215,0.014015579105936921,0.006344327525421977
1772366573867918600,0.626918701171875,-0.03612462182641029,-0.004672275260509923,0.011106354295462369
1772366573877989600,0.63698974609375,-0.02055821938216686,-0.008769577344390564,0.01838211745209992
1772366573888059600,0.6470595703125,-0.02639116331934929,-0.0025146771015133705,0.012902516997233033
1772366573898129400,0.65712939453125,-0.03341828547716141,0.000607131013716571,0.008991700229048728
1772366573908199400,0.667199462890625,-0.02219137354195118,-0.000037144539458677174,0.0065328358348459
1772366573918269400,0.67726953125,-0.02593231363594532,-0.005123731655324809,0.008210011799447237
1772366573928340500,0.687340576171875,-0.027278467547893523,0.0017831342568388208,0.014813392119854689
1772366573938410500,0.697410400390625,-0.038058220237493515,-0.00619694581083022,0.006999430433288216
1772366573948480500,0.70748046875,-0.035357729107141495,0.0027913979839300734,0.00939480113722384
1772366573958550500,0.717550537109375,-0.029224340918660163,0.0010221780880121513,0.014747560342028737
1772366573968620500,0.72762060546875,-0.021137480574846268,0.0062048414229182525,0.01069759083148092
1772366573978690300,0.737690185546875,-0.029368133303523062,-0.0011466675507836044,0.007394238437153399
1772366573988761300,0.74776123046875,-0.04537818786203861,0.005385844057076611,0.008906871489807964
1772366573998831600,0.75783154296875,-0.029074703314900398,-0.006739030498010106,0.007506283976882696
1772366574008901600,0.767901611328125,-0.03745966982245445,-0.003660897127725184,0.004811565000191331
1772366574018971400,0.777971435546875,-0.03836217162013054,-0.00028760303603485223,0.00291665463168174
1772366574029041000,0.788041015625,-0.03492693647444248,0.002630732096079737,0.005008512344397604
1772366574039112000,0.79811181640625,-0.02296294243633747,-0.002491908147279173,0.002315473868139088
1772366574049182000,0.808181884765625,-0.025813071170449255,-0.005444246013695374,0.006606668256036937
1772366574059252000,0.818251953125,-0.033149989929795266,0.009996402025874703,0.005442519847489893
1772366574069322000,0.828322021484375,-0.026420389413833616,-0.0027055234984960405,0.011621135417185723
1772366574079392000,0.83839208984375,-0.019995909324288366,-0.0022685888193780556,0.004490845145843923
1772366574089463000,0.848463134765625,-0.022398878812789916,0.0067457753326278175,0.002180120518058538
1772366574099532800,0.85853271484375,-0.0282423441439867,0.00248083419741597,0.0022666662903502582
1772366574109602800,0.868602783203125,-0.04155950635671615,0.0010634097141213714,0.0028718291092664
1772366574119673000,0.878673095703125,-0.03737432962656021,0.002246810812409967,0.00501212907359004
1772366574129742800,0.888742919921875,-0.03573123859465122,-0.0065151312147965655,0.005259564496017992
1772366574139812900,0.898812744140625,-0.040221535751223565,0.004657648513535968,0.0066802814815193415
1772366574149884000,0.9088837890625,-0.030497429594397545,0.010180188494408502,0.00018869097251445055
1772366574159954000,0.918953857421875,-0.03663198682665825,0.003931092371232807,0.003659508888237178
1772366574170024000,0.92902392578125,-0.04007014458179474,0.000244658943451941,0.007912672820687293
1772366574180094000,0.939093994140625,-0.03169277685880661,-0.0073121998766204335,0.00021320435926318166
1772366574190164000,0.9491640625,-0.0284036721855402,-0.00977585004379507,0.004614471525512635
1772366574200234000,0.95923388671875,-0.028557985964417457,-0.0025700331510975956,0.000603043927066028
1772366574210305000,0.969304931640625,-0.028413024535775183,0.0023307034033117815,0.0075127137176692485
1772366574220374800,0.979374755859375,-0.04157821105718613,0.0024980638934299347,0.006182707222923636
1772366574230444800,0.98944482421875,-0.029306173983216284,-0.0026787359562702477,0.004574650971777737
1772366574240515000,0.99951513671875,-0.036789223214983936,-0.003280619972711429,0.00589143265876919
1772366574250584800,1.009584716796875,-0.02871171522140503,-0.000728487804485485,0.0038691330509260293
1772366574260655900,1.01965576171875,-0.03379939374923706,0.0007606821741908788,0.0064323711350560185
1772366574270726000,1.029725830078125,-0.024828736308217046,0.00374453399030026,0.01255078095011413
1772366574280796000,1.0397958984375,-0.03530921379029751,0.00041726643084548414,0.006419438588246703
1772366574290866000,1.049865966796875,-0.035761633732914924,0.005918138002604246,0.008438559858314692
1772366574300936000,1.05993603515625,-0.02977905219197273,-0.0008728373117744922,0.005547076200507581
1772366574311006000,1.070005859375,-0.028435236367583272,0.0034463547613238915,0.0011325476938858629
1772366574321077000,1.080076904296875,-0.04339958126544952,-0.0029922406185418364,-0.0015836524622514843
1772366574331147000,1.09014697265625,-0.040108723026514054,0.004939972586254589,-0.0002580298816785216
1772366574341216800,1.100216796875,-0.03771218327879906,-0.003522251275437884,0.005947729423269629
1772366574351286800,1.110286865234375,-0.0327782340079546,0.0012860212225466966,0.005835610818304121
1772366574361357000,1.120357177734375,-0.03532324231564998,0.005382254727347754,0.006866451703384518
1772366574371428000,1.130427978515625,-0.04684183067381382,-0.0026183977708918974,0.009943119202367961
1772366574381497900,1.140497802734375,-0.037113632863759995,0.0009299286607187241,0.009223865017108618
1772366574391568000,1.15056787109375,-0.03337853798866272,-0.0034414137247251344,0.008328267884254455
1772366574401638100,1.16063818359375,-0.031135142976045607,-0.004521756307338364,0.007248436758294701
1772366574411708000,1.1707080078125,-0.023059388548135756,-0.0012164950837148354,0.008916625698842108
1772366574421778000,1.18077783203125,-0.041620881155133245,0.0035316310251364484,0.003066401833295822
1772366574431849000,1.190848876953125,-0.03145136931836605,-0.0010227763096336275,0.006831526520475745
1772366574441919000,1.2009189453125,-0.03399170145094395,-0.0000685991236474365,0.007191701602376997
1772366574451989000,1.210989013671875,-0.034140170010924335,0.0038200423453468827,0.004702478602528572
1772366574462059000,1.22105908203125,-0.03533902440667152,0.01083816377937328,0.009484780975617467
1772366574472128800,1.231128662109375,-0.03280103036165237,0.0021041007063584403,0.010240531246364116
1772366574482199000,1.241198974609375,-0.038491350957751275,-0.005129896534630097,0.007433291805908083
1772366574492270000,1.25127001953125,-0.031762919485568995,0.007421085344883613,0.0014634236160665749
1772366574502339800,1.26133984375,-0.01472118379175663,0.001170989141287282,-0.002094013137184083
1772366574512409900,1.271409912109375,-0.031491116806864734,0.0012251259147422389,-0.001301949444040656
1772366574522480000,1.281480224609375,-0.03105915513038635,0.0012776369866915047,0.006064158877171576
1772366574532550000,1.2915498046875,-0.02882102081477642,-0.006197516632988117,-0.001287738255597651
1772366574542621000,1.301620849609375,-0.03257014421522617,-0.007851946476241572,-0.0005974909691140055
1772366574552691000,1.31169091796875,-0.029435353320837018,0.0036996582355350253,0.006102883452363312
1772366574562760700,1.3217607421875,-0.03033727059662342,0.005015197813510895,0.004685271739400923
1772366574572831000,1.3318310546875,-0.032737317475676535,0.0063793714393395925,-0.0029405834965407847
1772366574582901000,1.34190087890625,-0.033784196180105204,0.006679838523524813,-0.004127455193549395
1772366574592970800,1.351970703125,-0.033034254595637316,0.0036654774047201496,-0.0009434913951903581
1772366574603041800,1.362041748046875,-0.03183773828744888,-0.0016734998699044809,-0.000209770293161273
1772366574613112000,1.372112060546875,-0.03229074275195598,-0.002655944169149734,0.00030373218692839147
1772366574623181800,1.382181884765625,-0.03229308083951473,0.006336870304751209,0.00024929858595132827
1772366574633251800,1.392251953125,-0.023612346255779265,-0.004710835438920185,0.008496098731830716
1772366574643322000,1.402322021484375,-0.028254034581780434,-0.0017695578226353972,0.01050769428256899
1772366574653392000,1.412391845703125,-0.03289163125455379,0.004515979587100446,0.001140913663432002
1772366574663463000,1.422462890625,-0.04126724541187286,0.007553493252629414,-0.003092339992150664
1772366574673533000,1.432532958984375,-0.03034779199063778,-0.0022446964871371163,-0.003203764477372169
1772366574683602700,1.442602783203125,-0.025861586487293243,-0.0025291029190877452,0.001934730922244489
1772366574693673000,1.4526728515625,-0.029463410371541977,0.007642587175033986,0.006465067828260362
1772366574703743000,1.462742919921875,-0.00644669192135334,-0.0016289346423931418,-0.0004615165645256638
1772366574713812700,1.472812744140625,-0.03220540255606174,0.0008179333533393218,0.0003746054660528898
1772366574723883800,1.4828837890625,-0.02670388253033161,0.005738278790516778,-0.00011814648695290088
1772366574733954000,1.4929541015625,-0.04587678503394126,0.0037869392267661168,0.006314224648103117
1772366574744023800,1.50302392578125,-0.040053193446993825,-0.0007890314858406782,-0.0025042379058897494
1772366574754093800,1.51309375,-0.04350771781504154,-0.003182584692025557,0.0018381021473556755
1772366574764164000,1.5231640625,-0.04142506632208824,-0.0021766727522248403,0.002597249951586127
1772366574774235100,1.533235107421875,-0.029608371800184247,-0.0002956950109452009,0.003691913320496678
1772366574784305000,1.543304931640625,-0.036788638693094254,-0.005756672963732853,0.0038821751955896615
1772366574794375000,1.553375,-0.030204584127664563,-0.0029985287954332304,0.0007527911286801099
1772366574804445000,1.56344482421875,-0.03125087831020355,0.002754189512389712,0.0007647007621824741
1772366574814515000,1.573514892578125,-0.039331308913230896,-0.00047298780661076306,0.00060454176440835
1772366574824585000,1.5835849609375,-0.0304991831600666,-0.001516843436891213,0.00027994945254176853
1772366574834656000,1.593656005859375,-0.0369260013371706,0.006936069173761643,0.008232077500782907
1772366574844725800,1.603725830078125,-0.04214928894340992,0.004378447979665361,0.0016965747848153114
1772366574854796000,1.613796142578125,-0.03974573493301868,0.004563714019232429,0.0016317659202963112
1772366574864866000,1.623865966796875,-0.019833412238955496,-0.006019543417310342,0.004890329324826598
1772366574874935800,1.633935791015625,-0.024916999113559723,0.0031609391157981005,0.002288110937178135
1772366574885005800,1.644005859375,-0.03209492791891098,0.002504329237435013,0.00014912614710628985
1772366574895076900,1.654076904296875,-0.028498364731669425,0.007951831220719031,0.0008591010473668574
1772366574905147000,1.66414697265625,-0.02759527841210365,0.0020329853986389935,0.007231339493021368
1772366574915217000,1.674216796875,-0.038218963757157325,0.0036098975928500294,0.003920717107690871
1772366574925287000,1.684286865234375,-0.0441980381667614,-0.0009373630485031753,0.0015215470114722848
1772366574935357000,1.69435693359375,-0.04120645513534546,-0.0031825709922937676,0.007028108538500964
1772366574945427000,1.704427001953125,-0.031191257077455518,0.002821012237481773,-0.004454677853919565
1772366574955498000,1.714498046875,-0.030298107630014417,0.0022227677831193433,-0.000674940119497478
1772366574965567700,1.724567626953125,-0.030151977157592772,0.004639455269719474,-0.002566270291432738
1772366574975638000,1.734637939453125,-0.03883329626321792,-0.0012658278178889304,0.003225684048235416
1772366574985708000,1.7447080078125,-0.03299859876036644,0.0033177005800884216,0.003191124191507697
1772366574995777800,1.75477783203125,-0.028662030860781666,0.00029126999757718295,-0.005113580154068768
1772366575005847800,1.764847900390625,-0.029412556967139243,0.0018985773300519212,-0.0023347265578806398
1772366575015918800,1.7749189453125,-0.020883213552832604,-0.0042940165326464915,0.003182246765308082
1772366575025988900,1.78498876953125,-0.02970890956521034,-0.0033706546100322156,0.005179119670949876
1772366575036060000,1.795059814453125,-0.031655367457866665,-0.00013695621869992463,0.004268872958235442
1772366575046130000,1.8051298828125,-0.032110710009932514,0.0066895379336318,0.0006856441766023635
1772366575056199700,1.81519970703125,-0.03450198906064033,0.008510305353696457,0.00687551179267466
1772366575066270000,1.82527001953125,-0.03704699736833572,0.008300274765631183,0.0046133755469694735
1772366575076341000,1.835341064453125,-0.022977555483579635,0.005230283602606505,0.0066281129028648135
1772366575086410800,1.84541064453125,-0.03793313255310058,-0.0006594411562662572,0.004165850975178182
1772366575096480800,1.855480712890625,-0.03255377760231495,0.002891346660489216,-0.003495367835089564
1772366575106551000,1.865551025390625,-0.02567687757015228,-0.004172897203895263,0.0032584903392940756
1772366575116620800,1.875620849609375,-0.02284486901462078,0.0020025811272207645,0.004334741268679499
1772366575126690800,1.88569091796875,-0.027196634483337402,0.006065953542036004,0.006426197122596204
1772366575136761900,1.895761962890625,-0.027654899644851683,0.0098256622685818,0.003959295552410185
1772366575146832000,1.905831787109375,-0.03574760520756244,0.005560940329078584,0.0010878317693248391
1772366575156902000,1.91590185546875,-0.025740005934238433,0.001179866567486897,0.00439827149156481
1772366575166972000,1.925971923828125,-0.024856208837032316,-0.006179067660844885,0.0018040902798995375
1772366575177041700,1.936041748046875,-0.041326282122731206,0.004598351507773622,0.004094320108927786
1772366575187112000,1.94611181640625,-0.024582652592658995,0.0008386382146505639,0.005780081238783896
1772366575197182000,1.956181884765625,-0.02624386380314827,0.0013738867356674746,0.002243577675707638
1772366575207253000,1.9662529296875,-0.031046880170702933,0.0037028457064647224,0.00545822887327522
1772366575217322800,1.97632275390625,-0.02238251219987869,0.0005174525694223121,-0.00014002952519804237
1772366575227393000,1.98639306640625,-0.046636663490533824,0.005122019188851118,0.007459704888798296
1772366575237462800,1.996462890625,-0.03961304846405983,-0.004036205846676603,0.0012666954675689338
1772366575247532800,2.00653271484375,-0.03813011642992496,0.004510431195725686,0.009622253217548131
1772366575257602800,2.016602783203125,-0.035300445961952205,0.0013194029023405164,0.01646623736079782
1772366575267673900,2.026673828125,-0.03292436448037624,-0.005071695507410914,0.0027002719346433876
1772366575277743900,2.036743896484375,-0.033685411980748176,0.007077432139520533,-0.0007560059990733861
1772366575287814000,2.04681396484375,-0.029356442865729332,0.006126839716685936,-0.0022159224838018414
1772366575297884000,2.0568837890625,-0.02532616443634033,-0.0034991261281771585,-0.003988156320713461
1772366575307954000,2.066953857421875,-0.028920974057912826,-0.007873961945227347,0.008903327825851739
1772366575318024000,2.07702392578125,-0.029682021558284758,-0.006319225050206296,-0.0003791720433160662
1772366575328095000,2.087094970703125,-0.04046528137922287,-0.00013898834558203816,0.003893938698619604
1772366575338164700,2.097164794921875,-0.03658113342225552,-0.0027564819341758264,0.0077884253865107885
1772366575348235000,2.107235107421875,-0.04062836298644543,-0.0013562597474316134,0.0029875279108062384
1772366575358305000,2.117304931640625,-0.04049100034236908,0.010610191109240986,-0.004316949883662164
1772366575368374800,2.127374755859375,-0.03615501696467399,0.004977916276734322,-0.001250986441783607
1772366575378444800,2.13744482421875,-0.034514848542213435,0.004194081555819139,0.0030630773650482295
1772366575388515800,2.147515869140625,-0.031681086421012875,-0.0037603526139399035,0.005558657040446996
1772366575398585900,2.1575859375,-0.025852818658947944,0.002583015930256806,-0.0027023908264935015
1772366575408656000,2.16765576171875,-0.036035189977288246,0.0004900713721523061,0.006704502607323229
1772366575418726000,2.177725830078125,-0.04442307909429073,-0.006900490970304236,-0.0015645459029823541
1772366575428796000,2.1877958984375,-0.036493455138802526,-0.0020772674983600154,0.004082227812334895
1772366575438866000,2.197865966796875,-0.03170738990604877,-0.006154029117710888,-0.0022755802491679785
1772366575448937000,2.20793701171875,-0.03455693411827087,-0.00424409927658271,0.0006763283589854836
1772366575459006700,2.2180068359375,-0.03052022594809532,-0.0018683100559515877,0.002387479658424854
1772366575469077000,2.228076904296875,-0.03275836026370525,0.002921618501166813,0.0034487887470051643
1772366575479147000,2.23814697265625,-0.032600539353489874,0.0003435573072405532,0.009764401634596288
1772366575489216800,2.248216796875,-0.026312837386131285,-0.000028760303603485226,0.005522818542085588
1772366575499286800,2.258286865234375,-0.029006898775696753,-0.00273561267608311,-0.00033237375952303405
1772366575509357000,2.268357177734375,-0.03320259689986706,-0.0006926767055876553,0.0007085135955363512
1772366575519427800,2.278427734375,-0.04412146579921245,-0.0012134172106394543,0.00876717075817287
1772366575529497900,2.288497802734375,-0.03828384568691254,0.003213724182383157,0.0038836365003138778
1772366575539567900,2.29856787109375,-0.03364332640469074,0.006744802651670761,-0.0008445610653609037
1772366575549638000,2.308637939453125,-0.02901274399459362,-0.0029568359450204296,-0.0066034168530255555
1772366575559708000,2.3187080078125,-0.027822072905302045,-0.011202512712893076,-0.005565890498831868
1772366575569778000,2.32877783203125,-0.030218612653017042,0.008969716726103798,0.0011116875689476727
1772366575579848700,2.3388486328125,-0.025580431458353994,0.0008820891973096876,0.001843289779126644
1772366575589919000,2.3489189453125,-0.03351531611084938,0.008826883322466164,-0.002740055955760181
1772366575599989000,2.358989013671875,-0.04279869276285171,0.014736445292970165,0.0017592282248660922
1772366575610058800,2.369058837890625,-0.031578210568428036,-0.0012403919825330375,0.008299334050714969
1772366575620128800,2.379128662109375,-0.04295768271684646,-0.0016665130066918208,0.0008051058378070593
1772366575630199000,2.389198974609375,-0.03263619518876076,-0.00039014552847947925,0.005073065480589866
1772366575640270000,2.39927001953125,-0.032333997371792794,0.0013392538137035443,0.007276347678527236
1772366575650339800,2.40933984375,-0.04266016107499599,0.0012028044850798322,-0.00023377222325652837
1772366575660409900,2.419409912109375,-0.028143559944629668,-0.0031309047371381894,0.0031009982226416466
1772366575670480000,2.42947998046875,-0.02441021863520145,0.00491005693860352,-0.0011270312685519456
1772366575680550000,2.4395498046875,-0.029496143597364424,0.001379722821409814,0.0022199045391753315
1772366575690620000,2.449619873046875,-0.029497312641143796,0.0031891377303982153,0.007877418844215571
1772366575700690000,2.45968994140625,-0.036676995012164114,-0.0035594369140919298,0.005249664156511426
1772366575710760700,2.4697607421875,-0.04370703977942467,0.005234128660662099,0.002626877904869616
1772366575720831000,2.4798310546875,-0.035164252361655234,0.0034402538141002875,0.013870814040116966
1772366575730900700,2.489900634765625,-0.010025719451904296,-0.005642083840467967,-0.003343830535188317
1772366575740970800,2.499970703125,-0.05416705899536609,0.00564760939895641,0.0019247575175017117
1772366575751041000,2.510041015625,-0.025576924327015874,0.010927750892122275,0.006482018963061273
1772366575761110800,2.52011083984375,-0.014795418071746825,0.005694786708662286,-0.0036947628647089003
1772366575771181800,2.530181884765625,-0.03964169003665447,0.005820906439516693,0.0019849267395213245
1772366575781251800,2.540251953125,-0.032470775493979455,0.004383361616800539,-0.0027865254459902645
1772366575791322000,2.550322021484375,-0.0344207405179739,0.0008600006630877032,0.000384030881524086
1772366575801391900,2.560391845703125,-0.031736616000533104,-0.00006707845341879875,0.0024005583357065916
1772366575811462000,2.5704619140625,-0.03877718216180801,-0.00335674481568858,0.0007185235328972339
1772366575821531600,2.58053173828125,-0.05881342349648475,0.003686629790603183,0.005726560953259467
1772366575831602000,2.590601806640625,-0.011380056670308112,0.008491947713098488,0.0016480960005894301
1772366575841673000,2.6006728515625,-0.02605038705766201,-0.005364856067975051,0.010938888774067164
1772366575851743000,2.610742919921875,-0.028451602980494498,0.00242321312550921,-0.0032894334668293595
1772366575861812700,2.620812744140625,-0.048505964493751524,-0.001249977228208445,0.0015895342137664556
1772366575871883000,2.630883056640625,-0.033844986456632614,0.008515401653922162,0.002560425072535872
1772366575881952800,2.640952880859375,-0.034140170010924335,0.00162666048691608,0.0031031171144917605
1772366575892022800,2.651022705078125,-0.03054945204257965,-0.00352867188306991,-0.005572283707000315
1772366575902093000,2.661093017578125,-0.028753216275572775,0.007785087218531407,0.002363696924038231
1772366575912164000,2.6711640625,-0.02725508667230606,0.005599030150030739,0.006267535962164401
1772366575922233900,2.68123388671875,-0.0359369902998209,-0.006047673533251509,0.011441869860142468
1772366575932304000,2.691303955078125,-0.02710603359043598,-0.004418423797027208,-0.00163830525893718
1772366575942374000,2.701373779296875,-0.04026595941483974,-0.0031551121632102876,-0.005767294822447001
1772366575952444000,2.71144384765625,-0.051615620946884155,0.0022147032076725733,0.005405987229384482
1772366575962514000,2.721513916015625,-0.03918108678758144,0.0021936969522619617,0.0036576091920956966
1772366575972585000,2.7315849609375,-0.027197803527116773,-0.0033811394714284688,-0.0006822101105004549
1772366575982654700,2.74165478515625,-0.02284486901462078,0.0036176927402382713,-0.00005282616578042507
1772366575992725000,2.75172509765625,-0.029120880544185636,0.008265797107294201,0.004650383089110255
1772366576002795000,2.761794921875,-0.025672785916924474,0.00028510968484915793,0.00045274873618036504
1772366576012864800,2.77186474609375,-0.029424247404932973,-0.0010776939678005873,0.00022321429662406443
1772366576022935000,2.78193505859375,-0.024940964511036872,0.004963339762110263,-0.000811206785030663
1772366576033004000,2.792004150390625,-0.03901975874602794,0.005490984931983985,-0.0023003493642434476
1772366576043075000,2.802074951171875,-0.03558861525356769,0.0012822172636864707,-0.006310644451528787
1772366576053144800,2.812144775390625,-0.0299111541390419,-0.0034955276652937754,-0.004542721463553607
1772366576063215000,2.822215087890625,-0.05324877510666847,0.008051592667610383,0.00502502508778125
1772366576073285000,2.83228515625,-0.00267827929854393,0.0011305292667355387,-0.003974456588923931
1772366576083355000,2.84235498046875,-0.03215747176110744,-0.009043622212531044,0.006338263110816479
1772366576093425200,2.852425048828125,-0.04877133743166923,0.0008103802345460281,0.0033584070498123763
1772366576103496200,2.86249609375,-0.026630817294120788,0.0015830131414346397,0.0012518997572362421
1772366576113566000,2.87256591796875,-0.02947802341878414,0.0026062872079899535,-0.0011073401873931289
1772366576123636000,2.882635986328125,-0.040106384938955304,0.007745403662114404,-0.000029043431393802163
1772366576133706000,2.8927060546875,-0.032630934491753576,-0.0022825534126488492,-0.002130180429108441
1772366576143776000,2.90277587890625,-0.031284780579805375,-0.012468824587971902,-0.0005198956882581115
1772366576153846000,2.912845947265625,-0.03428045526444912,0.004739773839036934,0.0013544833488762379
1772366576163916000,2.922916015625,-0.030838790377974507,0.008333058223803527,0.0067359206588938824
1772366576173986800,2.93298681640625,-0.018568506869673727,0.0010966406968655063,-0.004342851509898901
1772366576184057000,2.94305712890625,-0.025604396855831144,-0.005111543460609391,-0.0012559914104640483
1772366576194127000,2.953127197265625,-0.029492051944136618,-0.00350713590469677,0.00946191155668348
1772366576204196900,2.96319677734375,-0.03936111952960491,-0.005577384573803283,-0.0018958967491984366
1772366576214267100,2.97326708984375,-0.038461540341377255,0.0017607580282492563,0.0035426045102998614
1772366576224337200,2.983337158203125,-0.03755845402181148,-0.0017793028985150158,0.005328684209473431
1772366576234407000,2.993406982421875,-0.03096738519370556,-0.0035558475843630727,0.004605228773131967
1772366576244478000,3.00347802734375,-0.026617957812547683,-0.005516274636867456,-0.002491780283115804
1772366576254548000,3.0135478515625,-0.025564649367332458,0.0010694878284586594,0.00423624933026731
1772366576264618000,3.023617919921875,-0.024818214914202687,0.00290278136995621,0.00297788329962641
1772366576274688000,3.03368798828125,-0.019587328523397445,0.004128176712756977,0.005665989872440696
1772366576284758000,3.043758056640625,-0.03784136261641979,-0.0038875683233374728,0.003632072892040014
1772366576294828000,3.053828125,-0.03888999488651752,0.002051790563808754,0.002841616634093225
1772366576304898000,3.06389794921875,-0.03246376123130321,0.008041084973327815,-0.005737886064872145
1772366576314969000,3.073968994140625,-0.044431262400746345,-0.00278946632174775,0.002438588791154325
1772366576325038800,3.084038818359375,-0.027226445099711418,-0.00015715875651221723,-0.0021070187492296098
1772366576335109000,3.094109130859375,-0.02034253080487251,-0.0019435352832078933,-0.0005974544364959002
1772366576345179100,3.10417919921875,-0.037999183526635165,0.006934589602728374,0.007207593291252851
1772366576355249000,3.114248779296875,-0.02468962009847164,-0.003287634235387668,0.004895736152306198
1772366576365319000,3.12431884765625,-0.04265431585609913,-0.0005863165545510128,-0.006396057712659239
1772366576375390000,3.134389892578125,-0.042052842831611634,0.0021969711881596595,-0.005138824193179607
1772366576385460000,3.1444599609375,-0.040707273441553116,0.004789220737642608,0.001715644811466336
1772366576395530000,3.154530029296875,-0.04190846592485904,0.005923599629011005,0.007317593004368245
1772366576405600000,3.16460009765625,-0.038766660767793656,0.00014924944469239563,0.005346402529254555
1772366576415670000,3.174669921875,-0.025295184776186943,-0.0022394905890570954,0.0016846286186948417
1772366576425740000,3.184739990234375,-0.03308101634681224,0.008064822041941807,0.006353972136601806
1772366576435810000,3.19481005859375,-0.043861938080191606,0.005228315407806076,-0.0013013649221509695
1772366576445880800,3.204880859375,-0.02501519879102707,0.005675438120798208,-0.005555259506963193
1772366576455950800,3.214950927734375,-0.02952069351673126,-0.0030316775797866284,0.0009478022441267967
1772366576466021000,3.225021240234375,-0.03821019592881202,-0.0032689158351859077,0.0022068623945116998
1772366576476091000,3.2350908203125,-0.0310351897329092,0.001650520853116177,0.0027618659287691116
1772366576486161000,3.245160888671875,-0.034489129579067225,-0.0021879750309512017,0.004128697302564978
1772366576496231200,3.255231201171875,-0.032249826219677924,-0.004038932093302719,-0.004665324929915368
1772366576506301000,3.265301025390625,-0.0386947645753622,-0.007113256938150152,-0.0014671864757314324
1772366576516372000,3.2753720703125,-0.037356793969869614,0.0010159584097797051,0.006526333028823137
1772366576526442000,3.28544189453125,-0.040510289564728734,0.002654158637439832,0.003721102882362902
1772366576536512000,3.295511962890625,-0.040222704795002936,-0.002340914270072244,-0.0014828224362805485
1772366576546582000,3.30558203125,-0.02347965978682041,0.003931644927081652,0.004842288932017982
1772366576556652000,3.315652099609375,-0.020064882907271386,0.008860657727904618,-0.0022334946731105447
1772366576566721800,3.3257216796875,-0.0384989497423172,0.0025020961811533194,-0.0029192119149491188
1772366576576792000,3.3357919921875,-0.03477320721745491,-0.0017301436942769213,0.001975757052376866
1772366576586863000,3.345863037109375,-0.0332879370957613,0.002722693829005584,0.003669993749633431
1772366576596932900,3.355932861328125,-0.03330255014300346,0.01137752221992705,0.007657309820130467
1772366576607003000,3.3660029296875,-0.03810089033544063,0.005655066619627177,-0.005040807178802788
1772366576617073200,3.3760732421875,-0.030187632992863655,-0.0028454114597989246,-0.0005436053574085235
1772366576627143000,3.386142822265625,-0.03124970926642418,-0.007915015474823303,0.0027103914698585864
1772366576637213000,3.396212890625,-0.03020867578089237,-0.005350868641817942,0.004652867307141423
1772366576647283200,3.406283203125,-0.044133740758895874,0.0072322117092786355,0.0020544483117759227
1772366576657354200,3.416354248046875,-0.0378583137512207,-0.00017560772865545004,-0.002947451628744602
1772366576667424000,3.426424072265625,-0.041155017209053034,-0.0011309630915755406,0.006838979174569249
1772366576677494000,3.436493896484375,-0.03068096946775913,0.007289029063587076,0.0030560996349900957
1772366576687563800,3.446563720703125,-0.037868250623345374,-0.0020126641298178582,0.003699183311499655
1772366576697634000,3.456634033203125,-0.034731121641397474,0.010868874011468141,-0.003310987711511552
1772366576707704000,3.4667041015625,-0.03712590782344341,-0.004028565962915309,0.0036952377887442705
1772366576717773800,3.47677392578125,-0.043565000960230825,-0.0028531792077235874,0.0011526771664619444
1772366576727844900,3.486844970703125,-0.04072013292312622,0.00031338136468548326,0.008378975158184766
1772366576737915100,3.4969150390625,-0.053282092854380604,-0.0035922751711914315,0.003478307102434337
1772366576747985000,3.50698486328125,-0.02798690807819366,0.0026198864750796927,0.007236088733375072
1772366576758055000,3.517054931640625,-0.03397007414102554,0.0029591101004974914,-0.003799867206998169
1772366576768125200,3.527125244140625,-0.029180501776933668,0.002086784245376475,0.003833769476599991
1772366576778195000,3.53719482421875,-0.025142624562978742,0.00677801080152858,0.007653327764756977
1772366576788265000,3.547264892578125,-0.042803368937969204,0.004557147281127981,-0.005448803457804024
1772366576798336000,3.5573359375,-0.04114917199015617,0.008570479142293334,-0.0020923326367512343
1772366576808406000,3.567406005859375,-0.03321428733766079,0.0022382210805779322,0.0011643676042556762
1772366576818476000,3.57747607421875,-0.031122868016362187,0.000828989036893472,0.003644749710522592
1772366576828546000,3.587546142578125,-0.029771453407406806,0.005221963298832997,-0.0046122065031901
1772366576838615800,3.59761572265625,-0.02932195607423782,0.0015689252505777403,0.004523578371666372
1772366576848686000,3.60768603515625,-0.031709727993607516,-0.0008934873741585761,0.001548215822689235
1772366576858756000,3.617756103515625,-0.024373393756151197,-0.006543252197583205,0.004039338518679142
1772366576868827100,3.6278271484375,-0.03933072439134121,-0.00491015740330331,-0.005374715308286249
1772366576878897000,3.63789697265625,-0.027656653210520743,-0.0008215455159544944,-0.0020480551036074755
1772366576888967000,3.647966796875,-0.04261456836760044,-0.002046949991909787,0.0022961846457794305
1772366576899037000,3.658036865234375,-0.03333762145638466,0.003018576069618575,0.0010883066933602093
1772366576909107000,3.66810693359375,-0.037976971694827076,0.006641999864322133,0.000052753100544214245
1772366576919177000,3.678177001953125,-0.04410159205496311,0.006019114159047603,0.0013474325535818934
1772366576929247000,3.6882470703125,-0.04050795147716999,0.00369039265026804,-0.0007127513792365788
1772366576939318000,3.698318115234375,-0.03496551491916179,-0.0022406824657227845,0.003630392391607165
1772366576949388000,3.708387939453125,-0.041997313252091405,-0.003473745091748424,0.007546177595853805
1772366576959458000,3.7184580078125,-0.040647652208805084,0.0015057192546781152,0.005071859904192387
1772366576969528000,3.728528076171875,-0.036899697852134705,-0.0024666686747455966,0.006154321378655732
1772366576979598000,3.73859814453125,-0.02627601250708103,0.003953085007332265,-0.001935169313661754
1772366576989667800,3.748667724609375,-0.024942133554816243,0.0026355178690515456,-0.0019648703321814534
1772366576999737900,3.75873779296875,-0.03543079434335231,0.002584591399412602,0.0008195362219586968
1772366577009809000,3.768808837890625,-0.030656419548392294,0.008243343246891162,-0.0037003888878971336
1772366577019879200,3.778879150390625,-0.040542438268661496,0.002793352478998713,-0.004550283715501428
1772366577029949400,3.788949462890625,-0.03785129948854446,0.0005892391639994457,0.011231916903890669
1772366577040019500,3.79901953125,-0.03725099550783634,-0.00024229802300687877,0.006059300038963556
1772366577050089500,3.80908935546875,-0.02377542786300182,-0.003514615958253853,-0.0025812851974740623
1772366577060159500,3.819159423828125,-0.02182838544845581,0.0036570703359786417,0.0012066723760217428
1772366577070229500,3.8292294921875,-0.03036240503787994,0.005469403287838213,0.000981485318019986
1772366577080300500,3.839300537109375,-0.034710663375258445,-0.007603542939433827,0.0018324030589312314
1772366577090370300,3.849370361328125,-0.045936406266689295,-0.0013296503017190843,0.001315722241066396
1772366577100440600,3.859440673828125,-0.044134909802675246,-0.0016759292890084906,0.004882328681461513
1772366577110510600,3.869510498046875,-0.046824879539012904,-0.0009994274000870063,0.00645600773897022
1772366577120580400,3.879580322265625,-0.03380465444624424,0.00931698209408205,0.009938260364159941
1772366577130650600,3.889650634765625,-0.02048983032107353,0.0024602937328862024,0.004931830378994345
1772366577140720600,3.899720703125,-0.03680792791545391,-0.005851297011203132,0.0033776597395539284
1772366577150791400,3.90979150390625,-0.03906125980019569,0.001162061482737772,0.009459244675561786
1772366577160861400,3.919861328125,-0.03622574411332607,-0.0008324733353452757,0.009448431020602584
1772366577170929400,3.929929443359375,-0.036222236981987954,-0.0008871717978036031,0.00952259223535657
1772366577180999400,3.93999951171875,-0.0339805955350399,-0.0016730523453326895,0.007945296448655426
1772366577191070500,3.950070556640625,-0.04415244545936584,0.004763693570741452,0.0021963775331154465
1772366577201140500,3.960140380859375,-0.04026069871783256,0.014205996244656852,0.004919957278110087
1772366577211210500,3.97021044921875,-0.0330699104309082,-0.0009057212346466258,0.005236658544465899
1772366577221280500,3.980280517578125,-0.033819267493486405,0.002552552293334156,0.0029640009047463534
1772366577231350500,3.9903505859375,-0.03607143033444881,0.006612527174665592,-0.009030169075913726
1772366577241420500,4.000420654296875,-0.038023733446002,0.005584745896351524,0.0038122517645359038
1772366577251490600,4.010490478515625,-0.041617374023795124,0.002492447003396228,0.00017426058836281298
1772366577261561300,4.020561279296875,-0.03398585623204708,-0.0018893437108257784,-0.0038659912457689643
1772366577271631400,4.03063134765625,-0.032194296640157695,0.008806936512980609,0.0047012364935129876
1772366577281701600,4.04070166015625,-0.035929391515254976,0.000847570439777337,0.0024365064319223162
1772366577291771400,4.050771484375,-0.04130816194415092,0.001303246351983398,0.00218560041077435
1772366577301841400,4.06084130859375,-0.027992168775200842,0.006065241155982949,-0.003719239718839526
1772366577311911700,4.07091162109375,-0.03502513615190982,0.0003799574946053326,0.006129223470017314
1772366577321981400,4.0809814453125,-0.03696867143511772,-0.0011657923763617874,0.005118365927040577
1772366577332052500,4.091052490234375,-0.035627778220176695,0.00024996530623175203,0.000766198599524796
1772366577342122500,4.10112255859375,-0.02740413975417614,0.0065417726265499365,0.006148622290231287
1772366577352192500,4.111192626953125,-0.034140754532814024,0.007794864260451868,0.008185498412698507
1772366577362262500,4.121262451171875,-0.045963878795504565,-0.003125904335035011,-0.0044184374967589975
1772366577372332500,4.13133251953125,-0.041918402796983716,-0.002808846875652671,-0.00055350569691509
1772366577382402300,4.14140234375,-0.029952655193209648,0.004109184317919425,0.007411920224316418
1772366577392472600,4.15147265625,-0.03264788562655449,-0.0024497860386036335,0.011267865000106394
1772366577402543600,4.161543701171875,-0.040429625543951984,0.0004821985929505899,0.002856521942280233
1772366577412613400,4.17161328125,-0.03863455882072449,0.0011787386229028924,-0.007793649550899863
1772366577422683400,4.181683349609375,-0.033550387424230575,0.004753907395666465,-0.0002671630362048745
1772366577432753700,4.191753662109375,-0.03475567156076431,-0.005580878005409613,0.002823240727186203
1772366577442823400,4.201823486328125,-0.04044365406930446,0.0030052005648147314,0.006985803766734897
1772366577452893400,4.2118935546875,-0.022341011145710944,-0.00013365458333864806,0.0036324747508391735
1772366577462963500,4.22196337890625,-0.03790682906806469,0.0011821589892730116,0.003250599293783307
1772366577473034500,4.232034423828125,-0.03880523921251297,0.012185911426786333,-0.0013885317489504814
1772366577483104500,4.2421044921875,-0.029978374156355857,-0.0062040285721654065,-0.002336260927841067
1772366577493174500,4.252174560546875,-0.027587095105648038,0.001383942338800989,0.007315620242990553
1772366577503244300,4.262244384765625,-0.03492927456200123,0.00047296497372444714,0.004529569721035659
1772366577513314600,4.272314453125,-0.04256137687563896,-0.005703632168821059,0.00423800289593637
1772366577523384600,4.282384521484375,-0.03164133893251419,0.0070929037032881745,0.0029745222987607118
1772366577533454300,4.292454345703125,-0.027155133429169653,0.007225941798696294,-0.0014327362168580294
1772366577543524600,4.302524658203125,-0.03628594986796379,-0.0008999536475632339,0.00015500789862126112
1772366577553595600,4.312595703125,-0.04092003940939903,-0.003364823090867139,0.004317717068642378
1772366577563665400,4.32266552734375,-0.036873978888988496,0.00011629702316131442,0.00458951974734664
1772366577573735400,4.3327353515625,-0.04225801001489162,0.0015713957688771188,0.011982077684067189
1772366577583805400,4.342805419921875,-0.0343248789280653,0.0008632703324081375,0.002771145213767886
1772366577593875500,4.35287548828125,-0.02474281159043312,0.00010591719304211437,-0.001748743363469839
1772366577603945500,4.362945556640625,-0.03162380327582359,0.007308574014273471,-0.001540580505505204
1772366577614015500,4.373015380859375,-0.03955050462186336,0.003639187619416043,0.003790003400109708
1772366577624086500,4.38308642578125,-0.03745382460355758,-0.0016550554643385111,0.005342457006499171
1772366577634156500,4.393156494140625,-0.04329202923774719,0.002831182005046867,0.0024489275220781564
1772366577644226600,4.4032265625,-0.03207446965277195,0.011431115570687688,-0.0012671703916043043
1772366577654296300,4.41329638671875,-0.03432780153751373,-0.0013343767091864719,0.0027301190836355087
1772366577664366600,4.42336669921875,-0.03463292196393013,0.007509978337888606,0.00352207317892462
1772366577674436600,4.4334365234375,-0.024913491982221602,0.002319542688480578,0.0059102104244753715
1772366577684506400,4.44350634765625,-0.04152560408711433,0.007654163448396138,0.0028489962229505178
1772366577694576400,4.453576416015625,-0.04316986416280269,0.002750728046824224,0.0011106281230226158
1772366577704647400,4.4636474609375,-0.03164893771708011,0.004917272130679339,0.0012125906601548194
1772366577714717400,4.473717529296875,-0.033597733697295185,0.0060243976889410985,0.0026097075743600723
1772366577724787500,4.483787353515625,-0.03913198694884777,-0.000993906408175826,0.0018904899217188358
1772366577734857500,4.493857421875,-0.04047930990457534,-0.0018993582147639244,0.0038241613980382677
1772366577744927500,4.503927490234375,-0.03494739474058151,-0.0005537020597374066,0.004902019762620329
1772366577754999300,4.513999267578125,-0.04093406793475151,0.0034691785144852472,0.004427278390340507
1772366577765069600,4.524069580078125,-0.04946399587094784,0.007806399434618651,-0.0035232787553220986
1772366577775139600,4.5341396484375,-0.013407178583741188,0.006040613604802638,0.004105024166032672
1772366577785209300,4.544209228515625,-0.03286649681329727,-0.000896204487630166,0.00560600331351161
1772366577795279600,4.554279541015625,-0.04708557630181312,0.009422488295170478,0.009573189911432564
1772366577805350700,4.5643505859375,-0.035115737044811246,0.0015231133474735543,0.005776427976973354
1772366577815420400,4.57442041015625,-0.026142741516232488,-0.00032784371487796306,-0.0006393938820809126
1772366577825490400,4.584490478515625,-0.030934651967883108,0.003072662610723637,-0.0016033070107921957
1772366577835560400,4.594560546875,-0.03722410750091076,-0.005925910317106172,0.001724229976721108
1772366577845630500,4.60463037109375,-0.03647767304778099,0.0021292899465421215,0.005844013320468366
1772366577855700500,4.614700439453125,-0.03691840255260467,-0.001833480771165341,0.0024347528662532567
1772366577865770500,4.6247705078125,-0.037214170628786084,0.007646774726384319,0.0020761121543124315
1772366577875841500,4.634841552734375,-0.03497077561616897,0.007993482971936463,-0.00018269962314516305
1772366577885911600,4.64491162109375,-0.02359481059908867,-0.0049001109333243215,0.003513305350579321
1772366577895981600,4.654981689453125,-0.018214286604523656,-0.0003081389339873567,-0.0058988487802445885
1772366577906051300,4.66505126953125,-0.03228431301116943,0.0001826493907952681,0.004782704231888055
1772366577916121600,4.67512158203125,-0.037231121763587,0.005187969697685912,-0.003798259771801531
1772366577926191600,4.685191650390625,-0.03544073121547699,0.00847239819583483,0.0016169702099636195
1772366577936261400,4.695261474609375,-0.03738660458624363,0.007111736267921514,-0.0006535685379058122
1772366577946331400,4.705331298828125,-0.03858078280687332,-0.000487066564313136,0.006016703006252646
1772366577956402400,4.71540234375,-0.03647241235077381,0.0019723229862749574,0.008110131621547043
1772366577966472400,4.725472412109375,-0.04065525099337101,0.0012106726977042853,0.00304046367444098
1772366577976542500,4.73554248046875,-0.03720364923477173,-0.0014002632859395816,0.008046820594370365
1772366577986612500,4.745612548828125,-0.031212299865484235,0.0007352052396396175,0.0023310367634519933
1772366577996682500,4.7556826171875,-0.02911678889095783,0.010746864200150594,-0.005400178543105721
1772366578006752500,4.76575244140625,-0.026278350594639777,0.006647744618519209,0.008713467809557915
1772366578016822500,4.775822509765625,-0.027331074517965317,0.0029912496712757274,0.002441876726783812
1772366578026893600,4.7858935546875,-0.034226679250597955,0.009286833550990558,-0.002487579032033682
1772366578036967000,4.795966796875,-0.04276595953702926,0.006887996814912185,-0.0023979645198211074
1772366578047037000,4.806036865234375,-0.04397475080490112,0.007019738002377562,0.003334295521862805
1772366578057107000,4.81610693359375,-0.036949966734647746,0.0013756631342228501,0.0005951894141733646
1772366578067176700,4.8261767578125,-0.034707156243920324,0.007811760596325621,0.00803801623340696
1772366578077247000,4.8362470703125,-0.03725976333618164,0.008409986784378997,-0.002342106146737933
1772366578087317000,4.84631689453125,-0.04459609757363796,-0.004757400827272795,-0.0006411839803680778
1772366578097386800,4.85638671875,-0.03636953649818897,0.0006788947754073888,-0.001313932142779231
1772366578107457800,4.866457763671875,-0.030538346126675605,0.007130395302618853,0.0044160628765821455
1772366578117528000,4.876528076171875,-0.020365327158570288,-0.006152202486805617,-0.010147373070195316
1772366578127597800,4.886597900390625,-0.03353577437698841,0.005593477192078717,0.0032440234225243328
1772366578137667800,4.896667724609375,-0.02860533223748207,0.004794814794789999,0.0008413461949676275
1772366578147737900,4.90673779296875,-0.03624094168245792,-0.006256599009619094,0.002072422359883785
1772366578157807900,4.916807861328125,-0.043570261657238006,0.008525356792355887,0.005538637165725231
1772366578167878000,4.9268779296875,-0.021727847683429717,0.0021344227793859316,0.0014047156987711787
1772366578177949000,4.936948974609375,-0.03833411456942558,0.0005384222922148183,0.0014955357873812317
1772366578188018700,4.947018798828125,-0.033844986456632614,0.004845106510189361,-0.005100136150605976
1772366578198089000,4.9570888671875,-0.031304654324054715,0.0007961096805986017,-0.0009925181686878204
1772366578208159000,4.967158935546875,-0.037592356291413304,0.0014081999972229823,-0.00045497722588479515
1772366578218228700,4.977228759765625,-0.02382745031118393,0.0000300252455053851,-0.0021756635386496782
1772366578228299000,4.987299072265625,-0.04597790732085705,-0.004100699617364444,0.00668554217852652
1772366578238369000,4.997369140625,-0.035357144585251805,0.0011801405621226877,0.0025393092192709443
1772366578248438800,5.007438720703125,-0.03475567156076431,0.007542378203570842,0.004872501407191157
1772366578258509800,5.017509765625,-0.030563480567932125,0.002852886946778744,0.0039023412007838485
1772366578268579800,5.027579833984375,-0.03325988004505634,-0.00009768822081387042,0.0033901904275640844
1772366578278649900,5.03764990234375,-0.04194003010690212,0.003110323173413053,0.0018500848460942505
1772366578288720000,5.047719970703125,-0.037300679868459696,-0.002891707420093007,0.0033523061025887728
1772366578298790000,5.057789794921875,-0.01605097109079361,0.00038927787879947573,0.00622965163718909
1772366578308860000,5.06785986328125,-0.028920389536023137,-0.004576687665237114,0.0028907895380631088
1772366578318930000,5.077929931640625,-0.02876607575714588,0.006060396017506718,-0.0005889423364773392
1772366578329001000,5.0880009765625,-0.041030514046549796,0.005882897725864313,0.005230886390805244
1772366578339071000,5.098071044921875,-0.04117605999708175,0.001104938167752698,0.008914397209137677
1772366578349141000,5.10814111328125,-0.032197803771495816,-0.0030890885891392823,0.003536832356639206
1772366578359211000,5.1182109375,-0.028752047231793403,0.0010950789274415,0.004679609183594584
1772366578369280800,5.12828076171875,-0.02396247486770153,0.007788621749333106,0.0069358636777848
1772366578379350800,5.138350830078125,-0.0335492183804512,0.0020971229763003065,0.0032387261928990482
1772366578389421000,5.148421142578125,-0.03969429700672626,-0.0009017802784685045,0.005847045527771115
1772366578399490800,5.15849072265625,-0.04477262318432331,0.002982778670452535,-0.0011252777028828858
1772366578409561900,5.168561767578125,-0.02292845564484596,0.0004694258763454854,-0.00238137871120125
1772366578419631900,5.1786318359375,-0.0396884517878294,0.004019816400879062,0.007622603832930326
1772366578429702000,5.188701904296875,-0.035651743617653844,0.0012775319554144515,0.009203114490024745
1772366578439772000,5.19877197265625,-0.03640402328968048,0.008510793977463618,-0.001383088388852775
1772366578449842000,5.208842041015625,-0.03564882100820541,0.008527900375891476,0.0033991043863818046
1772366578459912000,5.218911865234375,-0.03609656477570534,0.009272366634220815,0.0064084057375788685
1772366578469982000,5.22898193359375,-0.026669980260729788,-0.0016182716844836248,-0.0003544394608587026
1772366578480052000,5.239052001953125,-0.016947627669572828,-0.008629045495693571,-0.00029339345600456
1772366578490123000,5.249123046875,-0.043882980868220324,-0.006837613767967559,0.004623129756003618
1772366578500192800,5.25919287109375,-0.034310265880823136,0.0021587535030441357,0.00226330528948456
1772366578510263000,5.269262939453125,-0.024590251377224922,0.0014402254035696387,0.0016686273319646715
1772366578520332800,5.279332763671875,-0.035221535506844516,-0.0032730988199589773,0.005701170783676207
1772366578530402800,5.28940283203125,-0.03912088103294372,-0.0022162284444784746,0.0017609817905351519
1772366578540473000,5.29947314453125,-0.0528770191848278,-0.0048840320147806775,0.005757796341739595
1772366578550542800,5.30954296875,-0.022350948017835617,0.01064461396865081,-0.0030533962212502953
1772366578560614000,5.31961376953125,-0.04822831659615039,0.00004397157246712595,0.008552870420366525
1772366578570684000,5.329683837890625,-0.04194353723824024,0.0022323438956402242,0.005097651932574808
1772366578580754000,5.33975390625,-0.029374563044309614,0.0039205983766820275,0.0019318448454141615
1772366578590824000,5.349823974609375,-0.040453590941429134,-0.0038068084044381974,0.003900952961295843
1772366578600894000,5.35989404296875,-0.027736732709407803,-0.005973873078101315,-0.0012366291228681802
1772366578610963700,5.369963623046875,-0.025039748710393904,0.0037693853037664665,0.007972476716525852
1772366578621034000,5.380033935546875,-0.032816227930784224,0.0033500228139571844,0.010616524951905012
1772366578631104000,5.39010400390625,-0.043736265873909,0.000936139205796644,0.011432882836088537
1772366578641175000,5.400175048828125,-0.035355975541472434,0.0026600540886865926,-0.0007963014768436551
1772366578651244800,5.410244873046875,-0.03714636608958244,0.0028542706196894867,0.0018790917448699472
1772366578661315000,5.420315185546875,-0.03370236311554908,0.003353689775499515,0.008523973119445145
1772366578671384800,5.430384765625,-0.019494974064826965,0.008537960545602253,0.0025032880578190085
1772366578681454800,5.440454833984375,-0.03446107252836227,0.004666192579595372,-0.00038388475105166435
1772366578691524900,5.45052490234375,-0.04044891476631164,0.005036834256583824,0.002082980286516249
1772366578701595000,5.460594970703125,-0.036705636584758755,0.002079852181090973,0.0009251154882833361
1772366578711665000,5.470664794921875,-0.040001170998811716,0.001538973070308566,0.0036969913544133304
1772366578721736000,5.48073583984375,-0.036115269476175306,0.00028221447486430405,0.004953348091058433
1772366578731805700,5.4908056640625,-0.026391747841238974,0.0011927671482553704,0.008626227917522192
1772366578741876000,5.5008759765625,-0.020110475614666938,0.0025417980038793756,0.005696275412850081
1772366578751946000,5.510946044921875,-0.03746902217268944,0.0025575481288600713,0.007755801758542656
1772366578762015700,5.521015625,-0.03387655063867569,0.006099120592698454,0.0003217793002724647
1772366578772086000,5.5310859375,-0.026241525715589523,0.002006764111993834,0.009373612218722701
1772366578782156000,5.541156005859375,-0.03775543789863586,0.004089913361868821,0.010612689027003944
1772366578792225800,5.551225830078125,-0.02429097616970539,0.0027664462057640773,0.003813530406169593
1772366578802296800,5.561296875,-0.03850128782987594,0.005718354813917539,0.004972381585091352
1772366578812366800,5.571366943359375,-0.02667991713285446,0.0004283997462131083,-0.00012603753246366977
1772366578822436900,5.581436767578125,-0.01516074425280094,0.0015344567253952844,-0.0021471315639093515
1772366578832507000,5.5915068359375,-0.05614391202628612,0.007824789041257463,0.009304748233594
1772366578842577000,5.601576904296875,-0.006466565665602684,-0.004135332539328374,0.008512319214269518
1772366578852647000,5.61164697265625,-0.040725393620133395,-0.001612842024117708,0.010618936104699968
1772366578862717000,5.621717041015625,-0.03877835120558738,0.005023043193249032,-0.002351531562209129
1772366578872787000,5.631786865234375,-0.032332243806123734,-0.00034073059591464697,0.000625584552437067
1772366578882857700,5.641857666015625,-0.027393033838272095,0.0003573118379572406,0.012011632572114466
1772366578892928000,5.651927978515625,-0.027832594299316404,0.007456110992492176,0.006715608523227274
1772366578902998000,5.661998046875,-0.028276830935478208,-0.0034939065303653477,0.0050488078221678735
1772366578913067800,5.67206787109375,-0.03770049284100532,0.00023229721880052237,0.005850808387435972
1772366578923137800,5.6821376953125,-0.036053894677758214,-0.0008889892955543472,0.008427234746702015
1772366578933208000,5.6922080078125,-0.03649287061691284,0.003013109876634553,0.010004201739840209
1772366578943277800,5.70227783203125,-0.029153029248118398,0.01066147833848372,0.018116890644654632
1772366578953347800,5.712347900390625,-0.02255903781056404,0.0032470693295588715,0.006969437153823674
1772366578963419000,5.7224189453125,-0.027643793728947638,0.011091823446610942,0.02037336433455348
1772366578973489000,5.732489013671875,-0.03601765432059765,0.010155638575041667,0.009759908122569322
1772366578983559000,5.742558837890625,-0.03840191910862922,0.0006698575190035626,0.0031322336111217737
1772366578993629000,5.75262890625,-0.03150865246355533,0.01182623866838403,0.006974588252976537
1772366579003699000,5.762698974609375,-0.03374561773538589,0.006102983917063102,0.007748093376122415
1772366579013769000,5.77276904296875,-0.03239303408265114,0.006920040487567894,0.0014570669405162334
1772366579023839000,5.7828388671875,-0.02596095520853996,0.000026883440348319708,0.0036394159482792017
1772366579033906400,5.792906494140625,-0.022968203133344647,-0.001793623684812337,-0.006241086346656084
1772366579043976400,5.8029765625,-0.036138650351762766,-0.0021748506878968327,0.00057126054931432
1772366579054046500,5.81304638671875,-0.033899346992373465,0.000006388641591183841,0.011520341923832892
1772366579064116500,5.823116455078125,-0.03658405603170395,-0.0008070694660302251,0.011256503355875611
1772366579074186500,5.8331865234375,-0.037328152397274966,-0.0012894141894532367,0.0038669410938397047
1772366579084256500,5.843256591796875,-0.03432604797184467,0.0029599914499092847,0.010667597552016376
1772366579094326500,5.853326416015625,-0.030579262658953665,-0.00447977119598072,0.007943469817750156
1772366579104396500,5.863396484375,-0.0428472080796957,-0.00019672814849764107,0.007091163837350905
1772366579114467300,5.87346728515625,-0.041945875325798986,-0.0034591411776607856,0.001043883029744029
1772366579124537300,5.883537353515625,-0.037601124119758605,0.005287137489533051,0.0016235460812225938
1772366579134607600,5.893607666015625,-0.034604864913225175,0.003540234456700273,0.00798339996933937
1772366579144677400,5.903677490234375,-0.03909223946034908,-0.0005160962959751486,0.004248487757332622
1772366579154747400,5.913747314453125,-0.03430032900869846,0.00387465404283721,-0.0007492839973419905
1772366579164817700,5.923817626953125,-0.03953004635572433,0.009605608043423853,0.004539104734361171
1772366579174887400,5.933887451171875,-0.030399814438819884,0.007789923223853111,0.0034446240285411476
1772366579184957400,5.94395751953125,-0.02979600332677364,0.006485453029163182,0.002383789863996208
1772366579195028500,5.954028564453125,-0.036522681233286856,0.004921089789271354,0.012132993929460644
1772366579205098500,5.964098388671875,-0.040409167277812956,0.002887533568474464,0.004612827557697892
1772366579215168500,5.97416845703125,-0.027840777605772016,-0.00002136244843713939,0.0018831103328615425
1772366579225238500,5.984238525390625,-0.027844284737110137,0.005064398116944357,0.006740121909976005
1772366579235308300,5.994308349609375,-0.034276948133110996,0.01095343332265038,0.002152647989243269
1772366579245378600,6.004378662109375,-0.03383271149694919,0.00019324385004583746,0.007128098314255475
1772366579255448600,6.014448486328125,-0.0413046548128128,0.004496740597090683,0.0072125982599332925
1772366579265518300,6.024518310546875,-0.034412557211518285,-0.0030913673111936076,0.008301124149002134
1772366579275589400,6.03458935546875,-0.03171791130006313,0.005250166480010375,0.00801405083592981
1772366579285659600,6.04465966796875,-0.03381283775269985,0.007309615193889476,0.012504092264175414
1772366579295729400,6.0547294921875,-0.03261398335695267,-0.006117985123372636,0.005942578324116766
1772366579305799400,6.06479931640625,-0.03351063993573188,0.00479761867322959,0.0011845701420679687
1772366579315869700,6.07486962890625,-0.025126842471957206,0.005888546581938862,0.0060494727646932004
1772366579325939500,6.084939453125,-0.030068975049257277,0.003370462813787162,0.006275865399092436
1772366579336009500,6.095009521484375,-0.0341027606099844,0.0068983629452995954,0.010033208638615905
1772366579346079500,6.10507958984375,-0.031110008534789083,0.005991440700832754,0.00821063285395503
1772366579356149500,6.1151494140625,-0.03814239138960838,0.003975675865053199,0.00010810001697391271
1772366579366220500,6.125220458984375,-0.036195348975062366,-0.00479129396372009,0.004055887794680893
1772366579376290600,6.13529052734375,-0.04292728757858276,0.007122705186507664,0.0117202118774876
1772366579386360300,6.1453603515625,-0.035297523352503773,0.004266128445300273,0.007040493096038699
1772366579396430600,6.1554306640625,-0.02915945898890495,-0.002538934759935364,0.006795030434988439
1772366579406500600,6.16550048828125,-0.04187865530848503,-0.002120613449742086,0.010974398478865622
1772366579416570400,6.1755703125,-0.0396317531645298,0.002739101541112177,0.018651326314918695
1772366579426640400,6.185640380859375,-0.038135961648821826,0.0009943310998613015,0.004246551528573036
1772366579436710700,6.195710693359375,-0.03992869028449058,0.004561143036233261,0.014799984649010002
1772366579446781400,6.205781494140625,-0.03064998980760574,0.0008778970793820917,0.013934490393474698
1772366579456851500,6.2158515625,-0.04112988276779651,0.0032187245844863353,0.006041545186564326
1772366579466921500,6.22592138671875,-0.03006312983036041,0.0018232744709821417,0.011139562445320189
1772366579476991500,6.235991455078125,-0.03246083862185478,-0.0018642823348054662,0.0052327860869467255
1772366579487061500,6.2460615234375,-0.03456102577149868,0.0037953462955076247,0.005907945402152836
1772366579497131500,6.256131591796875,-0.036816695743799206,0.01392169941056054,0.006857610809803009
1772366579507201500,6.266201416015625,-0.03277764948606491,0.008530370894190854,0.005032002817839384
1772366579517271600,6.276271484375,-0.047593525823950766,0.0018701686528977005,0.014993242198787629
1772366579527342600,6.286342529296875,-0.03907470380365848,0.011945974324224517,0.009974427656084299
1772366579537412400,6.296412353515625,-0.029355858343839643,0.005378514700569212,0.011586173701658844
1772366579547482400,6.306482421875,-0.031004210072755813,0.0026983494056155902,0.006895860460959374
1772366579557552600,6.316552734375,-0.0377408248513937,0.0002750084159430116,0.007898059773445128
1772366579567622400,6.326622314453125,-0.031012393379211425,0.008518219232093543,0.002834163979999721
1772366579577692400,6.3366923828125,-0.03790156837105751,0.0025223854839336126,0.005229205890372395
1772366579587762700,6.3467626953125,-0.035061961030960084,-0.0007652761509176344,0.004551306628808379
1772366579597832400,6.35683251953125,-0.027432196804881095,0.0164168087285012,0.005703253142908215
1772366579607902500,6.36690234375,-0.04568973802924156,0.012339887278946115,0.01136438417714089
1772366579617973500,6.376973388671875,-0.03177694801092148,0.004704177369270473,0.012362309173308312
1772366579628043500,6.38704345703125,-0.04090191923081875,-0.005278858284954913,0.009883936361037194
1772366579638113500,6.397113525390625,-0.04449205267727375,0.003917127777962014,0.010380962630361317
1772366579648183600,6.40718359375,-0.030273557710647582,-0.002206296138931066,0.00760386259984225
1772366579658253300,6.41725341796875,-0.038057635715603826,0.0011026274796575306,0.00068400020878762
1772366579668323600,6.427323486328125,-0.03985153339505195,0.013575123595749028,0.01061685374546796
1772366579678393600,6.4373935546875,-0.02982055324614048,-0.0004383183520287275,0.00832344557866454
1772366579688463400,6.44746337890625,-0.04043722432851791,0.006078004739433526,0.014202347549423575
1772366579698534400,6.457534423828125,-0.03369476433098316,0.006961413677572272,0.009779306942783296
1772366579708604700,6.467604736328125,-0.0339893633633852,-0.00008071881970390677,0.015867723478376866
1772366579718674400,6.47767431640625,-0.03384147932529449,0.007274242486408912,0.005233662869781256
1772366579728744400,6.487744384765625,-0.031150340545177457,0.010590614192513748,0.0038419527830556035
1772366579738814700,6.497814697265625,-0.029947394496202467,0.007478975844848901,0.004109152351878583
1772366579748884500,6.507884521484375,-0.025008769050240517,0.00021177502057980745,0.01352769969087094
1772366579758954500,6.51795458984375,-0.03218143715858459,-0.007902740515139884,0.005268149661272764
1772366579769024500,6.5280244140625,-0.03800970492064953,0.0020248431913787498,0.008153605437092483
1772366579779095300,6.53809521484375,-0.04115267912149429,-0.003463045601220801,0.0026115707378834485
1772366579789165600,6.54816552734375,-0.03861410055458545,-0.00037679285656195134,0.01249002720620483
1772366579799235600,6.558235595703125,-0.047287236353754994,0.005687060059932992,0.00890807706620544
1772366579809305300,6.568305419921875,-0.03261339883506298,0.0047372850544285024,0.010762180500291287
1772366579819375600,6.578375732421875,-0.03933890769779682,0.012184194393735378,0.00569963641371578
1772366579829445600,6.588445556640625,-0.03499649457931518,0.00205655807047151,0.011754333342798054
1772366579839515400,6.598515380859375,-0.036195348975062366,0.00039826033627614376,0.020122494846023617
1772366579849585400,6.60858544921875,-0.0257283154964447,0.006064734265906736,0.012774141377210616
1772366579859655700,6.61865576171875,-0.039650457864999766,0.00764828626345843,0.008758658658154308
1772366579869726500,6.6287265625,-0.03037117286622524,0.003812575991521589,0.006601663287356495
1772366579879796500,6.63879638671875,-0.038299627777934074,0.00043007111349143085,0.00726564362142235
1772366579889866500,6.648866455078125,-0.04444119927287102,0.001826959698833525,0.016103139669448135
1772366579899936500,6.6589365234375,-0.03396773605346679,-0.0019397815566975622,0.014713256213627755
1772366579910006500,6.669006591796875,-0.034569793599843975,-0.0027222919702064243,0.00834821469374001
1772366579920076500,6.67907666015625,-0.037569559937715526,0.0033739973445888606,0.01104439497515559
1772366579930146600,6.689146484375,-0.037871173232793806,0.005588321526348591,0.012770341984927654
1772366579940216600,6.699216552734375,-0.04176408901810646,-0.00017971764819230883,0.010483071297965944
1772366579950287600,6.70928759765625,-0.03518178801834583,0.003396574502578005,0.01749769930038601
1772366579960357400,6.719357421875,-0.03667933309972286,0.004002554738824255,0.012860321823321282
1772366579970427400,6.729427490234375,-0.029199790999293325,0.005634864081814885,0.009515979831479488
1772366579980497700,6.73949755859375,-0.03608370529413223,-0.0004262214888585731,0.011299392649531365
1772366579990567400,6.7495673828125,-0.03922843306064606,0.005190084022958763,0.009318886356800794
1772366580000637400,6.759637451171875,-0.03145136931836605,0.012241614536242559,0.01027600441854447
1772366580010707700,6.769707763671875,-0.03385024715363979,0.0013106076745316385,0.005217807713523506
1772366580020777500,6.779777587890625,-0.029654549029469488,0.012466157706850207,0.013462050576135516
1772366580030847500,6.789847412109375,-0.03668751640617847,0.007104379511950537,0.007954137342236935
1772366580040918300,6.799918212890625,-0.036978608307242394,0.012272909290227106,0.009957914912700653
1772366580050988500,6.809988525390625,-0.03517652732133865,0.0065139210718218234,0.016536489585414527
1772366580061058300,6.820058349609375,-0.026640754166245458,-0.001298844171501696,0.01474043648149818
1772366580071128300,6.83012841796875,-0.0353226577937603,0.0062369718605419615,0.0037549686193466183
1772366580081198300,6.8401982421875,-0.04460252731442451,-0.001223449980886653,0.01133183361440897
1772366580091268400,6.850268310546875,-0.03712707686722278,0.004657799210585654,0.009667955522798002
1772366580101338400,6.86033837890625,-0.0345820685595274,0.00983257606655825,0.00576141307093203
1772366580111408400,6.870408447265625,-0.027702830439805985,-0.0010015325922053306,0.004602634957246482
1772366580121478400,6.880478515625,-0.03068798373043537,0.005728766610077582,0.010627923128753899
1772366580131549400,6.890549560546875,-0.03352992915809154,0.007016998056019656,0.011657046980783342
1772366580141619500,6.900619384765625,-0.03547287991940975,0.0026988197630736974,0.017679339477606117
1772366580151689200,6.910689208984375,-0.04071604126989841,0.006208243522979319,0.010361929136328399
1772366580161759500,6.920759521484375,-0.03831716343462467,0.009202310772426427,0.00987951591424644
1772366580171829500,6.93082958984375,-0.029936873102188108,0.006413355907332152,0.0043446416081860655
1772366580181899300,6.940899169921875,-0.038167525830864905,0.005056073246593587,0.013003602751530707
1772366580191969300,6.95096923828125,-0.034275194567441936,0.0013368837601039558,0.014399952480755745
1772366580202039600,6.96103955078125,-0.03787058871090412,0.013376189790433273,0.014915464254841207
1772366580212109300,6.971109375,-0.03143558722734451,0.009489740278525277,0.013578845356218516
1772366580222180400,6.981180419921875,-0.03068623016476631,0.0007774278130149468,0.01706657787412405
1772366580232250400,6.99125048828125,-0.03248012784421444,0.004430981884500943,0.012034100132249296
1772366580242320400,7.0013203125,-0.018860183292627335,0.0036753868773812424,0.008786715708859265
1772366580252390400,7.011390380859375,-0.026196517530083653,0.0009189232095144688,0.005402370500192046
1772366580262460400,7.02146044921875,-0.025450083076953886,0.00012920673708431422,0.019428594297729432
1772366580272530400,7.031530517578125,-0.03129121032059193,0.010808252698299475,0.012721936265937983
1772366580282600400,7.041600341796875,-0.030098201143741607,0.009232372550549916,0.006022292496822774
1772366580292670500,7.05167041015625,-0.04281505937576294,0.0036192225436214357,0.010143354482203722
1772366580302740200,7.061740234375,-0.044157706156373024,0.008627972350036725,0.007412504746206104
1772366580312811300,7.071811279296875,-0.029790742629766463,0.008848848559102044,0.0028160438014194367
1772366580322881500,7.081881591796875,-0.02874561749100685,-0.0024588506944710387,0.009654913378134369
1772366580332951300,7.091951416015625,-0.037573067069053646,-0.00098826211867854,0.003571538343839347
1772366580343021300,7.102021240234375,-0.035030396848917005,0.004071980412956327,0.008329363862797617
1772366580353091600,7.112091552734375,-0.0315887319624424,0.008269299672055058,0.01863839376810938
1772366580363161300,7.122161376953125,-0.03907119667232036,0.003558806726429611,0.01605820454917848
1772366580373231400,7.1322314453125,-0.03383271149694919,-0.0018741552748484536,0.004705328146740794
1772366580383301400,7.14230126953125,-0.03053893064856529,0.002113471322902478,0.014617540754191577
1772366580393371400,7.152371337890625,-0.03188976073563099,-0.0027937726041069254,0.008511405898816883
1772366580403442400,7.1624423828125,-0.024710662886500357,-0.0009330704658757895,0.010539404595084487
1772366580413512400,7.172512451171875,-0.0230617266356945,0.0005759093249682336,0.016141389320604504
1772366580423582200,7.182582275390625,-0.033389643904566765,0.005879851818829774,0.010403210994787514
1772366580433652500,7.192652587890625,-0.030245500659942626,0.00010175247457809745,0.010125343901477754
1772366580443722500,7.202722412109375,-0.030849311771988866,0.009875090900878422,0.014500124919600784
1772366580453792300,7.212792236328125,-0.027854806131124496,0.003578580005979165,0.007501863530091941
1772366580463862500,7.222862548828125,-0.029802433067560193,0.0013666624104371294,0.005785305403172969
1772366580473932300,7.232932373046875,-0.035187633237242694,0.0025439031959977,0.012557685614936052
1772366580484003300,7.24300341796875,-0.03503858015537262,0.003039171333075501,0.012065116325020789
1772366580494073300,7.2530732421875,-0.044021512556076045,0.013224323696969076,0.009264123962260782
1772366580504143400,7.263143310546875,-0.030264205360412594,0.008317531861108727,0.009651698507741092
1772366580514213400,7.27321337890625,-0.030269466057419776,0.006219235274451784,0.003990969332307577
1772366580524283400,7.283283447265625,-0.03446107252836227,0.00037634533199016,0.014690386794693767
1772366580534353400,7.293353515625,-0.03596504735052585,0.0060635926215909415,0.006424553154781461
1772366580544423400,7.30342333984375,-0.03836509422957897,-0.000031587014929391444,0.0038990532651543616
1772366580554493400,7.313493408203125,-0.04106149370670319,0.005323035353398882,0.019054573353566227
1772366580564563200,7.323563232421875,-0.034625323179364204,0.005564187165512703,0.016280468997731803
1772366580574634200,7.33363427734375,-0.034626492223143575,0.00509498048487585,0.001903130207583308
1772366580584704500,7.34370458984375,-0.03582183948755264,0.007866911149933003,0.012105594465881586
1772366580594774500,7.3537744140625,-0.047345104020833965,0.003951235543540679,0.017612082927674053
1772366580604844300,7.36384423828125,-0.038059973803162575,0.010144107967452146,0.01762636718135327
1772366580614914300,7.373914306640625,-0.024887773019075392,0.015876441074372267,0.00816189834140241
1772366580624984300,7.383984375,-0.028183307433128354,0.010360230369586497,0.011554317258670925
1772366580635054300,7.394054443359375,-0.03237549842596054,0.004048426007432863,0.021838541516289115
1772366580645124400,7.404124267578125,-0.03477028460800648,0.000964374353014864,0.013153715279325842
1772366580655194400,7.4141943359375,-0.03402268111109733,0.007265337660745717,0.007610401938483119
1772366580665264400,7.424264404296875,-0.033875381594896316,0.006502486362354829,0.01024487862791866
1772366580675335400,7.43433544921875,-0.0292401230096817,0.010553227624460123,0.00925959391761571
1772366580685405400,7.444405517578125,-0.03642272799015045,0.0021665988827822727,0.012848083396255969
1772366580695475500,7.454475341796875,-0.031339141115546226,0.015098410473158581,0.014559015499986708
1772366580705545500,7.46454541015625,-0.04390811530947685,0.0024186693811323492,0.0031854981683194636
1772366580715615200,7.474615234375,-0.03837035492658615,0.009648524736543186,0.0038163799503818153
1772366580725685200,7.484685302734375,-0.045998950108885765,0.005763573061977513,0.00511913311202079
1772366580735755500,7.494755615234375,-0.040759880411624906,-0.003832787662488408,0.01278827950041741
1772366580745825300,7.5048251953125,-0.036872225323319435,0.010578932887874542,0.005246814612299203
1772366580755895300,7.514895263671875,-0.032685879549384116,0.0044403616341995075,0.01590118735656142
1772366580765966300,7.52496630859375,-0.030298107630014417,0.0025854088167427108,0.010055676198750734
1772366580776036400,7.535036376953125,-0.027317045992612837,0.01085695524481125,0.007993775232881308
1772366580786106400,7.5451064453125,-0.03764087160825729,0.004654575207037851,0.0051563233172521
1772366580796176400,7.55517626953125,-0.036003625795245166,0.004648163732560351,0.004195698124170303
1772366580806246400,7.565246337890625,-0.034359365719556806,0.0007063216384500265,0.014320895895175635
1772366580816316400,7.57531640625,-0.0463414799362421,0.007096890325238928,0.014535050102509557
1772366580826386400,7.585386474609375,-0.033926819521188735,0.007542419302766211,0.010367116768099366
1772366580836456200,7.595456298828125,-0.028087445843219757,0.011393678770284167,0.01209185820147395
1772366580846526500,7.6055263671875,-0.03736263918876648,0.002213963422155939,0.007818382133357227
1772366580856597500,7.615597412109375,-0.03990706297457218,0.014534890272305347,0.011105294849537312
1772366580866667300,7.625667236328125,-0.03062953154146671,0.006770832142070866,0.015268880802392958
1772366580876737300,7.6357373046875,-0.03137245886325836,0.004350655790441669,0.013141440319642424
1772366580886807600,7.6458076171875,-0.030175358033180236,0.013601513845752923,0.005064188054390252
1772366580896877300,7.655877197265625,-0.04244564154148102,-0.004467254207702353,0.011329239798523485
1772366580906947300,7.665947265625,-0.0460363595098257,0.0017766816831659524,0.010143500612676142
1772366580917017300,7.676017333984375,-0.032715105643868446,0.0010679351921891794,0.010370806562528014
1772366580927087400,7.68608740234375,-0.021642507487535476,0.0015337260730331763,0.0060294894225895405
1772366580937157400,7.696157470703125,-0.029728783309459685,-0.0009389202513499185,0.011285583319887518
1772366580947227400,7.706227294921875,-0.03736965345144272,0.004029958768980577,0.008226889869011938
1772366580957298200,7.716298095703125,-0.03752162914276123,0.008235452201380394,0.008471220018900931
1772366580967368400,7.726368408203125,-0.039921676021814345,0.005551400749175809,0.00519365965295583
1772366580977438500,7.7364384765625,-0.034086978518962856,0.004280691260192543,0.01519976108893752
1772366580987508200,7.74650830078125,-0.03453589133024215,0.005362335317325778,0.015056991617381572
1772366580997578500,7.75657861328125,-0.03618424305915832,0.011088224983727558,0.008282821307331323
1772366581007648500,7.7666484375,-0.03453647585213184,0.006395907015609555,0.0081604735692963
1772366581017718300,7.77671826171875,-0.049046062719821926,0.014094443895271978,0.01306304132118821
1772366581027788300,7.786788330078125,-0.02884673977792263,0.009900216208980418,0.00822656107544899
1772366581037858000,7.796858154296875,-0.04186813391447067,0.014002518694964237,0.007866422526165843
1772366581047927800,7.806927734375,-0.03887538183927536,0.003454474135697819,0.014621742005273698
1772366581057998800,7.816998779296875,-0.02765899129807949,0.006376046971092,0.004911152917146683
1772366581068068900,7.82706884765625,-0.03095803284347057,0.007363035014714114,0.015676402157358823
1772366581078139000,7.837138916015625,-0.04098959751427173,0.003139540134742856,0.01166789716836065
1772366581088209000,7.847208984375,-0.035004677885770795,0.0008074347922112792,0.014365136895701288
1772366581098279000,7.85727880859375,-0.04502922829389572,0.0013077809632057323,0.009612608606368303
1772366581108349000,7.867348876953125,-0.04054594539999962,0.004854906384996138,0.004250971975363791
1772366581118419000,7.8774189453125,-0.04713058448731899,0.014003920634184031,0.010824541679397224
1772366581128489000,7.887489013671875,-0.0378495459228754,0.006310416122665629,0.009848097862675785
1772366581138559000,7.89755908203125,-0.03768997144699097,0.000898401011293754,0.014993570992350578
1772366581148629000,7.90762890625,-0.030202246040105817,0.009247862380626611,0.010183211568556725
1772366581158700000,7.917699951171875,-0.04082826947271823,0.007498644093121402,0.005940495964884758
1772366581168768000,7.92776806640625,-0.04082943851649761,0.0076625111516332245,0.005945683596655726
1772366581178838000,7.937838134765625,-0.037547932627797126,0.0031215752197895196,0.010022468048892915
1772366581188907800,7.94790771484375,-0.023487258571386335,-0.0028663766160141675,0.004055011011846363
1772366581198978000,7.95797802734375,-0.03366904536783695,0.0070085818541236215,0.011690912717767059
1772366581209049000,7.968049072265625,-0.04998363583087921,0.004980217831674963,0.009923720382153988
1772366581219118800,7.978118896484375,-0.04504559490680694,-0.005588417424471117,0.013651070342212914
1772366581229188900,7.98818896484375,-0.03441898695230484,0.008961953544756398,0.005633329711854458
1772366581239259000,7.9982587890625,-0.029926936230063438,0.0014929648043820634,0.005403320348262786
1772366581249329000,8.008328857421875,-0.03126490683555603,0.0017163617640966549,0.013384564893133938
1772366581259399000,8.01839892578125,-0.04204407500326633,0.008642740660905838,0.010414901432581246
1772366581269469000,8.028468994140624,-0.0387426953703165,0.014649511361611075,0.012870112564973533
1772366581279539000,8.0385390625,-0.04383271198570728,0.011084996413602492,0.015782894739136098
1772366581289609000,8.04860888671875,-0.03769230953454971,0.007687567961076274,0.007649637970328331
1772366581299678700,8.0586787109375,-0.046671150282025335,0.0023979188540484754,0.00945117096696049
1772366581309749800,8.068749755859375,-0.029468671068549154,0.0033101885604904964,0.008868987164832651
1772366581319820000,8.078820068359375,-0.040242578539252276,0.011388285642536357,0.007227759296447038
1772366581329890000,8.08889013671875,-0.03396130631268024,0.014161115923314354,0.010865165950730442
1772366581339959800,8.098959716796875,-0.034410803645849225,0.005965118949487805,0.013405498083308338
1772366581350029800,8.10902978515625,-0.042642040896415705,-0.0025565526150166987,0.010690540036186575
1772366581360100000,8.11910009765625,-0.03201894007325172,0.00013012005253694952,0.01110690228473395
1772366581370169900,8.129169921875,-0.033217794468998904,0.009607909598364495,0.012247048763185739
1772366581380240000,8.139239990234374,-0.03515490001142025,0.005857146796677261,0.010037336824461817
1772366581390310000,8.149309814453124,-0.03305412833988666,0.004845380504825152,0.0139210098573938
1772366581400380000,8.1593798828125,-0.030503859335184097,0.008405657669133506,0.01299910923950374
1772366581410450000,8.169449951171876,-0.03335223450362682,0.009124414097471162,0.01720591327957809
1772366581420521000,8.17952099609375,-0.03470248006880283,0.004969509207992814,0.010545176748745142
1772366581430591000,8.189591064453126,-0.04382394415736198,0.006940475920820608,0.005463635700754821
1772366581440661000,8.199660888671875,-0.04516308380663395,-0.0012176047619897872,0.016412680542655288
1772366581450730800,8.209730712890625,-0.03288637055754661,0.00645938700614497,0.009809409820102154
1772366581460800800,8.21980078125,-0.034381577551364895,-0.0054038272383389995,0.008187799967639148
1772366581470871000,8.22987109375,-0.03213467540740966,-0.0018431116826133802,0.008833112133853138
1772366581480940800,8.23994091796875,-0.035876200023293496,0.0040571573031600566,0.008379998071491718
1772366581491010800,8.2500107421875,-0.033029578420519824,0.002164685486909002,0.007850384706817566
1772366581501081000,8.2600810546875,-0.033325931018590924,0.009970596297760493,0.011220482194423675
1772366581511150800,8.27015087890625,-0.03602116145193576,0.003456597594125196,0.017288257800787687
1772366581521222000,8.280221923828124,-0.041401685446500774,0.009421346650854683,0.011452646982483565
1772366581531292000,8.2902919921875,-0.03990823201835155,0.005256020832061767,0.004186491904407739
1772366581541362000,8.30036181640625,-0.03167874833345413,0.0035780685493256893,0.009850435950234531
1772366581551432000,8.310431884765626,-0.0309305603146553,0.007308911940990947,0.010595555229112505
1772366581561502000,8.320501953125,-0.036624972563982006,0.003113300581788644,0.007109247483313083
1772366581571571700,8.33057177734375,-0.03707037824392319,0.0019491567398188634,0.020073139278963207
1772366581581642000,8.34064208984375,-0.03182955498099327,0.0033513105887454002,0.011011588684096931
1772366581591712000,8.3507119140625,-0.037056349718570705,0.0036352146971970795,0.0161616283910349
1772366581601781800,8.36078173828125,-0.04392682000994682,0.0064845260139787565,0.01617182099148631
1772366581611852000,8.37085205078125,-0.04556815747618675,0.005789776082313619,0.008180858770199119
1772366581621922000,8.380922119140624,-0.03539163137674332,0.005590970141161233,0.005059950270690024
1772366581631992800,8.390992919921874,-0.03794073133766651,0.006672673563798889,0.011648754076473413
1772366581642062800,8.401062744140624,-0.02851122421324253,0.008803397415601648,0.0015383154831826685
1772366581652132900,8.4111328125,-0.02642155845761299,0.0060471027110936115,0.012922938730753957
1772366581662203000,8.421202880859376,-0.050066053417325014,0.0087305833411403,0.017838000638037917
1772366581672273000,8.43127294921875,-0.03899637787044048,-0.000832948259380646,0.016866671387851237
1772366581682343000,8.441343017578125,-0.0437882883220911,0.006899792283982969,0.011867146067507564
1772366581692413000,8.451412841796875,-0.035113983479142186,-0.002407590864691883,0.011148220675811171
1772366581702483000,8.46148291015625,-0.04903787941336631,0.0018888002881314605,0.01024137149658054
1772366581712553000,8.471552978515625,-0.02868774982392788,0.014655772139038889,0.013497889074496923
1772366581722623000,8.481623046875,-0.03213058375418186,0.013363627136382273,0.01435015852227807
1772366581732693000,8.49169287109375,-0.030938743621110914,-0.0008678551759803667,0.01526990371569991
1772366581742762800,8.5017626953125,-0.04036532813608646,0.003811740307882428,0.013191855332627891
1772366581752833800,8.511833740234374,-0.0358843833297491,0.0060820461603114375,0.008218779627792537
1772366581762903800,8.52190380859375,-0.03603635902106762,0.010448630172247066,0.010861549221538007
1772366581772974800,8.531974853515624,-0.0460626629948616,0.0055803391492925585,0.009366671021282672
1772366581783044900,8.542044921875,-0.04800269114673138,0.0014263932410394772,0.011434745999611914
1772366581793115000,8.552114990234376,-0.0442588284432888,0.003982895623706281,0.011632022137381137
1772366581803185000,8.562184814453126,-0.03976327058970928,0.0008960492240032181,0.008173479181341826
1772366581813255000,8.5722548828125,-0.037217677760124204,-0.0029551737108966334,0.01478749049361795
1772366581823325000,8.582324951171875,-0.03422843281626701,-0.0007209027196513489,0.009906842312589287
1772366581833395000,8.59239501953125,-0.028243513187766075,0.0013998842600267379,0.008980228986963629
1772366581843465000,8.60246484375,-0.035271804389357564,0.003213459320901893,0.018521160596609115
1772366581853535000,8.612534912109375,-0.038567923325300214,0.009095548762590625,0.012593487580679356
1772366581863605000,8.62260498046875,-0.03691840255260467,0.005368650893680751,0.009530739009194076
1772366581873674800,8.6326748046875,-0.03931611134409904,0.0005407284137327223,0.010645568383298814
1772366581883745800,8.642745849609375,-0.03288344794809818,0.008258412951859645,0.016309914287924766
1772366581893816000,8.652816162109374,-0.04051847287118435,0.004523660570057109,0.006822356833331287
1772366581903885800,8.6628857421875,-0.04141220684051514,0.005039816231536679,0.009468816221505402
1772366581913955800,8.672955810546876,-0.04380056328177452,0.0022774936450412494,0.011569916686601936
1772366581924026000,8.683026123046876,-0.03182721689343452,0.002644925018213689,0.015235891848243772
1772366581934096000,8.693095947265626,-0.03212766114473343,0.0058333686288679016,0.010541340823844074
1772366581944166000,8.703165771484375,-0.02763794851005077,0.00287736380090937,0.016532872856222094
1772366581954236000,8.71323583984375,-0.030776246535778044,-0.005409439561795443,0.016617628530226646
1772366581964306000,8.723305908203125,-0.018498948764801026,-0.002104534531198442,0.01933123487047851
1772366581974376000,8.7333759765625,-0.04033960917294025,0.0048656241418328135,0.01827485768534243
1772366581984445700,8.74344580078125,-0.05664660085141658,0.003175940322107635,0.01894245474860072
1772366581994516000,8.753515869140625,-0.055743514531850814,0.004491854359419085,0.015317980641126631
1772366582004587000,8.7635869140625,-0.04270809186995029,0.00811222768051084,0.02081624926384538
1772366582014657000,8.773656982421874,-0.04360591749250889,0.010202085232385433,0.01797309825979173
1772366582024726800,8.783726806640624,-0.044054830303788185,0.002814701227704063,0.011687222923338413
1772366582034797000,8.793797119140624,-0.03058861500918865,0.006314014585549012,0.010618241984955966
1772366582044867600,8.80386767578125,-0.02475625559389591,0.005821020603948272,0.01845679012350738
1772366582054937600,8.8139375,-0.029397943919897078,0.001282774386112578,0.013597184730507432
1772366582065007600,8.824007568359375,-0.032389526951313016,-0.004796536394418217,0.007921404116414487
1772366582075077600,8.83407763671875,-0.0385252532273531,-0.0030797179725952444,0.010458338715508579
1772366582085147600,8.844147705078125,-0.03942600145936012,-0.0026782655988121405,0.022198570467717945
1772366582095217700,8.8542177734375,-0.035980829441547395,0.0034856547252507877,0.01181749823950231
1772366582105287400,8.864287353515625,-0.03417816393375397,0.0006443075192160904,0.01617931017819792
1772366582115357700,8.874357666015625,-0.040159576430916784,0.0007346846498316154,0.0205962863702327
1772366582125427700,8.884427734375,-0.03655833706855774,0.008676574431848712,0.016503537163883447
1772366582135498500,8.89449853515625,-0.03595569500029087,0.001474191605253145,0.01881506550926715
1772366582145568500,8.904568603515624,-0.039245968717336654,-0.0006917177243623882,0.01839055648688227
1772366582155638800,8.914638671875,-0.036250294032692906,0.008511104504717513,0.015632234222069382
1772366582165708500,8.92470849609375,-0.036547231152653695,-0.004608786136819981,0.013751535042002796
1772366582175778600,8.934778564453126,-0.02546995682120323,0.011452304489188827,0.014757424148917198
1772366582185848800,8.944848876953126,-0.03490472464263439,0.008242114837607369,0.01367021343410015
1772366582195918600,8.954918701171875,-0.04419219294786453,0.0036497318463167175,0.014780110904760658
1772366582205988600,8.964988525390625,-0.036707390150427816,0.002643527645571157,0.018447912697307764
1772366582216058600,8.97505859375,-0.03626256899237632,0.003749812953616492,0.021183584738895297
1772366582226128600,8.985128662109375,-0.020846973195672035,0.007811418103030882,0.014045878346078096
1772366582236198700,8.99519873046875,-0.04299392307400703,0.0022454910715809092,0.014023849177360534
1772366582246268400,9.005268310546874,-0.03910743702948093,0.0032207749776775015,0.016066789714433254
1772366582256339500,9.01533935546875,-0.041647769162058826,0.005477481563016772,0.0028235695207491514
1772366582266409700,9.02540966796875,-0.052265609288215636,0.006155166195449419,0.009285385945998132
1772366582276479700,9.035479736328124,-0.056169046467542644,0.006988817707728594,0.024849961759336292
1772366582286549500,9.045549560546876,-0.02355681667625904,0.004485296754469163,0.009685491179488599
1772366582296619800,9.055619873046876,-0.03583177635967731,0.0012921587023884057,0.014656228796765208
1772366582306689800,9.065689697265626,-0.04017828113138675,0.0030785854614339765,0.02107438874337822
1772366582316759600,9.075759521484375,-0.041972178810834884,0.013558619985519908,0.014529606742411851
1772366582326829600,9.08582958984375,-0.043460956063866615,0.008270939073292538,0.013672734184749423
1772366582336899600,9.095899658203125,-0.04584872798323631,0.013650389922200702,0.016379764653742312
1772366582346969600,9.105969482421875,-0.03701426414251327,0.002581769254663959,0.011283829754218459
1772366582357039600,9.11603955078125,-0.031031682601571083,0.006397532717115246,0.011374247984029352
1772366582367109600,9.126109619140625,-0.042112464064359666,0.0016723445258568972,0.017182642001844942
1772366582377179600,9.1361796875,-0.042704584738612175,-0.002506968719093129,0.01959291801396757
1772366582387250700,9.146250732421874,-0.03283084097802639,0.0014395084509393199,0.01595518256612122
1772366582397320400,9.156320556640624,-0.022053426375985143,-0.0052782646299106995,0.007807057021744549
1772366582407390700,9.166390625,-0.04389642487168312,0.0015289768326794727,0.012673092155531048
1772366582417460700,9.176460693359376,-0.04224982670843601,0.007872993830847554,0.01028396852929145
1772366582427530500,9.186530517578126,-0.036271336820721624,0.007636088935588486,0.011016520587541162
1772366582437600500,9.1966005859375,-0.03582710018455982,0.0049581886629574,0.016008045264519752
1772366582447670800,9.2066708984375,-0.037919688549637794,0.007161438894853927,0.013661116812191903
1772366582457740500,9.216740478515625,-0.036276597517728805,-0.0010660035300068557,0.01745660010501742
1772366582467810600,9.226810546875,-0.03942190980613231,0.005791470282478258,0.01648351728916168
1772366582477880800,9.236880859375,-0.026859365352988242,0.006876548405713401,0.013057049971818923
1772366582487950600,9.24695068359375,-0.03957388549745083,0.0031082225478719916,0.004174472673051059
1772366582498020600,9.2570205078125,-0.043754970574378965,0.0039814023529412225,0.010798713118396698
1772366582508090600,9.267090576171874,-0.03388122681379318,0.009067281649331562,0.016277436790429055
1772366582518161400,9.277161376953124,-0.029392683222889897,0.007761587611935101,0.013722820404171943
1772366582528231700,9.287231689453124,-0.03059212214052677,0.0004449718551011756,0.019363748900592326
1772366582538301700,9.2973017578125,-0.03553016306459904,0.008127758609782904,0.017716383552365003
1772366582548371500,9.307371337890626,-0.054230187359452245,0.013115967951668426,0.010085304152034222
1772366582558441700,9.317441650390625,-0.03388005777001381,0.004035406695655547,0.015614369771815835
1772366582568511700,9.32751171875,-0.041513329127430915,0.011863835298991762,0.015134221572056412
1772366582578581500,9.33758154296875,-0.04256079235374927,0.009930474349926225,0.011545622495561838
1772366582588651800,9.34765185546875,-0.04181552694439888,0.01401677098260261,0.010468348652869462
1772366582598721800,9.3577216796875,-0.04212298545837402,0.005179754425189457,0.010118402704037726
1772366582608791600,9.36779150390625,-0.04003448874652386,0.00925982224647887,0.012785904880240558
1772366582618861600,9.377861572265624,-0.027468437162041663,0.0022598118578782303,0.012090652625076472
1772366582628931600,9.387931640625,-0.03360767056941986,-0.000024741715611889955,0.012151479434221983
1772366582639001600,9.398001708984374,-0.035711364850401876,0.007416806461988016,0.01224043635930866
1772366582649071600,9.408071533203126,-0.04095218811333179,0.0042822986953891815,0.01635086735282093
1772366582659142700,9.418142578125,-0.03646189095675945,0.002913079001684673,0.012033369479887188
1772366582669212700,9.428212646484376,-0.040053193446993825,0.002969220502558164,0.013086677925102413
1772366582679282700,9.43828271484375,-0.03900514569878578,0.007932286270032637,0.02372592616546899
1772366582689352400,9.4483525390625,-0.040052608925104136,0.001430553392926231,0.014771123880706727
1772366582699422700,9.458422607421875,-0.030327333724498747,0.003805529762804508,0.01658814670741558
1772366582709492700,9.46849267578125,-0.03242342922091484,0.0012011787835741416,0.011334098636731505
1772366582719562500,9.4785625,-0.0346644861459732,0.008566510786651634,0.013825732789374887
1772366582729632500,9.488632568359375,-0.03661328212618828,0.006686989783518948,0.01016129199769348
1772366582739702800,9.498702880859375,-0.034520109239220616,0.006175665560783818,0.016246530195511876
1772366582749772500,9.5087724609375,-0.03436930259168148,0.007472573503525927,0.011316270719096064
1772366582759842600,9.518842529296874,-0.041858781564235684,0.004739221283188089,0.01741601236630231
1772366582769912800,9.528912841796876,-0.02390577624440193,-0.002125344423786737,0.014460961952991782
1772366582779982600,9.538982666015626,-0.040216275054216384,-0.0005232840885873883,0.017622604321688412
1772366582790052600,9.549052490234375,-0.04276362144947052,0.00621356358549092,0.013357603820972144
1772366582800123600,9.55912353515625,-0.04142448180019855,0.002624087726161815,0.0077947089968249195
1772366582810193700,9.569193603515625,-0.039186932006478305,0.005721396154374815,0.005366422403976321
1772366582820263700,9.579263671875,-0.03469721937179565,0.008394729849742724,0.008665427416749298
1772366582830333700,9.589333740234375,-0.037840778094530104,0.005185974103421904,0.010729849133267999
1772366582840403500,9.599403564453125,-0.04621756129562855,0.005899917359324172,0.015005480625852942
1772366582850473700,9.6094736328125,-0.04277823449671268,0.007105717519088648,0.01776906358767301
1772366582860543700,9.619543701171875,-0.035892566636204715,0.006176140484819188,0.01960950382258743
1772366582870613500,9.629613525390624,-0.042327568119764326,0.006502052537514828,0.01106916409023106
1772366582880683800,9.639683837890624,-0.025713702449202538,0.00228912471733056,0.006225815712288022
1772366582890753500,9.64975341796875,-0.03693710725307464,0.0007564626567997038,0.018032463764213025
1772366582900823600,9.659823486328126,-0.04158054914474487,0.011643068687780759,0.012970029275491833
1772366582910893600,9.6698935546875,-0.030216274565458296,0.012210557244275696,0.004253529258631169
1772366582920963600,9.679963623046875,-0.033354572591185565,0.006357967891707085,0.01915503805335611
1772366582931033600,9.69003369140625,-0.04009118736982345,-0.004023433130071499,0.01757770573403686
1772366582941104600,9.700104736328125,-0.02138181072473526,0.003703005536668934,0.016329605369083584
1772366582951174700,9.710174560546875,-0.036948797690868375,-0.0012331402578391133,0.010953903680108486
1772366582961244700,9.72024462890625,-0.0442804557532072,0.010008366458304226,0.005568520847335457
1772366582971314700,9.730314697265625,-0.03709785077273845,0.002187395075638778,0.021570063305832443
1772366582981384400,9.740384521484375,-0.034706571722030635,0.0026918009338201955,0.014471592944860457
1772366582991454700,9.750454833984374,-0.04144318650066852,0.004175806113611906,0.021583032385259864
1772366583001524700,9.760524658203124,-0.04249123424887657,0.004298318248428404,0.00645027211792767
1772366583011594500,9.770594482421876,-0.04084814321696758,0.007901073714438826,0.016112528552301227
1772366583021664500,9.78066455078125,-0.02648819395303726,0.00409826563168317,0.01837634529843926
1772366583031734800,9.79073486328125,-0.029031448695063588,0.006740779497101903,0.016735482756234703
1772366583041808000,9.800807861328124,-0.029487375769019126,0.00043317638603039083,0.012675174514763056
1772366583051878000,9.8108779296875,-0.030690906339883802,0.013871823253692126,0.013429025089368224
1772366583061948000,9.820947998046876,-0.04311667267084122,0.004163567686546594,0.014800824899226427
1772366583072018000,9.831017822265625,-0.04027706533074379,0.006442691599670797,0.018158501296676694
1772366583082088000,9.841087890625,-0.03488134376704693,0.003121168794413097,0.012682590636238455
1772366583092158700,9.85115869140625,-0.029487375769019126,0.001979972003190778,0.017945844926685092
1772366583102229000,9.86122900390625,-0.035620763957500454,0.012649706713366321,0.01245842649154365
1772366583112299000,9.871299072265625,-0.022604630517959592,0.0005679041150258853,0.006122939859703183
1772366583122368800,9.88136865234375,-0.03068447659909725,0.0085948144325288,0.013453173149935901
1772366583132438800,9.891438720703125,-0.041300563159584996,0.005008918769774027,0.01574146675020456
1772366583142509000,9.901509033203125,-0.0439887793302536,0.003986868545925244,0.012433255517669021
1772366583152578800,9.911578857421874,-0.03126899848878383,0.006701589131029322,0.003923603184521198
1772366583162648800,9.92164892578125,-0.02228372800052166,0.006894513320666738,0.013654942799732088
1772366583172718800,9.93171875,-0.03366320014894009,0.010841017890162766,0.008680076996609568
1772366583182788900,9.941788818359376,-0.03336860111653805,0.011491170628275722,0.013034070955030619
1772366583192859000,9.95185888671875,-0.036062077984213826,0.0006621993689332157,0.015723858028277755
1772366583202929000,9.961928955078125,-0.040859249132871624,0.002224160589184612,0.018646321346238254
1772366583212999000,9.9719990234375,-0.03264379397332668,-0.003579196493909694,0.011716449017822742
1772366583223069000,9.98206884765625,-0.03263970232009888,0.0018237356952857226,0.012712108991667628
1772366583233138700,9.992138671875,-0.05374503419101238,0.009209142372012138,0.02798990375287831
1772366583243209000,10.002208984375,-0.011102408772706985,0.006627195020834915,0.0030147447112947702
1772366583253280000,10.012280029296875,-0.04208732962310314,0.00733268097564578,0.018655929424799978
1772366583263349800,10.022349853515625,-0.03221709299385547,0.00990434439482633,0.006401062681339681
1772366583273419800,10.032419677734374,-0.04824702129662037,0.007381209992221556,0.009826507085375488
1772366583283490000,10.042489990234374,-0.0154980133831501,0.019256452601216733,0.004064326829463243
1772366583293559800,10.052559814453126,-0.028804654201865194,0.00355194772738032,0.014843896855972706
1772366583303629800,10.0626298828125,0.14749299294650553,0.012758226855448446,-0.03553019959721714
1772366583313699800,10.072699951171876,-0.09477788632512092,0.0033348526442889123,0.035606589301675554
1772366583323769900,10.082769775390625,-0.1360404555618763,-0.0028992422725772483,0.024834435396641492
1772366583333840000,10.09283984375,-0.13164251286387443,0.008757626611692831,0.02459226067122072
1772366583343910000,10.102909912109375,-0.08713000192046165,0.01151772070848383,0.019836444446258247
1772366583353980000,10.11297998046875,-0.026654782691597937,0.003220158489746973,0.014173304118029773
