time,seconds_elapsed,z,y,x
1772366184848633900,0.0776337890625,-0.03070493486523628,0.0021381902056280522,0.002047434049099684
1772366184858705000,0.087704833984375,-0.03539338494241238,-0.002646495920792222,0.005470576898194849
1772366184868774700,0.097774658203125,-0.03675239833593368,-0.008369193549687043,0.003637114393338561
1772366184878845700,0.107845703125,-0.027297172248363494,-0.004745724089210853,0.00025616671815514565
1772366184888915700,0.117915771484375,-0.032059856605529784,-0.0034777591131627556,-0.007025295526906847
1772366184898985700,0.12798583984375,-0.04010346232950687,0.0017488255618605762,0.001524944544956088
1772366184909056800,0.138056884765625,-0.048021980369091034,0.0014020396844949573,0.002117832404188812
1772366184919126800,0.148126708984375,-0.024386837759613988,0.0042744167830329385,0.0034879517136141656
1772366184929197800,0.15819775390625,-0.04082943851649761,0.0070250580648891624,0.00546180906984955
1772366184939267600,0.168267578125,-0.037698154753446574,-0.004619997084001079,-0.0024127967627719043
1772366184949338600,0.178338623046875,-0.030685061120986935,-0.004320849740644917,0.0014743103362619876
1772366184959408600,0.18840869140625,-0.035929391515254976,-0.00842284169937484,0.0010852014208212494
1772366184969478700,0.198478759765625,-0.03650573009848594,-0.005559488157508894,-0.00031706659253686665
1772366184979549700,0.2085498046875,-0.029775545060634612,-0.0031856716982554645,-0.0002827989967539906
1772366184989619700,0.21861962890625,-0.028729250878095625,0.010202044133190065,0.0006794336315244435
1772366184999690800,0.228690673828125,-0.024992986959218977,0.008056419539777562,-0.00026646891646087167
1772366185009760500,0.238760498046875,-0.03996317707598209,0.0030690595812629907,0.00364102338347584
1772366185019831600,0.24883154296875,-0.0371177245169878,0.0021461451832205055,-0.007343494630604982
1772366185029901800,0.25890185546875,-0.024711831930279732,0.0016958349992986768,-0.006086699502542614
1772366185039971600,0.2689716796875,-0.035493922707438466,-0.0048699258576147255,-0.0006174012459814548
1772366185050042600,0.279042724609375,-0.029966683718562124,0.001041709338966757,0.0016514935340732335
1772366185060112600,0.289112548828125,-0.02518061848580837,0.016182981706317514,0.0003091024817898869
1772366185070183700,0.29918359375,-0.02787467987537384,0.0012714538410771637,-0.0035596652429550884
1772366185080253700,0.309253662109375,-0.02876432219147682,-0.005408507980033755,0.001313676414452493
1772366185090323700,0.31932373046875,-0.034599604216217994,0.001596247082343325,-0.0008133622094988822
1772366185100394800,0.329394775390625,-0.03248948019444942,-0.006345204308256506,0.0020406024495139715
1772366185110464800,0.33946484375,-0.030382863304018973,-0.004206155586102977,0.0072192471964284775
1772366185120535600,0.34953564453125,-0.024996494090557098,0.001970395890669897,0.005495747872069478
1772366185130605800,0.359605712890625,-0.032331074762344356,-0.003076621833210811,0.0072459160076454275
1772366185140676900,0.3696767578125,-0.026034604966640472,-0.004551187897799536,-0.0008600508954375982
1772366185150746600,0.37974658203125,-0.04128595011234283,-0.0036903150184545664,-0.0023018106689676643
1772366185160816600,0.389816650390625,-0.034844518887996674,-0.00041479134596884246,0.0016338482795283198
1772366185170887700,0.3998876953125,-0.03438800729215145,0.008611669669207185,0.0004749240353703499
1772366185180957700,0.409957763671875,-0.03154255473315715,0.0020131573201622815,-0.0016763357143849134
1772366185191028500,0.420028564453125,-0.025563480323553083,-0.003918917876249179,-0.0015123042590916157
1772366185201098800,0.4300986328125,-0.034845103409886356,-0.0033119558258913454,0.0061373702438548205
1772366185211168800,0.440168701171875,-0.0233276840955019,0.0010311788117978722,0.009811017255298793
1772366185221239800,0.45023974609375,-0.02452186231613159,-0.00265043231039308,-0.001294314126856625
1772366185231309600,0.4603095703125,-0.032898060995340345,-0.001772042040666565,0.007804061347059905
1772366185241380600,0.470380615234375,-0.03005436200201511,0.00201969665880315,0.008166355320811272
1772366185251451000,0.480450927734375,-0.03783259478807449,0.0035961795947514474,0.0057831134460866445
1772366185261522000,0.49052197265625,-0.03304594503343105,-0.004293130616657435,0.005908201130479574
1772366185271591700,0.500591796875,-0.03589373567998409,0.006889878244744614,0.005228913629427552
1772366185281661700,0.51066162109375,-0.03365910849571228,0.007893922454444691,0.006076251173764467
1772366185291732700,0.520732666015625,-0.04489245017170906,0.010326145436894148,0.0071950991358608
1772366185301802800,0.530802734375,-0.03920739027261734,0.00251548081911169,0.0013228461015969515
1772366185311873800,0.540873779296875,-0.03786123636066913,0.003020781726436689,0.007016235437616706
1772366185321943800,0.55094384765625,-0.043698271951079365,0.0026998335432261225,0.00878006677236408
1772366185332013600,0.561013671875,-0.034870822373032566,0.002212433618772775,0.007662168658338487
1772366185342084600,0.571084716796875,-0.03771569041013718,-0.0017224033458158373,0.0044642859324812885
1772366185352154600,0.581154541015625,-0.028137130203843116,0.008807630632724613,0.008810754171572625
1772366185362225700,0.5912255859375,-0.02768821739256382,0.0021205540842376648,-0.0024299305606633424
1772366185372295700,0.601295654296875,-0.029787820020318028,0.0118759960942436,0.0008271715391427278
1772366185382366700,0.61136669921875,-0.030378771650791166,0.005051575167989358,0.004082921932078897
1772366185392436700,0.621436767578125,-0.03741583068072796,-0.0026589809430297463,0.005166223656758666
1772366185402506500,0.631506591796875,-0.028586627537012098,-0.0018439382330980151,0.004757533258013427
1772366185412577500,0.64157763671875,-0.024697218883037567,-0.007510987551463767,0.00023819267004728315
1772366185422647800,0.651647705078125,-0.026789807248115537,-0.003329591947281733,0.005377601385116577
1772366185432718800,0.66171875,-0.030831191593408584,0.0002976312397047877,0.009508417579531669
1772366185442788600,0.67178857421875,-0.025292262166738508,0.009871935395989566,-0.0030055019589141007
1772366185452858600,0.681858642578125,-0.03277121974527836,0.0027160083598922937,0.0036113954301923512
1772366185462929700,0.6919296875,-0.029629999110102653,0.006257854818366468,0.0004360898623242974
1772366185473000000,0.702,-0.029634090763330456,-0.003442203742591664,-0.0023392200699076057
1772366185483070700,0.71207080078125,-0.02783668595254421,0.003995554175879806,0.009203772077150642
1772366185493140700,0.722140625,-0.030074820268154143,0.0012151205439586191,0.006410707292519509
1772366185503210800,0.732210693359375,-0.03995148663818836,-0.003803566134581342,0.012849325505271554
1772366185513281500,0.742281494140625,-0.03246609931886196,-0.005152788786450401,0.0019721403231844304
1772366185523351600,0.7523515625,-0.02691957110762596,0.0031040486962534484,0.0005072554023936391
1772366185533422600,0.762422607421875,-0.04158697888553142,0.011057208790956065,0.003142645407281816
1772366185543492900,0.772492919921875,-0.040083588585257526,0.007154374399827793,0.008504720429703592
1772366185553563600,0.782563720703125,-0.03888005801439285,-0.004222357802232727,0.005654774358682334
1772366185563633700,0.792633544921875,-0.03634031040370464,-0.003413370373751968,0.003596855448186397
1772366185573703700,0.80270361328125,-0.0382809230774641,0.002195254155108705,0.006666581749729812
1772366185583774700,0.812774658203125,-0.032901568126678465,0.0016841902272775769,0.0029323636574670672
1772366185593844700,0.8228447265625,-0.02735211730599403,-0.0006511847845744341,0.00877535406462848
1772366185603915800,0.832915771484375,-0.032433950614929194,-0.006123889707773923,0.010236731854081154
1772366185613985800,0.84298583984375,-0.03722410750091076,0.0035702779685147104,0.009399221584014595
1772366185624059400,0.853059326171875,-0.0272054023116827,0.0014930150367319583,0.010249773998744785
1772366185634130400,0.86313037109375,-0.037982816913723946,-0.004053467508731409,0.007471285728737711
1772366185644200400,0.873200439453125,-0.028552725267410276,0.002490830435045063,0.005176745050773025
1772366185654271500,0.883271484375,-0.03947334773242473,-0.00004957476276904344,0.0047992900405079125
1772366185664341500,0.893341552734375,-0.031844168028235434,0.003927347777877003,0.00327398016937077
1772366185674411500,0.90341162109375,-0.024817630392313002,-0.004221572350943461,0.005055529823899269
1772366185684482600,0.913482666015625,-0.04038637092411518,0.010926138890348375,0.010292590227164328
1772366185694552300,0.92355224609375,-0.03709901981651783,0.003322239757888019,0.009866400704346596
1772366185704623400,0.933623291015625,-0.03620820845663547,-0.005222054630378261,0.011353643587417899
1772366185714693600,0.943693603515625,-0.031577626046538354,0.0011062624751590191,0.005182517204433679
1772366185724763600,0.953763671875,-0.038922143590450285,-0.003189398025302216,-0.0006211275730282068
1772366185734834400,0.96383447265625,-0.03398819431960583,-0.002146336979465559,0.006320508258417248
1772366185744904400,0.973904541015625,-0.019309680625796317,-0.0012167371123097837,0.009157996706664562
1772366185754975500,0.9839755859375,-0.033223639687895774,0.004269402681197971,0.005451105012744665
1772366185765045800,0.994045654296875,-0.03382335914671421,-0.0018341566246002912,0.009444448965229094
1772366185775116500,1.004116455078125,-0.032927871611714364,0.0007261953826993704,0.0061012760171666736
1772366185785186600,1.0141865234375,-0.02948328411579132,-0.0006071264471393078,0.009753989838436245
1772366185795256600,1.024256591796875,-0.027837854996323585,0.0043681686142459505,0.009756729784794152
1772366185805327400,1.034327392578125,-0.02454115153849125,0.007008654919359833,0.008008534410595894
1772366185815397400,1.0443974609375,-0.03082476185262203,0.001642241648538038,0.0075538494456559415
1772366185825468400,1.054468505859375,-0.03231938432455063,0.0002796571915969252,0.01223112054169178
1772366185835538700,1.06453857421875,-0.037409985461831094,-0.0014591219002846629,0.009751469087786973
1772366185845608400,1.0746083984375,-0.033524668461084366,0.004479309971677139,0.010968041803315282
1772366185855679500,1.084679443359375,-0.02589081258177757,0.0028484664999879894,0.0073895257294178006
1772366185865749500,1.09474951171875,-0.02289455337524414,-0.009916167263360693,0.004809044249542057
1772366185875820500,1.104820556640625,-0.03456745551228523,-0.001439202490262687,0.0073079118605703115
1772366185885890600,1.114890625,-0.03726268594563007,0.011619025658490136,0.006638232438080012
1772366185895960600,1.124960693359375,-0.041297056028246876,0.00393870028895326,0.008258125257492066
1772366185906031600,1.135031494140625,-0.03082008567750454,-0.0009996146297547965,-0.0032038375426083803
1772366185916101400,1.145101318359375,-0.03276362096071243,-0.00032250995263457296,0.009383183764666318
1772366185926172400,1.15517236328125,-0.03605155659019947,-0.006635739086894318,0.011559176096878945
1772366185936242700,1.16524267578125,-0.03380056279301643,-0.0057745282808318735,0.006457578641548753
1772366185946312400,1.1753125,-0.03498948031663895,-0.0006476319874636828,0.0014184519631788134
1772366185956383500,1.185383544921875,-0.029299159720540046,0.004176408901810646,0.010764701250940562
1772366185966453500,1.19545361328125,-0.030047347739338873,-0.0019449052563868462,0.0004036854300647974
1772366185976524500,1.205524658203125,-0.029895372048020362,-0.004485712313000112,-0.001829882308281958
1772366185986594600,1.215594482421875,-0.029741058269143104,0.003511286923428997,0.005290507623553276
1772366185996664600,1.22566455078125,-0.038276831424236296,-0.007926272087777034,0.011897285477444529
1772366186006735600,1.235735595703125,-0.03977145389616489,0.003933129064692184,0.016550371980294583
1772366186016805600,1.2458056640625,-0.032283728489279746,-0.015843885945063082,0.010579371279291807
1772366186026876400,1.25587646484375,-0.03347615314424038,-0.0037796646691858767,0.006070332889631391
1772366186036946400,1.265946533203125,-0.03212415401339531,-0.004962024587858468,0.009935885743983089
1772366186047016700,1.2760166015625,-0.03032499563694,-0.006104152960842475,0.007967179486900568
1772366186057087500,1.28608740234375,-0.04095686428844929,-0.0037411227570846675,0.0040881095638498665
1772366186067157500,1.296157470703125,-0.03750760061740875,-0.00697846071049571,0.0052869274269789455
1772366186077228500,1.306228515625,-0.03331716319024563,-0.006598923340998589,0.005912913838215172
1772366186087298600,1.316298583984375,-0.02674187645316124,0.00032181583289057013,0.0006381517730653285
1772366186097368600,1.32636865234375,-0.035870939326286315,0.004568449559854343,0.007212927053496241
1772366186107439600,1.336439697265625,-0.03692074064016342,0.006645584627473726,0.006260740895196795
1772366186117509600,1.346509521484375,-0.03258534178435802,0.0090303334726952,0.0064601724574342365
1772366186127580700,1.35658056640625,-0.028247020319104192,-0.0012999218837358058,0.0022369652718305585
1772366186137650400,1.366650390625,-0.030488661766052243,-0.0031495409389492124,0.004871076635085046
1772366186147720400,1.376720458984375,-0.04156125992238521,0.0017717132471036165,0.005330766568705439
1772366186157791500,1.38679150390625,-0.036622049954533574,0.000796429341007024,0.008626629776321351
1772366186167861500,1.396861572265625,-0.03677051851451397,-0.000014813976641744374,0.0031103871054947376
1772366186177932500,1.4069326171875,-0.0288391409933567,0.005557688926067203,0.004886420334689319
1772366186188002600,1.41700244140625,-0.033329438149929044,0.00006413301108404994,0.009625066229142248
1772366186198072300,1.427072265625,-0.027345103043317793,-0.0017558398245368153,0.011381773703359067
1772366186208143400,1.437143310546875,-0.037813890087604524,-0.0028682397795375433,0.00566324992608279
1772366186218213600,1.447213623046875,-0.037515199401974675,0.0021144805364776403,0.012851225201413035
1772366186228284700,1.45728466796875,-0.030774492970108983,-0.005995103095797822,0.006259571851417422
1772366186238354400,1.4673544921875,-0.03016425211727619,0.003741762077901512,0.004845357671938836
1772366186248424400,1.477424560546875,-0.026263737547397612,-0.0060906632916070515,0.0097300609735772
1772366186258495500,1.48749560546875,-0.029110359150171277,-0.0017547803786117583,0.00994479970280081
1772366186268565500,1.4975654296875,-0.03120820821225643,-0.0019125008241273461,0.008646649651043116
1772366186278636500,1.507636474609375,-0.027014848175644875,-0.00657978938226588,0.00591053921803832
1772366186288706600,1.51770654296875,-0.025222119539976117,0.00020935016805306075,0.003912826062180102
1772366186298776600,1.527776611328125,-0.02910977462828159,0.000910721636749804,0.005502798667363822
1772366186308847400,1.537847412109375,-0.043915714094042775,-0.007287736722221598,0.00974025357402861
1772366186318917600,1.547917724609375,-0.03657821081280708,0.009113920102920383,0.012235869782045482
1772366186328988700,1.55798876953125,-0.028640988072752952,0.0010645239589735865,0.005062617151811719
1772366186339058700,1.56805859375,-0.02953764465153217,-0.003614107977086678,0.004817191023379564
1772366186349128400,1.57812841796875,-0.029680852514505383,0.0010902246558107435,0.004488251329958439
1772366186359199500,1.588199462890625,-0.018756722918152807,0.003112880456680432,0.008720080213434993
1772366186369269500,1.59826953125,-0.02489654084742069,0.00250839349119924,0.010549122271500528
1772366186379340500,1.608340576171875,-0.035971477091312404,0.0006119213532656431,0.008875307307764887
1772366186389410600,1.61841064453125,-0.032231121519207956,-0.00034117812048643824,0.010089724598824977
1772366186399480600,1.62848046875,-0.026540216401219365,-0.0043223019122146066,0.006872589183226228
1772366186409551600,1.638551513671875,-0.02893383353948593,-0.0036175146437250074,0.005689151552319526
1772366186419621400,1.648621337890625,-0.03402092754542827,0.0035300555559806524,0.01257737669609487
1772366186429692400,1.6586923828125,-0.030274142232537268,0.007959525903407485,0.005061119314469397
1772366186439762700,1.6687626953125,-0.030420272704958912,0.0010769450491294264,0.005594532071426511
1772366186449832400,1.67883251953125,-0.02743161228299141,-0.0030005243896972385,0.014868117981776594
1772366186459903500,1.688903564453125,-0.031020576685667035,0.007063280316581949,0.011612184925749898
1772366186469973500,1.698973388671875,-0.026830723780393598,0.00029627039968036113,0.015041063395887613
1772366186480043800,1.709043701171875,-0.03954992009997368,-0.013978977989172562,0.009196721281856298
1772366186490114600,1.719114501953125,-0.04134264873564243,-0.0017252985558006912,0.005356266336143016
1772366186500184600,1.7291845703125,-0.02443593759834766,-0.006359835621807724,0.0036629429543390867
1772366186510255600,1.739255615234375,-0.03985094887316227,-0.0005948149548377842,0.006740377638302743
1772366186520325400,1.749325439453125,-0.030718963390588758,0.011011104626907036,0.009687829267047345
1772366186530395400,1.7593955078125,-0.030116905844211575,-0.002452827379060909,0.015463015135005115
1772366186540466400,1.769466552734375,-0.03968669822216034,0.004875716277584433,0.010340301826409996
1772366186550536700,1.77953662109375,-0.02756955944895744,-0.0015263875833712518,0.01233238895907998
1772366186560607500,1.789607421875,-0.0399888960391283,0.0007472473038826138,0.008610117032937705
1772366186570677500,1.799677490234375,-0.03191080352365971,0.0007217566695995628,0.011433357760123908
1772366186580747500,1.80974755859375,-0.03146013714671135,0.0009828644243534653,0.011909816165454685
1772366186590818600,1.819818603515625,-0.029514263775944707,-0.008500309116067365,0.012699066847003995
1772366186600888600,1.829888671875,-0.025171850657463073,0.003628675358556211,0.01018500166684389
1772366186610959600,1.839959716796875,-0.02861000841259956,0.006863163767755031,0.00995594215132296
1772366186621029600,1.850029541015625,-0.044475101542472834,0.0047188543485943224,0.01673789390902966
1772366186631095800,1.860095703125,-0.03564765196442604,0.008414210868347436,0.010119133356399834
1772366186641166600,1.87016650390625,-0.02307400159537792,0.002143587899953127,0.005121069340780377
1772366186651236900,1.88023681640625,-0.03220247994661331,-0.00020766966762021183,0.011114756797626614
1772366186661308000,1.890307861328125,-0.040436639806628226,-0.0026758316131308673,0.014333390050567685
1772366186671378000,1.9003779296875,-0.025181787529587746,-0.003953231137804687,0.0063798006976023315
1772366186681447700,1.91044775390625,-0.032954759618639945,0.004426538604823872,0.007455942029133439
1772366186691518700,1.920518798828125,-0.023378537499904633,-0.0026676026409026233,0.01536927243694663
1772366186701589000,1.930589111328125,-0.03429565283358097,-0.004476323430147022,0.010415120628289878
1772366186711658800,1.94065869140625,-0.03295183700919151,0.0036547596478834748,0.006021086920425295
1772366186721729800,1.950729736328125,-0.04012742772698402,0.00257407913855277,0.0077170771833509205
1772366186731799800,1.9607998046875,-0.023969489130377768,0.0007788388853892683,0.0024056363696232435
1772366186741870800,1.970870849609375,-0.03175707426667213,-0.0005030176186934113,0.010203450638987123
1772366186751940600,1.980940673828125,-0.034600773259997365,-0.006493353207828477,0.013041852402687073
1772366186762011000,1.991010986328125,-0.034299159964919085,0.002377387522673234,0.012803111743368208
1772366186772082000,2.00108203125,-0.03758592655062675,0.002295864985371008,0.018927439842559395
1772366186782151700,2.011151611328125,-0.03280219940543175,0.0012424834749195724,0.012872779446095228
1772366186792222700,2.02122265625,-0.0307084419965744,0.003817722524097189,0.01344425919111818
1772366186802292700,2.031292724609375,-0.03310089009106159,-0.0015338128380011765,0.01180905920471996
1772366186812362800,2.04136279296875,-0.03429565283358097,0.007720639113616198,0.016051884406246244
1772366186822433800,2.051433837890625,-0.03429389926791191,0.0016851492085028438,0.01518248116057366
1772366186832503800,2.06150390625,-0.03384031028151512,-0.0010727072654291986,0.016613683007471264
1772366186842573800,2.07157373046875,-0.03204348999261856,0.0059039268141612405,0.011838321831822395
1772366186852644600,2.08164453125,-0.03863280525505543,0.006677943393960595,0.01502802125122398
1772366186862715000,2.09171484375,-0.045672786894440646,-0.002330981964524835,0.01623816422596574
1772366186872786000,2.101785888671875,-0.04388239634633064,-0.004380580571247264,0.009094649146869778
1772366186882856000,2.11185595703125,-0.03535246841013431,0.0024684724727645517,0.011345862139761447
1772366186892925700,2.12192578125,-0.03475742512643337,0.0051155072496738285,0.00032923195436596866
1772366186902996700,2.131996826171875,-0.03251344559192657,0.0008674670169129967,0.008228241575881838
1772366186913066800,2.142066650390625,-0.0360983183413744,0.005508799149887636,0.01166924887523055
1772366186923137800,2.1521376953125,-0.03085924864411354,0.0038000772695522753,0.008996376404166222
1772366186933207800,2.162207763671875,-0.023984102177619933,0.0026670637847855685,0.010779241232946515
1772366186943277800,2.17227783203125,-0.030721886000037193,0.0002616831434890628,0.00978602894451469
1772366186953348900,2.182348876953125,-0.04090133470892906,0.006877722016070038,0.011647475434839724
1772366186963418600,2.192418701171875,-0.046588148173689836,-0.0015295841874554753,0.0007359861243516206
1772366186973489000,2.202489013671875,-0.03475450251698494,0.003357886460004374,0.006423018784821033
1772366186983560000,2.212559814453125,-0.027273206850886342,0.0011302552720997483,0.01670614706389606
1772366186993629700,2.222629638671875,-0.025028058272600174,-0.0026304672345984726,0.008933394170552491
1772366187003700700,2.23270068359375,-0.032061025649309155,-0.004362295995885506,0.00636993689071387
1772366187013770800,2.242770751953125,-0.03895253872871399,0.01023528881566599,0.010239983257092534
1772366187023840800,2.2528408203125,-0.040002340042591095,0.0024916341526433823,0.008807356638088822
1772366187033911800,2.262911865234375,-0.04822948563992977,0.0027925807274412364,0.012471212907880544
1772366187043981800,2.27298193359375,-0.04313654641509056,0.005028879278991371,0.0055555883005261415
1772366187054051800,2.2830517578125,-0.022629764959216116,-0.0022649583904538304,0.012254245688952505
1772366187064122600,2.29312255859375,-0.015301614028215407,0.0002649893454276025,0.008118095732294023
1772366187074192600,2.303192626953125,-0.03475508703887462,-0.0024673308284487573,0.010345087599381804
1772366187084263700,2.313263671875,-0.027128245422244072,0.005339214736642316,0.01204210077561438
1772366187094334000,2.323333984375,-0.028034838873147963,0.005771715269237756,0.01512077756859362
1772366187104403700,2.33340380859375,-0.03267477363348007,-0.0033038729841355233,0.011776947033405304
1772366187114474800,2.343474853515625,-0.03296586553454399,0.008147458824096248,0.007131532380357384
1772366187124544800,2.353544677734375,-0.035061961030960084,0.0001472355841193348,0.014417415072210131
1772366187134615800,2.36361572265625,-0.026384733578562736,0.0007363240510690957,0.013513086643628776
1772366187144685800,2.373685791015625,-0.027585926061868667,-0.004292564361076802,0.006962861282564699
1772366187154755800,2.383755859375,-0.03297580240666866,-0.0010429697142913938,0.005085523103363812
1772366187164827000,2.393826904296875,-0.03582534661889076,-0.0012682207043748347,0.0030194208864122627
1772366187174896600,2.403896728515625,-0.03657528820335865,-0.006664243662171066,0.01033588137961924
1772366187184967000,2.413966796875,-0.03642857320904731,0.0020109288304578513,0.010567534711025655
1772366187195038000,2.424037841796875,-0.028203765699267386,0.011113368558138608,0.018078239134699105
1772366187205107700,2.434107666015625,-0.024909400328993796,-0.0020587500275578347,0.0100838063146919
1772366187215178800,2.4441787109375,-0.03434475267231464,0.00308896985813044,0.010362002201564609
1772366187225248800,2.454248779296875,-0.03434475267231464,-0.0013212751990184187,0.01398128867726773
1772366187235318800,2.46431884765625,-0.028057050704956052,-0.0011435348787810654,0.005673223330825567
1772366187245389800,2.474389892578125,-0.024465748214721677,0.007987336358940228,0.00925992271117866
1772366187255459800,2.4844599609375,-0.04107727579772472,0.0010487418679520487,0.013430669057182968
1772366187265529900,2.49452978515625,-0.041380058136582375,-0.0012903503377921879,0.01082498007081449
1772366187275600600,2.5046005859375,-0.024469255346059798,0.0046231754217762495,0.0036988545179367062
1772366187285670700,2.514670654296875,-0.02506663671731949,0.006464620303688571,0.014668321093358099
1772366187295741700,2.52474169921875,-0.03164484606385231,0.003927594373049214,0.006383271296322345
1772366187305812000,2.53481201171875,-0.027007833912968633,0.002764057885855436,0.007098506893590093
1772366187315881700,2.5448818359375,-0.037029461711645124,0.0056779999706428495,0.00911788389198482
1772366187325952800,2.554952880859375,-0.034193361502885815,-0.0050954691086430096,0.01895089378338307
1772366187336022800,2.565022705078125,-0.022378420546650884,0.002192824736004695,0.009913418183848261
1772366187346093800,2.57509375,-0.033306057274341584,0.004940077617531642,0.021954167252592742
1772366187356163800,2.585163818359375,-0.029566286224126815,-0.00025858700410462914,0.009076127109490335
1772366187366233900,2.59523388671875,-0.040943420284986494,-0.0020030651844106613,0.008083134016767144
1772366187376305000,2.605304931640625,-0.03361293126642704,0.00011336984713561832,0.02031491214558482
1772366187386374700,2.615374755859375,-0.032709260424971576,0.004145474907429889,0.017151808472163976
1772366187396444700,2.625444580078125,-0.029266426494717595,-0.0031640078557189553,0.015051402126811443
1772366187406515700,2.635515625,-0.030312136155366896,0.001668252872629091,0.010139993481338023
1772366187416585700,2.645585693359375,-0.039591421154141423,-0.0006080854283645749,0.008741305664554238
1772366187426655700,2.65565576171875,-0.028074001839756963,0.003414512018067762,0.005180106051638722
1772366187436726800,2.665726806640625,-0.026426819154620168,0.00340457514594309,0.007450754397362471
1772366187446796800,2.675796875,-0.03196107240617275,0.0032153453173115847,0.010375665400736034
1772366187456867600,2.68586767578125,-0.034657471883296966,0.0000053885611705482005,0.007446918472461402
1772366187466937900,2.695937744140625,-0.04528407983779907,0.00402667083335109,0.015174736245535314
1772366187477008000,2.7060078125,-0.030760464444756507,0.00221324646952562,0.010463526347279548
1772366187487078700,2.71607861328125,-0.028366262784600256,0.0013263167003169656,0.016303557612374425
1772366187497148700,2.726148681640625,-0.025068390282988545,-0.0047612687182147055,0.004926971540786326
1772366187507219700,2.7362197265625,-0.03479191191792488,0.0037534616488497704,0.013968831054493784
1772366187517290000,2.7462900390625,-0.031792145580053326,0.0064303892405237996,0.008749781231954693
1772366187527359700,2.75635986328125,-0.02775134575664997,-0.0021061876321677117,0.006509089633077383
1772366187537430800,2.7664306640625,-0.03658113342225552,0.0007513298239558934,0.016319303170777857
1772366187547500800,2.776500732421875,-0.028653847554326057,0.0026097075743600723,0.007997282364219427
1772366187557570800,2.78657080078125,-0.025509119787812232,0.0014951704612001775,0.012663703272677957
1772366187567641900,2.796641845703125,-0.033740357038378715,0.002397151669068262,0.009949695073626934
1772366187577711900,2.8067119140625,-0.032089667221903796,0.005250531806191429,0.016488887584023178
1772366187587781600,2.81678173828125,-0.035382279026508326,0.006098791799135506,0.016023425496742127
1772366187597852700,2.826852783203125,-0.03223930482566356,0.0036406763236038384,0.003751023096591234
1772366187607922700,2.836922607421875,-0.030599720925092694,0.0006286989581305533,0.013956409964337944
1772366187617993700,2.84699365234375,-0.037491818526387215,0.000662025838997215,0.01600399014391005
1772366187628063500,2.8570634765625,-0.02986614595353603,0.005170954630803317,0.006453304325230419
1772366187638133500,2.867133544921875,-0.03420446741878986,0.0008279661235865205,0.006036211424320936
1772366187648204500,2.87720458984375,-0.04214285920262337,-0.004622618299350142,0.008421352995187044
1772366187658274300,2.8872744140625,-0.034814708271622655,0.002277890937263146,0.008177168975770473
1772366187668344600,2.897344482421875,-0.0277805718511343,0.00429407133157365,0.0010062544330954552
1772366187678415600,2.90741552734375,-0.02689385214447975,-0.004913308341614902,0.015697664141096173
1772366187688485400,2.9174853515625,-0.037674189355969424,0.0017270703877788037,0.014521277305483818
1772366187698556400,2.927556396484375,-0.035437808606028555,0.010326720825629309,0.007320771342143416
1772366187708626400,2.93762646484375,-0.03738660458624363,0.000824769519502297,0.01556369903050363
1772366187718696400,2.947696533203125,-0.038133039039373394,0.0018122735863551496,0.003497596324793994
1772366187728767500,2.957767578125,-0.033791794964671135,0.007333886552043259,0.008018580880574881
1772366187738837500,2.96783740234375,-0.032894553864002224,-0.0011715462637133895,0.0036754371097311375
1772366187748907500,2.977907470703125,-0.028552725267410276,0.007489981296053156,0.009411934935115277
1772366187758978300,2.987978271484375,-0.03125087831020355,0.002353321660496294,0.006787504715658724
1772366187769048600,2.998048583984375,-0.031710897037386894,0.004258287632139399,0.011352584141492842
1772366187779119600,3.00811962890625,-0.028873627784848213,0.005308271609107032,0.01631601523514837
1772366187789189400,3.018189453125,-0.0252881705135107,0.0010988463536836207,0.01583718220964074
1772366187799259400,3.02825927734375,-0.04129296437501907,0.003405013537360355,0.010579079018346964
1772366187809330400,3.038330322265625,-0.0426338575899601,0.005110182620584964,0.013519479851797222
1772366187819400400,3.048400390625,-0.03680442078411579,0.008170428707730024,0.0047149727579206225
1772366187829470500,3.058470458984375,-0.035462943047285075,0.010891889560874552,0.008198796285688877
1772366187839541500,3.06854150390625,-0.036361937713623046,0.0008065123436041176,0.004419423877447843
1772366187849611500,3.078611572265625,-0.03515373096764087,0.0007666004583239555,0.007492693842947483
1772366187859682600,3.0886826171875,-0.04052782522141933,-0.001875822075549513,0.006722440122812986
1772366187869752300,3.09875244140625,-0.04007014458179474,0.005558556575747206,0.009037658262625337
1772366187879822600,3.108822509765625,-0.03736906892955303,0.005885605706181377,0.010711875085160135
1772366187889893600,3.1188935546875,-0.030029812082648277,0.00939955951073207,0.017882314703799782
1772366187899963400,3.12896337890625,-0.02059270617365837,0.007736055878456682,0.01112027322296053
1772366187910033400,3.139033447265625,-0.03390928386449814,0.007923221614165232,0.0030678631380200386
1772366187920104400,3.1491044921875,-0.03001052286028862,0.005297476220456883,0.012367204544134437
1772366187930174500,3.159174560546875,-0.03958499141335487,-0.0020067184462212026,0.004641469130292534
1772366187940244500,3.169244384765625,-0.026266660156846044,-0.003569848710251972,0.004230988633260131
1772366187950315500,3.1793154296875,-0.028060557836294173,-0.0008218560432083905,0.008289725972153246
1772366187960385500,3.189385498046875,-0.03569499823749065,-0.0046879020879045125,0.00923332696519792
1772366187970456300,3.199456298828125,-0.03494739474058151,-0.004420574654918164,0.009660466336086393
1772366187980526300,3.2095263671875,-0.027771219500899315,0.00033631928227841854,0.016690986027382313
1772366187990596600,3.2195966796875,-0.02283785475194454,0.01117106269528158,0.009225399387069046
1772366188000667400,3.22966748046875,-0.038999300479888914,0.008224359985208138,0.011130648486502468
1772366188010737400,3.2397373046875,-0.04140811518728733,0.0038692974477075037,0.006457761304639279
1772366188020807400,3.249807373046875,-0.030033319213986394,-0.000998719580611214,0.006198671977035701
1772366188030878500,3.25987841796875,-0.03886252235770225,0.000363015492958948,0.007985043937154114
1772366188040948500,3.269948486328125,-0.04439736013114452,0.001213586173998192,0.01582801252249628
1772366188051018500,3.2800185546875,-0.02644552385509014,0.011788463941263034,0.014096256826445459
1772366188061089500,3.290089599609375,-0.042454409369826314,0.004485620981454849,0.010266396339982747
1772366188071159300,3.3001591796875,-0.027178514304757116,0.00970409541525878,0.010965776780992746
1772366188081230300,3.310230224609375,-0.03914835356175899,-0.002040100126015022,0.005890811604261398
1772366188091300600,3.320300537109375,-0.029126141241192817,0.0021154943166300654,0.013581987161375582
1772366188101370400,3.330370361328125,-0.027038229051232335,0.0021184534586966034,0.010432400556653737
1772366188111441400,3.34044140625,-0.03137421242892742,0.0007132811021991073,0.015021116586402058
1772366188121511400,3.350511474609375,-0.03496785300672054,-0.000953556131478399,0.021588841071538627
1772366188131581400,3.36058154296875,-0.024941549032926558,0.0033388712322805075,0.011257343606092035
1772366188141652200,3.37065234375,-0.03391220647394657,0.0059118361259810626,0.015143062465637921
1772366188151722500,3.380722412109375,-0.03615501696467399,0.005480623368173837,0.00980849650464952
1772366188161792500,3.39079248046875,-0.03181201932430267,0.001962221717368811,0.0067598860563710325
1772366188171863600,3.400863525390625,-0.04468903655409813,0.004704067771416157,0.014372151158377528
1772366188181933300,3.410933349609375,-0.045137949365377426,-0.002855444230046123,0.007905987351574004
1772366188192004400,3.42100439453125,-0.03033025633394718,0.00006152092888951302,0.008684826236963272
1772366188202074600,3.43107470703125,-0.025241408762335774,0.00688512900439091,0.00603387333676219
1772366188212144400,3.441144287109375,-0.03555880463719368,0.007779566226620227,0.004112001896090805
1772366188222215400,3.45121533203125,-0.03766425248384476,-0.006607590704644098,0.01538870778977871
1772366188232285400,3.461285400390625,-0.033168694630265234,0.0021608952277805656,0.010737265254743396
1772366188242355500,3.47135546875,-0.03675765903294086,0.0004680924357846379,0.012275580737926065
1772366188252426500,3.481426513671875,-0.036758243554830546,0.006180414801137521,0.01073492716718465
1772366188262496500,3.49149658203125,-0.029721184524893758,0.0014918003271799534,0.014554521987959741
1772366188272566500,3.50156640625,-0.03584931201636791,0.0024063487556762993,0.01635828347429633
1772366188282637300,3.51163720703125,-0.028071663752198217,0.0063538899382110684,0.01330039374101907
1772366188292707300,3.521707275390625,-0.02163315513730049,0.0031559524134267118,0.01054265599809587
1772366188302778400,3.5317783203125,-0.02986614595353603,0.003429444725718349,0.014204576039128005
1772366188312848600,3.5418486328125,-0.0352571913421154,0.002799092666618526,0.0033322862278670072
1772366188322918400,3.55191845703125,-0.032273207095265384,0.006233688491489738,0.007625636040233075
1772366188332989400,3.561989501953125,-0.028536358654499053,0.0021910803034901616,0.0045325653957203026
1772366188343059500,3.5720595703125,-0.030630700585246085,0.0022538981403224167,0.012488894695043563
1772366188353129500,3.58212939453125,-0.03871054666638374,-0.0034713293723762032,0.007563165263272821
1772366188363200500,3.592200439453125,-0.03302490224540233,0.004195259732753038,0.007222279403731226
1772366188373270500,3.6022705078125,-0.029283377629518506,0.0035374168785288927,0.009456541261821985
1772366188383340300,3.61234033203125,-0.02778524802625179,0.005384332520002499,0.015049721626378595
1772366188393411300,3.622411376953125,-0.030331425377726554,0.00273377234544605,0.012317374053038656
1772366188403481600,3.632481689453125,-0.038410102415084836,-0.0041230073472950605,0.014313260577991604
1772366188413552600,3.642552734375,-0.03332300840914249,0.0048742367065511645,0.011749949428625403
1772366188423622400,3.652622314453125,-0.041705052307248115,0.0020262816632166504,0.009461728893592954
1772366188433692400,3.6626923828125,-0.0418535208672285,-0.0058423693526536225,0.014735614175908266
1772366188443763500,3.672763427734375,-0.04678922370374203,0.00313980499622412,0.0169184015750885
1772366188453833200,3.682833251953125,-0.03152852620780468,0.0007652304851450026,0.0043104470776394
1772366188463903500,3.692903564453125,-0.03885784618258476,0.0027376904687378555,0.012006737201288342
1772366188473974500,3.702974609375,-0.028832126730680464,0.008216240610834211,0.011584895060025155
1772366188484044500,3.71304443359375,-0.03407178094983101,0.006987913525430485,0.007932181238755583
1772366188494114300,3.7231142578125,-0.03826280289888382,-0.002481605948973447,0.007738704493269324
1772366188504185300,3.733185302734375,-0.02868599625825882,0.004031758000422269,0.011654270501807331
1772366188514255600,3.743255615234375,-0.03541910390555859,0.005888162989448755,0.011461743604391813
1772366188524326700,3.75332666015625,-0.029437106886506078,-0.001521738807717338,0.012255305134877562
1772366188534396400,3.763396484375,-0.03631809857189655,0.007093949449481442,0.014993826720677315
1772366188544466400,3.773466552734375,-0.03347381505668163,-0.0005194207642227411,0.01456592016480863
1772366188554537500,3.783537353515625,-0.03138005764782428,0.012809559750463812,0.011259499030560255
1772366188564607500,3.793607421875,-0.021656536012887955,0.009741577881434932,0.0035375630090013145
1772366188574677500,3.803677490234375,-0.028993454772233963,-0.0038300248832441866,0.005836852927319705
1772366188584748500,3.81374853515625,-0.033035423639416694,0.005434875397151336,0.013755261369049549
1772366188594818300,3.823818359375,-0.02720189518034458,0.0024501696310937405,0.006676518621854484
1772366188604888300,3.833888427734375,-0.028852000474929806,0.006019150691665708,0.006575067541375756
1772366188614959400,3.84395947265625,-0.033788287833333014,0.007095310289505869,0.00976151555776596
1772366188625029600,3.854029541015625,-0.03169453042447567,0.0017955964461900294,0.012605981736071407
1772366188635099600,3.864099609375,-0.02885141595304012,0.014925866917846723,0.01828377164416015
1772366188645170700,3.874170654296875,-0.029608371800184247,0.0029400263741146773,0.013741780832968651
1772366188655240400,3.884240478515625,-0.032905075258016586,0.0018673739076126366,0.009282682532258332
1772366188665311500,3.8943115234375,-0.042481297376751895,0.007452699759276584,0.015151464967802166
1772366188675381800,3.9043818359375,-0.03858838159143924,0.003901373086404055,0.0033931130370125173
1772366188685450500,3.914450439453125,-0.0376841262280941,0.0047129999965429305,0.008793218514882028
1772366188695520500,3.9245205078125,-0.042616321933269495,0.006223322361102328,0.009073314097896218
1772366188705590500,3.934590576171875,-0.025252514678239822,0.0002882058242335915,0.014868848634138702
1772366188715661600,3.94466162109375,-0.027941899892687794,0.0020980499914847314,0.012054558398388326
1772366188725731600,3.954731689453125,-0.0340764571249485,0.010171329334517941,0.012808226309902965
1772366188735801300,3.96480126953125,-0.032734979388117785,0.0025948753314092754,0.008669665200449525
1772366188745872400,3.974872314453125,-0.038424715462327,0.00017141104415059087,0.010261793230101466
1772366188755942700,3.984942626953125,-0.03138590286672115,-0.0018007932111155241,0.013073380052112043
1772366188766013700,3.995013671875,-0.030642391023039815,0.003955222165491432,0.004759542552009224
1772366188776083500,4.00508349609375,-0.03393500282764435,0.009397440618881954,0.010444748581573366
1772366188786153500,4.015153564453125,-0.029597265884280202,0.0030751422621775417,0.012524879323877393
1772366188796224500,4.025224609375,-0.029001638078689572,-0.002685978547809645,0.011427877867408096
1772366188806294800,4.035294677734375,-0.034394437032938,-0.0001471442525740713,0.006355579571798444
1772366188816364500,4.045364501953125,-0.026765841850638388,0.0036226566097233444,0.01792955137901008
1772366188826435600,4.055435546875,-0.01868131959438324,0.003984119466412812,0.011867986317723988
1772366188836505600,4.065505615234375,-0.03768763335943222,0.0021566665772348643,0.008111519861035048
1772366188846575600,4.07557568359375,-0.028701778349280355,0.0037379900850821285,0.00827058288026601
1772366188856646700,4.085646728515625,-0.034237785166502,0.001002290644031018,0.010057685492746531
1772366188866716700,4.095716552734375,-0.035137948876619335,0.005758746189810335,0.009249766643345356
1772366188876786400,4.105786376953125,-0.041562428966164584,0.003614884295221418,0.013551299762167035
1772366188886857500,4.115857421875,-0.027196634483337402,-0.0049977991541381925,0.016419219881296156
1772366188896927500,4.125927490234375,-0.02868774982392788,-0.0022005239852704106,0.012343019950948655
1772366188906997800,4.135997802734375,-0.03378127357065677,0.005829674267861992,0.006061345865577459
1772366188917068500,4.146068603515625,-0.03288227890431881,0.006801606306247413,0.0077507967898622155
1772366188927138600,4.156138671875,-0.03572422433197498,0.0019574450775515285,0.009408720064722001
1772366188937209600,4.166209716796875,-0.02583937465548515,0.0028137605127878484,0.011839965799637139
1772366188947279600,4.176279541015625,-0.03241466139256954,0.004246149669773876,0.022195538260415194
1772366188957349600,4.186349609375,-0.03315583514869213,0.014609284382499754,0.01817468524649739
1772366188967420700,4.196420654296875,-0.03943652285337448,0.008093217019364237,0.011412826428748666
1772366188977490700,4.20649072265625,-0.03539689207375049,-0.0005357143118977547,0.019033895891718566
1772366188987560400,4.216560546875,-0.024620061993598938,-0.0004747139728162437,0.005801087494194507
1772366188997631500,4.226631591796875,-0.03344751157164574,0.006996288628131151,0.013611249788478016
1772366189007701800,4.23670166015625,-0.03598667466044426,0.0087899853781797,0.019968765589036045
1772366189017771500,4.246771484375,-0.030604981622099875,-0.004487520677596331,0.015627484981715678
1772366189027842600,4.256842529296875,-0.03510580017268657,-0.0007520787426270545,0.005475289605930448
1772366189037912600,4.26691259765625,-0.03197159380018711,-0.001718567420914769,0.0015293649917468427
1772366189047982600,4.276982666015625,-0.0388560926169157,0.004330092493025585,0.008038198896497487
1772366189058053400,4.287053466796875,-0.036170214533805846,-0.005230228803679347,0.015942323084548116
1772366189068123600,4.29712353515625,-0.03946399538218975,-0.009690103422524406,0.013256298870965837
1772366189078194700,4.307194580078125,-0.02689502118825912,0.0021866233240813017,0.014902020251378417
1772366189088264400,4.317264404296875,-0.03183656924366951,-0.0047722650362644345,0.013307188807986675
1772366189098334500,4.32733447265625,-0.035732407638430594,0.006568372939107939,0.015570895956270396
1772366189108405500,4.337405517578125,-0.03228898918628693,0.006131177965085953,0.015615465750358997
1772366189118475800,4.347475830078125,-0.028693595042824743,-0.0016285601830575613,0.01361303988676518
1772366189128545500,4.357545654296875,-0.03182897045910358,-0.003525516378181055,0.01120802457164973
1772366189138616600,4.367616455078125,-0.03572422433197498,-0.00302105572107248,0.008118570656329392
1772366189148686600,4.3776865234375,-0.029439444974064824,-0.0013688680672552436,0.011117606341838835
1772366189158756600,4.387756591796875,-0.03617956688404083,-0.0031106611001305282,0.006341222252883016
1772366189168827600,4.39782763671875,-0.03019815438687801,0.00996806184737943,0.008367905774898826
1772366189178897700,4.407897705078125,-0.032143443235754965,0.004945922836428508,0.012720584559068084
1772366189188967400,4.417967529296875,-0.02136778219938278,0.0017329430061392484,0.007656761830858886
1772366189199038500,4.42803857421875,-0.03707622346282005,0.007976942829089239,0.015809600082971154
1772366189209108500,4.4381083984375,-0.030339024162292477,0.004238934477698058,0.011101605055108666
1772366189219178800,4.4481787109375,-0.031232758131623267,0.0002514448772650212,0.006458491957001388
1772366189229249500,4.45824951171875,-0.03197977710664272,-0.0023732867362909016,0.010946889417432248
1772366189239319600,4.468319580078125,-0.028989947640895842,0.004810943945683538,0.017911759993992745
1772366189249390600,4.478390625,-0.02989887917935848,0.0024746556183788924,0.018083390233851967
1772366189259460600,4.488460693359375,-0.028852000474929806,-0.0003460552250035107,0.013550349914096295
1772366189269530600,4.498530517578125,-0.022566052073240278,-0.0024951047513633966,0.009111381085962057
1772366189279601700,4.5086015625,-0.033190321940183634,-0.010597738053044304,0.012404869673401117
1772366189289671700,4.518671630859375,-0.026457214292883873,0.0062169930850155646,0.01685446949340403
1772366189299741400,4.528741455078125,-0.03528291030526161,-0.002978623085143044,0.011669577668793498
1772366189309812500,4.5388125,-0.04395896871387958,-0.008080019611073658,0.005895085920579731
1772366189319882800,4.5488828125,-0.044107437273859976,0.006540553350420668,0.011442527447268366
1772366189329952500,4.558952392578125,-0.03513035009205341,0.0024932872536126524,0.015908640010654927
1772366189340023600,4.5690234375,-0.034978958922624585,0.0031683826367370784,0.0090765655009076
1772366189350093600,4.579093505859375,-0.029746903488039968,0.0003006908464711159,0.007911759505234659
1772366189360163600,4.58916357421875,-0.0322942498832941,-0.009111956474697216,0.014860628795064985
1772366189370234400,4.599234375,-0.03993278193771839,-0.007227156508248299,0.016779285365343094
1772366189380304600,4.6093046875,-0.03964169003665447,-0.0012910170580726116,0.013740538723953068
1772366189390374700,4.619374755859375,-0.03949439052045345,-0.0002809267000760883,0.00934343627616763
1772366189400445400,4.629445556640625,-0.03650689914226532,-0.0026852113628294317,0.010716953119076788
1772366189410515500,4.639515380859375,-0.03844809633791446,-0.003442769998172298,0.011415785570815205
1772366189420585700,4.649585693359375,-0.028880057525634766,0.0073357497155666345,0.010016732427850365
1772366189430656800,4.65965673828125,-0.03367313702106475,0.004725348021462559,0.011426087769120932
1772366189440726500,4.6697265625,-0.025750527328252792,-0.00048233102369122207,0.006339797480776906
1772366189450796500,4.679796630859375,-0.046699791854619976,-0.006085667456081137,0.01924012252092361
1772366189460867600,4.68986767578125,-0.03861702316403389,-0.0033906836179085076,0.010308774176985025
1772366189470937600,4.6999375,-0.0365250193208456,-0.005551478380989283,0.015915654273331165
1772366189481008600,4.710008544921875,-0.03053600803911686,-0.004416674797935411,0.014964198767393827
1772366189491078700,4.72007861328125,-0.0284428351521492,-0.0026237908986397086,0.012120792035013437
1772366189501148400,4.7301484375,-0.03128770318925381,-0.0017833854185882955,0.013416384803503751
1772366189511219500,4.740219482421875,-0.03607669103145599,-0.0003599558861926198,0.010544117302820085
1772366189521289500,4.75028955078125,-0.04430734376013279,-0.003150024996139109,0.012667173871397971
1772366189531359700,4.76035986328125,-0.03129296388626098,-0.0005127809608820826,0.014702369493432342
1772366189541430500,4.770430419921875,-0.02784720734655857,-0.004559005878074094,0.006261471547558903
1772366189551500500,4.78050048828125,-0.03248305045366287,-0.0037347295489162206,0.006795322695933282
1772366189561570600,4.790570556640625,-0.026348493221402168,0.0010008567387703806,0.012158639827370643
1772366189571641600,4.8006416015625,-0.026048633491992948,0.010147327404422686,0.013367394562624394
1772366189581711600,4.810711669921875,-0.025153730478882787,0.004675590595602989,0.016724267242476342
1772366189591781600,4.82078173828125,-0.03637538171708583,0.005499556397506967,0.015340192472934722
1772366189601852700,4.830852783203125,-0.030984920850396155,0.0059878970368765294,0.014351473696529865
1772366189611922400,4.84092236328125,-0.03831833247840404,0.00179276516828686,0.020307715219818053
1772366189621992700,4.85099267578125,-0.01961713913977146,0.004926277421042323,0.010233005527034402
1772366189632064300,4.861064208984375,-0.030247254225611683,-0.006549156781984492,0.00892338423319161
1772366189642134500,4.871134521484375,-0.03802782509922981,0.004996995436539873,0.013576397670805453
1772366189652204500,4.88120458984375,-0.026505729609727857,0.004910586661566048,0.014943557838164269
1772366189662275600,4.891275634765625,-0.03503624206781387,0.002597249951586127,0.008307152030989527
1772366189672345300,4.901345458984375,-0.03158990100622177,0.0038386739805806426,0.00858516525477171
1772366189682415400,4.911415283203125,-0.03606792320311069,0.0053794371491763734,0.013187581016309558
1772366189692486400,4.921486328125,-0.04280044632852077,-0.005522325351741165,0.013213774903491139
1772366189702556400,4.931556396484375,-0.044293899756669995,-0.0012907430634368211,0.01195029430631548
1772366189712627500,4.94162744140625,-0.03711713999509811,0.0010609528955537826,0.017638386412709952
1772366189722697500,4.951697509765625,-0.0350263051956892,-0.007148501781467348,0.011119834831543267
1772366189732767200,4.961767333984375,-0.042213586351275444,-0.0005724478594027459,0.005621310480497777
1772366189742838300,4.97183837890625,-0.03921557357907295,-0.005223041011067107,0.013026727898791432
1772366189752908500,4.981908447265625,-0.030685061120986935,0.005842442417889833,0.020532062027603385
1772366189762978600,4.991978515625,-0.03517652732133865,0.0019248123164288698,0.01090315987356007
1772366189773049300,5.00204931640625,-0.032041151905059816,-0.006270056712813675,0.006705160194449126
1772366189783119400,5.012119384765625,-0.034141923576593396,0.00014708032049238681,0.01211081863027066
1772366189793189600,5.022189697265625,-0.03519055584669113,0.0025077633035369214,0.010763020750507711
1772366189803260700,5.0322607421875,-0.028304887986183164,-0.004090237588854506,0.013355667592212557
1772366189813330400,5.042330322265625,-0.03189034525752067,-0.004003828813880682,0.011531374774500726
1772366189823400400,5.052400390625,-0.032492987325787544,-0.0010737119124270974,0.007085355151072144
1772366189833471500,5.062471435546875,-0.03114624889194965,0.004911189449764788,0.01591313352268189
1772366189843541500,5.07254150390625,-0.03578209199905395,0.010540646704100072,0.010426190011575817
1772366189853611500,5.082611572265625,-0.029943887364864346,0.01232705519683659,0.012866678498871624
1772366189863682600,5.0926826171875,-0.03158814744055271,0.009777946102758868,0.011108948111347853
1772366189873752300,5.10275244140625,-0.03532207327187061,0.01143510219263844,0.011272723838314413
1772366189883822300,5.112822265625,-0.02813479211628437,-0.004519358854275197,0.006008263971470296
1772366189893893400,5.122893310546875,-0.03560439734458923,0.007918298843875527,0.013629004640877245
1772366189903963600,5.132963623046875,-0.04592997652590274,0.0043505324928555635,0.016610175876133143
1772366189914033400,5.143033447265625,-0.031413959917426106,0.0002432981034275144,0.009177578189969062
1772366189924104400,5.1531044921875,-0.028874796828627584,0.0005739822293631732,0.01117934646643698
1772366189934174500,5.163174560546875,-0.018258710268139838,0.00015153729990124702,0.00890124546661973
1772366189944244500,5.173244384765625,-0.028138883769512176,0.0016415201293304561,0.010743073941022157
1772366189954315500,5.1833154296875,-0.040703766310214995,0.007371168088819831,0.01744976850543171
1772366189964385500,5.193385498046875,-0.03127075205445289,0.006145937142800539,0.010992664787918329
1772366189974455300,5.203455322265625,-0.03456336385905742,0.011725901832757518,0.014397723991051315
1772366189984526300,5.2135263671875,-0.037706922581791875,-0.0017149598248768596,0.01576440923437476
1772366189994596600,5.2235966796875,-0.029628245544433593,-0.00926390476655215,0.015175284234806895
1772366190004666600,5.23366650390625,-0.039348260048031804,-0.004191104147443548,0.008742949632368982
1772366190014737400,5.2437373046875,-0.0356102425634861,-0.0020430684012360868,0.013134206861257552
1772366190024807400,5.253807373046875,-0.03935585883259773,-0.0020630882759578523,0.006892535992711782
1772366190034877400,5.26387744140625,-0.024245383462309835,0.0016073986640200019,0.011632971985451877
1772366190044948200,5.2739482421875,-0.027249825975298878,-0.0027162640882190314,0.012721424809284508
1772366190055018500,5.2840185546875,-0.026360183659195898,-0.0020150204836856572,0.01445628577787429
1772366190065089500,5.294089599609375,-0.03742869016230106,0.0006098298608791082,0.014848573031090198
1772366190075159600,5.30415966796875,-0.046399932125210756,0.008156482380768285,0.01861435530539602
1772366190085229300,5.314229248046875,-0.030390462088584896,0.003710645420430228,0.012602620735205709
1772366190095300400,5.32430029296875,-0.030381694260239598,0.0055379704454448075,0.021046733551472425
1772366190105370600,5.33437060546875,-0.03890986863076687,0.0011112583106849341,0.006455240553990006
1772366190115440400,5.3444404296875,-0.0363683674544096,-0.0035221371110063042,0.0117863724488765
1772366190125511400,5.354511474609375,-0.029482699593901634,0.000011041983822360635,0.010443944863975048
1772366190135581400,5.36458154296875,-0.031577626046538354,0.010814796603517605,0.012845708776079117
1772366190145651500,5.3746513671875,-0.028586043015122412,0.001815333193121478,0.01555127794034779
1772366190155722500,5.384722412109375,-0.02215337961912155,-0.0025650373155716804,0.012956293011084198
1772366190165792500,5.39479248046875,-0.033223639687895774,0.003418621937604621,0.01750135256219655
1772366190175862500,5.404862548828125,-0.0466898549824953,0.0060832106375135475,0.011546280082687734
1772366190185933300,5.414933349609375,-0.03127835083901882,0.0008866831740364432,0.016310571875050663
1772366190196003300,5.42500341796875,-0.031277766317129134,-0.006244748741621151,0.013944609928689896
1772366190206073600,5.435073486328125,-0.038898178192973136,0.0006900646233931184,0.011073986395820974
1772366190216144600,5.44514453125,-0.03515665357708931,-0.001459386761765927,0.008076594678126275
1772366190226214400,5.45521435546875,-0.02333236027061939,0.00796003736006096,0.014265147119946777
1772366190236284400,5.465284423828125,-0.029620646759867666,-0.004979313649376854,0.016464958719164133
1772366190246355500,5.47535546875,-0.02886719804406166,0.006283363718958571,0.01569229384623468
1772366190256425500,5.485425537109375,-0.030955694755911825,-0.0005511767425108701,0.013748941226117311
1772366190266495500,5.49549560546875,-0.039782559812068935,0.0021302808938082306,0.019627843196876348
1772366190276566500,5.50556640625,-0.04098024516403675,0.003489075091620907,0.020618936593458054
1772366190286636300,5.51563623046875,-0.023619360518455503,-0.001338573393691331,0.006909815921075642
1772366190296706600,5.52570654296875,-0.021676994279026984,-0.0005615976718254388,0.007601122653484344
1772366190306777600,5.535777587890625,-0.028859014737606048,0.004185176730155945,0.013707367106713353
1772366190316847600,5.54584765625,-0.02601122409105301,-0.0050114806196186685,0.009904979149065912
1772366190326917400,5.55591748046875,-0.028857261171936988,-0.008966958513436839,0.009223901549726724
1772366190336988400,5.565988525390625,-0.030800796455144882,0.004211005291156471,0.01344520903918892
1772366190347058400,5.576058349609375,-0.03259644770026207,0.00667284709373489,0.00628116262871772
1772366190357128400,5.58612841796875,-0.03215279558598995,0.012637408920796588,0.011879384494572877
1772366190367199500,5.596199462890625,-0.030358897906541824,0.007561996219493448,0.004220905630663037
1772366190377269500,5.60626953125,-0.03230886293053627,-0.0022148904373403638,0.009673143154568969
1772366190387339300,5.61633935546875,-0.039189270094037054,0.007359696846734732,0.011985584815405308
1772366190397410300,5.626410400390625,-0.035298692396283145,0.0017003741770982741,0.010635704576410353
1772366190407480600,5.63648046875,-0.030360651472210884,-0.006643237406760454,0.007363477972708642
1772366190417550600,5.646550537109375,-0.03679448391199112,0.0007295746498741209,0.014718589975871145
1772366190427621400,5.656621337890625,-0.03678396251797676,-0.00466334303538315,0.011627199831791222
1772366190437691400,5.66669140625,-0.040677462825179096,0.004711913151154295,0.011807086443342267
1772366190447761400,5.676761474609375,-0.03827624690234661,0.00509789852774702,0.011497655167989432
1772366190457832400,5.68683251953125,-0.033632805010676385,0.010455772299086674,0.005616524707525968
1772366190467902500,5.69690234375,-0.03258592630624771,0.009711310607334598,0.006800802588649094
1772366190477972500,5.706972412109375,-0.027049334967136383,0.0006571213350165635,0.020438903851434587
1772366190488043500,5.71704345703125,-0.03153904760181904,0.0000030596067663282156,0.014910934210196137
1772366190498113300,5.72711328125,-0.025400983238220213,0.009499412289168684,0.007965754714794457
1772366190508183600,5.73718359375,-0.03272971869111061,0.0070999681983143085,0.010540244845300912
1772366190518254600,5.747254638671875,-0.032279052314162254,0.005434044280089438,0.015516608485765753
1772366190528324400,5.757324462890625,-0.0292792859762907,-0.0017187226845417171,0.01224321283828467
1772366190538394400,5.767394287109375,-0.03256663708388805,-0.00008797054439783096,0.014400719665735959
1772366190548465400,5.77746533203125,-0.034358196675777435,-0.002892296508559957,0.011587306212820113
1772366190558535400,5.787535400390625,-0.03002221329808235,-0.0005336319526657462,0.00461355821006
1772366190568605400,5.79760546875,-0.025243162328004835,0.001955874174972996,0.011869812948629259
1772366190578676500,5.807676513671875,-0.03512801200449466,0.0007265972414985299,0.011998626960068941
1772366190588746500,5.81774658203125,-0.0348258141875267,0.0034104294979944824,0.012208178057521581
1772366190598816500,5.82781640625,-0.03167816381156444,0.00618860724074766,0.014261530390754342
1772366190608887600,5.837887451171875,-0.037059856849908826,0.006206024166429415,0.017082140769436954
1772366190618957600,5.84795751953125,-0.03331482510268688,0.010629685827577486,0.01535820305366069
1772366190629027300,5.85802734375,-0.03360942413508892,0.008214788439264521,0.016366393715515733
1772366190639097300,5.868097412109375,-0.024632921475172043,0.005850516126491129,0.01932860452197492
1772366190649167400,5.87816748046875,-0.02613572725355625,0.0016901450440287588,0.012896744843572377
1772366190659238400,5.88823828125,-0.02643207985162735,-0.009863752089533955,0.015652984749153255
1772366190669308400,5.898308349609375,-0.027927286845445633,-0.0060726344445720315,0.01685589426551014
1772366190679378400,5.90837841796875,-0.03122340578138828,0.0038369569475296883,0.017210699052549898
1772366190689448400,5.918448486328125,-0.02718669761121273,0.014477511228993534,0.01714205426312983
1772366190699519500,5.92851953125,-0.038566169759631154,0.01172434006333351,0.010976590435951948
1772366190709589500,5.938589599609375,-0.04036825074553489,0.0038012006475590166,0.0009205489110201597
1772366190719659300,5.9486591796875,-0.023010873231291768,-0.004422474351059645,0.0052108299834653735
1772366190729730300,5.958730224609375,-0.027054011142253875,-0.009501439849473535,0.013971607533469795
1772366190739800600,5.968800537109375,-0.03364741805791854,-0.008666194601729512,0.010607501395232975
1772366190749871600,5.97887158203125,-0.029915245792269705,0.00464218151634559,0.011184241837263107
1772366190759941400,5.98894140625,-0.035303368571400644,0.005287256220541894,0.009826543617993592
1772366190770011400,5.999011474609375,-0.03141162182986736,0.007569695468759164,0.011056706467457114
1772366190780081400,6.009081298828125,-0.03650222296714783,-0.0014417963061481714,0.01177840833812952
1772366190790152200,6.019152099609375,-0.02647591899335384,0.002287544681597501,0.003099975309334695
1772366190800222500,6.029222412109375,-0.035757542079687114,0.0008320395105052739,0.018286365460045636
1772366190810293500,6.03929345703125,-0.028428222104907034,0.0022873711516615,0.008217464453540742
1772366190820363500,6.049363525390625,-0.03815992704629898,0.003973780735488981,0.007059818851016461
1772366190830433300,6.059433349609375,-0.036361937713623046,0.005034395704325288,0.016995302736200393
1772366190840504300,6.06950439453125,-0.03606383154988289,0.010502342254016547,0.009624956631287932
1772366190850574600,6.07957470703125,-0.02185761154294014,0.006726248648250475,0.013919913878850639
1772366190860644400,6.089644287109375,-0.03278349470496177,-0.0013277323392685502,0.014774667544662952
1772366190870714400,6.09971435546875,-0.036359015104174615,-0.00534501428976655,0.013418430630117655
1772366190880785400,6.109785400390625,-0.03067278616130352,0.0038330205579288302,0.014630034909583627
1772366190890855400,6.11985546875,-0.02003624133467674,-0.002676498333411291,0.01383716749884188
1772366190900925400,6.129925537109375,-0.033055297383666034,0.0017330252045299856,0.01713160593435168
1772366190910996500,6.13999658203125,-0.027217677271366116,-0.0035110403282567855,0.020198628822155295
1772366190921066500,6.15006640625,-0.023025486278533933,-0.0020811993213836104,0.016797113282978535
1772366190931137300,6.16013720703125,-0.03260112387537956,0.010825847720494493,0.015336612276360392
1772366190941207300,6.170207275390625,-0.03933598508834839,-0.0029167459632270035,0.014859934675320981
1772366190951277600,6.180277587890625,-0.026769933503866195,0.006352154638851061,0.013619688823260366
1772366190961347300,6.190347412109375,-0.0279722950309515,0.006812127700261772,0.0079788699246943
1772366190971418400,6.20041845703125,-0.03096855423748493,-0.002072029634239152,0.00832965612374246
1772366190981488400,6.21048828125,-0.03530687570273876,0.004654264679783955,0.011201923624426126
1772366190991558400,6.220558349609375,-0.03291384308636188,0.01031289322967641,0.013414412042126058
1772366191001629400,6.23062939453125,-0.03501227667033672,0.0018810188404750079,0.01601710535380989
1772366191011699500,6.240699462890625,-0.042191374519467355,0.0045302181750070305,0.015326163947582244
1772366191021769500,6.25076953125,-0.03590250350832939,-0.0018144016113597898,0.0224811502687633
1772366191031840300,6.26084033203125,-0.02796002007126808,-0.001951755122281611,0.01092219336759299
1772366191041910500,6.27091064453125,-0.03140343852341175,0.0010642408311832695,0.009357318671047688
1772366191051980500,6.28098046875,-0.026314590951800346,0.008525744951423258,0.010877440910413861
1772366191062051300,6.29105126953125,-0.030649405285716056,0.008237009404227138,0.006945069897547364
1772366191072121300,6.301121337890625,-0.03828267664313316,-0.000709984033415094,0.012408449869975446
1772366191082191400,6.31119140625,-0.04576397230923176,-0.002896716955350712,0.01584521938562393
1772366191092262400,6.321262451171875,-0.03783259478807449,0.00042627172120846804,0.010890629185549915
1772366191102332400,6.33133251953125,-0.023316578179597855,0.003988941772002727,0.003729688047617674
1772366191112402400,6.34140234375,-0.03813186999559402,-0.005300371430441737,0.013869644996337591
1772366191122473500,6.351473388671875,-0.035278818652033805,0.006641675637336447,0.00881389597672969
1772366191132543200,6.361543212890625,-0.03647241235077381,0.00388405662542209,0.013701704550907015
1772366191142613500,6.371613525390625,-0.0358627560198307,-0.0010915946289896965,0.013046382447332142
1772366191152684500,6.3816845703125,-0.041542555221915245,-0.0008857333259657024,0.008829751132987439
1772366191162754300,6.39175439453125,-0.036003041273355484,-0.004274389383569359,0.012023323009908198
1772366191172824300,6.40182421875,-0.02342296116352081,-0.007229266266943886,0.015072006523422896
1772366191182895400,6.411895263671875,-0.026117607074975967,-0.004498169935774058,0.01626004726421088
1772366191192965600,6.421965576171875,-0.0331529125392437,-0.0017709003963507712,0.01591441216431558
1772366191203035400,6.432035400390625,-0.030616672059893605,0.004970965946139767,0.0022787951195612547
1772366191213106400,6.4421064453125,-0.03301905702650547,0.0030861842459999024,0.013168730185367166
1772366191223176400,6.452176513671875,-0.03406652025282383,-0.004526500981114804,0.011537841047905385
1772366191233246200,6.46224609375,-0.040347792479395864,0.0038437520144972946,0.00888363674469292
1772366191243317200,6.472317138671875,-0.03420972811579704,0.003590480506327003,0.007007686804980039
1772366191253387500,6.482387451171875,-0.028528759869933126,-0.006051482058688998,0.012745024880580604
1772366191263457300,6.492457275390625,-0.041404608055949206,-0.00012592793460935355,0.017216178945265708
1772366191273528300,6.5025283203125,-0.0408124873816967,0.0029832809939514845,0.0187364107824862
1772366191283598300,6.512598388671875,-0.03842354641854763,-0.005490843368088826,0.01713726849015802
1772366191293668600,6.522668701171875,-0.03364157283902168,-0.010004357003467157,0.010551789152622223
1772366191303739400,6.532739501953125,-0.02945405802130699,0.0018236900295130907,0.0076628993107005945
1772366191313809400,6.542809326171875,-0.0376753583997488,-0.004132268365984782,0.009963540935888885
1772366191323879400,6.55287939453125,-0.03618190497159958,-0.0005170004782732576,0.012596702451072632
1772366191333950500,6.562950439453125,-0.025709026274085042,0.007649345709383487,0.006100143506005406
1772366191344020500,6.5730205078125,-0.03888414966762066,-0.0022782288639806208,0.009521167463250458
1772366191354090500,6.583090576171875,-0.03724164315760135,0.0013229009005241096,0.012888342341408133
1772366191364161500,6.59316162109375,-0.02557809337079525,0.011834750768402591,0.016458382847905156
1772366191374231300,6.603231201171875,-0.034710078853368756,-0.0034893764857202767,0.01530183322392404
1772366191384301300,6.61330126953125,-0.045938744354248044,0.010369226526794955,0.014403971068747341
1772366191394372400,6.623372314453125,-0.031121114450693127,0.005151354881189763,0.01100746049825102
1772366191404442400,6.6334423828125,-0.023641572350263595,-0.000610962372040376,0.014075323636271059
1772366191414512400,6.643512451171875,-0.027985154512524604,0.003258207211503759,0.01173453266378492
1772366191424583400,6.65358349609375,-0.024389175847172737,0.0018478563563898204,0.012880524361133575
1772366191434653400,6.6636533203125,-0.0356102425634861,-0.003911072496511042,0.005450118632055819
1772366191444723500,6.673723388671875,-0.03919920696616173,0.0015124777890276164,0.008360928044840694
1772366191454794500,6.68379443359375,-0.03501227667033672,0.005510223921993747,0.018610263652168214
1772366191464864500,6.693864501953125,-0.030966216149926184,0.0076182107856031505,0.012118307816982268
1772366191474934300,6.703934326171875,-0.03739478789269924,-0.000591654883371666,0.005522782009467482
1772366191485005300,6.71400537109375,-0.0288654444783926,-0.0020086364086717365,0.014176409390568733
1772366191495075600,6.72407568359375,-0.04068389256596565,0.007913723133457824,0.027432854392006992
1772366191505145300,6.734145263671875,-0.033494273322820664,0.014410391676379367,0.012447503238730132
1772366191515216400,6.74421630859375,-0.02975216418504715,0.004313387953396887,0.00752528093829751
1772366191525286400,6.754286376953125,-0.03393441830575466,0.001218536343751475,0.009317571182548999
1772366191535356400,6.7643564453125,-0.03139350165128708,0.0050138735061045735,0.015621676295436917
1772366191545426400,6.774426513671875,-0.031554829692840576,0.004905335097713396,0.011181611488759517
1772366191555497500,6.78449755859375,-0.02856441570520401,0.002502849666401744,0.01131009670663625
1772366191565567500,6.7945673828125,-0.03245674696862697,-0.00922158172847703,0.019339491242170333
1772366191575637200,6.80463720703125,-0.03306348069012165,-0.0029528949888423086,0.013470562676154076
1772366191585708300,6.814708251953125,-0.03680266721844673,0.0006435403342358768,0.02234353189636022
1772366191595778600,6.824778564453125,-0.042190789997577666,-0.0014802651530131698,0.0208035359127447
1772366191605848300,6.834848388671875,-0.03904313962161541,-0.006087256624968722,0.011499079940095544
1772366191615919400,6.84491943359375,-0.030361820515990255,0.0021167364256456495,0.009149375008791684
1772366191625989400,6.8549892578125,-0.033955461093783376,0.003896304185641929,0.013172419979795813
1772366191636060200,6.86506005859375,-0.03216097889244556,-0.002554177994839847,0.01239171793088317
1772366191646131000,6.875130859375,-0.03484977958500385,0.005810768637992441,0.015335333634726703
1772366191656201200,6.885201171875,-0.024970775127410888,0.0069222826770041134,0.011825316219776867
1772366191666271200,6.895271240234375,-0.02736789939701557,0.003215537113556638,0.00978515216168016
1772366191676342300,6.90534228515625,-0.026025837138295174,0.005080709930928424,0.016142083440348506
1772366191686412000,6.915412109375,-0.03350362567305565,0.003450871106237173,0.007552022814750671
1772366191696482300,6.925482421875,-0.033060558080673215,0.006823388879792764,0.0031016558097675443
1772366191706553300,6.93555322265625,-0.035302199527621266,0.001729536339500919,0.019330211957171557
1772366191716623000,6.945623046875,-0.03320785759687424,-0.007387525568576529,0.014677417715266346
1772366191726693000,6.955693115234375,-0.023933833295106885,-0.000012475889082998036,0.014237747656367719
1772366191736764200,6.96576416015625,-0.026182489004731177,0.0004746774401981383,0.02115410291608423
1772366191746834000,6.975833984375,-0.02694002937376499,-0.006838001927034929,0.0154122713284567
1772366191756904200,6.985904296875,-0.028287936851382253,0.0032348172027617693,0.018391542867571116
1772366191766975200,6.995975341796875,-0.03965922569334507,-0.013394912757212295,0.019161029402725398
1772366191777045200,7.006045166015625,-0.03561608778238296,-0.0024911226959899065,0.012821049258857964
1772366191787115000,7.016114990234375,-0.029030864173173902,0.005425961438333615,0.023127302685193717
1772366191797186000,7.02618603515625,-0.028434651845693586,0.00032090251743793486,0.016902911745011805
1772366191807256300,7.03625634765625,-0.033223639687895774,-0.001128519972739741,0.014178893608599901
1772366191817326000,7.046326171875,-0.02933773816525936,-0.002932820315193385,0.011777714218385516
1772366191827397000,7.056397216796875,-0.03936345761716366,-0.001094562904210761,0.011455934918113052
1772366191837467100,7.066467041015625,-0.03427285647988319,0.000987074808590114,0.009878200739994644
1772366191847537200,7.076537109375,-0.031437925314903255,-0.005573735878570005,0.014517368315346538
1772366191857608200,7.086608154296875,-0.03413374027013778,0.006753291918803006,0.019414967631176113
1772366191867678200,7.09667822265625,-0.01707739152908325,0.007552068480523303,0.01559603039752692
1772366191877748200,7.106748291015625,-0.02874386392533779,-0.004970582353649661,0.009554558276198805
1772366191887818000,7.11681787109375,-0.031741292175650596,-0.0015669844552408903,0.014081826442293822
1772366191897889000,7.126888916015625,-0.020665186887979508,-0.005244759652530774,0.011624496418051421
1772366191907959300,7.136959228515625,-0.030247254225611683,-0.0011331413489300756,0.010476531959325075
1772366191918029000,7.147029052734375,-0.03189268334507942,-0.0013194394349586218,0.010175137859955429
1772366191928100000,7.15710009765625,-0.0464157142162323,-0.0018886998234316705,0.01688512035999447
1772366191938170000,7.167170166015625,-0.029511341166496275,-0.006448865612130612,0.012723032244481146
1772366191948240100,7.177240234375,-0.04297404932975769,0.0006493398873601108,0.01758614476881921
1772366191958311200,7.187311279296875,-0.04925356799066066,0.00843385628373362,0.009328275239653884
1772366191968381200,7.197381103515625,-0.03488835802972316,0.0003027732057031244,0.005164579688943923
1772366191978451200,7.207451171875,-0.03129121032059193,0.0034479119641706345,0.007399206873215734
1772366191988522000,7.21752197265625,-0.029342414340376852,-0.0037292770556639878,0.018696407565660773
1772366191998592300,7.22759228515625,-0.032335750937461855,0.00010989924841560422,0.01553304816391319
1772366192008662300,7.237662353515625,-0.029793665239214895,0.004440083072986454,0.009917655967548488
1772366192018733300,7.2477333984375,-0.02261047573685646,-0.006081895463261753,0.011566957544535399
1772366192028803000,7.257802978515625,-0.033977672925591465,0.0019294428257737308,0.024277020709589123
1772366192038873000,7.267873046875,-0.04340133483111858,0.00321014855238609,0.012508951102383434
1772366192048944000,7.277944091796875,-0.021404022556543348,-0.004558503554575145,0.012833799142576754
1772366192059014100,7.28801416015625,-0.0305342544734478,0.0032447358085773885,0.008591594995558262
1772366192069084200,7.298084228515625,-0.023650340178608894,0.012021669908938928,0.016407127584703265
1772366192079155200,7.3081552734375,-0.02979600332677364,0.007412066354788839,0.02067128783520311
1772366192089225000,7.318224853515625,-0.043866029733419416,0.004887470647459849,0.018714893070422112
1772366192099295200,7.328295166015625,-0.03280161488354206,0.008213546330248936,0.009397468018345534
1772366192109366300,7.3383662109375,-0.025921207720041275,-0.0004958206929266452,0.006622121553495526
1772366192119436300,7.348436279296875,-0.029666823989152907,0.00008963277852162718,0.012955708489194511
1772366192129506000,7.358506103515625,-0.032364392510056496,0.005927572551229969,0.009896576646901667
1772366192139576300,7.368576416015625,-0.029220833787322043,0.007836602776637301,0.01201415332276374
1772366192149647400,7.3786474609375,-0.034759763213992115,0.0033456297666300087,0.007731361437030136
1772366192159717000,7.388717041015625,-0.03071370269358158,-0.008027951497118919,0.0025902722215279937
1772366192169787100,7.398787109375,-0.027270868763327596,0.0043517380692530425,0.008289981700479983
1772366192179858200,7.408858154296875,-0.03579904313385487,0.00431908704182133,0.014156718309409915
1772366192189928000,7.418927978515625,-0.03474865729808807,-0.0010727620643563567,0.010926211955584585
1772366192199998200,7.428998291015625,-0.027412323060631752,-0.008051186242233962,0.01338734137210995
1772366192210069200,7.4390693359375,-0.03353986603021621,-0.011823370857862755,0.015013883128017186
1772366192220139300,7.44913916015625,-0.03518529514968395,0.004767607127455995,0.0072470850514248005
1772366192230209000,7.459208984375,-0.03128594962358475,0.00004656995492987334,0.018824892783537505
1772366192240280000,7.469280029296875,-0.03561550326049328,0.008456817034212872,0.010987696351855992
1772366192250350300,7.479350341796875,-0.02902618799805641,-0.0002185289883520454,0.014091945977509021
1772366192260420000,7.489420166015625,-0.020945757395029067,-0.004776749415136873,0.015316336673311889
1772366192270491100,7.4994912109375,-0.03306523425579071,-0.0009903536110650746,0.013402648539096116
1772366192280561200,7.50956103515625,-0.017348609685897826,0.0016269527478609232,0.017381598640047013
1772366192290631200,7.519631103515625,-0.038301381343603134,0.004109974335785955,0.01029280942287296
1772366192300702200,7.5297021484375,-0.043677813684940336,0.00700515692117624,0.011590046159178018
1772366192310772200,7.539772216796875,-0.0318500132471323,0.005852452355250716,0.010996500712819397
1772366192320842200,7.54984228515625,-0.032004327026009555,0.0046000502745155245,0.004440174404531717
1772366192330913000,7.5599130859375,-0.03139993139207363,0.005855511962017044,0.013560652112402021
1772366192340983000,7.569983154296875,-0.027057518273591992,0.00510420953752473,0.016470840470679104
1772366192351053300,7.58005322265625,-0.026602760243415832,0.0023071170317474753,0.013595029306039213
1772366192361123000,7.590123046875,-0.030480478459596633,-0.0031103049071040004,0.013569785266928374
1772366192371194000,7.600194091796875,-0.02763151876926422,0.0017623700300231574,0.014138378935121
1772366192381264100,7.61026416015625,-0.03136602912247181,0.008161368618439883,0.008889628094062208
1772366192391334100,7.620334228515625,-0.026875731965899465,0.0054289023140911006,0.013211984805203974
1772366192401405200,7.6304052734375,-0.025681553745269772,0.004717228647088631,0.017191117569245396
1772366192411475200,7.64047509765625,-0.032716859209537506,0.004877131916536018,0.018646065617911517
1772366192421545200,7.650545166015625,-0.031069676524400708,-0.004062838125275448,0.008947495761141181
1772366192431616000,7.660615966796875,-0.03421089715957641,0.007720812643552198,0.012751235425658524
1772366192441686300,7.670686279296875,-0.02956511718034744,-0.0005158588339574634,0.01784030219297856
1772366192451756300,7.68075634765625,-0.03809095346331596,0.002262501571886241,0.014762465650215745
1772366192461827000,7.6908271484375,-0.03135141607522964,-0.0021817096869461237,0.012321940630301833
1772366192471897000,7.70089697265625,-0.030609657797217367,0.004004431602079421,0.012646386811695992
1772366192481967000,7.710967041015625,-0.030759295400977132,0.002263862411910668,0.009480250930972397
1772366192492038100,7.7210380859375,-0.0362853653460741,0.005385054039210081,0.010462174640409648
1772366192502108200,7.731108154296875,-0.02655307588279247,-0.0008409260698594152,0.015662994686514137
1772366192512178200,7.74117822265625,-0.0325339038580656,-0.00006830686270259321,0.013942454504221677
1772366192522249200,7.751249267578125,-0.0340197585016489,0.006950230129854754,0.017624832811392842
1772366192532319000,7.761319091796875,-0.03550970479846,-0.0003426302920561284,0.014298464867658912
1772366192542389200,7.77138916015625,-0.032065117302536965,0.0022607480062171816,0.013888532359898089
1772366192552459300,7.781459228515625,-0.027727964881062505,0.0038865317102987317,0.010545578607544303
1772366192562530000,7.791530029296875,-0.027274960416555402,-0.007543437649495899,0.010925663966313004
1772366192572600000,7.80160009765625,-0.03833528361320496,-0.0009410893755499273,0.011181940282322465
1772366192582670300,7.81167041015625,-0.037137598261237144,-0.007856376056186854,0.010599281556159258
1772366192592741400,7.821741455078125,-0.03010930705964565,-0.005300535827223211,0.006780344322510064
1772366192602811100,7.83181103515625,-0.026530279529094696,0.0038934363751206543,0.014004669552855193
1772366192612881200,7.841881103515625,-0.035360651716589926,0.0017113522288389504,0.006905943463556468
1772366192622952200,7.8519521484375,-0.030872108125686644,-0.003649097092077136,0.006862542713247239
1772366192633022000,7.86202197265625,-0.032819150540232656,0.003861178073333576,0.017415902768447993
1772366192643092000,7.872092041015625,-0.040894904968142506,-0.011712466962449252,0.01090666700489819
1772366192653163000,7.8821630859375,-0.03580839548408985,-0.0014290372892748564,0.009975340971536933
1772366192663233000,7.89223291015625,-0.03595686404407024,0.0009464322709478438,0.011158595939353108
1772366192673303000,7.902302978515625,-0.03714695061147213,-0.0028634996723383662,0.019073241521418094
1772366192683373800,7.912373779296875,-0.027108956199884415,0.0018713833624497056,0.015155666218884289
1772366192693444000,7.922444091796875,-0.04701368010938167,-0.0005650317379273474,0.00804429984372109
1772366192703514000,7.93251416015625,-0.044619478449225425,-0.006972533293208107,0.00910053089838475
1772366192713583900,7.942583984375,-0.03743044372797012,0.0010224840486887843,0.014015556273050605
1772366192723655000,7.952655029296875,-0.02022270381748676,0.003311453502392396,0.01263557315673679
1772366192733725200,7.96272509765625,-0.03563596152663231,-0.0010100446922238916,0.015575097207352518
1772366192743795000,7.972794921875,-0.040271804633736606,-0.00011858487837016582,0.01624769923929125
1772366192753866000,7.982865966796875,-0.035489246532320974,-0.002312834386480972,0.016118118042871356
1772366192763936000,7.99293603515625,-0.03309679843783379,-0.0029257421204354614,0.007698116754554211
1772366192774006000,8.003006103515625,-0.042377252480387685,-0.003121584352944046,0.011810045585408806
1772366192784077000,8.0130771484375,-0.04238485126495361,0.00048797531318850814,0.017029460734128952
1772366192794147000,8.02314697265625,-0.03714928869903088,-0.001995557731389999,0.014306575108878313
1772366192804217000,8.033217041015625,-0.03594225099682808,0.00013559081209823487,0.009011208647117018
1772366192814288100,8.0432880859375,-0.02665244460403919,-0.007966786761255935,0.017092808293923734
1772366192824358000,8.05335791015625,-0.025604981377720833,-0.005172945658490061,0.012188304313272237
1772366192834428200,8.06342822265625,-0.038321255087852474,0.000982617829181254,0.020929683043062686
1772366192844499200,8.073499267578125,-0.04356207835078239,-0.002397745324112475,0.008860328934341669
1772366192854569000,8.08356884765625,-0.04759937104284763,0.003947066258499399,0.016240100454725324
1772366192864639000,8.093638916015625,-0.03906301336586475,0.003384281276585534,0.011027151579409837
1772366192874709200,8.103709228515624,-0.036513913404941555,0.007132463962119072,0.012302797538414597
1772366192884780000,8.113780029296874,-0.03321662542521953,0.0009654657649807632,0.006884462284110486
1772366192894850000,8.12385009765625,-0.03590717968344688,-0.0012059051910415291,0.01023022904805839
1772366192904920000,8.133920166015624,-0.03455518055260181,0.0030094292153604327,0.011247698994912207
1772366192914991000,8.1439912109375,-0.0426379492431879,0.004086355998180806,0.013858721743524073
1772366192925060900,8.154060791015626,-0.029923429098725318,0.003229072448564693,0.02105911810901016
1772366192935131100,8.164131103515626,-0.027381927922368047,-0.002449831704376265,0.013825805854611097
1772366192945202200,8.1742021484375,-0.03980301807820797,0.004404555101878941,0.025313633748330174
1772366192955272000,8.18427197265625,-0.02184066040813923,-0.001443650336517021,0.015566950433515012
1772366192965342000,8.194342041015625,-0.024384499672055242,-0.002603917154390365,0.010751987899839877
1772366192975413000,8.2044130859375,-0.028424714973568913,-0.0073036192779429255,0.01003094361629337
1772366192985483000,8.21448291015625,-0.032469021928310395,-0.009571500277845188,0.015168671830929814
1772366192995553000,8.224552978515625,-0.03232055336833,0.005278798919450492,0.015151684163510799
1772366193005624000,8.2346240234375,-0.026480010646581648,0.001884416373958811,0.019896467537805437
1772366193015694000,8.244694091796875,-0.03710311146974563,0.008652412671549245,0.010664163485914467
1772366193025764000,8.25476416015625,-0.026781623941659925,-0.0028207473760005087,0.00831763689238578
1772366193035834000,8.264834228515625,-0.03291267404258251,0.0035266214898787437,0.012903028453886509
1772366193045905200,8.2749052734375,-0.051016486009955404,0.0025931674315128475,0.008770787487365305
1772366193055975000,8.284974853515624,-0.04292904114425182,0.002346380463056266,0.02087656461633742
1772366193066045000,8.295044921875,-0.03978548242151737,-0.007442890751315281,0.011645502673462033
1772366193076116000,8.305115966796874,-0.018830957198143004,-0.005830158325051888,0.00905738587640226
1772366193086186000,8.31518603515625,-0.03888999488651752,-0.0003455072357319295,0.010965192259103059
1772366193096256000,8.325256103515626,-0.023629297390580176,0.00678005206156522,0.016769713819399474
1772366193106327000,8.3353271484375,-0.03979249668419361,0.0004698916672263294,0.006388860786892474
1772366193116397000,8.34539697265625,-0.0403898780554533,-0.00028035131134092805,0.01284950816836208
1772366193126467000,8.355467041015626,-0.033809915143251414,0.005074764247331768,0.012902115138433872
1772366193136538000,8.3655380859375,-0.032759529307484624,0.00734017016235739,0.01596767672151327
1772366193146608000,8.375608154296875,-0.031710897037386894,0.005077339796908199,0.018228461260348557
1772366193156678000,8.385677978515625,-0.037107787644863124,-0.0011392879619263113,0.012326945598982274
1772366193166748200,8.395748046875,-0.03891045315265655,0.0006279317731503397,0.016545038218051193
1772366193176819200,8.405819091796875,-0.039055999103188514,0.008304348152549938,0.020533852125890553
1772366193186889000,8.415888916015625,-0.03067278616130352,0.0000040642537642270326,0.008484700554981827
1772366193196959000,8.425958984375,-0.039054245537519454,0.004574504841305315,0.011151618209294974
1772366193207030000,8.436030029296875,-0.03292144187092781,-0.002040273655951023,0.007240107321366668
1772366193217100000,8.44610009765625,-0.034410219123959536,-0.004737385519128293,0.013995061474293469
1772366193227170000,8.456170166015625,-0.04009469450116157,-0.009228860852634534,0.0035536373609676955
1772366193237241000,8.466240966796875,-0.04338672178387642,-0.002104918123688549,0.012488310173153877
1772366193247311000,8.47631103515625,-0.03291150499880314,-0.001712557805236429,0.014132862509787082
1772366193257384000,8.486384033203125,-0.033361586853861806,-0.007496246640058234,0.01407817318048328
1772366193267454200,8.4964541015625,-0.03096855423748493,-0.006139507402013987,0.009414090359583497
1772366193277524000,8.50652392578125,-0.02916822681725025,-0.006665102178696543,0.015043620679154992
1772366193287595000,8.516594970703125,-0.025868016228079795,-0.0007139021567068994,0.013573730789683758
1772366193297665000,8.5266650390625,-0.030050270348787305,0.00040416948725469407,0.010773322948813438
1772366193307735000,8.536735107421874,-0.03483808914721012,-0.004983524033613503,0.008542275961115956
1772366193317805000,8.54680517578125,-0.04201777151823043,-0.008153934230655432,0.013098843286931514
1772366193327876000,8.5568759765625,-0.028248189362883567,0.005933801362616941,0.010326857822947203
1772366193337945900,8.56694580078125,-0.04111526972055435,0.007149488162156194,0.015458010166324674
1772366193348016000,8.57701611328125,-0.04546060544848442,-0.0014055102832149714,0.015012677551619707
1772366193358087200,8.587087158203126,-0.027495325168967244,-0.005872134303255006,0.016871164899878204
1772366193368157200,8.5971572265625,-0.03407879521250724,-0.010295184043049811,0.004624371865019202
1772366193378227000,8.60722705078125,-0.032577742999792096,-0.0055128725368063895,0.013867014647834002
1772366193388298000,8.617298095703125,-0.037515783923864364,0.001290925726527348,0.00755728351175785
1772366193398368000,8.627367919921875,-0.028843817168474197,0.002943588304379955,0.00709693599101156
1772366193408438000,8.63743798828125,-0.03647884209156036,-0.004208785934606567,0.009426949841156601
1772366193418509000,8.647509033203125,-0.0322942498832941,-0.007781557254306972,0.010010339219681919
1772366193428579000,8.6575791015625,-0.034389176335930825,-0.0009282938260585069,0.011651859349012373
1772366193438648800,8.66764892578125,-0.03318973741829395,-0.0019867899030447003,0.014968436551094054
1772366193448719000,8.677718994140625,-0.02734744113087654,-0.0010482943433802573,0.01077657435182482
1772366193458790100,8.6877900390625,-0.03332651554048061,0.00586175903971307,0.013779299831762909
1772366193468860200,8.697860107421874,-0.04886895258724689,0.012715954049723222,0.01733593286741525
1772366193478930000,8.707929931640624,-0.046026422637701035,-0.0029035211554728447,0.0194013774972409
1772366193489001000,8.7180009765625,-0.025370003578066826,-0.002257880195695907,0.02221588692869991
1772366193499071200,8.7280712890625,-0.025227380236983298,-0.0009901709479745477,0.011447605481185019
1772366193509141000,8.73814111328125,-0.033906361255049706,0.0032099750224500894,0.013096286003664135
1772366193519212000,8.7482119140625,-0.03793956229388713,0.006897778423409909,0.012346600147522984
1772366193529282000,8.758281982421876,-0.02266658983826637,-0.00829099548063241,0.01165993305761367
1772366193539352000,8.76835205078125,-0.02880582324564457,-0.008551125987851993,0.01573083575833589
1772366193549423000,8.778423095703126,-0.01998304984271526,-0.000561889932770282,0.010338292532414197
1772366193559493000,8.7884931640625,-0.02850420995056629,0.00024375476115383207,0.009648812430910765
1772366193569563100,8.798563232421875,-0.025957448077201843,0.0028796562226954844,0.015083368167653679
1772366193579633000,8.8086328125,-0.034929859083890916,-0.0006920921836979687,0.018670432874187827
1772366193589704000,8.818703857421875,-0.032684710505604744,-0.0007384520760737359,0.00807385473176837
1772366193599774200,8.828774169921875,-0.03283551715314388,0.004182034924998879,0.01537540991678834
1772366193609844000,8.838843994140625,-0.03299216901957989,0.002688864624639973,0.011890709606185554
1772366193619915000,8.8489150390625,-0.043918052181601525,0.0012582746990956366,0.00568904195446521
1772366193629985000,8.858985107421875,-0.03344341991841793,-0.006239122718432918,0.006430507971532643
1772366193640055000,8.869054931640624,-0.033742110604047776,0.0018216168034356087,0.00927950419448316
1772366193650126000,8.8791259765625,-0.032249826219677924,0.0027773192262277005,0.012041991177760064
1772366193660196000,8.889196044921874,-0.022674773144721983,-0.00483252558982931,0.020504772161878643
1772366193670266000,8.89926611328125,-0.028065234011411665,-0.0024002752079162744,0.009615165889635681
1772366193680336000,8.9093359375,-0.03225041074156761,-0.0028171489131171255,0.011384221388772129
1772366193690407000,8.919406982421876,-0.036597500035166736,-0.018438642545463516,0.010449972745962441
1772366193700477200,8.929477294921876,-0.02433189270198345,-0.005175996132101864,0.004936689217202365
1772366193710547000,8.939546875,-0.0247872352540493,-0.007484784531127661,0.005705737360939383
1772366193720618000,8.949617919921875,-0.04004501014053821,-0.002122271117288619,0.013759353022277354
1772366193730688000,8.95968798828125,-0.035405075380206104,-0.0071565115579869595,0.007957900201901793
1772366193740758000,8.969758056640625,-0.025837621089816094,-0.0056097296405583615,0.017814071773178876
1772366193750829000,8.9798291015625,-0.02748889542818069,0.004535524537786841,0.01054272906333208
1772366193760899000,8.989899169921875,-0.042748423880338664,0.0006124419430736452,0.006727627754583954
1772366193770968800,8.99996875,-0.03706804015636444,-0.009115975062688813,0.013916443280130624
1772366193781039900,9.010039794921875,-0.0396142175078392,-0.002425473581254482,0.008647964825294912
1772366193791110100,9.020110107421875,-0.03197451640963554,0.0003570058772806078,0.01050897292420268
1772366193801180200,9.03018017578125,-0.030920038920640942,-0.0010787260142620652,0.010240750442072748
1772366193811250000,9.04025,-0.03585866436660289,0.004677362427581102,0.009785627085715532
1772366193821321000,9.050321044921875,-0.04228372897803783,-0.005020257581118494,0.012250555894523858
1772366193831391000,9.060390869140624,-0.04423077139258384,-0.0012401727868244052,0.013415544553287327
1772366193841461000,9.0704609375,-0.02538110949397087,-0.00008751388667151331,0.010196399843692779
1772366193851532000,9.080531982421874,-0.02104921776950359,0.0024050701140426096,0.008956300122104585
1772366193861602000,9.09060205078125,-0.03391571360528469,0.00009531360063701868,0.017235248971916733
1772366193871671800,9.100671875,-0.034819968968629836,-0.004386087863426655,0.00841039320975542
1772366193881742800,9.110742919921876,-0.031984453281760215,-0.005392333163367584,0.01123293981719762
1772366193891813000,9.120813232421876,-0.02839256626963615,-0.004933593077817932,0.014088073519989848
1772366193901883100,9.130883056640625,-0.030942250752449035,-0.005875422238884494,0.011398542175069451
1772366193911953000,9.140952880859375,-0.03453589133024215,0.005256431824015453,0.017465660194307564
1772366193922024000,9.15102392578125,-0.04142039014697075,-0.002858576902048662,0.01356814129911363
1772366193932094200,9.16109423828125,-0.03453939846158027,0.003515058916248381,0.012794709241203963
1772366193942164000,9.1711640625,-0.02690437353849411,-0.00047737172078341243,0.006858122266456484
1772366193952235000,9.181235107421875,-0.04352408442795276,-0.0016690109244547784,0.01157872104756534
1772366193962305000,9.191304931640625,-0.04054010018110275,-0.0023926307575777173,0.009139949593320488
1772366193972375000,9.201375,-0.03023088761270046,0.0020375885085202753,0.01238550738580525
1772366193982446000,9.211446044921875,-0.04071370318233967,-0.002250820267247036,0.013412475813366471
1772366193992516000,9.22151611328125,-0.03428688500523567,0.007366866373037919,0.008934307486005127
1772366194002586000,9.231586181640624,-0.03922434140741825,-0.006834622659860178,0.009410729358717798
1772366194012655900,9.24165576171875,-0.02979951045811176,-0.00675105429594405,0.016707791031710804
1772366194022727000,9.251726806640624,-0.03264262492954731,-0.005122000922542065,0.015651413846574723
1772366194032797200,9.261797119140626,-0.043727498045563695,-0.0022016656295862046,0.017164010366611183
1772366194042867000,9.271866943359376,-0.03999064960479736,-0.0011661303030792622,0.011681523834913969
1772366194052938000,9.28193798828125,-0.039994741258025164,0.00755670812302269,0.010820778819732367
1772366194063008000,9.292008056640626,-0.034468086791038514,-0.008175890334136784,0.012076514501869678
1772366194073078000,9.302078125,-0.037163901746273036,-0.005016677384544164,0.010982179926522076
1772366194083149000,9.312149169921875,-0.03881342251896858,-0.00019888357296586034,0.011650288446433841
1772366194093219000,9.322218994140625,-0.03313596140444278,-0.0032695597225800154,0.009976473482698202
1772366194103289000,9.3322890625,-0.034790158352255816,-0.006738468809006735,0.01726871285010129
1772366194113358800,9.34235888671875,-0.04047989442646503,-0.0013574242246337234,0.01374473997503519
1772366194123430000,9.352429931640625,-0.036138065829873084,-0.002032053816877305,0.006180917124636471
1772366194133500200,9.362500244140625,-0.03104571112692356,-0.0029556166688911615,0.0008894961856305599
1772366194143570000,9.37256982421875,-0.03777823425233364,-0.004327343413513153,0.010043583902157843
1772366194153641000,9.382640869140625,-0.03418693176209926,-0.0005123060368467122,0.011069712079502641
1772366194163711000,9.3927109375,-0.03329085970520973,-0.007569868998695164,0.006983831005357205
1772366194173781000,9.402781005859374,-0.036133974176645274,0.0016612934088800102,0.015055311116948723
1772366194183852000,9.41285205078125,-0.033144144710898396,0.002472755922237411,0.013029979301802812
1772366194193922000,9.422922119140624,-0.031048049214482305,-0.01431354370578192,0.012441219628416001
1772366194203992000,9.432991943359376,-0.03763151925802231,-0.009172116563562304,0.009480981583334505
1772366194214062000,9.44306201171875,-0.04406885882914066,-0.0052398186159320174,0.008711458515562117
1772366194224133000,9.453133056640626,-0.030011107382178305,0.0009325498760677874,0.010483436624146997
1772366194234203100,9.463203125,-0.028223054921627043,0.0027603224256541577,0.010911050919070839
1772366194244273000,9.47327294921875,-0.03705167354345321,-0.005098537848563864,0.013881627695076167
1772366194254344000,9.483343994140625,-0.026588147196173667,-0.006550481089390814,0.0051072600111365316
1772366194264414000,9.4934140625,-0.031384733822941775,-0.00017073519071564077,0.009141410898044705
1772366194274484000,9.50348388671875,-0.031547230908274645,-0.0020652802330441773,0.0179897571336478
1772366194284554000,9.513553955078125,-0.04247603667974472,-0.0035799043133854865,0.013217245502211152
1772366194294625000,9.523625,-0.03215747176110744,0.003943650458706542,0.010985723590478301
1772366194304695000,9.533695068359375,-0.02019581581056118,-0.0019057057571597396,0.009626856327429413
1772366194314765000,9.54376513671875,-0.03516308331787586,0.0020168105819728223,0.011759484441950916
1772366194324836000,9.553836181640625,-0.03844868085980415,0.007464289732370525,0.014424794661067426
1772366194334906000,9.563906005859375,-0.036514497926831244,0.007251131038879975,0.01225333237349987
1772366194344976000,9.573975830078124,-0.03054243777990341,-0.00010510434228926897,0.007748312571831047
1772366194355047000,9.584046875,-0.03219371211826801,-0.007723141597956419,0.008235109708085655
1772366194365117200,9.5941171875,-0.03877718216180801,-0.006686017102561891,0.004085990671999752
1772366194375187000,9.60418701171875,-0.03533668631911278,-0.002234289257554337,0.013475896438397467
1772366194385257000,9.614257080078126,-0.03728548229932785,0.001400687977625057,0.011611490806005894
1772366194395328000,9.624327880859376,-0.028917466926574705,-0.004491393135115504,-0.0023901830721646546
1772366194405398000,9.63439794921875,-0.03714578156769276,-0.00263210206925869,0.006751702749915421
1772366194415468000,9.644468017578125,-0.03475742512643337,0.0049334834799636155,0.017820757242292165
1772366194425539000,9.6545390625,-0.03954933557808399,-0.0031962022254243493,0.012387918538600206
1772366194435609000,9.664609130859375,-0.03700608083605766,-0.012172266493923962,0.007312332307361066
1772366194445678800,9.674678955078125,-0.047183775979280466,-0.0004883041067514568,0.007453348213247954
1772366194455750000,9.68475,-0.03193184631168842,0.002337128577521071,0.01363733407780528
1772366194465820200,9.694820068359375,-0.03867079917788505,-0.007257085855631157,0.004192190992832184
1772366194475890000,9.704889892578125,-0.032683541461825366,0.0018235804316587745,0.008269194640778004
1772366194485960000,9.7149599609375,-0.028639819028973577,-0.005808101756870746,0.012830913065746425
1772366194496031000,9.725031005859375,-0.03417582584619522,0.004904960638377815,0.013283807932399213
1772366194506101200,9.735101318359375,-0.03596446282863617,0.007989747511735186,0.010913535137102007
1772366194516171000,9.7451708984375,-0.04404606247544288,-0.0004911719172727316,0.010790456746704875
1772366194526242000,9.755241943359374,-0.03104045042991638,-0.001717480575526133,0.006600823037140071
1772366194536312000,9.76531201171875,-0.025061376020312307,-0.0029499815125484017,0.008873005752824247
1772366194546381800,9.7753818359375,-0.030599136403203008,0.007159178439108654,0.011418562049791216
1772366194556452000,9.7854521484375,-0.02970540243387222,-0.00106762009835802,0.005478833269886672
1772366194566523100,9.795523193359376,-0.02627425894141197,0.003662924688030034,0.006462364414520561
1772366194576593000,9.805593017578126,-0.04109481145441532,-0.00404347583767958,0.0112368488073349
1772366194586663000,9.815662841796875,-0.03360767056941986,0.004441133385756984,0.006404789008386432
1772366194596734000,9.82573388671875,-0.044831659895181654,0.0024709018918685614,0.010863448917679487
1772366194606804200,9.83580419921875,-0.043189153385162354,0.009324384515825658,0.012128427352197468
1772366194616874000,9.8458740234375,-0.03855214123427868,0.0009854399739298969,0.014373502865247427
1772366194626945000,9.855945068359375,-0.028525252738595006,-0.0006108801736496389,0.006030731531605124
1772366194637015000,9.86601513671875,-0.035270050823688504,-0.001260950713371858,0.008955350274033843
1772366194647085000,9.8760849609375,-0.04424947609305382,-0.0034146307490766047,0.013545344945415854
1772366194657155000,9.886155029296875,-0.0408124873816967,-0.005284671537810936,0.0076295815629884595
1772366194667226000,9.89622607421875,-0.03272270442843437,0.0009663973467424512,0.008008570943214
1772366194677295900,9.9062958984375,-0.027187282133102415,0.005291484871087595,0.002601232006959617
1772366194687366000,9.916365966796874,-0.03482406062185764,-0.003245941384974867,0.004574322178214788
1772366194697437000,9.92643701171875,-0.03766483700573444,-0.011213303534965961,0.00850632786490023
1772366194707507200,9.936507080078124,-0.028837387427687645,-0.005984070245129988,0.008812032813206314
1772366194717577000,9.946576904296874,-0.02658931623995304,-0.001749958073021844,0.007407426712289452
1772366194727647000,9.95664697265625,-0.030635376760363577,-0.0015519969486631451,0.010991970668174325
1772366194737718000,9.966718017578126,-0.03288110986053944,-0.0028756833004765212,0.012283873642235994
1772366194747788000,9.9767880859375,-0.03423544707894325,-0.003071552932448685,0.010147373070195316
1772366194757858000,9.986858154296876,-0.0204693720549345,0.0014085333573631942,-0.0009673837274312972
1772366194767929000,9.99692919921875,-0.04142272823452949,0.0034761516779661175,0.008952902588620781
1772366194777998800,10.006998779296875,-0.043967152020335194,-0.0039331838636193425,0.016407931302301584
1772366194788069000,10.017069091796875,-0.03768821788132191,0.004254323843074962,0.012224836931377648
1772366194798139100,10.02713916015625,-0.02423077041506767,0.002132363253040239,0.008845314028300345
1772366194808210200,10.037210205078125,-0.03531272092163563,-0.000801735703786835,0.005195230555534363
1772366194818280000,10.047280029296875,-0.037707507103681565,0.00027959325951524075,0.0200008412277326
1772366194828350000,10.057349853515625,-0.0381546663492918,0.0007744184385985135,0.015519713758304713
1772366194838421000,10.0674208984375,-0.02408522446453571,-0.005011736347945407,0.006446509258262813
1772366194848491000,10.077490966796875,-0.02828209163248539,0.0008112798502668738,0.011073840265348554
1772366194858561000,10.08756103515625,-0.03531915066242218,0.00020442739776335657,0.0021879384983330965
1772366194868631000,10.097631103515624,-0.037864743492007254,-0.005140166766894981,0.009983195484429597
1772366194878701800,10.107701904296874,-0.03351180897951126,-0.003630803383560851,0.008794460623897611
1772366194888772000,10.117772216796874,-0.03829612064659595,-0.010803553690295667,0.014387787118926644
1772366194898842000,10.127842041015626,-0.03439385251104832,-0.0014840554121416062,0.008973032061196862
1772366194908913200,10.1379130859375,-0.03782324243783951,0.0056885670304298395,0.0019123364273458717
1772366194918983000,10.14798291015625,-0.033627544313669204,0.001794838394364342,0.009676211894489825
1772366194929053200,10.15805322265625,-0.04260521601736545,0.004954179208120331,0.007746997397579252
1772366194939124200,10.168124267578126,-0.043052375262975694,0.0018084376614540814,0.005995514087751507
1772366194949194000,10.178194091796875,-0.03601940788626671,0.004694331828691065,0.00989146208036691
1772366194959264000,10.188263916015625,-0.02315408109426498,-0.0017825543015263974,0.014478643740154801
1772366194969334000,10.198333984375,-0.03527940317392349,-0.0019122450958006082,0.01321830494813621
1772366194979404800,10.20840478515625,-0.045452422142028805,-0.003561345743387937,0.009561974397674202
1772366194989475000,10.21847509765625,-0.04081424094736576,-0.012813934531481936,0.009110248574800788
1772366194999545000,10.228545166015625,-0.03318272315561771,-0.003525361114554107,0.008805493474565445
1772366195009616100,10.2386162109375,-0.03900982187390327,-0.0051080180629622185,0.01022164388280362
1772366195019686000,10.248685791015625,-0.04244271893203258,-0.004147402003034949,0.012788608293980359
1772366195029756200,10.258756103515625,-0.03615560148656368,-0.0024587913289666175,0.007616831679269671
1772366195039826000,10.268825927734374,-0.031218145084381102,-0.008277423613006249,0.011355214489996433
1772366195049897000,10.27889697265625,-0.03061608753800392,-0.00164829692998901,0.008893135225400329
1772366195059967000,10.288967041015624,-0.03944762876927852,-0.0021547577479388564,0.006153590726293623
1772366195070037200,10.299037353515626,-0.03690495854914188,-0.000256175851309672,0.011993621991388499
1772366195080108000,10.30910791015625,-0.037953590819239616,0.00015624087448231876,0.004062755926884711
1772366195090178000,10.319177978515626,-0.03361760744154453,0.0028704865355510265,0.011654233969189225
1772366195100248000,10.329248046875,-0.02644201672375202,0.01144609851068817,0.013752192629128693
1772366195110317800,10.33931787109375,-0.022403554987907408,0.009971541579253972,0.007998889799416065
1772366195120388900,10.349388916015625,-0.023299627044796944,-0.004886420334689319,0.014196940721943973
1772366195130459100,10.359459228515625,-0.029599603971838948,-0.0031230730571318414,0.0105853991612792
1772366195140529000,10.36952880859375,-0.03618307401537895,-0.0001397372642531991,0.003263751036301255
1772366195150600000,10.379599853515625,-0.03827449333667755,-0.001503070639865473,0.013626520422846079
1772366195160670000,10.389669921875,-0.02885141595304012,-0.0020050927447155115,0.011732084978371858
1772366195170740200,10.399740234375,-0.01823474487066269,0.00001340747084468603,0.0064461073994636535
1772366195180810000,10.40981005859375,-0.01794365296959877,-0.0063088086874689905,0.00865570974033326
1772366195190881000,10.419881103515625,-0.07060965975224971,-0.003503825136180967,0.014769516445510089
1772366195200951000,10.429950927734374,0.004371054691076279,-0.001515628727339208,-0.009649762278981506
1772366195211021000,10.44002099609375,0.19634850153028963,0.00826397047638893,-0.041259500496834516
1772366195221092000,10.450092041015624,-0.1459475170701742,-0.0037641383064910766,0.04530472076702863
1772366195231162000,10.460162109375,-0.10586275944113731,-0.0023893519551027565,0.011316745643131435
1772366195241232000,10.47023193359375,-0.09386720122098922,-0.008871690578572452,0.021230638751015066
1772366195251302000,10.480302001953126,-0.08972644815444945,0.009230623551458119,0.016704101237282155
1772366195261373000,10.490373046875,-0.13667290824651718,-0.00008101108064875006,0.04598579836636781
1772366195271443200,10.500443115234376,-0.05589432117938995,-0.0013749507481697946,0.008820764108933508
1772366195281513000,10.510512939453125,0.04625321713089943,0.0026429705231450495,0.01250285015515983
