time,seconds_elapsed,z,y,x
1772366282657562400,0.103562255859375,-0.00048326049000024796,0.004176190122961998,-0.0012771477922797203
1772366282667632600,0.113632568359375,-0.0006845956668257713,-0.000141859520226717,-0.004181325435638428
1772366282677702700,0.12370263671875,0.0007641641423106194,0.001520219724625349,0.0006368653848767281
1772366282687772400,0.1337724609375,0.002580254338681698,-0.0000061248429119586945,-0.0019025001674890518
1772366282697843500,0.143843505859375,-0.0005179895088076591,-0.0029545568395406008,-0.0017736703157424927
1772366282707913700,0.153913818359375,-0.000057528726756572723,0.00074377516284585,-0.0016322564333677292
1772366282717983500,0.1639833984375,-0.0008076918311417103,0.0016093081794679165,-0.0021370956674218178
1772366282728053000,0.174052978515625,0.0009164391085505486,0.0029712487012147903,0.001942334696650505
1772366282738123300,0.184123291015625,0.00015256740152835846,-0.002292443299666047,0.0003921752795577049
1772366282748193000,0.194193115234375,0.00107881473377347,0.004010993055999279,-0.0017601912841200829
1772366282758263000,0.204262939453125,-0.0007765893824398518,-0.0021107206121087074,0.0009931949898600578
1772366282768333000,0.2143330078125,0.0006964053027331829,0.0017029261216521263,-0.0015567820519208908
1772366282778403000,0.224403076171875,-0.0017903093248605728,0.0006223767995834351,-0.0016647763550281525
1772366282788473000,0.23447314453125,-0.001219860278069973,-0.0007246499881148338,0.0006401892751455307
1772366282798543000,0.244543212890625,-0.0009808344766497612,-0.0005351011641323566,0.0013305647298693657
1772366282808613000,0.254613037109375,0.0019896551966667175,-0.0007228539325296879,-0.00008543860167264938
1772366282818683100,0.26468310546875,-0.000022781547158956528,0.0006726263090968132,-0.000007694587111473083
1772366282828753000,0.2747529296875,0.0015183896757662296,0.0008939350955188274,-0.0008338075131177902
1772366282838823200,0.2848232421875,-0.002904403954744339,0.003568741027265787,-0.0015593497082591057
1772366282848893200,0.29489306640625,0.0002620946615934372,-0.0012451885268092155,-0.00006345193833112717
1772366282858964000,0.3049638671875,-0.0007528681308031082,0.000002857297658920288,0.00011030398309230804
1772366282869034000,0.315033935546875,0.00005034124478697777,0.00046171993017196655,-0.0015363283455371857
1772366282879104300,0.325104248046875,-0.0019541322253644466,-0.00022187642753124237,0.00029286835342645645
1772366282889174000,0.335174072265625,-0.00013359496369957924,0.0022418140433728695,-0.00047518685460090637
1772366282899244000,0.345244140625,-0.0012646960094571114,-0.004659361205995083,0.0009826375171542168
1772366282909314000,0.35531396484375,0.0008336086757481098,0.0021551353856921196,0.000905405730009079
1772366282919384000,0.365384033203125,-0.0012445896863937378,0.0014947489835321903,-0.0014704745262861252
1772366282929454000,0.3754541015625,-0.0005204761400818825,-0.0005761249922215939,-0.000018785707652568817
1772366282939524000,0.385524169921875,-0.00011479994282126427,0.001596811693161726,-0.0006546620279550552
1772366282949594000,0.395593994140625,0.0015233103185892105,-0.0021380053367465734,-0.0003486648201942444
1772366282959664000,0.4056640625,0.0008762506768107414,-0.0006371224299073219,0.0005072643980383873
1772366282969734000,0.41573388671875,0.0007236511446535587,-0.000004621688276529312,-0.0020970404148101807
1772366282979804200,0.42580419921875,-0.0015824618749320507,0.003113602753728628,0.001685083843767643
1772366282989874200,0.435874267578125,0.002519871573895216,0.0008158269338309765,0.0018840217962861061
1772366282999944000,0.44594384765625,-0.0010558976791799068,-0.0009555825963616371,0.0005343211814761162
1772366283010015000,0.456014892578125,-0.0011898553930222988,0.0010404568165540695,-0.0008763549849390984
1772366283020085000,0.4660849609375,0.0004828707315027714,0.00046642497181892395,0.0006947498768568039
1772366283030155300,0.4761552734375,0.0009076446294784546,0.0013772263191640377,-0.0010749204084277153
1772366283040225000,0.48622509765625,0.00031342264264822006,-0.0007204902358353138,-0.001895897090435028
1772366283050295000,0.496294921875,0.0012527192011475563,0.00019776774570345879,-0.0023212041705846786
1772366283060365000,0.506364990234375,0.0005260389298200607,0.0018687928095459938,0.0012828828766942024
1772366283070435000,0.51643505859375,0.0011683930642902851,0.0006205691024661064,0.0009140344336628914
1772366283080505000,0.526505126953125,0.003412049263715744,-0.0017375184688717127,0.001703673042356968
1772366283090575000,0.5365751953125,0.0006737872026860714,0.0014414968900382519,0.0003063129261136055
1772366283100645000,0.54664501953125,0.0014608083292841911,0.0037255482748150826,0.0003672875463962555
1772366283110715100,0.556715087890625,-0.0002521369606256485,0.0034845322370529175,-0.0007738769054412842
1772366283120785000,0.566784912109375,0.002193697728216648,0.0009026248008012772,0.00017388910055160522
1772366283130855200,0.576855224609375,0.0002642371691763401,0.0017841309309005737,-0.002160903997719288
1772366283140925200,0.58692529296875,0.0007105767726898193,-0.0038778691086918116,-0.0011514592915773392
1772366283150995000,0.596994873046875,0.0004077753983438015,-0.000007763504981994629,-0.0005325404927134514
1772366283161066000,0.60706591796875,-0.00016709323972463608,0.002474965527653694,-0.000995047390460968
1772366283171136300,0.61713623046875,0.000011338386684656143,0.0004493654705584049,0.0007775528356432915
1772366283181206000,0.6272060546875,-0.0008023399859666824,-0.0011492480989545584,0.002462024800479412
1772366283191276000,0.637276123046875,-0.0006481427699327469,0.0006457222625613213,-0.0021255360916256905
1772366283201346000,0.647345947265625,-0.0019384506158530712,0.0001438632607460022,0.0007507828995585442
1772366283211416000,0.657416015625,-0.00006917770951986313,0.0003015222027897835,-0.0019762935116887093
1772366283221486000,0.667486083984375,-0.001026336569339037,0.0024143815971910954,0.0017167646437883377
1772366283231556000,0.67755615234375,-0.0005927742458879948,-0.00008526118472218513,0.00023684650659561157
1772366283241626000,0.687626220703125,0.0008647236973047256,0.00413158256560564,0.0002673761919140816
1772366283251696000,0.697696044921875,-0.0019158823415637016,0.0021893386729061604,-0.0002394234761595726
1772366283261766000,0.707765869140625,0.0009821048006415367,0.0006684008985757828,0.00041919387876987457
1772366283271836200,0.717836181640625,-0.0006360323168337345,0.0013006352819502354,-0.00015471689403057098
1772366283281906200,0.72790625,-0.0002936352975666523,0.0001127864234149456,0.0036978162825107574
1772366283291976000,0.737975830078125,0.00128482049331069,0.0037983348593115807,-0.0008918764069676399
1772366283302046000,0.7480458984375,0.001521775033324957,-0.002225294476374984,0.0012120027095079422
1772366283312117000,0.758116943359375,0.0024219234474003315,-0.0018705613911151886,0.0019515622407197952
1772366283322187300,0.768187255859375,-0.00043555814772844315,0.003018406219780445,-0.00289272703230381
1772366283332257000,0.778257080078125,-0.000994822010397911,-0.0018431942444294691,0.0018453029915690422
1772366283342327000,0.7883271484375,-0.0017878198996186256,-0.0008475263603031635,0.00095402542501688
1772366283352397000,0.79839697265625,0.00022100284695625305,-0.0005354038439691067,0.0008480316027998924
1772366283362467000,0.808467041015625,-0.00016863364726305008,0.0001035868190228939,0.0007024360820651054
1772366283372537000,0.818537109375,0.00015946757048368454,-0.0031140444334596395,-0.00036975275725126266
1772366283382607000,0.828607177734375,-0.0008836654014885426,-0.000018208753317594528,0.00023057963699102402
1772366283392677000,0.838677001953125,-0.00010335911065340042,-0.0003915838897228241,-0.0011462746188044548
1772366283402747100,0.8487470703125,0.001625430304557085,-0.00023488467559218407,0.0015633031725883484
1772366283412817000,0.85881689453125,-0.0003279978409409523,0.0010847114026546478,0.000881534069776535
1772366283422887200,0.86888720703125,-0.0017623994499444962,-0.0012147645466029644,-0.0013214228674769402
1772366283432957200,0.878957275390625,-0.0003384072333574295,-0.00028478866443037987,0.0003449171781539917
1772366283443027000,0.88902685546875,0.002741529606282711,-0.0011181309819221497,0.0009250277653336525
1772366283453098000,0.899097900390625,0.0007393648847937584,-0.0005990811623632908,-0.0013818023726344109
1772366283463168300,0.909168212890625,0.0007826327346265316,0.000032498035579919815,0.00027270615100860596
1772366283473238000,0.919238037109375,-0.0014826525002717972,-0.003198715392500162,-0.0011603403836488724
1772366283483308000,0.92930810546875,-0.0011728550307452679,-0.003667890327051282,0.001278027892112732
1772366283493378000,0.9393779296875,0.00031904829666018486,-0.00009525986388325691,-0.0002058856189250946
1772366283503448000,0.949447998046875,-0.00025049643591046333,-0.003717971034348011,0.0005477061495184898
1772366283513518000,0.95951806640625,0.0014174412935972214,-0.0006113937124609947,0.0007370561361312866
1772366283523588000,0.969588134765625,0.0011755255982279778,-0.0009012371301651001,0.0007999502122402191
1772366283533658000,0.979658203125,0.0013097487390041351,-0.001578745199367404,-0.001103677786886692
1772366283543728000,0.98972802734375,0.000830954872071743,-0.0011561145074665546,0.0005992874503135681
1772366283553798000,0.9997978515625,-0.0009855879470705986,0.0003299294039607048,-0.0004140455275774002
1772366283563868200,1.0098681640625,0.0017367941327393055,-0.0011619427241384983,-0.0001230984926223755
1772366283573938200,1.019938232421875,0.0002552778460085392,-0.0031377417035400867,0.0000998079776763916
1772366283584008000,1.030008056640625,0.002769648563116789,-0.00033889058977365494,0.0023117754608392715
1772366283594078000,1.040077880859375,0.0007962463423609734,-0.001393236219882965,0.0006267931312322617
1772366283604149000,1.05014892578125,-0.0002889195457100868,-0.004478472284972668,0.0005770716816186905
1772366283614219300,1.06021923828125,-0.000515288207679987,-0.0013415347784757614,-0.0016317544505000114
1772366283624289000,1.0702890625,0.001508690882474184,-0.0030516134575009346,-0.002054779790341854
1772366283634359000,1.080359130859375,0.0037105923984199762,-0.0031075398437678814,-0.0032864920794963837
1772366283644429000,1.090428955078125,0.00021826382726430893,-0.0021823321003466845,0.0006690938025712967
1772366283654499000,1.1004990234375,0.0017386623658239841,-0.0014387776609510183,0.000019283033907413483
1772366283664569000,1.110569091796875,-0.0016403859481215477,0.00030368659645318985,0.0003057578578591347
1772366283674639000,1.12063916015625,0.0017681936733424664,-0.0012974059209227562,-0.001149659976363182
1772366283684709000,1.130709228515625,0.0008633234538137913,0.00107851205393672,-0.00010721385478973389
1772366283694779100,1.140779052734375,0.003317160066217184,-0.0010408316738903522,-0.0007791295647621155
1772366283704849000,1.150848876953125,0.0014891158789396286,-0.0011720978654921055,-0.0019502174109220505
1772366283714919200,1.160919189453125,0.0009812507778406143,0.0028498079627752304,-0.0018663275986909866
1772366283724989200,1.1709892578125,-0.0005603623576462269,-0.0023476039059460163,-0.0009877663105726242
1772366283735059200,1.18105908203125,0.0001909155398607254,-0.0032671934459358454,-0.0015166699886322021
1772366283745129500,1.19112939453125,0.0011066077277064323,-0.0001235981471836567,0.0006572073325514793
1772366283755200500,1.201200439453125,-0.00030673202127218246,0.0019275681115686893,-0.00030712317675352097
1772366283765270300,1.211270263671875,-0.0007516229525208473,-0.0026631487999111414,-0.00011287909001111984
1772366283775340300,1.22134033203125,0.0005429401062428951,0.0011377143673598766,-0.002225564792752266
1772366283785410300,1.231410400390625,0.0005725868977606297,0.0025806049816310406,0.0003547258675098419
1772366283795480300,1.241480224609375,-0.000025292392820119858,0.0004271729849278927,-0.002402711659669876
1772366283805550300,1.25155029296875,-0.0005873166956007481,0.001347217708826065,0.0004553040489554405
1772366283815620400,1.261620361328125,0.0009272233583033085,0.0007554637268185616,-0.0009633619338274002
1772366283825690400,1.2716904296875,-0.0005849255248904228,0.0008141840808093548,0.00021749548614025116
1772366283835760400,1.281760498046875,-0.00044058263301849365,0.0004783598706126213,-0.0030651167035102844
1772366283845830400,1.291830322265625,-0.0006328974850475788,0.0010391706600785255,-0.0005971798673272133
1772366283855900200,1.301900146484375,-0.000020903069525957108,0.001210944727063179,0.00009257905185222626
1772366283865970400,1.311970458984375,-0.00007354654371738434,0.001368147786706686,0.0009454311802983284
1772366283876040200,1.322040283203125,-0.0005750199779868126,-0.000494200736284256,-0.00026177987456321716
1772366283886110200,1.332110107421875,0.000028040725737810135,-0.00044072791934013367,-0.0019075805321335793
1772366283896181200,1.34218115234375,-0.0006401459686458111,-0.0013259625993669033,0.0010996609926223755
1772366283906251500,1.35225146484375,-0.0018324819393455982,-0.0012320922687649727,0.0008895406499505043
1772366283916321300,1.3623212890625,0.0004210849292576313,-0.0022763176821172237,0.0030506961047649384
1772366283926391300,1.372391357421875,0.0016126795671880245,-0.0024461953435093164,0.0019170157611370087
1772366283936461300,1.38246142578125,-0.0018512937240302563,-0.0018198199104517698,-0.00009926315397024155
1772366283946531300,1.39253125,-0.0002774312160909176,-0.00029847724363207817,0.002878844738006592
1772366283956601300,1.402601318359375,0.001918344758450985,-0.001675864215940237,0.00026868004351854324
1772366283966671000,1.412671142578125,0.0006917878054082394,0.0003876439295709133,-0.0009925104677677155
1772366283976741400,1.422741455078125,-0.0009923949837684631,0.00003104656934738159,-0.0001245858147740364
1772366283986811400,1.432811279296875,0.0003909580409526825,-0.000007078051567077637,0.0010796505957841873
1772366283996881200,1.442881103515625,-0.0010303710587322712,-0.00036074547097086906,0.0009496882557868958
1772366284006951400,1.452951416015625,0.0002963785082101822,-0.00022476818412542343,0.00291452556848526
1772366284017021400,1.463021484375,0.0018207714892923832,0.0013744602911174297,0.000586656853556633
1772366284027091200,1.47309130859375,0.002382719423621893,0.0018703443929553032,-0.0007420098409056664
1772366284037161500,1.483161376953125,0.0005459371022880077,0.0006692586466670036,-0.0003302851691842079
1772366284047232500,1.493232421875,0.000020443927496671677,0.00021816091611981392,-0.0004508737474679947
1772366284057302300,1.50330224609375,0.001760819461196661,-0.00038424599915742874,-0.0009898971766233444
1772366284067372300,1.513372314453125,-0.00021174177527427673,-0.0009837551042437553,0.0028725191950798035
1772366284077442300,1.5234423828125,0.00006069941446185112,-0.0004436662420630455,0.0009907297790050507
1772366284087512300,1.53351220703125,0.002343264874070883,0.0005463524721562862,0.0003300430253148079
1772366284097582300,1.543582275390625,-0.0006780917756259441,-0.0005825618281960487,0.0012664105743169785
1772366284107652400,1.55365234375,0.00020513543859124184,-0.0008583413437008858,0.00022039562463760376
1772366284117722400,1.563722412109375,0.00002643745392560959,-0.001822671853005886,-0.0010416759178042412
1772366284127792400,1.57379248046875,0.00044259754940867424,-0.001540092984214425,0.00036068446934223175
1772366284137862100,1.583862060546875,0.000042856670916080475,-0.0013336979318410158,0.0008432492613792419
1772366284147932400,1.593932373046875,-0.0009968574158847332,-0.0010363999754190445,0.0009418269619345665
1772366284158002400,1.60400244140625,0.0000966368243098259,0.003955163061618805,-0.00040067266672849655
1772366284168072200,1.614072265625,-0.0017985445447266102,-0.003190105315297842,0.001127069815993309
1772366284178142200,1.62414208984375,0.0016776793636381626,-0.001497400226071477,-0.002160869538784027
1772366284188212500,1.63421240234375,0.0011383863165974617,-0.0013295018579810858,-0.0006105294451117516
1772366284198283500,1.644283447265625,0.00027259252965450287,-0.0012962124310433865,0.0007447535172104836
1772366284208353300,1.654353271484375,-0.0010691992938518524,-0.0007640798576176167,0.0009992150589823723
1772366284218423300,1.66442333984375,0.0013313740491867065,-0.0028011316899210215,0.0038123121485114098
1772366284228493300,1.674493408203125,-0.00004807952791452408,-0.002191849984228611,0.0006264597177505493
1772366284238563300,1.684563232421875,-0.0012627467513084412,0.0014305817894637585,0.00153406523168087
1772366284248633300,1.69463330078125,0.000737335067242384,0.00013591209426522255,-0.0011560581624507904
1772366284258703000,1.704703125,0.0001727449707686901,0.00013111811131238937,-0.0008671050891280174
1772366284268773400,1.7147734375,0.0006487551145255566,-0.0031576247420161963,-0.00042442604899406433
1772366284278843400,1.724843505859375,0.001011210959404707,0.0009625516831874847,-0.00012934766709804535
1772366284288913200,1.7349130859375,-0.0011294465512037277,0.001557591836899519,0.001771528273820877
1772366284298983400,1.7449833984375,-0.0012056129053235054,-0.0012776092626154423,0.0005845567211508751
1772366284309053400,1.755053466796875,-0.0007436880841851234,-0.004528513178229332,0.0004381360486149788
1772366284319123200,1.765123291015625,-0.0020792633295059204,0.00019726622849702835,-0.0000913003459572792
1772366284329193500,1.775193359375,-0.0015765214338898659,-0.0020381505601108074,0.0010118195787072182
1772366284339263500,1.785263427734375,-0.0012569418177008629,0.0016956012696027756,0.0019780145958065987
1772366284349334300,1.795334228515625,0.0032473173923790455,-0.0003357823006808758,0.00009337812662124634
1772366284359404300,1.805404296875,0.0012574037536978722,-0.003185630775988102,0.0005122935399413109
1772366284369474300,1.815474365234375,0.0010935766622424126,-0.0017338257748633623,0.0011579040437936783
1772366284379544300,1.82554443359375,0.0015359274111688137,-0.0006698928773403168,0.001788540743291378
1772366284389614300,1.8356142578125,0.00188743369653821,-0.00003876117989420891,-0.000853600911796093
1772366284399684400,1.845684326171875,-0.0029145115986466408,-0.000821197871118784,0.0012257955968379974
1772366284409754400,1.85575439453125,0.0015833829529583454,0.0005390807054936886,-0.0014464976266026497
1772366284419824400,1.865824462890625,-0.00047204503789544106,-0.0021568371448665857,-0.0018827226012945175
1772366284429894100,1.87589404296875,0.002418731339275837,-0.001436830498278141,0.0012984350323677063
1772366284439964400,1.88596435546875,-0.0030527333728969097,-0.002977202646434307,-0.0006318241357803345
1772366284450034400,1.896034423828125,0.0001645614393055439,0.002085405867546797,-0.0004800567403435707
1772366284460104200,1.906104248046875,-0.00010441802442073822,0.0005674040876328945,0.0017729774117469788
1772366284470174200,1.91617431640625,-0.0006993385031819344,0.00022202078253030777,-0.0011555003002285957
1772366284480244500,1.926244384765625,-0.0006431462243199348,0.0023661316372454166,0.0003651641309261322
1772366284490314200,1.936314208984375,-0.0007056337781250477,-0.004685652442276478,0.0027909772470593452
1772366284500385300,1.94638525390625,0.0012651053257286549,0.008989146910607815,0.0018471525982022285
1772366284510455300,1.956455322265625,-0.001898231916129589,-0.008527289144694805,-0.0008577378466725349
1772366284520525300,1.966525390625,0.000245080329477787,0.012629928067326546,-0.0004481440410017967
1772366284530595300,1.97659521484375,0.000605918001383543,-0.0011870847083628178,0.001708407886326313
1772366284540665300,1.986665283203125,-0.0006257938221096992,0.006679093930870295,-0.0000340975821018219
1772366284550735400,1.9967353515625,0.0005947654135525227,-0.001464375527575612,0.00009046867489814758
1772366284560805400,2.006805419921875,-0.0014468138106167316,0.0029631294310092926,-0.0014214077964425087
1772366284570875400,2.01687548828125,0.0017731147818267345,0.00116690993309021,0.0015948200598359108
1772366284580945200,2.026945068359375,-0.002065299078822136,-0.0010022346395999193,0.0013940175995230675
1772366284591015400,2.037015380859375,-0.0011369525454938412,-0.00039733853191137314,-0.0002559516578912735
1772366284601085400,2.04708544921875,-0.0002237549051642418,-0.001107337186113,-0.00008764024823904037
1772366284611155200,2.0571552734375,0.0018213777802884579,0.0015134685672819614,0.0006546974182128906
1772366284621225500,2.0672255859375,0.0027566803619265556,0.0035715592093765736,-0.0008752886205911636
1772366284631296500,2.077296630859375,-0.0014878199435770512,0.00368586927652359,-0.0018383515998721123
1772366284641366300,2.0873662109375,-0.0010934057645499706,0.0007414785213768482,0.0003209393471479416
1772366284651436300,2.097436279296875,0.00031643081456422806,0.002134936396032572,0.0012100432068109512
1772366284661506300,2.10750634765625,0.0004389365203678608,0.00237994734197855,0.0011921999976038933
1772366284671576300,2.117576416015625,0.0014960877597332,0.001605940517038107,-0.001620638184249401
1772366284681646300,2.127646240234375,-0.0001236465759575367,-0.0014271335676312447,-0.0017716391012072563
1772366284691716400,2.13771630859375,-0.0008011367172002792,-0.0005811364389955997,0.0005020089447498322
1772366284701786400,2.147786376953125,-0.0007731728255748749,-0.0029958244413137436,0.002468220889568329
1772366284711856400,2.1578564453125,-0.0009547499939799309,-0.0008388906717300415,0.0001608254387974739
1772366284721926100,2.167926025390625,-0.0008527506142854691,-0.002088711829856038,-0.00011827424168586731
1772366284731996400,2.177996337890625,0.00022352533414959908,-0.0017946206498891115,0.0028019659221172333
1772366284742066200,2.188066162109375,-0.00024519115686416626,-0.0001759515143930912,-0.000031371600925922394
1772366284752136200,2.19813623046875,0.001383709255605936,-0.001609513070434332,0.001710747368633747
1772366284762207200,2.208207275390625,-0.0010317778214812279,-0.001982355723157525,0.0009219199419021606
1772366284772277000,2.218277099609375,0.0013952483423054218,-0.0008083106949925423,0.0010717539116740227
1772366284782347300,2.22834716796875,0.0005350476130843163,0.0019845464266836643,0.0018999967724084854
1772366284792417300,2.238417236328125,-0.0015743006952106953,-0.000676171388477087,0.0008178064599633217
1772366284802487000,2.248487060546875,0.0018100440502166748,-0.0022096193861216307,0.001584797166287899
1772366284812557300,2.258557373046875,0.000628321897238493,0.0007610064931213856,0.001006796956062317
1772366284822627300,2.26862744140625,0.0013769366778433323,0.00033010682091116905,0.00016310811042785645
1772366284832697000,2.278697021484375,-0.0008262032642960548,-0.0003334800712764263,0.0009546075016260147
1772366284842767400,2.288767333984375,0.0006987224332988262,0.001950979232788086,-0.00002037547528743744
1772366284852837000,2.298837158203125,-0.0014827391132712364,0.0013480628840625286,0.0027120234444737434
1772366284862907100,2.3089072265625,-0.0025005992501974106,-0.0017792873550206423,-0.0026667630299925804
1772366284872977200,2.31897705078125,-0.0008007064461708069,0.0000700182281434536,0.000017034821212291718
1772366284883048200,2.329048095703125,-0.0012545092031359673,-0.0023545236326754093,0.0018378375098109245
1772366284893118200,2.3391181640625,-0.00010426482185721397,-0.0009028702042996883,-0.00008307117968797684
1772366284903188200,2.349188232421875,0.0008344994857907295,0.0005679936148226261,-0.0016998769715428352
1772366284913258200,2.35925830078125,-0.0003093164414167404,-0.00034356536343693733,-0.0022440217435359955
1772366284923328300,2.369328369140625,0.00011599017307162285,0.00010304665192961693,-0.00008233357220888138
1772366284933398300,2.379398193359375,-0.000666485633701086,0.0008042571134865284,0.0005639474838972092
1772366284943468000,2.389468017578125,-0.00033252546563744545,0.0031957756727933884,-0.002733311615884304
1772366284953538300,2.399538330078125,-0.0004326063208281994,-0.0003471802920103073,0.0021377913653850555
1772366284963608300,2.4096083984375,0.0012587672099471092,0.0016419347375631332,0.0009521516039967537
1772366284973678000,2.419677978515625,0.0005973167717456818,0.00017052050679922104,-0.00014172308146953583
1772366284983749000,2.4297490234375,0.0011808155104517937,0.0003739860840141773,0.0005903802812099457
1772366284993819100,2.439819091796875,0.00011103600263595581,0.0016395016573369503,0.001164378598332405
1772366285003889200,2.44988916015625,0.000876428559422493,0.00016943691298365593,-0.0006175423040986061
1772366285013959200,2.459959228515625,-0.00231747142970562,0.00007998431101441383,-0.0005487669259309769
1772366285024029200,2.470029296875,-0.0018791146576404572,0.0023671071976423264,-0.001572219654917717
1772366285034099200,2.48009912109375,-0.0005676671862602234,0.00029011955484747887,0.0016186367720365524
1772366285044169200,2.490169189453125,-0.0011445078998804092,0.0015212991274893284,-0.0007124282419681549
1772366285054239200,2.5002392578125,0.0013389079831540585,0.0005980762653052807,-0.0010495968163013458
1772366285064309200,2.510309326171875,0.0008400976657867432,0.0016098110936582088,-0.0007856776937842369
1772366285074379300,2.520379150390625,-0.0013371910899877548,-0.002570026321336627,0.00013495143502950668
1772366285084449300,2.53044921875,0.000508379191160202,0.0019195307977497578,-0.00016412138938903809
1772366285094520000,2.54052001953125,-0.00008477596566081047,0.0005758423358201981,0.0006481697782874107
1772366285104590000,2.550590087890625,-0.0013681533746421337,-0.003943808376789093,-0.0004607709124684334
1772366285114660400,2.560660400390625,-0.0032299254089593887,0.0007989197038114071,0.00009247008711099625
1772366285124730000,2.570730224609375,-0.0011454690247774124,0.0017446079291403294,0.00021257810294628143
1772366285134800100,2.580800048828125,-0.002215682528913021,-0.002853078069165349,-0.0025955289602279663
1772366285144870400,2.590870361328125,-0.0006066001951694489,-0.0006583668291568756,-0.0009768595919013023
1772366285154940200,2.600940185546875,-0.0018439576961100101,-0.001947328681126237,0.000571773387491703
1772366285165010200,2.61101025390625,-0.0005017244257032871,-0.0021366793662309647,0.0016532829031348228
1772366285175080200,2.621080078125,-0.00029126787558197975,0.0008847680874168873,0.001979224383831024
1772366285185150200,2.631150146484375,-0.0011173808015882969,-0.001982391346246004,0.001300118863582611
1772366285195220200,2.64122021484375,-0.0002970420755445957,0.00005811592563986778,0.0034065935760736465
1772366285205291300,2.651291259765625,-0.0013306145556271076,0.0009457478299736977,-0.0027186768129467964
1772366285215361000,2.661361083984375,-0.0007503754459321499,-0.00034613022580742836,0.0033103469759225845
1772366285225431300,2.671431396484375,-0.0013716905377805233,0.002163898665457964,0.0016567902639508247
1772366285235501300,2.681501220703125,-0.0004627928137779236,0.00023023458197712898,-0.00013937987387180328
1772366285245571000,2.691571044921875,0.0000727684237062931,-0.0011008130386471748,0.00043426547199487686
1772366285255641300,2.701641357421875,-0.0002124193124473095,0.0011029131710529327,0.000035120174288749695
1772366285265711400,2.71171142578125,-0.0012036478146910667,-0.001070758793503046,0.0011326093226671219
1772366285275781000,2.721781005859375,-0.0009365431033074856,0.00007015559822320938,0.0017673633992671967
1772366285285851100,2.73185107421875,0.0013689552433788776,-0.002673432929441333,0.0016254168003797531
1772366285295921200,2.741921142578125,-0.00009752297773957253,0.0006720577366650105,-0.001550368033349514
1772366285305992200,2.7519921875,-0.0003398703411221504,-0.0027354571502655745,0.001939704641699791
1772366285316062200,2.762062255859375,-0.002286194358021021,-0.0030204353388398886,0.0003916798159480095
1772366285326132200,2.77213232421875,-0.0017367848195135593,0.0010310313664376736,-0.0005084685981273651
1772366285336202200,2.7822021484375,-0.0007712030783295631,-0.002313682110980153,-0.0016869297251105309
1772366285346272300,2.792272216796875,-0.0002971603535115719,-0.00042310403659939766,0.0008052559569478035
1772366285356342300,2.80234228515625,0.00020706374198198318,0.0011122343130409718,-0.0012546544894576073
1772366285366412300,2.812412353515625,-0.0016733938828110695,0.00045256922021508217,0.0029126591980457306
1772366285376482300,2.822482421875,0.0018590139225125313,0.0016785264015197754,-0.0002340320497751236
1772366285386552000,2.832552001953125,0.001147150993347168,0.003216768614947796,-0.0007072752341628075
1772366285396622000,2.8426220703125,0.0007591764442622662,-0.0008839531801640987,-0.0002437308430671692
1772366285406693000,2.852693115234375,0.0005213562399148941,0.0007789246737957001,0.001224735751748085
1772366285416763400,2.862763427734375,-0.0006103604100644588,0.0015772106125950813,0.0014937017112970352
1772366285426833200,2.872833251953125,-0.001103844027966261,0.0016059726476669312,-0.0006277728825807571
1772366285436903200,2.882903076171875,-0.0003366200253367424,0.0005203606560826302,-0.0008582295849919319
1772366285446973200,2.89297314453125,0.001328654121607542,-0.0014282744377851486,0.001597205176949501
1772366285457043200,2.903043212890625,0.00006497092545032501,-0.0007799956947565079,-0.0006612921133637428
1772366285467113200,2.91311328125,-0.00002744048833847046,0.001605131197720766,0.00021488778293132782
1772366285477183000,2.923182861328125,0.0011569592170417309,-0.00019831350073218346,-0.0008089514449238777
1772366285487253200,2.933253173828125,0.0008067535236477852,-0.0026494869962334633,-0.004047355614602566
1772366285497323300,2.9433232421875,-0.0009127343073487282,-0.00042757531628012657,-0.0012303171679377556
1772366285507394300,2.953394287109375,0.001945369876921177,-0.0021967131178826094,0.001413668505847454
1772366285517464000,2.963464111328125,-0.0011344505473971367,-0.0008094380609691143,0.00006450433284044266
1772366285527534300,2.973534423828125,-0.0008319159969687462,-0.0010107732377946377,0.0008908826857805252
1772366285537604000,2.98360400390625,-0.0021764030680060387,-0.0010378463193774223,0.000932028517127037
1772366285547674000,2.993674072265625,-0.00028742291033267975,0.0007440745830535889,-0.0005257865414023399
1772366285557744400,3.003744384765625,0.0004741908051073551,-0.0018459532875567675,0.0026137903332710266
1772366285567814100,3.013814208984375,-0.0013873586431145668,0.00008723512291908264,-0.00034072063863277435
1772366285577884200,3.02388427734375,0.0005609272047877312,-0.0006252038292586803,0.0003603026270866394
1772366285587954200,3.0339541015625,-0.0013964963145554066,0.002932246308773756,-0.00005089025944471359
1772366285598024200,3.044024169921875,-0.00033656787127256393,-0.0007394552230834961,0.0013049747794866562
1772366285608095200,3.05409521484375,-0.00015866896137595177,0.000019812025129795074,-0.00035311002284288406
1772366285618165200,3.064165283203125,-0.0023946943692862988,-0.001275176415219903,-0.0008464688435196877
1772366285628235000,3.074235107421875,-0.0010287598706781864,-0.00431916955858469,-0.0011476725339889526
1772366285638305300,3.08430517578125,0.000482932198792696,-0.0008207643404603004,0.00025925785303115845
1772366285648375300,3.094375244140625,-0.002982639241963625,-0.0020247793290764093,0.001213734969496727
1772366285658445000,3.104445068359375,-0.0001816200092434883,0.0010930025018751621,-0.0009701577946543694
1772366285668515300,3.114515380859375,-0.00005964701995253563,-0.002100394107401371,0.0006887251511216164
1772366285678585300,3.12458544921875,0.0009919735603034496,-0.00017937691882252693,0.0006479974836111069
1772366285688655000,3.134655029296875,-0.0004613134078681469,-0.00015381071716547012,0.0014956817030906677
1772366285698725000,3.14472509765625,-0.002374386414885521,-0.0007211770862340927,-0.0008780462667346001
1772366285708796200,3.154796142578125,-0.0034242048859596252,0.0006604711525142193,-0.00022184383124113083
1772366285718866200,3.1648662109375,0.00010240636765956879,0.000046444591134786606,0.0012294203042984009
1772366285728936000,3.17493603515625,-0.0033463872969150543,-0.0010001775808632374,0.0008525829762220383
1772366285739006000,3.185005859375,-0.0014424370601773262,-0.00003248732537031174,-0.0006905244663357735
1772366285749076200,3.195076171875,-0.0003683837130665779,-0.002898314967751503,0.0006447844207286835
1772366285759146000,3.20514599609375,0.00001037726178765297,0.001315451692789793,0.00025212671607732773
1772366285769216000,3.215216064453125,0.00003221491351723671,0.0014099939726293087,-0.0013106158003211021
1772366285779286300,3.225286376953125,-0.0014598611742258072,-0.0012988743837922812,-0.0010346295312047005
1772366285789356000,3.23535595703125,-0.0008284253999590874,0.0005011563189327717,-0.0011448850855231285
1772366285799426000,3.245426025390625,0.00006185099482536316,-0.0013740046415477991,-0.0010744398459792137
1772366285809497000,3.2554970703125,0.001449091825634241,-0.00012791156768798828,0.0009743301197886467
1772366285819566800,3.26556689453125,-0.000442740973085165,0.0009687310084700584,0.0008561620488762856
1772366285829637000,3.27563720703125,0.0009194659069180489,0.0008848416619002819,-0.00200567115098238
1772366285839707100,3.28570703125,0.0017463741824030876,0.0005848752334713936,-0.001264491118490696
1772366285849777000,3.29577685546875,0.0013037566095590591,0.001315114088356495,-0.0009198784828186035
1772366285859847200,3.30584716796875,-0.00012581702321767807,-0.0018322833348065615,-0.001171635463833809
1772366285869917200,3.315917236328125,-0.000593733973801136,-0.0004186774604022503,-0.0002227509394288063
1772366285879987000,3.325987060546875,0.00026718713343143463,-0.002000395907089114,-0.0013057375326752663
1772366285890057000,3.336056884765625,0.0015023616142570972,-0.00009090965613722801,0.0002202540636062622
1772366285900127200,3.346127197265625,-0.0018633939325809479,-0.0014972626231610775,-0.0005746455863118172
1772366285910198000,3.356197998046875,0.0000700606033205986,0.0006303368136286736,-0.00092298723757267
1772366285920268000,3.36626806640625,-0.0008153202943503857,0.002008222509175539,-0.00002169795334339142
1772366285930338000,3.376338134765625,0.0013666078448295593,-0.0021569617092609406,-0.00190801452845335
1772366285940408000,3.386407958984375,-0.002042521722614765,0.0003924821503460407,0.0014027785509824753
1772366285950478000,3.39647802734375,-0.0012885807082057,0.001971204299479723,-0.0003290744498372078
1772366285960548000,3.406548095703125,0.0010854369029402733,0.00013073580339550972,-0.001357036642730236
1772366285970618000,3.4166181640625,0.0012169969268143177,0.0019720452837646008,0.0017340946942567825
1772366285980688100,3.426688232421875,0.0028068888932466507,0.0012933737598359585,0.0004919227212667465
1772366285990758100,3.436758056640625,-0.001298640388995409,0.0015293299220502377,0.0007832730188965797
1772366286000828000,3.446827880859375,0.00011731265112757683,0.00032371561974287033,-0.0006918841972947121
1772366286010899000,3.45689892578125,-0.0006241118535399437,-0.0005929446779191494,0.0018226727843284607
1772366286020969200,3.46696923828125,0.00020157033577561378,-0.001080220565199852,-0.0032918648794293404
1772366286031039000,3.4770390625,-0.0008154911920428276,-0.0017135203815996647,0.0001779673621058464
1772366286041109000,3.48710888671875,-0.0003418605774641037,-0.0002232985571026802,0.0017679762095212936
1772366286051179300,3.49717919921875,-0.0011820881627500057,0.00043317023664712906,-0.000136449933052063
1772366286061249000,3.5072490234375,-0.0006353645585477352,-0.0006169318221509457,-0.00017102714627981186
1772366286071319000,3.517319091796875,0.000014180317521095276,-0.0013857863377779722,0.0011501666158437729
1772366286081389300,3.527389404296875,-0.001216774806380272,0.0006599104963243008,0.0012546349316835403
1772366286091459000,3.537458984375,0.0016999193467199802,-0.0014969839248806238,-0.0013435455039143562
1772366286101529000,3.547529052734375,-0.0010653967037796974,0.0026195277459919453,-0.00013191904872655869
1772366286111600000,3.55760009765625,0.0017951042391359806,0.0030770590528845787,0.0003442540764808655
1772366286121670000,3.567669921875,0.000021037645637989044,0.00197976129129529,0.0003902893513441086
1772366286131740200,3.577740234375,0.0014692647382616997,0.0009408621117472649,-0.0016132071614265442
1772366286141810200,3.58781005859375,0.00018671434372663498,0.0022919275797903538,-0.0023072175681591034
1772366286151880000,3.5978798828125,-0.0004527107812464237,0.0002567400224506855,-0.00016949791461229324
1772366286161950200,3.6079501953125,0.0010755662806332111,-0.0016870603431016207,0.00019989721477031708
1772366286172020000,3.61802001953125,-0.00042911944910883904,0.0007097846828401089,-0.0017798962071537971
1772366286182090000,3.628090087890625,-0.0007135076448321342,0.00003062095493078232,0.001006624661386013
1772366286192160300,3.63816015625,0.000515274703502655,0.0028988453559577465,-0.0010336227715015411
1772366286202230000,3.64822998046875,-0.001051320694386959,0.000635653268545866,0.00025658123195171356
1772366286212301000,3.658301025390625,-0.000038520898669958115,0.00011820113286376,0.00001929420977830887
1772366286222371000,3.66837109375,0.0024090558290481567,-0.0025641729589551687,0.0015865527093410492
1772366286232441000,3.678441162109375,0.0010252776555716991,-0.0030541946180164814,-0.001043851487338543
1772366286242511000,3.688510986328125,-0.0017673671245574951,0.0007051378488540649,0.000763661228120327
1772366286252581000,3.6985810546875,0.001759990118443966,0.0016319178976118565,0.0012709936127066612
1772366286262651000,3.70865087890625,0.001271527260541916,0.0005311197601258755,-0.0017253207042813301
1772366286272721200,3.71872119140625,-0.0006195837631821632,-0.00244150054641068,0.0025077732279896736
1772366286282791200,3.728791259765625,0.00006866175681352615,0.0012543932534754276,0.000931866466999054
1772366286292861000,3.73886083984375,-0.00031723035499453545,0.000390463974326849,-0.002456206828355789
1772366286302931000,3.748930908203125,0.00019309855997562408,-0.004301705397665501,0.0003698272630572319
1772366286313001200,3.759001220703125,-0.00011050188913941383,0.0009540426544845104,0.0006683673709630966
1772366286323072000,3.769072021484375,0.00019874516874551773,-0.0001612096093595028,0.00021500792354345322
1772366286333142000,3.77914208984375,0.00007570674642920494,0.0009858137927949429,-0.0006308117881417274
1772366286343212000,3.7892119140625,0.0015758434310555458,-0.0032659119460731745,0.001192968338727951
1772366286353282000,3.799281982421875,-0.0008593513630330563,0.0006614518351852894,0.00036632269620895386
1772366286363352000,3.80935205078125,0.0021164370700716972,-0.0019607669673860073,0.00006045494228601456
1772366286373422000,3.819422119140625,0.0018370714969933033,-0.0008835182525217533,-0.0026945853605866432
1772366286383492000,3.8294921875,0.0007100659422576427,-0.00069016357883811,-0.0021902993321418762
1772366286393562000,3.83956201171875,-0.0006271074526011944,-0.0012765917927026749,0.002726694568991661
1772366286403632000,3.849632080078125,0.00009341258555650711,-0.0006751138716936111,-0.0007803961634635925
1772366286413702000,3.859701904296875,-0.0012112702243030071,0.0033609066158533096,0.0007485244423151016
1772366286423773000,3.86977294921875,0.00006261561065912247,-0.002611207775771618,0.00036489684134721756
1772366286433843200,3.87984326171875,0.0010740840807557106,0.00006580166518688202,-0.0011970466002821922
1772366286443913000,3.889912841796875,-0.0005876361392438412,0.00031367549672722816,-0.00007317867130041122
1772366286453983000,3.89998291015625,0.0005162442103028297,-0.004080806393176317,0.00032682809978723526
1772366286464053200,3.91005322265625,-0.00013639824464917183,-0.0008317111060023308,-0.0009240200743079185
1772366286474123000,3.920123046875,-0.00041176937520504,-0.0019664838910102844,0.00034577492624521255
1772366286484193000,3.930193115234375,0.000424256082624197,0.0005253101699054241,0.00044983625411987305
1772366286494263300,3.94026318359375,-0.0007589859887957573,-0.0011266486253589392,-0.0007930612191557884
1772366286504333000,3.9503330078125,0.0006903717294335365,0.002121169585734606,0.0049994708970189095
1772366286514403000,3.960403076171875,0.0006666695699095726,-0.0002114935778081417,0.000567438080906868
1772366286524474000,3.97047412109375,0.0016973698511719704,-0.0018019892740994692,0.00016140006482601166
1772366286534544000,3.9805439453125,-0.003285937011241913,-0.0002174084074795246,0.0014122873544692993
1772366286544614100,3.9906142578125,0.0005956282839179039,0.0014895563945174217,0.002406034618616104
1772366286554684200,4.00068408203125,0.0005338429473340511,0.0013324297033250332,0.0017146775498986244
1772366286564754000,4.01075390625,-0.002190040424466133,0.001781197264790535,0.00010914728045463562
1772366286574824200,4.02082421875,0.002358106430619955,-0.00321329478174448,-0.00029911473393440247
1772366286584894200,4.030894287109375,-0.0012542982585728168,0.001251394860446453,-0.0005332771688699722
1772366286594964000,4.0409638671875,-0.0016601639799773693,-0.00004796171560883522,-0.0002224864438176155
1772366286605034200,4.0510341796875,0.0001305481418967247,0.00008153961971402168,-0.000654175877571106
1772366286615104000,4.06110400390625,0.0018296446651220322,-0.000515008345246315,-0.0010469919070601463
1772366286625174000,4.071174072265625,-0.0012519275769591331,0.00043701473623514175,-0.0010243887081742287
1772366286635245000,4.0812451171875,-0.0015850896015763283,0.0006814929656684399,0.0010552732273936272
1772366286645315000,4.091315185546875,-0.0009571975097060204,-0.0004492555744946003,-0.0011989008635282516
1772366286655385000,4.101385009765625,-0.0010365601629018784,0.00037685688585042953,-0.0008721314370632172
1772366286665455000,4.111455078125,0.0014712749980390072,0.0003401474095880985,0.00018328242003917694
1772366286675525000,4.121525146484375,0.00020414311438798904,-0.0010436312295496464,-0.0007512206211686134
1772366286685595100,4.13159521484375,-0.0006617018952965736,-0.0006530182436108589,0.0005373302847146988
1772366286695665200,4.1416650390625,0.0007774708792567253,0.0006111841648817062,0.0008435938507318497
1772366286705735000,4.15173486328125,0.00039275316521525383,0.0010526333935558796,-0.0010045655071735382
1772366286715805000,4.161804931640625,0.000011920928955078125,-0.00015324587002396584,0.0010655093938112259
1772366286725875200,4.171875244140625,-0.002226123120635748,-0.0020942077971994877,0.0011868635192513466
1772366286735946000,4.181946044921875,0.0040802420116961,0.0007460536435246468,0.0019666366279125214
1772366286746017000,4.19201708984375,-0.0014165001921355724,0.0016670948825776577,0.0005251253023743629
1772366286756087000,4.202087158203125,0.001730291172862053,-0.0023777142632752657,-0.00138862244784832
1772366286766156800,4.21215673828125,-0.00012737605720758438,0.0008558663539588451,-0.0008480092510581017
1772366286776227000,4.22222705078125,0.0009283008985221386,0.000867051538079977,0.0019134227186441422
1772366286786296800,4.232296875,-0.0012058038264513016,0.0016958857886493206,-0.000879969447851181
1772366286796366800,4.242366943359375,0.00026372866705060005,-0.002409909851849079,-0.0008725132793188095
1772366286806437000,4.25243701171875,0.0010199062526226044,0.0008002161048352718,-0.001381698064506054
1772366286816507000,4.2625068359375,-0.0011452436447143555,-0.0021710728760808706,-0.0006847493350505829
1772366286826577000,4.272576904296875,0.0018291035667061806,-0.0009620299097150564,-0.0011309916153550148
1772366286836647000,4.28264697265625,-0.0019192961044609547,0.00020842906087636948,0.0010687801986932755
1772366286846717000,4.292717041015625,-0.0010198494419455528,-0.00023073144257068634,0.0006432514637708664
1772366286856788000,4.3027880859375,0.0010464973747730255,-0.0010555125772953033,-0.0008601034060120583
1772366286866858000,4.31285791015625,-0.000049194786697626114,0.00266548665240407,-0.00051887147128582
1772366286876927700,4.322927734375,0.001263477373868227,0.014951180666685104,-0.00032659154385328293
1772366286886998000,4.332998046875,-0.0021387040615081787,0.003167220391333103,0.0006919624283909798
1772366286897068000,4.343068115234375,-0.00019113440066576004,0.00868715438991785,-0.0037552500143647194
1772366286907137800,4.3531376953125,-0.001917695626616478,-0.00045357784256339073,-0.0012272726744413376
1772366286917208000,4.3632080078125,-0.001251107081770897,-0.004015822429209948,-0.0008954424411058426
1772366286927278000,4.373278076171875,0.00198811711743474,0.002497980371117592,0.0005456199869513512
1772366286937347800,4.383347900390625,-0.001420728862285614,-0.0019391123205423355,0.0018273992463946342
1772366286947417900,4.39341796875,0.001778139267116785,-0.0037567317485809326,0.00011516455560922623
1772366286957488000,4.403488037109375,0.00009528780356049538,0.00011230865493416786,0.0013327617198228836
1772366286967559000,4.413558837890625,0.002907449845224619,-0.00006956793367862701,-0.0006332006305456161
1772366286977629000,4.42362890625,0.00017371494323015213,-0.002584391040727496,-0.00042360927909612656
1772366286987699000,4.433698974609375,-0.00017660809680819511,0.0000011706724762916565,-0.0005178125575184822
1772366286997769000,4.44376904296875,-0.002370786387473345,-0.00024197576567530632,-0.0011258125305175781
1772366287007839000,4.4538388671875,0.00020179711282253265,-0.0022513954900205135,-0.0010935226455330849
1772366287017909000,4.463908935546875,0.0009115296415984631,-0.0014697578735649586,0.00007960014045238495
1772366287027979000,4.47397900390625,-0.0008134283125400543,0.0010740882717072964,-0.0013511283323168755
1772366287038049000,4.484049072265625,0.0026116627268493176,0.00020243600010871887,-0.0007915981113910675
1772366287048118800,4.494118896484375,-0.0002324981614947319,-0.00241729780100286,0.0018223943188786507
1772366287058188800,4.504188720703125,-0.0006687240675091743,-0.0021144964266568422,0.0006703110411763191
1772366287068259000,4.514259033203125,0.0017708991654217243,-0.001324597280472517,-0.0011176196858286858
1772366287078330000,4.524330078125,-0.0010091746225953102,-0.0005163280293345451,-0.0010084295645356178
1772366287088400000,4.53439990234375,0.0005976399406790733,-0.0008002440445125103,-0.0004906440153717995
1772366287098470000,4.544469970703125,-0.0011808192357420921,-0.0011475204955786467,0.00010244175791740417
1772366287108540200,4.5545400390625,-0.0009420686401426792,0.0018451972864568233,0.00026917364448308945
1772366287118610000,4.56460986328125,0.0019567827694118023,0.00044623902067542076,-0.00012151151895523071
1772366287128680000,4.574679931640625,-0.0008536302484571934,0.003104458563029766,-0.00038923509418964386
1772366287138750000,4.58475,0.0008603804744780064,0.0008351784199476242,-0.0012465063482522964
1772366287148820000,4.594820068359375,0.0016571907326579094,0.0008764821104705334,-0.0019394559785723686
1772366287158890000,4.604889892578125,-0.00025842105969786644,0.0009329407475888729,-0.00035860389471054077
1772366287168959700,4.614959716796875,-0.002828985918313265,-0.0024688271805644035,0.0011707833036780357
1772366287179030800,4.62503076171875,-0.0029054186306893826,-0.000997430644929409,0.0015396308153867722
1772366287189101000,4.63510107421875,0.0016348501667380333,-0.00041739409789443016,0.0015531722456216812
1772366287199171000,4.645171142578125,0.002217017114162445,0.0018835770897567272,0.0013121562078595161
1772366287209240800,4.65524072265625,-0.0033926875330507755,-0.0016977416817098856,-0.0008040498942136765
1772366287219311000,4.66531103515625,0.0023948941379785538,-0.00013979244977235794,-0.0019148541614413261
1772366287229380900,4.675380859375,-0.002032427117228508,0.0009512924589216709,-0.0025890832766890526
1772366287239451000,4.685450927734375,0.0017463318072259426,-0.0013494123704731464,0.0011281566694378853
1772366287249521000,4.69552099609375,-0.0019308659248054028,-0.0013838259037584066,0.0005960138514637947
1772366287259591000,4.7055908203125,0.0003485335037112236,0.0011144857853651047,0.0015518218278884888
1772366287269661000,4.715660888671875,0.00008121738210320473,0.0005252109840512276,-0.0003040153533220291
1772366287279732000,4.72573193359375,-0.001412816345691681,-0.001321158604696393,0.0009364848956465721
1772366287289801700,4.7358017578125,-0.0012099710293114185,-0.0009336685761809349,-0.0011792723089456558
1772366287299872000,4.7458720703125,-0.000809697899967432,-0.0019406098872423172,-0.0013262787833809853
1772366287309942000,4.75594189453125,-0.0011337250471115112,0.0007170508615672588,-0.002240472473204136
1772366287320011800,4.76601171875,0.0008873483166098595,-0.0014278590679168701,0.003471207804977894
1772366287330082000,4.77608203125,-0.0005558878183364868,-0.0005335258319973946,-0.0006218543276190758
1772366287340152000,4.786152099609375,-0.00007438799366354942,-0.0032952239271253347,-0.0023182881996035576
1772366287350221800,4.796221923828125,0.00048149237409234047,0.002564582508057356,-0.00106143020093441
1772366287360291800,4.806291748046875,0.0012431563809514046,-0.001632825704291463,-0.0009588981047272682
1772366287370362000,4.816362060546875,0.0005898941308259964,-0.0013990653678774834,0.0011639175936579704
1772366287380432000,4.826431884765625,-0.0009283735416829586,-0.0013026590459048748,-0.0015168199315667152
1772366287390503000,4.8365029296875,-0.0011630430817604065,0.0007799630984663963,0.0015697209164500237
1772366287400573000,4.846572998046875,0.0007389863021671772,-0.002750589745119214,-0.0006819823756814003
1772366287410643000,4.856642822265625,0.0014181090518832207,0.0005953880026936531,0.0002353144809603691
1772366287420713000,4.866712890625,0.000499318353831768,0.00040630344301462173,0.00005768239498138428
1772366287430783000,4.876782958984375,0.0025045028887689114,-0.0017630145885050297,-0.0013333456590771675
1772366287440853000,4.88685302734375,-0.0006811707280576229,-0.0016849839594215155,0.0004914514720439911
1772366287450923000,4.896923095703125,-0.0006614066660404205,0.0010148887522518635,-0.00024400744587183
1772366287460993000,4.906992919921875,0.00015032431110739708,-0.0006610383279621601,0.000048141926527023315
1772366287471062800,4.917062744140625,0.00017925631254911423,0.0015730522572994232,-0.0004972591996192932
1772366287481133000,4.927133056640625,-0.001599468756467104,-0.00020061293616890907,0.0008375169709324837
1772366287491204000,4.9372041015625,-0.0008332566358149052,-0.0008684555068612099,0.0006577735766768456
1772366287501273900,4.94727392578125,0.0005422662943601608,-0.000592818483710289,-0.0009734127670526505
1772366287511343900,4.95734375,-0.0015156413428485394,-0.0012442246079444885,-0.00018154270946979523
1772366287521414100,4.9674140625,-0.00029378244653344154,0.0019704769365489483,-0.001859334297478199
1772366287531484000,4.97748388671875,-0.0004017404280602932,0.0007197028025984764,-0.0012953216210007668
1772366287541554000,4.987553955078125,-0.0011226576752960682,0.0009724372066557407,-0.002108384855091572
1772366287551624000,4.9976240234375,-0.001780675258487463,-0.00014690496027469635,0.0007450617849826813
1772366287561694000,5.00769384765625,-0.0017295428551733494,0.002940763719379902,-0.0010863933712244034
1772366287571764000,5.017763916015625,0.0005606859922409058,0.0007394612766802311,-0.003164922818541527
1772366287581833700,5.027833740234375,0.000730329193174839,0.0001295972615480423,-0.0017406642436981201
1772366287591904000,5.037904052734375,0.0047638192772865295,-0.00041342712938785553,0.00029592961072921753
1772366287601975000,5.04797509765625,-0.0011265608482062817,-0.00091410125605762,0.0018126005306839943
1772366287612045000,5.058045166015625,0.001701059751212597,0.0032404721714556217,0.0016416516155004501
1772366287622114800,5.06811474609375,0.0014893384650349617,-0.0017204645555466413,-0.00019193440675735474
1772366287632185000,5.07818505859375,0.0001041698269546032,-0.0005119838751852512,0.0016053514555096626
1772366287642254800,5.0882548828125,0.000005366746336221695,0.001029986422508955,-0.00011611543595790863
1772366287652324900,5.098324951171875,-0.00010578520596027374,0.0010434016585350037,-0.0005349097773432732
1772366287662395000,5.108394775390625,0.0014977040700614452,-0.00011134520173072815,0.0012081284075975418
1772366287672465000,5.11846484375,0.000148640014231205,0.0008680387400090694,0.001015043817460537
1772366287682535000,5.128534912109375,0.0003576981835067272,-0.0018470538780093193,-0.00016340427100658417
1772366287692605000,5.13860498046875,-0.002268988173455,0.00031649554148316383,0.0006037447601556778
1772366287702676000,5.148676025390625,-0.0010684351436793804,-0.0027248344849795103,0.0006234524771571159
1772366287712746000,5.15874609375,-0.0005347388796508312,-0.003680136753246188,0.0004446236416697502
1772366287722816000,5.16881591796875,0.0026807617396116257,0.0006102155894041061,-0.00039187539368867874
1772366287732885500,5.178885498046875,0.00041315192356705666,-0.0027012983337044716,-0.00046250317245721817
1772366287742955800,5.188955810546875,-0.00037088291719555855,0.00018183980137109756,0.0015066387131810188
1772366287753025500,5.199025634765625,0.0010700216516852379,0.00016004731878638268,0.00032313261181116104
1772366287763095600,5.209095458984375,0.0005544335581362247,0.0006961417384445667,-0.0006758188828825951
1772366287773165800,5.219165771484375,-0.0009909807704389095,-0.0013359119184315205,-0.00044101476669311523
1772366287783235600,5.229235595703125,0.0004724259488284588,-0.001742043998092413,0.0020405184477567673
1772366287793305600,5.2393056640625,0.000469256192445755,0.002110077068209648,-0.0004794532433152199
1772366287803376600,5.249376708984375,-0.00020612170919775963,-0.002491065999493003,-0.001630472019314766
1772366287813446400,5.2594462890625,-0.0006706630811095238,-0.0015681430231779814,0.0017325356602668762
1772366287823516700,5.2695166015625,0.0019312459044158459,0.0005996702238917351,0.00031573325395584106
1772366287833586700,5.279586669921875,-0.00012062443420290947,0.002249151933938265,0.0018902253359556198
1772366287843656400,5.289656494140625,0.00037339190021157265,-0.0012614268343895674,-0.0001311134546995163
1772366287853726700,5.299726806640625,-0.0018322467803955078,0.0036128507927060127,0.0015131188556551933
1772366287863796700,5.309796630859375,0.0014844546094536781,-0.000477764755487442,0.0016577290371060371
1772366287873866500,5.319866455078125,-0.001794060692191124,-0.004603428300470114,0.0013665501028299332
1772366287883936800,5.329936767578125,0.0003242176026105881,0.0010174396447837353,0.00036972854286432266
1772366287894006800,5.3400068359375,-0.003034560941159725,0.002814945764839649,-0.00019187945872545242
1772366287904076500,5.35007666015625,-0.0015405276790261269,0.0010604551061987877,0.0025988472625613213
1772366287914147600,5.360147705078125,-0.00041157985106110573,0.0011901347897946835,0.0008787093684077263
1772366287924217600,5.370217529296875,-0.001664597075432539,0.0006588343530893326,0.0009777788072824478
1772366287934287600,5.38028759765625,0.00021862424910068512,0.0008455375209450722,-0.0011568423360586166
1772366287944357600,5.390357666015625,-0.0035044746473431587,-0.0011526320595294237,0.0028650639578700066
1772366287954427600,5.400427734375,0.002987967338413,0.001966504380106926,-0.0014615748077630997
1772366287964497700,5.41049755859375,-0.0011143661104142666,-0.0005030450411140919,-0.000053561292588710785
1772366287974567700,5.420567626953125,-0.0006445553153753281,0.002235524356365204,-0.0022156070917844772
1772366287984637400,5.430637451171875,0.0006721117533743382,0.001695435494184494,-0.0008049309253692627
1772366287994707700,5.440707763671875,-0.001311671920120716,0.0011903783306479454,0.00015667732805013657
1772366288004777700,5.45077783203125,0.000563992653042078,-0.0000671660527586937,-0.0010870182886719704
1772366288014847500,5.460847412109375,-0.0016076122410595417,-0.0019136280752718449,0.0012803180143237114
1772366288024918500,5.47091845703125,0.00040919985622167587,-0.0006584799848496914,0.000513060949742794
1772366288034988500,5.480988525390625,-0.00001916429027915001,-0.002306639915332198,0.0014758827164769173
1772366288045058800,5.491058837890625,-0.0006599207408726215,-0.0016919823829084635,-0.00024611689150333405
1772366288055128600,5.501128662109375,0.0026855790056288242,0.0008320389315485954,-0.00022599752992391586
1772366288065198600,5.511198486328125,0.0005678334273397923,-0.005204814486205578,0.0014693699777126312
1772366288075268600,5.5212685546875,-0.0007186741568148136,-0.0030391188338398933,0.002055545337498188
1772366288085338600,5.531338623046875,-0.0009511685930192471,0.001966292504221201,-0.0021418631076812744
1772366288095408600,5.54140869140625,0.0015769004821777344,0.0019349902868270874,-0.0033931052312254906
1772366288105478400,5.551478515625,-0.0019776206463575363,-0.003081872593611479,0.0011071041226387024
1772366288115548700,5.561548583984375,-0.0001320578157901764,0.0007865889929234982,-0.0007766652852296829
1772366288125618700,5.57161865234375,-0.0012910659424960613,0.004565082024782896,0.0006542513146996498
1772366288135689500,5.581689453125,0.0009918306022882462,0.004157626535743475,0.0028993086889386177
1772366288145759500,5.591759521484375,-0.0010292427614331245,0.001035336870700121,-0.0002429550513625145
1772366288155829800,5.601829833984375,-0.00041147926822304726,-0.0001281225122511387,0.0023656999692320824
1772366288165899500,5.6118994140625,-0.000814415980130434,0.00019491882994771004,-0.0020330436527729034
1772366288175969500,5.621969482421875,0.001484870444983244,0.006905410438776016,-0.0007086619734764099
1772366288186039800,5.632039794921875,0.00030162837356328964,0.0010837400332093239,0.000964868813753128
1772366288196109600,5.642109619140625,0.0006556925363838673,0.002092451322823763,-0.0013737045228481293
1772366288206179600,5.6521796875,-0.001945416908711195,0.0019276016391813755,0.003235429525375366
1772366288216249600,5.66224951171875,0.0013869106769561768,0.0003876606933772564,0.0006674639880657196
1772366288226319600,5.672319580078125,-0.0008400245569646358,0.0004041721113026142,0.0003252476453781128
1772366288236389600,5.6823896484375,0.0003324868157505989,0.0012071211822330952,-0.001758047379553318
1772366288246460700,5.692460693359375,-0.0008334452286362648,0.002819398883730173,0.0010095098987221718
1772366288256530400,5.702530517578125,0.0013765767216682434,-0.002719247480854392,0.0005809348076581955
1772366288266600700,5.7126005859375,0.0003949357196688652,0.001437947154045105,-0.002028164453804493
1772366288276670700,5.722670654296875,-0.0010570138692855835,0.0015386673621833324,-0.0009218333289027214
1772366288286740500,5.732740478515625,-0.000608004629611969,-0.0008794828318059444,0.0015570372343063354
1772366288296810800,5.742810791015625,0.0017957217060029507,0.00008586607873439789,-0.0012187343090772629
1772366288306880800,5.752880859375,0.001129398588091135,0.00014685280621051788,-0.001310613937675953
1772366288316950500,5.762950439453125,-0.0008976063691079617,0.00023048091679811478,-0.00006043165922164917
1772366288327020500,5.7730205078125,-0.0006509977392852306,0.0001298133283853531,-0.0004111696034669876
1772366288337090800,5.7830908203125,-0.0005719391629099846,0.0007388852536678314,-0.001415087841451168
1772366288347160600,5.79316064453125,0.00009225355461239815,0.0016749859787523746,-0.0023541180416941643
1772366288357231600,5.803231689453125,0.0015091188251972198,0.002092030830681324,0.00048658158630132675
1772366288367301600,5.813301513671875,0.0009783506393432617,0.001788164023309946,-0.003018670715391636
1772366288377371600,5.82337158203125,0.001801514532417059,-0.0007480704225599766,0.0004000551998615265
1772366288387441700,5.833441650390625,0.00043291598558425903,0.0022035110741853714,-0.0017890632152557373
1772366288397511700,5.84351171875,0.0011534453369677067,-0.0008945923764258623,-0.0011591836810112
1772366288407581400,5.85358154296875,-0.000014883466064929962,0.0072679962031543255,-0.0001333337277173996
1772366288417651700,5.863651611328125,0.0006968001835048199,0.0002582138404250145,-0.0002502789720892906
1772366288427721500,5.873721435546875,-0.0024963300675153732,-0.0012917458079755306,0.00022616051137447357
1772366288437791500,5.88379150390625,0.00034099165350198746,0.0004254891537129879,-0.0004306333139538765
1772366288447861800,5.89386181640625,0.0012541892938315868,0.0002827434800565243,0.0005707144737243652
1772366288457932800,5.903932861328125,0.0015592030249536037,0.005762647837400436,0.0010655354708433151
1772366288468002600,5.91400244140625,0.00048594921827316284,0.0010001165792346,-0.0011984175071120262
1772366288478072600,5.924072509765625,-0.000585207249969244,-0.00011561764404177666,0.00010475330054759979
1772366288488142800,5.934142822265625,0.000519738532602787,0.0010393951088190079,-0.00015463866293430328
1772366288498212600,5.944212646484375,0.0007671210914850235,-0.00007436936721205711,-0.0013263681903481483
1772366288508282600,5.95428271484375,-0.0011061467230319977,-0.00005306396633386612,-0.0003236886113882065
1772366288518352400,5.964352294921875,-0.0007877182215452194,-0.002295698970556259,0.00004428345710039139
1772366288528422700,5.974422607421875,0.0007665026932954788,-0.00038834288716316223,-0.0011083325371146202
1772366288538492700,5.98449267578125,0.0009068688377737999,0.00018979795277118683,-0.000677105039358139
1772366288548562400,5.9945625,-0.002047375775873661,0.0008073849603533745,0.0015828534960746765
1772366288558633500,6.004633544921875,0.002524775452911854,0.0005203275941312313,-0.002018335275352001
1772366288568703700,6.014703857421875,-0.0001346571370959282,-0.0031585630495101213,0.001106351613998413
1772366288578773500,6.0247734375,0.0007810653187334538,0.0005416013300418854,0.0008677951991558075
1772366288588843500,6.034843505859375,0.00018212059512734413,-0.0014531060587614775,-0.0009711179882287979
1772366288598913800,6.044913818359375,0.0018715602345764637,-0.0008999998681247234,-0.0013263197615742683
1772366288608983600,6.054983642578125,0.0005263974890112877,-0.0009492684621363878,0.0026929229497909546
1772366288619053600,6.065053466796875,-0.00012395763769745827,0.0013880901969969273,0.0015518749132752419
1772366288629123600,6.07512353515625,0.0013354546390473843,-0.00006439816206693649,0.0024416372179985046
1772366288639193600,6.085193603515625,-0.00019690720364451408,0.0004802495241165161,0.0016426928341388702
1772366288649263600,6.095263671875,-0.0007087667472660542,0.0024336781352758408,-0.0009549539536237717
1772366288659334700,6.105334716796875,-0.00009682029485702515,0.0009924164041876793,-0.0017143087461590767
1772366288669404400,6.115404296875,-0.00006486242637038231,0.001909609418362379,-0.0011537130922079086
1772366288679474700,6.125474609375,-0.0021405648440122604,0.003251595888286829,0.0022226963192224503
1772366288689544700,6.135544677734375,0.000983323436230421,0.002461435738950968,0.0008141510188579559
1772366288699614500,6.145614501953125,-0.0010715266689658165,0.0019572926685214043,-0.0007402151823043823
1772366288709684700,6.155684814453125,-0.0009660655632615089,0.00005100201815366745,-0.0006230361759662628
1772366288719754800,6.165754638671875,-0.001911361701786518,0.0004431256093084812,0.00046261027455329895
1772366288729824500,6.175824462890625,-0.0013177432119846344,0.00025617145001888275,0.0021563805639743805
1772366288739894000,6.18589404296875,-0.0005021793767809868,0.0012092809192836285,0.001119505614042282
1772366288749965000,6.195965087890625,0.00014576781541109085,0.0009360406547784805,-0.0010645519942045212
1772366288760035000,6.20603515625,0.0012886370532214642,-0.0007743658497929573,-0.00007991213351488113
1772366288770104800,6.216104736328125,0.0012987572699785233,-0.00022016186267137527,0.00003913138061761856
1772366288780174800,6.2261748046875,-0.0002813730388879776,0.0017013163305819035,-0.0005825888365507126
1772366288790245000,6.2362451171875,0.00010984577238559723,-0.000886211171746254,-0.0024063214659690857
1772366288800315000,6.24631494140625,0.0014066877774894238,0.00037245219573378563,0.00020463019609451294
1772366288810385000,6.256385009765625,0.000022909138351678848,0.001112278550863266,0.0008043739944696426
1772366288820455200,6.266455078125,-0.002342355903238058,0.0007311990484595299,0.00029962603002786636
1772366288830525000,6.27652490234375,0.0012832717038691044,-0.0008669639937579632,0.00008710566908121109
1772366288840596000,6.286595947265625,-0.0017474531196057796,0.0027326755225658417,0.0017013680189847946
1772366288850666000,6.296666015625,-0.00008457526564598083,-0.00010625412687659264,0.0006203902885317802
1772366288860736000,6.306736083984375,0.0032282215543091297,0.0016686697490513325,0.0006493339315056801
1772366288870806000,6.316805908203125,-0.0013899658806622028,0.002067611087113619,-0.001384788192808628
1772366288880876000,6.3268759765625,-0.0006311279721558094,-0.0016098683699965477,-0.000580495223402977
1772366288890945800,6.33694580078125,-0.0008204788900911808,-0.0005936059169471264,-0.0007275016978383064
1772366288901016000,6.34701611328125,0.0010091052390635014,0.0007537193596363068,-0.0013444963842630386
1772366288911086000,6.357086181640625,-0.0001768004149198532,0.0021428242325782776,-0.0018829870969057083
1772366288921155800,6.36715576171875,0.0008894302882254124,-0.00011143786832690239,-0.0006089014932513237
1772366288931227000,6.377226806640625,0.0019112848676741123,-0.0013620583340525627,-0.002685368061065674
1772366288941297200,6.387297119140625,-0.00040141213685274124,0.00096078310161829,-0.0005141608417034149
1772366288951367000,6.397366943359375,0.0007671834900975227,-0.00027013011276721954,0.002452068030834198
1772366288961437000,6.40743701171875,0.001712124329060316,-0.0020387291442602873,-0.0011439081281423569
1772366288971507200,6.417507080078125,-0.00011001061648130417,-0.0012770651374012232,-0.0022238194942474365
1772366288981577000,6.427576904296875,-0.00012027425691485405,0.0011978764086961746,0.0019543152302503586
1772366288991647000,6.43764697265625,0.0000767996534705162,-0.0015928498469293118,-0.0014401497319340706
1772366289001717000,6.447717041015625,-0.001455897931009531,-0.0020398853812366724,-0.0011619804427027702
1772366289011787000,6.457787109375,0.0007918099872767925,0.00026348279789090157,-0.002549487166106701
1772366289021858000,6.467858154296875,-0.0004172218032181263,-0.000973899383097887,0.001336381770670414
1772366289031928000,6.477927978515625,-0.0007423940114676952,0.001674614381045103,0.0014066891744732857
1772366289041997800,6.487997802734375,0.001162240281701088,-0.00201947963796556,-0.00041221361607313156
1772366289052068000,6.498068115234375,-0.0006031696684658527,0.0006553991697728634,-0.0010870592668652534
1772366289062138000,6.50813818359375,0.0016342028975486755,-0.0009762421250343323,-0.0024713827297091484
1772366289072208000,6.518207763671875,0.0008435104973614216,-0.0021818550303578377,-0.0012391377240419388
1772366289082278000,6.52827783203125,0.0008561955764889717,-0.0008950934279710054,0.0011058719828724861
1772366289092348200,6.53834814453125,0.002158747985959053,-0.000014652498066425323,-0.0007287794724106789
1772366289102418000,6.54841796875,-0.0005916757509112358,-0.0011504236608743668,-0.00030765123665332794
1772366289112489000,6.558489013671875,0.0022866688668727875,0.00018674926832318306,-0.0008746376261115074
1772366289122559000,6.56855908203125,-0.00006780819967389107,-0.0007489598356187344,0.0025149770081043243
1772366289132629000,6.57862890625,0.0003716135397553444,-0.004624658264219761,0.00009096786379814148
1772366289142699000,6.588698974609375,-0.0010579978115856647,-0.0014068258460611105,0.002694985829293728
1772366289152769000,6.59876904296875,0.000036827754229307175,-0.0005599404685199261,-0.00019987020641565323
1772366289162839000,6.608839111328125,-0.0007144310511648655,0.0010325927287340164,0.0007248781621456146
1772366289172909000,6.618908935546875,0.00004909699782729149,-0.001633231295272708,0.000895320437848568
1772366289182979000,6.62897900390625,0.0017750263214111328,0.002978997305035591,-0.001273585483431816
1772366289193048800,6.639048828125,-0.0014239628799259663,0.000351522583514452,0.00007237587124109268
1772366289203119900,6.649119873046875,-0.0011387225240468979,-0.000399238895624876,-0.0004410473629832268
1772366289213190100,6.659190185546875,0.0019308365881443024,0.004584867507219315,-0.0005518356338143349
1772366289223260000,6.669260009765625,0.00047888606786727905,-0.0007144426926970482,-0.002257363870739937
1772366289233330000,6.679329833984375,0.0018759802915155888,0.00045601651072502136,0.0009067375212907791
1772366289243400200,6.689400146484375,0.000769113190472126,-0.0009859232231974602,-0.00005548354238271713
1772366289253470000,6.699469970703125,-0.0008112071081995964,0.0005509871989488602,-0.0008267350494861603
1772366289263540000,6.7095400390625,0.00041661132127046585,0.0006495560519397259,0.0014430172741413116
1772366289273610000,6.71960986328125,0.0028914869762957096,0.0017049671150743961,-0.001682201400399208
1772366289283680000,6.729679931640625,0.000026625115424394608,-0.0010679257102310658,-0.00012450944632291794
1772366289293751000,6.7397509765625,-0.0010908371768891811,0.0005747121758759022,-0.0005205217748880386
1772366289303821000,6.749821044921875,0.0007840706966817379,-0.0004189172759652138,-0.0003242138773202896
1772366289313890800,6.759890869140625,0.00029191887006163597,0.00014673825353384018,-0.001148727722465992
1772366289323961000,6.769961181640625,-0.002258839551359415,-0.001530458452180028,-0.000015091150999069214
1772366289334031000,6.780031005859375,-0.00018450384959578514,0.002059216145426035,0.000467739999294281
1772366289344100900,6.790100830078125,-0.0011891797184944153,-0.0014305149670690298,0.00016980431973934174
1772366289354171100,6.800171142578125,-0.00209012720733881,0.0005772421136498451,-0.0017279637977480888
1772366289364241000,6.810240966796875,-0.0005177981220185757,0.004202091135084629,0.0001241164281964302
1772366289374311000,6.820310791015625,-0.0031468705274164677,0.0003242618404328823,-0.00011397060006856918
1772366289384381000,6.830380859375,-0.001188850961625576,-0.0026548856403678656,-0.00007725320756435394
1772366289394452000,6.840451904296875,-0.001520148478448391,-0.0004226239398121834,0.001467113383114338
1772366289404522000,6.85052197265625,-0.00011820113286376,0.00251790601760149,0.003349308855831623
1772366289414592000,6.860592041015625,0.00047089019790291786,-0.0001734849065542221,0.0025085480883717537
1772366289424661800,6.870661865234375,-0.0008971868082880974,-0.00042129820212721825,0.0015146927908062935
1772366289434732000,6.88073193359375,0.000938264187425375,-0.0003057168796658516,-0.0010589854791760445
1772366289444802000,6.890802001953125,-0.0013408409431576729,-0.00008116289973258972,-0.000001691281795501709
1772366289454871800,6.900871826171875,0.00019207410514354706,-0.001973871374502778,-0.0011596335098147392
1772366289464942000,6.910942138671875,0.0002911514602601528,-0.0013692674692720175,-0.0016248133033514023
1772366289475012000,6.92101220703125,-0.0005879583768546581,-0.0020355903543531895,-0.0026557231321930885
1772366289485083100,6.931083251953125,0.0017733313143253326,-0.0017095478251576424,0.0009198598563671112
1772366289495153000,6.94115283203125,0.0011442922987043858,-0.001240564975887537,0.00003355927765369415
1772366289505223000,6.951222900390625,-0.0006828350014984608,-0.0029408102855086327,-0.00013876985758543015
1772366289515293000,6.96129296875,0.002364087849855423,0.002466205507516861,-0.0002096099779009819
1772366289525363000,6.971363037109375,0.0006967219524085522,0.005403588525950909,-0.00011621508747339249
1772366289535433000,6.981432861328125,0.0019787680357694626,0.0006479821167886257,-0.0008126320317387581
1772366289545503000,6.9915029296875,0.0012196297757327557,-0.0008857231587171555,-0.00008254591375589371
1772366289555573000,7.001572998046875,-0.0017639095894992352,-0.00033791083842515945,-0.0009691119194030762
1772366289565643000,7.01164306640625,0.00029796548187732697,-0.0014837207272648811,0.0006912834942340851
1772366289575713800,7.0217138671875,-0.000037326477468013763,0.00042443396523594856,0.0013879667967557907
1772366289585784000,7.0317841796875,-0.0003292481414973736,-0.002734412206336856,-0.0021035131067037582
1772366289595854000,7.04185400390625,0.001741626299917698,0.000017964746803045273,-0.0005367761477828026
1772366289605923800,7.051923828125,-0.0006880173459649086,0.005411537829786539,0.0005618762224912643
1772366289615993900,7.061993896484375,-0.00006403820589184761,-0.0010756561532616615,-0.0009734360501170158
1772366289626064100,7.072064208984375,0.0017849141731858253,-0.0016256356611847878,0.0002012094482779503
1772366289636134000,7.0821337890625,-0.00029528141021728516,-0.0026589420158416033,-0.0007846932858228683
1772366289646204000,7.092203857421875,-0.0018004998564720154,-0.0016683167777955532,-0.0016306918114423752
1772366289656274200,7.102274169921875,0.001358009409159422,0.0003466308116912842,0.0004564272239804268
1772366289666345000,7.112344970703125,0.0002827462740242481,0.00028457120060920715,0.0011557117104530334
1772366289676415000,7.1224150390625,0.0009906142950057983,0.0010558227077126503,-0.0006022406741976738
1772366289686485000,7.132485107421875,0.0018094968982040882,-0.002050440525636077,0.0005980972200632095
1772366289696555000,7.142554931640625,0.0005154665559530258,-0.002300511347129941,-0.001440020278096199
1772366289706625000,7.152625,0.00045509543269872665,0.0000943327322602272,-0.0006580715999007225
1772366289716695000,7.162695068359375,0.0011158259585499763,0.0005505322478711605,0.00042663421481847763
1772366289726764800,7.172764892578125,0.000978376716375351,-0.0007115425541996956,-0.00038169045001268387
1772366289736835000,7.1828349609375,-0.00017743511125445366,0.0007007317617535591,0.0011600134894251823
1772366289746904800,7.19290478515625,0.0006227460689842701,0.0010296320542693138,-0.0016210880130529404
1772366289756974800,7.202974853515625,0.0006999778561294079,-0.000018588267266750336,0.0013094544410705566
1772366289767046000,7.2130458984375,-0.0007955241017043591,-0.00037033483386039734,-0.0008924743160605431
1772366289777116200,7.2231162109375,0.001420492772012949,0.0012118490412831306,-0.0019838381558656693
1772366289787186000,7.23318603515625,-0.00012049637734889984,0.0015373295173048973,-0.0006667450070381165
1772366289797256000,7.243255859375,-0.0006845542229712009,0.0012907208874821663,-0.001079002395272255
1772366289807326000,7.253325927734375,-0.0018307538703083992,0.0012603234499692917,-0.0005779741331934929
1772366289817396000,7.26339599609375,0.0014531905762851238,-0.001582334516569972,0.00007982645183801651
1772366289827466000,7.273466064453125,-0.002658548764884472,0.0009158565662801266,0.00047420524060726166
1772366289837535700,7.28353564453125,-0.0008297562599182129,-0.0033481307327747345,0.0002662120386958122
1772366289847606000,7.29360595703125,0.000630243681371212,0.0013390504755079746,-0.00014034006744623184
1772366289857677000,7.303677001953125,-0.0011908258311450481,0.002898597624152899,-0.0023457035422325134
1772366289867746800,7.313746826171875,-0.00011503975838422775,-0.001324850833043456,-0.001953910104930401
1772366289877816800,7.32381689453125,0.0018676836043596268,-0.00120527483522892,0.0013910206034779549
1772366289887887000,7.33388720703125,0.0010876068845391273,-0.003844228107482195,-0.00013708136975765228
1772366289897956900,7.343956787109375,-0.0017300178296864033,-0.0015523117035627365,-0.0006998078897595406
1772366289908027000,7.35402685546875,-0.0021141832694411278,-0.00022388342767953873,-0.0017470261082053185
1772366289918097000,7.364096923828125,0.0002296646125614643,-0.0016113901510834694,-0.001287098042666912
1772366289928167000,7.3741669921875,-0.0001264149323105812,-0.0017474540509283543,0.000746321864426136
1772366289938237000,7.38423681640625,0.0007004966028034687,-0.0012134902644902468,0.00010290183126926422
1772366289948307000,7.394306884765625,0.0006803441792726517,0.0013454114086925983,-0.00022102706134319305
1772366289958377700,7.404377685546875,-0.00011913664638996124,0.0030988366343080997,-0.0012516705319285393
1772366289968448000,7.414447998046875,0.0003953799605369568,-0.002628380199894309,-0.00041503366082906723
1772366289978518000,7.42451806640625,-0.0011527156457304955,-0.0009263539686799049,0.0005410406738519669
1772366289988587800,7.434587890625,0.0006662216037511826,-0.00024313339963555336,0.00006758887320756912
1772366289998658000,7.444657958984375,0.00037886667996644974,-0.00022395886480808258,0.00045561138540506363
1772366290008728000,7.45472802734375,0.0012668417766690254,-0.0007218602113425732,0.0013975072652101517
1772366290018797800,7.4647978515625,-0.0014788773842155933,-0.001566348597407341,-0.0023716650903224945
1772366290028867800,7.474867919921875,7.282942533493042e-7,0.0005059363320469856,-0.0006037931889295578
1772366290038938000,7.484938232421875,-0.00009115040302276611,0.0008686590008437634,0.0013682777062058449
1772366290049007900,7.4950078125,0.0006917030550539494,0.0013713897205889225,-0.00025986507534980774
1772366290059079000,7.505078857421875,-0.00014958949759602547,0.0008281045593321323,0.0002424074336886406
1772366290069149000,7.51514892578125,-0.00035481108352541924,-0.0019078059121966362,0.00039864610880613327
1772366290079219000,7.525218994140625,-0.0005835765041410923,0.0019615008495748043,0.0011643050238490105
1772366290089289000,7.5352890625,0.00027427542954683304,0.0031655458733439445,-0.0009813206270337105
1772366290099359000,7.54535888671875,0.0013928031548857689,0.002945834770798683,-0.002447923645377159
1772366290109429000,7.555428955078125,-0.00028932932764291763,0.001569555141031742,0.0020267264917492867
1772366290119499000,7.5654990234375,0.0028196447528898716,0.00107527244836092,0.0007324302569031715
1772366290129569000,7.575569091796875,0.0005080574192106724,0.00007040472701191902,-0.0006618034094572067
1772366290139638800,7.585638671875,0.00009979493916034698,-0.0005570356734097004,0.0023073554039001465
1772366290149709000,7.595708984375,-0.0028402493335306644,-0.0004033339209854603,-0.002440950833261013
1772366290159780000,7.605780029296875,-0.00019386596977710724,-0.0002832254394888878,0.0017921440303325653
1772366290169849900,7.615849853515625,0.0009492640383541584,0.00048354268074035645,-0.0021177390590310097
1772366290179920000,7.625919921875,-0.0008696750737726688,0.00004971399903297424,0.001208283007144928
1772366290189990100,7.635990234375,0.002501958981156349,0.001520658377557993,0.0015707537531852722
1772366290200060000,7.646059814453125,-0.00029515940696001053,-0.0006631338037550449,0.0017486531287431717
1772366290210130000,7.6561298828125,0.0015156841836869717,0.004010842647403479,0.00029369723051786423
1772366290220200000,7.666199951171875,0.0023127682507038116,-0.0005905670113861561,0.0005813185125589371
1772366290230270000,7.67627001953125,0.0003709630109369755,0.002631868701428175,0.0008524246513843536
1772366290240340000,7.686340087890625,-0.0009140120819211006,-0.00008508842438459396,0.0009347163140773773
1772366290250409700,7.69640966796875,-0.001263289712369442,-0.0023217054549604654,-0.0012025805190205574
1772366290260480000,7.70647998046875,0.0020222519524395466,0.0017755678854882717,0.002249409444630146
1772366290270551000,7.716551025390625,0.001754856202751398,-0.0013605980202555656,0.0010315226390957832
1772366290280621000,7.72662109375,0.00022913096472620964,-0.0016998846549540758,0.000573459081351757
1772366290290690800,7.73669091796875,-0.0009583481587469578,0.0031321346759796143,-0.003201317973434925
1772366290300761000,7.746760986328125,0.0019205287098884583,-0.0007121381349861622,-0.0016034217551350594
1772366290310830800,7.756830810546875,-0.00008105812594294548,-0.0010610867757350206,0.001994714140892029
1772366290320900900,7.76690087890625,-0.002600408159196377,-0.00022245757281780243,-0.0002953382208943367
1772366290330971000,7.776970947265625,-0.0011303373612463474,-0.0006008767522871494,0.0017710672691464424
1772366290341041000,7.787041015625,-0.0018770876340568066,-0.0003121900372207165,0.0017015589401125908
1772366290351111000,7.79711083984375,-0.0007774122059345245,-0.0015047152992337942,0.0009668217971920967
1772366290361181000,7.807180908203125,-0.00008951779454946518,0.0027723214589059353,0.0017354097217321396
1772366290371252000,7.817251953125,0.0002557770349085331,0.0016318801790475845,-0.0009321505203843117
1772366290381322000,7.827322021484375,0.000028609298169612885,0.0007120240479707718,0.0000817151740193367
1772366290391392000,7.83739208984375,-0.0009427848272025585,-0.0020456232596188784,0.00007820967584848404
1772366290401461800,7.847461669921875,-0.0004754005931317806,0.0013906536623835564,-0.003216121345758438
1772366290411532000,7.857531982421875,-0.0003498024307191372,-0.00018905149772763252,-0.0014983220025897026
1772366290421602000,7.86760205078125,0.003710719756782055,0.0006905905902385712,0.0009752223268151283
1772366290431671800,7.877671875,0.0009314841590821743,-0.00035121850669384,0.00014967937022447586
1772366290441741800,7.887741943359375,-0.0008898517116904259,-0.0030098522547632456,0.00167886633425951
1772366290451812000,7.89781201171875,0.002515751402825117,0.0007198648527264595,0.0007681762799620628
1772366290461881900,7.9078818359375,0.0006131893023848534,-0.002919610822573304,-0.00041772983968257904
1772366290471953000,7.917952880859375,0.00017756177112460136,-0.0004710918292403221,0.0009856708347797394
1772366290482023000,7.92802294921875,0.00012935837730765343,0.0007654139772057533,-0.0004274025559425354
1772366290492093000,7.938093017578125,-0.000048362649977207184,0.0007604742422699928,-0.0020958734676241875
1772366290502163000,7.948162841796875,-0.0003013624809682369,0.0019181501120328903,-0.000612759031355381
1772366290512233000,7.95823291015625,0.0006566885858774185,-0.00008001411333680153,-0.002159404568374157
1772366290522303000,7.968302978515625,-0.0020469524897634983,0.005067610181868076,-0.0022286465391516685
1772366290532373000,7.978373046875,0.0002137739211320877,0.004296064376831055,-0.0011554202064871788
1772366290542443000,7.988443115234375,-0.000891437754034996,-0.00281137996353209,-0.0007679304108023643
1772366290552512800,7.9985126953125,0.00016984017565846443,0.00024629803374409676,-0.0017873682081699371
1772366290562583000,8.0085830078125,0.0001930096186697483,0.0017840070649981499,-0.0008355546742677689
1772366290572653000,8.018653076171875,0.0003177500329911709,-0.00040922779589891434,0.0011136755347251892
1772366290582723800,8.028723876953125,0.0008921939879655838,-0.0005149552598595619,0.0016319267451763153
1772366290592793900,8.0387939453125,0.000046943314373493195,-0.0011351990979164839,-0.00002743024379014969
1772366290602864000,8.048864013671874,0.0015268619172275066,-0.0011304053477942944,0.0007845675572752953
1772366290612934000,8.058933837890624,-0.0018436205573379993,-0.0004446585662662983,0.0002937745302915573
1772366290623004000,8.06900390625,-0.001684629824012518,-0.0012289595324546099,0.000892985612154007
1772366290633074000,8.079073974609376,-0.0016706688329577446,-0.0036692803259938955,0.0004965187981724739
1772366290643144000,8.08914404296875,-0.0017518950626254082,0.0011113602668046951,-0.0018561175093054771
1772366290653214000,8.0992138671875,0.00039189867675304413,-0.0022433388512581587,-0.0009937835857272148
1772366290663284000,8.109283935546875,0.001999915111809969,-0.0008803331293165684,0.002268589101731777
1772366290673354000,8.11935400390625,0.0032890778966248035,0.00038709910586476326,0.0014874590560793877
1772366290683424000,8.129424072265625,-0.0006808964535593987,0.0017612902447581291,0.0008128797635436058
1772366290693493800,8.13949365234375,0.000280668493360281,0.0011893915943801403,-0.0011986354365944862
1772366290703564800,8.149564697265625,0.0005408595316112041,0.0000855117104947567,-0.0005213934928178787
1772366290713635000,8.159635009765625,-0.002224903553724289,0.002450257074087858,-0.0013285372406244278
1772366290723705000,8.169705078125,0.0006949864327907562,-0.0011908167507499456,-0.00018684007227420807
1772366290733779500,8.179779541015625,-0.002027129288762808,-0.0011091027408838272,-0.00027042999863624573
1772366290743849500,8.189849365234375,0.0006839684210717678,0.0003207484260201454,0.0005040168762207031
1772366290753919500,8.19991943359375,-0.0010910099372267723,-0.000007080379873514175,-0.0018684808164834976
1772366290763989500,8.209989501953125,-0.000053442083299160004,-0.0000622081570327282,0.0006055962294340134
1772366290774059500,8.2200595703125,0.0006565731018781662,-0.0004347986541688442,-0.0015885960310697556
1772366290784129300,8.23012939453125,-0.0010276096872985363,-0.00016635190695524216,-0.0008221380412578583
1772366290794199600,8.240199462890626,0.004210696555674076,0.000906903762370348,-0.0012109456583857536
1772366290804270600,8.2502705078125,-0.0015209587290883064,0.00035483064129948616,-0.0003685876727104187
1772366290814340400,8.26034033203125,0.0012358548119664192,0.00029561668634414673,0.0016120020300149918
1772366290824410400,8.270410400390626,0.0013229399919509888,0.0015259971842169762,-0.0006610061973333359
1772366290834480600,8.280480712890625,0.0006104712374508381,-0.0006600650958716869,0.0006800619885325432
1772366290844550400,8.29055029296875,0.0008418997749686241,0.001209740061312914,0.0013019107282161713
1772366290854620400,8.300620361328125,0.0001671481877565384,0.0005917917005717754,0.0018503377214074135
1772366290864690400,8.3106904296875,-0.0009785434231162071,-0.0008955835364758968,0.0008085090667009354
1772366290874760400,8.320760498046875,-0.0002339775674045086,0.0004437207244336605,-0.00020396336913108826
1772366290884830500,8.33083056640625,0.0024190638214349747,-0.0002018292434513569,0.001079680398106575
1772366290894900500,8.340900390625,-0.0006978944875299931,-0.0000033457763493061066,0.00111419428139925
1772366290904970500,8.350970458984374,0.001505871769040823,0.0013564643450081348,0.0005458761006593704
1772366290915041500,8.36104150390625,0.00003678584471344948,0.0013814130797982216,-0.000595814548432827
1772366290925111600,8.371111572265624,-0.0005770730786025524,0.0011923289857804775,-0.0007377611473202705
1772366290935181300,8.381181396484376,0.00016901595517992973,0.0004535531625151634,0.0006981994956731796
1772366290945251600,8.39125146484375,0.0008148327469825745,0.0017430558800697327,-0.003456331789493561
1772366290955321600,8.401321533203125,0.001827063038945198,0.0015479512512683868,0.0020012306049466133
1772366290965391400,8.411391357421875,-0.0006898902356624603,0.002111742738634348,0.00007683038711547852
1772366290975461400,8.42146142578125,0.001089164987206459,-0.0013163220137357712,-0.0005041696131229401
1772366290985531400,8.431531494140625,-0.0010347063653171062,0.0024491213262081146,0.0003485744819045067
1772366290995601400,8.441601318359375,0.00005025463178753853,-0.0018673196900635958,-0.00014619342982769012
1772366291005671400,8.45167138671875,-0.001344708725810051,0.002817979548126459,0.0001819087192416191
1772366291015741400,8.461741455078124,0.0002589127980172634,-0.0018926586490124464,0.0012229550629854202
1772366291025812500,8.4718125,-0.0006188652478158474,-0.0008668089285492897,0.002408328466117382
1772366291035882500,8.481882568359374,-0.0013925484381616116,-0.000983099453151226,-0.0028946129605174065
1772366291045952500,8.491952392578124,0.001110556535422802,-0.000674971379339695,0.000834345817565918
1772366291056022500,8.5020224609375,0.0014487393200397491,-0.0011632833629846573,-0.0012944862246513367
1772366291066092500,8.512092529296876,0.0011565908789634705,0.000607718713581562,0.0006197933107614517
1772366291076162300,8.522162353515625,-0.0010633519850671291,0.0011661536991596222,0.0015095202252268791
1772366291086232300,8.532232421875,0.0027225976809859276,0.0021216957829892635,0.0003294730558991432
1772366291096302600,8.542302490234375,0.0013480018824338913,-0.0030062159057706594,-0.0009916489943861961
1772366291106372400,8.552372314453125,-0.0013316711410880089,0.001818633172661066,0.0009636441245675087
1772366291116442400,8.5624423828125,-0.001208032015711069,-0.0020470679737627506,0.0029524285346269608
1772366291126513400,8.572513427734375,-0.00029936106875538826,-0.0014526504091918468,-0.0005546882748603821
1772366291136583700,8.582583740234375,0.00029106857255101204,-0.00005452055484056473,-0.0007679229602217674
1772366291146653400,8.5926533203125,-0.001291381660848856,0.0024848035536706448,-0.0030577080324292183
1772366291156724500,8.602724365234375,-0.0011444445699453354,-0.000050348229706287384,0.0006535127758979797
1772366291166794500,8.61279443359375,-0.0010815942659974098,0.00139335123822093,0.0007658982649445534
1772366291176864500,8.622864501953124,-0.0005516102537512779,-0.0006727785803377628,-0.0018879976123571396
1772366291186934500,8.6329345703125,0.0007461481727659702,0.0007671928033232689,-0.00010767485946416855
1772366291197004500,8.643004638671876,-0.001070406287908554,0.0029294458217918873,0.00011095311492681503
1772366291207074300,8.65307421875,0.0027451044879853725,-0.0007009753026068211,-0.000899183563888073
1772366291217144600,8.66314453125,-0.0018150471150875092,-0.00046963198110461235,-0.002000724896788597
1772366291227214300,8.67321435546875,-0.00005469750612974167,0.00020521320402622223,0.0019282372668385506
1772366291237284400,8.683284423828125,0.0018607843667268753,0.0001985752023756504,0.000030415132641792297
1772366291247354600,8.693354736328125,0.0002599582076072693,-0.0002096877433359623,-0.0011235326528549194
1772366291257424400,8.70342431640625,0.0004534614272415638,-0.0002688877284526825,-0.0017494289204478264
1772366291267495400,8.713495361328125,-0.001680795568972826,-0.00017381273210048676,0.0010306453332304955
1772366291277565400,8.7235654296875,0.00044297706335783005,0.0003704424016177654,0.0008776923641562462
1772366291287635500,8.733635498046874,0.0010978486388921738,0.0011369003914296627,0.00047209300100803375
1772366291297705500,8.74370556640625,0.00047456612810492516,0.0003135097213089466,-0.0012248661369085312
1772366291307775500,8.753775390625,-0.0018668854609131813,0.00287733506411314,0.0007285634055733681
1772366291317845200,8.76384521484375,0.0005149715580046177,0.000462397001683712,0.0002136295661330223
1772366291327915500,8.77391552734375,0.000006574206054210663,0.001469604205340147,0.0000035064294934272766
1772366291337985500,8.783985595703125,0.0011825934052467346,0.0014195730909705162,-0.0013741832226514816
1772366291348055300,8.79405517578125,0.0017916583456099033,0.0013199709355831146,-0.002229589968919754
1772366291358125600,8.80412548828125,-0.0021677264012396336,0.0007491693831980228,0.0013605989515781403
1772366291368195600,8.814195556640625,-0.0000481167808175087,-0.002714005298912525,-0.0006034821271896362
1772366291378266400,8.824266357421875,-0.001815910916775465,-0.002763975877314806,-0.002077670767903328
1772366291388336400,8.83433642578125,0.00023765256628394127,0.000443002674728632,0.00018202140927314758
1772366291398406400,8.844406494140625,0.0028043435886502266,-0.0008562346920371056,0.00042504165321588516
1772366291408476400,8.854476318359374,0.0005276072770357132,-0.0013694260269403458,0.000990430824458599
1772366291418546400,8.86454638671875,-0.0012816558592021465,-0.002860350999981165,-0.002111811190843582
1772366291428616400,8.874616455078124,-0.0005114697851240635,-0.000444597564637661,-0.00008221622556447983
1772366291438686500,8.8846865234375,-0.0022170771844685078,0.0015166332013905048,0.0028605740517377853
1772366291448756500,8.894756591796876,0.00019441545009613037,0.00018292199820280075,-0.0006734412163496017
1772366291458826500,8.904826416015625,0.001839794684201479,-0.00003016134724020958,-0.0004998957738280296
1772366291468896500,8.914896484375,0.0004562824033200741,-0.001782787498086691,0.0006444649770855904
1772366291478966500,8.924966552734375,-0.0020183795131742954,-0.0009154444560408592,0.0017885258421301842
1772366291489036500,8.93503662109375,0.000593116506934166,0.0007695378735661507,0.000524057075381279
1772366291499107300,8.945107421875,0.0011755856685340405,0.00038030510768294334,-0.0012597516179084778
1772366291509177300,8.95517724609375,-0.0020505678839981556,0.0017566266469657421,-0.001176927238702774
1772366291519247600,8.96524755859375,-0.0009071198292076588,-0.002806200413033366,0.0017735548317432404
1772366291529317400,8.9753173828125,0.0013080979697406292,0.000996527262032032,-0.001253393478691578
1772366291539387400,8.985387451171874,0.0003422321751713753,0.001371245365589857,0.0012612110003829002
1772366291549457700,8.995457763671874,-0.0005717650055885315,0.000843673013150692,-0.0012781135737895966
1772366291559527400,9.00552734375,-0.0013173827901482582,-0.0016800907906144857,-0.0014174431562423706
1772366291569597400,9.015597412109376,-0.0011711753904819489,-0.003961887210607529,-0.0030345143750309944
1772366291579667500,9.02566748046875,-0.00030825240537524223,-0.0042609646916389465,-0.0018301494419574738
1772366291589737500,9.035737548828125,0.0008670003153383732,0.001699988730251789,-0.00021840445697307587
1772366291599807500,9.045807373046875,0.0025293403305113316,-0.00008720997720956802,-0.00028002820909023285
1772366291609878500,9.05587841796875,-0.0010789763182401657,0.0027165659703314304,0.0008358359336853027
1772366291619948300,9.0659482421875,-0.0018747919239103794,0.00027195364236831665,-0.0011506127193570137
1772366291630018600,9.0760185546875,0.0016882517375051975,-0.00003430992364883423,0.0006315745413303375
1772366291640088600,9.086088623046875,0.0002173963002860546,-0.00177361024543643,-0.0013155648484826088
1772366291650158300,9.096158447265625,0.0013473755680024624,-0.00043137697502970695,-0.0012340722605586052
1772366291660228600,9.106228515625,-0.0010052509605884552,0.0025430438108742237,-0.0002954471856355667
1772366291670298400,9.11629833984375,0.00007226411253213882,0.002969415858387947,-0.0004682866856455803
1772366291680368400,9.126368408203126,-0.0015447433106601238,0.0004504462704062462,-0.00014632195234298706
1772366291690438400,9.1364384765625,0.002317373175173998,0.0008461917750537395,0.0003125406801700592
1772366291700508400,9.14650830078125,-0.0013024993240833282,0.0018413863144814968,-0.0031653037294745445
1772366291710578400,9.156578369140625,0.0010983403772115707,-0.0014952884521335363,0.0006539355963468552
1772366291720648400,9.1666484375,0.00008549774065613747,-0.0008371328003704548,0.0008046189323067665
1772366291730719500,9.176719482421875,-0.0009350250475108624,0.0017210994847118855,0.00027970969676971436
1772366291740786400,9.186786376953124,0.0012638750486075878,0.0013547809794545174,0.0002591703087091446
1772366291750856200,9.196856201171874,-0.0011063381098210812,0.0036847805604338646,-0.0001400373876094818
1772366291760926200,9.20692626953125,0.000425881240516901,0.0007248902693390846,-0.0014771344140172005
1772366291770996000,9.216995849609376,-0.0002636113204061985,0.002730783075094223,-0.00008376874029636383
1772366291781066200,9.227066162109375,0.0001366310752928257,0.001912523526698351,-0.00012475531548261642
1772366291791136300,9.23713623046875,0.0003454228863120079,-0.0014289447572082281,0.0001839054748415947
1772366291801206000,9.2472060546875,0.000635707750916481,-0.000954729039222002,-0.0013250010088086128
1772366291811276300,9.2572763671875,0.00031240005046129227,0.0019435891881585121,-0.003438752144575119
1772366291821346300,9.26734619140625,0.0016322084702551365,-0.001811556750908494,0.00039840396493673325
1772366291831416000,9.277416015625,0.002531025093048811,-0.0004687909968197346,0.0015416992828249931
1772366291841486300,9.287486328125,-0.0007233219221234322,-0.0029082137625664473,-0.0005594100803136826
1772366291851556400,9.297556396484374,-0.0011161388829350471,-0.0010424032807350159,-0.00015993602573871613
1772366291861627100,9.307627197265624,-0.00044892262667417526,0.0008483985438942909,0.002008330076932907
1772366291871697200,9.317697265625,-0.00005450798198580742,0.0016329661011695862,0.0009382721036672592
1772366291881767200,9.32776708984375,-0.0004378003068268299,0.0007376610301434994,0.00018730014562606812
1772366291891837200,9.337837158203126,-0.001294273417443037,-0.000960902776569128,-0.0006966032087802887
1772366291901907200,9.3479072265625,-0.0005545434542000294,0.0014644293114542961,-0.0005742227658629417
1772366291911977200,9.357977294921875,0.0009504090994596481,0.00177282327786088,0.0013288725167512894
1772366291922047200,9.368047119140625,-0.001924954354763031,-0.0014943878632038832,-0.00034643057733774185
1772366291932117200,9.3781171875,0.000006370246410369873,0.0004968577995896339,0.0006083128973841667
1772366291942187300,9.388187255859375,-0.0000942181795835495,-0.0013596178032457829,-0.0026092296466231346
1772366291952257300,9.39825732421875,0.0006461404263973236,0.000026823952794075012,0.0012720618396997452
1772366291962327300,9.408327392578125,0.00043972302228212357,-0.000056432094424963,-0.0009484793990850449
1772366291972397000,9.41839697265625,-0.0008806721307337284,0.0013723536394536495,0.0016259988769888878
1772366291982468000,9.428468017578124,0.0006056628189980984,0.0003942451439797878,0.000565716065466404
1772366291992538000,9.4385380859375,-0.0032356809824705124,-0.0010481229983270168,-0.0008401675149798393
1772366292002608400,9.4486083984375,-0.002413121983408928,0.0006543565541505814,-0.0032093124464154243
1772366292012678100,9.45867822265625,-0.0011260155588388443,0.0020743543282151222,-0.002197044901549816
1772366292022748200,9.468748046875,-0.001187153160572052,0.0010186429135501385,-0.0005627479404211044
1772366292032818200,9.478818115234375,-0.0009892797097563744,-0.0007638107053935528,0.000581611879169941
1772366292042888200,9.48888818359375,-0.0011585759930312634,-0.00020050909370183945,-0.0017847148701548576
1772366292052958200,9.498958251953125,0.0012491880916059017,0.00024956511333584785,0.0000065267086029052734
1772366292063028200,9.5090283203125,-0.002270232420414686,0.0019712201319634914,0.00044121500104665756
1772366292073098200,9.51909814453125,0.00015297811478376389,0.0006505586206912994,-0.002630208618938923
1772366292083168300,9.529168212890625,-0.0002128048799932003,-0.0021464163437485695,-0.00001343805342912674
1772366292093238000,9.539238037109374,-0.0018059080466628075,0.0011644256301224232,0.0018947171047329903
1772366292103309000,9.54930908203125,0.001719567459076643,-0.00045369332656264305,-0.0014339704066514969
1772366292113379300,9.55937939453125,0.0006713476032018661,-0.003567194566130638,-0.001018250361084938
1772366292123449000,9.569448974609376,-0.00040244683623313904,-0.0004967986606061459,-0.0032859137281775475
1772366292133519000,9.57951904296875,0.002743279095739126,-0.000011038035154342651,-0.0005433904007077217
1772366292143589400,9.58958935546875,-0.0009171781130135059,0.003998478874564171,0.0016971547156572342
1772366292153659100,9.5996591796875,0.00256330706179142,0.0019395891577005386,-0.00031832512468099594
1772366292163729200,9.609729248046875,-0.0007119849324226379,0.0014365059323608875,-0.0017494671046733856
1772366292173799200,9.619799072265625,0.0025461260229349136,0.000496942549943924,0.0009022420272231102
1772366292183869200,9.629869140625,-0.0027621681801974773,-0.0006977091543376446,-0.0016826381906867027
1772366292193939200,9.639939208984375,0.00003175390884280205,0.0005180235020816326,-0.0008898144587874413
1772366292204009200,9.65000927734375,-0.0015357104130089283,0.001297862734645605,0.0015687867999076843
1772366292214079200,9.660079345703124,0.0005777748301625252,0.0009314119815826416,0.00014639180153608322
1772366292224149200,9.670149169921874,0.0013085459358990192,-0.0012172264978289604,-0.0020637651905417442
1772366292234219300,9.68021923828125,0.0006981557235121727,0.0013039573095738888,-0.0006525274366140366
1772366292244290000,9.6902900390625,0.0015308801084756851,-0.0006702505052089691,0.00006192736327648163
1772366292254360300,9.7003603515625,-0.0022556018084287643,-0.00021032243967056274,-0.002899773418903351
1772366292264430300,9.710430419921876,-0.000736636109650135,0.0005400320515036583,0.001179228536784649
1772366292274500000,9.7205,-0.000717461109161377,0.0010316516272723675,0.0006300844252109528
1772366292284570000,9.730570068359375,0.00039782142266631126,-0.0026778029277920723,0.00041867420077323914
1772366292294640400,9.740640380859375,0.0004601394757628441,0.00151827372610569,-0.001232486218214035
1772366292304710100,9.750710205078125,-0.0013206228613853455,-0.0003454890102148056,0.0005690697580575943
1772366292314780200,9.7607802734375,-0.0008393889293074608,-0.0005601397715508938,-0.003163617104291916
1772366292324850200,9.77085009765625,0.00027296552434563637,-0.00041895313188433647,0.0011496758088469505
1772366292334920200,9.780920166015624,-0.002799789886921644,-0.0009505199268460274,0.001026904210448265
1772366292344990200,9.790990234375,-0.0005920943804085255,0.0015453733503818512,-0.0012278566136956215
1772366292355060200,9.801060302734374,0.00020951684564352036,0.00006785150617361069,0.0026718098670244217
1772366292365131300,9.81113134765625,0.0007159742526710033,0.0017434251494705677,0.0005853036418557167
1772366292375201300,9.821201171875,0.0012099905870854855,0.0011042668484151363,-0.0005334904417395592
1772366292385271300,9.831271240234376,0.001716878730803728,-0.00067189522087574,-0.0012187166139483452
1772366292395341000,9.841341064453125,-0.0012927595525979996,-0.000963245052844286,0.002826891839504242
1772366292405411300,9.851411376953125,0.003968710545450449,0.0003225328400731087,-0.0010988712310791016
1772366292415481000,9.861481201171875,-0.0015767901204526424,0.0017963261343538761,-0.00023600738495588303
1772366292425551000,9.871551025390625,0.003144789021462202,-0.0018281885422766209,0.00021188519895076752
1772366292435621400,9.881621337890625,-0.0001447475515305996,-0.0018162042833864689,0.0024097925052046776
1772366292445691100,9.891691162109375,-0.00007685087621212006,0.0004960591904819012,-0.00031350739300251007
1772366292455761200,9.90176123046875,-0.0008947071619331837,0.0001655607484281063,-0.002310345880687237
1772366292465831200,9.9118310546875,0.0018648942932486534,0.001124960370361805,0.000508124940097332
1772366292475901200,9.921901123046876,0.0018257456831634045,0.002708476036787033,-0.00028869230300188065
1772366292485971200,9.93197119140625,0.00019856728613376617,-0.0005009179003536701,-0.002284635789692402
1772366292496041200,9.942041259765626,-0.002348479814827442,-0.00121437874622643,-0.0015112543478608131
1772366292506112000,9.952112060546876,-0.0015697944909334183,-0.0000342722050845623,-0.0021957196295261383
1772366292516182300,9.962182373046875,0.0011263894848525524,0.0006789225153625011,0.002294369973242283
1772366292526252300,9.972252197265625,0.00010001985356211662,-0.0004168059676885605,0.00003073643893003464
1772366292536322000,9.982322021484375,-0.0004192967899143696,0.0016732425428926945,-0.0009213434532284737
1772366292546392300,9.992392333984375,-0.0005403454415500164,0.0015987176448106766,-0.0006283195689320564
1772366292556462300,10.00246240234375,0.002669563051313162,0.003267720341682434,0.0026431074365973473
1772366292566532000,10.012531982421875,-0.0000856141559779644,-0.0030674529261887074,0.0003896765410900116
1772366292576602000,10.02260205078125,-0.000493344385176897,-0.0018807484302669764,-0.0015970412641763687
1772366292586672400,10.03267236328125,0.00037897052243351936,-0.0009811408817768097,0.0015037506818771362
1772366292596742100,10.0427421875,-0.002307094167917967,-0.0022802308667451143,0.002965027466416359
1772366292606812200,10.052812255859376,0.00015524309128522873,0.0003567342646420002,0.0009762151166796684
1772366292616882200,10.062882080078126,0.0017792386934161186,0.0002917535603046417,0.0002864561975002289
1772366292626952200,10.0729521484375,0.0004922486841678619,-0.0006647068075835705,0.0012089395895600319
1772366292637022200,10.083022216796875,0.0009220829233527184,-0.0004287511110305786,-0.000764729455113411
1772366292647093200,10.09309326171875,-0.0007264371961355209,0.0017177332192659378,0.00182314682751894
1772366292657163300,10.103163330078125,0.00015320489183068275,-0.0021065662149339914,-0.0006131129339337349
1772366292667233300,10.1132333984375,-0.0006118882447481155,-0.0022558688651770353,0.00018414855003356934
1772366292677303300,10.12330322265625,0.0025514145381748676,-0.00021482212468981743,-0.0005972227081656456
1772366292687373000,10.133373046875,-0.000977028626948595,0.0020597740076482296,-0.0020230328664183617
1772366292697443300,10.143443359375,0.000669870525598526,-0.0008843503892421722,-0.0009236801415681839
1772366292707513000,10.15351318359375,-0.0008565071038901806,0.0026759523898363113,0.0002721613273024559
1772366292717583000,10.1635830078125,0.0017411401495337486,0.000035161618143320084,0.0012692483142018318
1772366292727653400,10.1736533203125,0.0012456662952899933,0.003190059680491686,-0.0006877034902572632
1772366292737726000,10.183725830078124,-0.001793266274034977,-0.0009977612644433975,-0.001428063027560711
1772366292747796000,10.1937958984375,-0.0010941424407064915,0.0007074181921780109,-0.0018797209486365318
1772366292757866200,10.2038662109375,0.0010723392479121685,-0.0012875557877123356,0.0015328535810112953
1772366292767936000,10.21393603515625,0.00016120541840791702,0.0008499235846102238,-0.0013503823429346085
1772366292778006000,10.224006103515626,-0.0002675638534128666,-0.001075009349733591,0.0019343597814440727
1772366292788077000,10.2340771484375,0.0007983408868312836,-0.003371699247509241,0.0016822395846247673
1772366292798147000,10.24414697265625,0.001728050410747528,-0.0005831033922731876,0.0024739978834986687
1772366292808217000,10.254217041015625,-0.0009730113670229912,-0.00009651901200413704,-0.00039687380194664
1772366292818287000,10.264287109375,-0.0005916468799114227,0.001278471201658249,-0.002780669368803501
1772366292828356900,10.27435693359375,-0.0009851325303316116,0.0019462578929960728,-0.00008632056415081024
1772366292838427100,10.28442724609375,0.00018239719793200493,-0.001439152518287301,0.0005792034789919853
1772366292848497200,10.2944970703125,0.0005783983506262302,0.00044122058898210526,0.00018502399325370789
1772366292858567000,10.30456689453125,0.00028917891904711723,0.00006331782788038254,-0.0004687812179327011
1772366292868637200,10.31463720703125,0.0013340674340724945,0.0016293474473059177,-0.000028878450393676758
1772366292878707200,10.324707275390624,0.0003217998892068863,0.0017734244465827942,0.0002233227714896202
1772366292888777000,10.33477685546875,-0.0011360906064510345,0.001516041811555624,-0.0021578604355454445
1772366292898847000,10.344846923828126,-0.0011981427669525146,0.004730477463454008,-0.000506967306137085
1772366292908917200,10.354917236328125,0.002779074013233185,0.0008237734436988831,-0.0023031793534755707
1772366292918987000,10.364987060546875,-0.0003267046995460987,0.004858994856476784,-0.0007537528872489929
1772366292929058000,10.37505810546875,0.0018225056119263172,0.006081956438720226,-0.0009359661489725113
1772366292939128000,10.385128173828125,-0.0006379894912242889,0.011681519448757172,0.0013796519488096237
1772366292949198000,10.395197998046875,0.00037300121039152145,0.005413294304162264,-0.001119694672524929
1772366292959268000,10.40526806640625,-0.0017673815600574017,0.02534492500126362,0.010344947688281536
1772366292969338000,10.415338134765625,-0.0006513646803796291,0.040658749639987946,0.023162007331848145
1772366292979408100,10.425408203125,0.0029114121571183205,0.007260311394929886,0.0012785457074642181
1772366292989478100,10.43547802734375,-0.0005252654664218426,0.0038697910495102406,0.005542205646634102
1772366292999548000,10.4455478515625,0.0018622586503624916,-0.0013228401076048613,0.0010478543117642403
1772366293009618000,10.455617919921876,-0.0010197972878813744,-0.007714622654020786,0.002568432129919529
1772366293019688200,10.465688232421876,-0.000013388693332672119,-0.02058408223092556,-0.005278038792312145
1772366293029758000,10.475758056640625,0.00006605824455618858,-0.021691713482141495,-0.013828767463564873
1772366293039828000,10.485827880859375,-0.0010351594537496567,-0.012167449109256268,-0.006843829061836004
1772366293049898200,10.495898193359375,-0.0004981411620974541,-0.012829996645450592,-0.00537716131657362
1772366293059968000,10.505968017578125,0.00151147972792387,-0.0070765032432973385,-0.005933762062340975
1772366293070039000,10.5160390625,0.00035634543746709824,-0.006422692444175482,-0.004725123755633831
1772366293080109000,10.526109130859375,-0.001183228101581335,0.00082430150359869,0.00046564359217882156
1772366293090179000,10.536178955078125,0.0017223060131072998,-0.002383157843723893,0.002528240904211998
1772366293100249000,10.5462490234375,0.00023812660947442055,-0.00010695401579141617,0.0009228866547346115
