time,seconds_elapsed,z,y,x
1772366215716149200,0.118149169921875,-0.020711364117264746,0.0019159074907656758,0.0031355215467512606
1772366215726219500,0.128219482421875,-0.01668225473165512,0.008411543987225741,0.0037205548930913206
1772366215736290600,0.13829052734375,-0.03361234674453735,0.001201347746932879,0.004004924792423844
1772366215746360600,0.148360595703125,-0.010094693034887314,-0.009058079996146261,-0.004158836712501943
1772366215756430300,0.158430419921875,-0.025080665242671964,0.000645540495077148,0.0105631142642349
1772366215766501400,0.16850146484375,-0.030116905844211575,0.006739345591841265,0.0035930560559034345
1772366215776571400,0.1785712890625,-0.013217793491482733,0.00630668066246435,0.003456716325134039
1772366215786641400,0.188641357421875,-0.022931378254294393,0.005645988264027983,0.0021138503488153217
1772366215796712400,0.19871240234375,-0.03373100468814373,0.0004264726506080478,0.0027181363848969337
1772366215806782500,0.208782470703125,-0.037030046233534814,-0.0048930601380299775,0.00813037069197744
1772366215816852200,0.218852294921875,-0.028659108251333235,-0.001093265996268019,-0.0005859831944108009
1772366215826923300,0.22892333984375,-0.02998480389714241,-0.005399968480551615,0.005620872089080512
1772366215836993500,0.23899365234375,-0.030909517526626584,0.002972275542747229,-0.0008185498412698507
1772366215847063600,0.2490634765625,-0.03285422185361385,-0.0032531748433597386,0.0019299451492726801
1772366215857133300,0.25913330078125,-0.02836041756570339,-0.0008861534510739147,0.0001249415539205074
1772366215867204400,0.269204345703125,-0.017593524357676506,0.0019025822183117269,-0.0033916151996701955
1772366215877274600,0.279274658203125,-0.0201426243185997,-0.0001903897392563522,0.0009451718956232071
1772366215887344400,0.289344482421875,-0.011346738922595977,-0.0024442422138061374,-0.004208082681708037
1772366215897415400,0.29941552734375,-0.026903789016604424,0.011847537184739484,0.0027723507901653644
1772366215907485400,0.3094853515625,-0.033791794964671135,0.014027949963742866,-0.003716061381064355
1772366215917555500,0.319555419921875,-0.029594927796721456,-0.0013008808649610727,-0.0020724954251199958
1772366215927626500,0.32962646484375,-0.03482406062185764,0.0007263141137082129,-0.000680273881740868
1772366215937696500,0.339696533203125,-0.023746201768517494,0.0006820639800280332,0.002862842085212469
1772366215947766500,0.3497666015625,-0.02104980229139328,-0.00046091377632692454,0.002602729844301939
1772366215957837300,0.35983740234375,-0.03526946630179882,-0.0046989166722632945,0.006687441874668002
1772366215967907300,0.3699072265625,-0.02269230880141258,-0.008281460467306897,-0.004627184876613319
1772366215977977600,0.3799775390625,-0.03390694577693939,-0.002794571755127981,0.0014355126958340405
1772366215988047400,0.39004736328125,-0.01968260559141636,-0.004222713995259255,-0.0013330021694302559
1772366215998118400,0.400118408203125,-0.02866027729511261,-0.0038372035427019,0.003946143809892237
1772366216008188400,0.4101884765625,-0.026706220617890356,0.002542798084300011,-0.0005160597633570432
1772366216018258400,0.420258544921875,-0.025799042645096776,-0.0020284644871484485,0.00520567888431251
1772366216028329500,0.43032958984375,-0.026543723532557486,0.0028526312184520065,0.003394245548173785
1772366216038399500,0.4403994140625,-0.023410686203837395,-0.008257394605129956,0.00249674871917814
1772366216048469500,0.450469482421875,-0.03716916244328022,0.005510388318775221,-0.003684789459966123
1772366216058540300,0.460540283203125,-0.02102174524068832,0.008382756284158676,-0.0030863486427813768
1772366216068610300,0.4706103515625,-0.023268062862753867,-0.006644452116312459,-0.0011876388819888233
1772366216078680600,0.4806806640625,-0.02641805132627487,-0.002086350420536473,0.001942621967755258
1772366216088751400,0.49075146484375,-0.021180735194683074,0.0029346834787167607,0.004138195783272385
1772366216098821400,0.5008212890625,-0.024498481440544128,0.002940775292785838,0.0011796382386237382
1772366216108891400,0.510891357421875,-0.0279547593742609,0.0007141670181881636,-0.00048318040706217286
1772366216118961400,0.52096142578125,-0.025571663630008696,0.007314341601356864,0.0025873496120795607
1772366216129032400,0.531032470703125,-0.037084406769275664,0.005563260150328278,-0.002492912794277072
1772366216139102500,0.5411025390625,-0.028253450059890745,0.0038773620231542733,-0.003564158754982054
1772366216149172200,0.551172119140625,-0.0390349563151598,0.00014988419893197715,-0.0011509236007928847
1772366216159243300,0.5612431640625,-0.03110357879400253,0.0007318853379692882,-0.0035308044746518133
1772366216169313500,0.5713134765625,-0.022265023300051687,0.0014343071194365619,0.0008383870529010891
1772366216179383600,0.581383544921875,-0.029740473747253415,-0.0003542750640772283,0.0008275003327056765
1772366216189454300,0.591454345703125,-0.03332651554048061,-0.0021603929042816163,0.0023210998913273215
1772366216199524400,0.6015244140625,-0.02075520325899124,0.003421708943834528,-0.002147789151035249
1772366216209594400,0.611594482421875,-0.015512626430392265,-0.0006557696281466633,-0.003386062241718173
1772366216219665400,0.62166552734375,-0.0210445415943861,0.0031925854962319136,-0.0019105463290587067
1772366216229735400,0.6317353515625,-0.026427403676509857,0.005398945567244663,-0.0022538068087771534
1772366216239805400,0.641805419921875,-0.03614683365821838,-0.0013310020085889845,0.0012039324296638369
1772366216249876500,0.65187646484375,-0.03211187905371189,0.0015963292807340621,-0.005219305550865828
1772366216259946200,0.6619462890625,-0.02822539300918579,-0.002566443821368739,0.006068067867308855
1772366216270016500,0.6720166015625,-0.03481938444674015,0.003039568625297397,0.001980433227494359
1772366216280086500,0.68208642578125,-0.03391863621473312,0.006852898102067411,-0.00021656536012887954
1772366216290157300,0.6921572265625,-0.030767478707432745,0.007378182351496071,0.001156805352307856
1772366216300227300,0.702227294921875,-0.027021277916431427,-0.00014501622756943105,-0.0017335823269560933
1772366216310297600,0.712297607421875,-0.0340676892966032,0.005516681062243878,0.00036466859392821787
1772366216320368600,0.72236865234375,-0.015822423031926155,0.003295068623172119,-0.0008041925223544239
1772366216330438400,0.7324384765625,-0.030938743621110914,0.005013389448914676,0.001696172926016152
1772366216340508400,0.74250830078125,-0.030351299121975896,0.00478519758307375,-0.00048508010320365427
1772366216350579500,0.752579345703125,-0.0116594581335783,0.004609512222604826,-0.000027362930960953235
1772366216360649500,0.7626494140625,-0.02917699464559555,-0.004154699393501505,0.0018353256683796644
1772366216370719500,0.772719482421875,-0.04668459428548813,0.0037607955719344316,-0.0025450083076953888
1772366216380790500,0.78279052734375,-0.025147300738096234,0.003250909821037203,-0.002423062428459525
1772366216390860300,0.7928603515625,-0.026347324177622793,-0.0011072488558478654,0.0055842298731207845
1772366216400930300,0.802930419921875,-0.02963876693844795,0.006083767759939655,0.0009282207608222961
1772366216411000600,0.81300048828125,-0.029189269605278966,-0.002197409579576924,-0.004902129360474646
1772366216421071600,0.823071533203125,-0.026198271095752713,0.005027116580167785,-0.007329429572634398
1772366216431141400,0.833141357421875,-0.02320785710811615,0.003388035003095865,-0.000045300446450710294
1772366216441211400,0.84321142578125,-0.024554011020064354,0.0005514872697647661,-0.007962685974873603
1772366216451282400,0.853282470703125,-0.02709083602130413,-0.006524387666909024,-0.005275090858712792
1772366216461352400,0.8633525390625,-0.023944939211010933,0.0028026637300383296,0.004848243748769164
1772366216471422500,0.87342236328125,-0.02708557532429695,0.0032015725202858445,0.004753222409076988
1772366216481493500,0.883493408203125,-0.032472529059648515,0.004675152204185724,0.0008255275713279843
1772366216491563300,0.893563232421875,-0.03261339883506298,-0.0033687183812726286,0.0044654549762606615
1772366216501633300,0.90363330078125,-0.02212473804652691,0.004450677532237023,0.0017702610755339263
1772366216511704300,0.913704345703125,-0.03140226947963238,-0.0011210307860281318,0.00609915712531656
1772366216521774600,0.923774658203125,-0.03439326798915863,-0.0055242433141916986,-0.00461713840663433
1772366216531844400,0.93384423828125,-0.022578911554813383,0.0007742175091989338,0.0012475889082998036
1772366216541915400,0.943915283203125,-0.02467442252933979,0.002044127847161144,0.0033105493200942873
1772366216551985400,0.9539853515625,-0.032303602233529086,0.0027073409962467846,0.0024445070752874016
1772366216562055400,0.964055419921875,-0.025417934373021124,0.004597812651656568,-0.002755801514163613
1772366216572125400,0.97412548828125,-0.024672084441781043,-0.003467986637819558,-0.006834558727778494
1772366216582196500,0.984196533203125,-0.034405542948842044,-0.00239322441262193,-0.008073635536059737
1772366216592266200,0.994266357421875,-0.025427871245145797,0.002141624271729961,0.008956555850431322
1772366216602336500,1.00433642578125,-0.03755260880291462,0.007026373239140957,-0.003088613665103912
1772366216612407600,1.014407470703125,-0.02842763758301735,0.0010380012782290578,0.002418788112141192
1772366216622477600,1.0244775390625,-0.018542203384637832,-0.0057254649747163055,0.0023119667368009687
1772366216632547300,1.03454736328125,-0.02976034749150276,-0.003280364244384691,-0.00504636013675481
1772366216642618400,1.044618408203125,-0.015834113469719885,-0.0006697616208810359,-0.003505743098631501
1772366216652688600,1.054688720703125,-0.023613515299558636,0.0007267342388164251,-0.004199607114307582
1772366216662758700,1.064758544921875,-0.03557867838144302,-0.00013462269771844147,0.0023361147973686453
1772366216672829700,1.07482958984375,-0.02555588153898716,-0.0008377294657751917,0.0035992300683632492
1772366216682899700,1.084899658203125,-0.026757658544182775,-0.009960408263886347,-0.004021985525079071
1772366216692969500,1.094969482421875,-0.044263504618406294,0.0023763098104391247,-0.005614259685203433
1772366216703039700,1.105039794921875,-0.03529050908982754,0.001585406027920544,0.0017799056867137551
1772366216713110800,1.11511083984375,-0.03768587979376316,0.00018027020404115318,-0.00016845190208405255
1772366216723180800,1.125180908203125,-0.024815292304754256,0.0017941260083112864,-0.005232238097675144
1772366216733250600,1.13525048828125,-0.025410920110344886,-0.0019593539068475363,-0.003822590495459735
1772366216743321600,1.145321533203125,-0.035143794095516205,0.0018864439342636615,-0.0020305194469168782
1772366216753391600,1.1553916015625,-0.031554829692840576,0.0004548584948759526,-0.0007107420852407812
1772366216763461600,1.165461669921875,-0.03289396934211254,0.0018950656321365385,-0.0018757672766223548
1772366216773532700,1.17553271484375,-0.026602760243415832,-0.0000364595528692007,-0.008193900914862752
1772366216783602700,1.185602783203125,-0.025552958929538724,-0.006841216797428205,-0.005016038063727319
1772366216793672400,1.19567236328125,-0.030940497186779974,-0.002515252490248531,-0.000550217761285603
1772366216803743500,1.205743408203125,-0.033332945281267165,0.003809621416032314,-0.0012788242967799305
1772366216813813800,1.215813720703125,-0.03348024479746818,-0.0022481716524343936,0.002198386827111244
1772366216823883800,1.2258837890625,-0.02944353662729263,-0.0032974615096580235,0.003293415522202849
1772366216833953500,1.23595361328125,-0.0342290173381567,-0.00745949482624419,0.003780139593221247
1772366216844024600,1.246024658203125,-0.015224457138776779,0.004097032655822113,-0.0038729689758270976
1772366216854094800,1.2560947265625,-0.03407178094983101,-0.002880852665938437,0.0027372064115479587
1772366216864164600,1.26616455078125,-0.031232758131623267,0.0023131723131984473,-0.0030249373117461798
1772366216874235600,1.276235595703125,-0.03107961339652538,0.007559986925497651,0.004990282567963003
1772366216884305700,1.2863056640625,-0.03840601076185703,0.0015031345719471573,-0.0055219052266329526
1772366216894375700,1.296375732421875,-0.03914659999608993,-0.000026787542225793002,0.0017027853298932313
1772366216904446700,1.30644677734375,-0.02987316021621227,-0.005187960564531385,-0.0039052638102322814
1772366216914516700,1.316516845703125,-0.02359597964286804,0.0038758915852755305,0.003273359114862978
1772366216924586800,1.326586669921875,-0.03332359293103218,0.0004583199604414403,-0.002282631044462323
1772366216934657500,1.336657470703125,-0.039161213043332095,-0.0015076463502831756,0.0009674202600494027
1772366216944727600,1.3467275390625,-0.026588147196173667,0.0032608466931618747,-0.0018030308339744806
1772366216954797800,1.3567978515625,-0.03631400691866875,-0.003908670476870611,-0.0008828837817534804
1772366216964867600,1.36686767578125,-0.034518355673551555,0.00015351006127893924,-0.0008872676959261297
1772366216974938600,1.376938720703125,-0.0301724354237318,-0.0060572998781222845,-0.003452368943579495
1772366216985008600,1.387008544921875,-0.027623919984698295,-0.006387381215859204,-0.004395020088553428
1772366216995078700,1.39707861328125,-0.032868834900856014,-0.007333594291098415,0.0023438231797888874
1772366217005149700,1.407149658203125,-0.025241408762335774,-0.0014896449027117342,-0.00044460196234285827
1772366217015219700,1.4172197265625,-0.02972644522190094,-0.001214545155223459,0.004907864981517195
1772366217025289700,1.427289794921875,-0.033470307925343515,-0.0027766707722563294,-0.0020208017705008385
1772366217035360500,1.437360595703125,-0.022849545189738273,-0.009008578298613429,0.003113455845415592
1772366217045430800,1.4474306640625,-0.022850129711627958,-0.0059643791639711705,-0.00021130466312170029
1772366217055500800,1.457500732421875,-0.031082536005973813,-0.0010325031192041933,-0.004567965502664447
1772366217065570600,1.467570556640625,-0.041567689663171765,-0.002016746649891138,0.0016762626491487024
1772366217075641600,1.4776416015625,-0.025861586487293243,-0.0015235928380861877,-0.0006894801015034318
1772366217085711600,1.487711669921875,-0.025716040536761284,-0.005117744872532784,-0.004667882213182747
1772366217095781600,1.49778173828125,-0.03782967217862606,-0.002942300529591739,-0.0035153877098113295
1772366217105852700,1.507852783203125,-0.0321375980168581,0.005194618634181097,-0.0029504107708111403
1772366217115922700,1.517922607421875,-0.01866787559092045,0.003272966389218345,-0.0024173268074169753
1772366217125992700,1.52799267578125,-0.040809564772248265,0.0020253500814549625,0.0035435908909887074
1772366217136063500,1.5380634765625,-0.031386487388610836,0.009092256260383874,0.0027095877522602674
1772366217146133800,1.5481337890625,-0.03482464514374733,-0.00030389658370986577,-0.0013982494253665207
1772366217156203800,1.558203857421875,-0.030633623194694516,-0.0009235537188593297,0.001350501293502748
1772366217166274800,1.56827490234375,-0.0306301160633564,-0.00015689846160821616,-0.010505502325482665
1772366217176344600,1.578344482421875,-0.02898702503144741,0.006317896176222712,0.0006986132560297847
1772366217186414600,1.58841455078125,-0.02748947995007038,0.007149634292628616,-0.004076565256528556
1772366217196484600,1.598484619140625,-0.03407528808116913,-0.000905442673433572,-0.004114011190086603
1772366217206555600,1.6085556640625,-0.023902269113063812,-0.004228230420593172,-0.0019333792153745889
1772366217216625700,1.618625732421875,-0.03288812412321567,-0.0006938183499034493,0.004479264305904508
1772366217226695700,1.62869580078125,-0.04082183973193168,-0.0034796679424587635,0.0021850158888846636
1772366217236766500,1.638766357421875,-0.0330395152926445,-0.011702840617578475,0.0017531272776424884
1772366217246836700,1.648836669921875,-0.030951018580794333,-0.004309141036542132,-0.0061546136396005745
1772366217256906800,1.65890673828125,-0.038275662380456925,0.0020478724405169485,0.0028597733452916142
1772366217266977800,1.668977783203125,-0.04126198471486568,0.003488974626921117,0.0008994330577552319
1772366217277047600,1.679047607421875,-0.027044658792018887,0.007254784300690516,0.00004135492369532585
1772366217287117800,1.689117919921875,-0.03258709535002708,0.005878600576659664,-0.003690269352681935
1772366217297187600,1.6991875,-0.023764321947097777,0.0013071462089661507,-0.00266585820838809
1772366217307258600,1.709258544921875,-0.041570027750730515,-0.004996356115723029,-0.0013022051723673939
1772366217317328600,1.71932861328125,-0.03888064253628254,0.006143818250950426,0.0049063671441748734
1772366217327398700,1.729398681640625,-0.033197920724749565,-0.002618831595731899,-0.0005084244461730122
1772366217337469700,1.7394697265625,-0.024370471146702766,0.003279249999532476,-0.010102584080398082
1772366217347539700,1.749539794921875,-0.031551322561502455,0.001776279824366793,0.003710179629549384
1772366217357609700,1.759609619140625,-0.025261867028474806,-0.0005379428016021847,-0.003989179234020411
1772366217367680800,1.7696806640625,-0.0284036721855402,-0.0018009576078969983,-0.0029456249978393315
1772366217377750500,1.77975048828125,-0.042019525083899494,-0.0005004512022715061,0.0020072116365656254
1772366217387820800,1.78982080078125,-0.034838673669099804,0.0007641710392199457,0.0010530527168884872
1772366217397890600,1.799890625,-0.028103227934241293,0.005866499146912247,0.009741824476607144
1772366217407961600,1.809961669921875,-0.027505262041091917,-0.004275531027885153,-0.0014846125345677136
1772366217418031600,1.820031494140625,-0.03199439015388489,-0.0025670283432584254,-0.008680953779444098
1772366217428102000,1.830101806640625,-0.04500760098397732,0.007342261654743924,-0.0018617022186517714
1772366217438172700,1.840172607421875,-0.037976387172937394,0.0018072138187475502,0.001091375433281064
1772366217448242700,1.85024267578125,-0.031842414462566374,-0.00816405376587063,0.002992752075195312
1772366217458312700,1.860312744140625,-0.03409983800053596,0.00041563159618526697,-0.006556655101850628
1772366217468383700,1.8703837890625,-0.025725392886996268,0.00414376700753346,-0.0002678571559488773
1772366217478453800,1.880453857421875,-0.03589724281132221,0.0000500679531134665,0.0029307196896523236
1772366217488523800,1.890523681640625,-0.03934299935102462,0.006264001431362703,-0.0013298968968912957
1772366217498593500,1.900593505859375,-0.03515139288008213,-0.0009825538970995695,0.0009685527712106704
1772366217508664600,1.91066455078125,-0.030961539974808692,-0.001623527814913541,-0.005623538970202208
1772366217518734600,1.920734619140625,-0.0344032048612833,0.0033281580420210957,-0.004593538335338235
1772366217528804900,1.930804931640625,-0.028721067571640013,0.006241890064254403,-0.0036246567705646156
1772366217538875600,1.940875732421875,-0.041592824104428286,0.013892304352717473,-0.005039857330732048
1772366217548945700,1.950945556640625,-0.03531213639974594,0.00856833285097964,-0.0026045930078253147
1772366217559015700,1.961015625,-0.027543255963921546,0.008503761448478326,-0.0028856019062921405
1772366217569086700,1.971086669921875,-0.03219371211826801,0.004220485505554825,-0.0015148980749770998
1772366217579156700,1.98115673828125,-0.024718261671066284,-0.007587084994977339,0.0019377996621653436
1772366217589226800,1.991226806640625,-0.03864215760529041,-0.0008083937734365463,0.0004034297017380595
1772366217599296500,2.001296630859375,-0.03625321664214134,0.003049733826285228,0.005067110663838684
1772366217609367600,2.011367431640625,-0.036706805628538126,-0.0007739161150995641,0.0029900121288374062
1772366217619437600,2.0214375,-0.043432899013161656,-0.005972946062916889,-0.0012243176305666566
1772366217629507800,2.0315078125,-0.02800970443189144,0.00036190124810673294,-0.0037098143033683297
1772366217639578600,2.04157861328125,-0.029350597646832465,0.007983756162365898,-0.0058254912830889224
1772366217649648600,2.051648681640625,-0.02157470294833183,0.0033917704632971434,-0.002794781817682087
1772366217659718400,2.061718505859375,-0.028458617243170736,-0.002494255367992446,0.0006568199409171939
1772366217669789400,2.07178955078125,-0.05538754070103168,-0.005456986764259636,0.005283529893495142
1772366217679859200,2.081859130859375,-0.030247254225611683,0.005032559940265491,0.001568966349773109
1772366217689929200,2.09192919921875,-0.032786417314410204,-0.0003834646259434521,-0.0040201588941738
1772366217699999200,2.101999267578125,-0.040566988188028334,0.0025700057516340165,-0.00027520021218806505
1772366217710070000,2.112070068359375,-0.0374181687682867,0.0006989055169746279,0.0006057108081877231
1772366217720140300,2.122140380859375,-0.025889059016108513,-0.0001518295608460903,0.0024098010880872606
1772366217730210300,2.132210205078125,-0.02184007588624954,0.0023373843058478085,0.0036353242950513957
1772366217740281000,2.142281005859375,-0.030205753171443937,0.009958654698217287,0.005111607392691076
1772366217750351000,2.15235107421875,-0.03468903606534004,-0.0018937139252666383,0.007028802658244967
1772366217760421400,2.16242138671875,-0.026317513561248777,0.00597291866345331,0.0017878332648426293
1772366217770492400,2.172492431640625,-0.02797346407473087,0.0019464304931927471,-0.002325264609791338
1772366217780562200,2.182562255859375,-0.025443653336167334,-0.0004710333115421235,0.0037920857593417164
1772366217790632200,2.192632080078125,-0.029793665239214895,0.003068182798428461,-0.00853325240444392
1772366217800702200,2.2027021484375,-0.03144084792435169,0.0026164569755550474,-0.006647657853551208
1772366217810773200,2.212773193359375,-0.04177051875889301,0.002556488682935014,-0.00152867087200284
1772366217820843300,2.22284326171875,-0.04311901075839996,-0.0005216492539271712,-0.0021906053794547914
1772366217830913300,2.232913330078125,-0.030108722537755966,0.0049561885021161284,-0.0005582549372687935
1772366217840984000,2.242984130859375,-0.03594166647493839,-0.0039484544979874045,0.0071333224786445494
1772366217851054000,2.25305419921875,-0.02815700394809246,-0.002815952469874173,-0.0016421777164563535
1772366217861124400,2.263124267578125,-0.03579612052440643,-0.0010412344149313866,-0.00689947719015181
1772366217871195400,2.2731953125,-0.03191197256743908,0.001988561735022813,-0.00044069297220557924
1772366217881265200,2.28326513671875,-0.03729717273712158,0.0008173442648723721,-0.003732208798266947
1772366217891335200,2.293335205078125,-0.028162849166989325,-0.009010861587245017,-0.000010265665687620638
1772366217901405400,2.303405517578125,-0.02890636101067066,0.007364857079042122,0.00009903992768377065
1772366217911476200,2.313476318359375,-0.041921909928321836,-0.0017565156779717653,0.0018203472949564455
1772366217921546200,2.323546142578125,-0.03413783192336559,-0.0054665674433577805,-0.0063449120473116636
1772366217931616300,2.3336162109375,-0.03653554071485996,0.008696544074220582,0.007368227213062345
1772366217941687000,2.34368701171875,-0.03400046927928924,0.006294780162116512,0.003723148708976805
1772366217951757300,2.35375732421875,-0.031012393379211425,0.005461571607831865,-0.0029738647116348146
1772366217961827300,2.363827392578125,-0.026530279529094696,-0.004830370165361092,-0.005820486314408481
1772366217971897000,2.37389697265625,-0.020399813950061796,-0.001991356480307877,0.0012648323040455579
1772366217981968100,2.383968017578125,-0.03521452124416828,0.0020556082224007697,0.0069403571898117656
1772366217992038100,2.3940380859375,-0.029670331120491025,0.003923320056730881,0.001697963024303317
1772366218002108200,2.404108154296875,-0.029369886869192122,-0.0058407801837660365,-0.009381649394705892
1772366218012179200,2.41417919921875,-0.038491350957751275,-0.006898983999807387,0.00029766777232289313
1772366218022249200,2.424249267578125,-0.04985504101514816,-0.0028427217457909137,-0.0004071925614029169
1772366218032319200,2.4343193359375,-0.0369826999604702,0.008063543400308118,0.011224829575978219
1772366218042390000,2.44439013671875,-0.029192776736617087,0.004499695172579959,0.0024803455736488104
1772366218052460300,2.454460205078125,-0.03188625360429287,0.008937787217879667,-0.005159611252881586
1772366218062530300,2.4645302734375,-0.03696224169433117,-0.000028632439440116284,0.0021604294368997214
1772366218072600000,2.47460009765625,-0.030223288828134534,0.0011289674973115325,-0.001771101325750351
1772366218082671000,2.484671142578125,-0.03380348540246486,0.0040768575174734,-0.0007878989746794104
1772366218092741400,2.494741455078125,-0.03245440888106823,0.009376480029243975,0.0033157369518652556
1772366218102811100,2.50481103515625,-0.028113164806365967,0.002949707517912611,-0.009058226126618683
1772366218112882200,2.514882080078125,-0.026470073774456978,0.004151128330081701,0.006442417605035006
1772366218122952200,2.5249521484375,-0.028424130451679228,0.0017380667058285325,0.004741130112484097
1772366218133022200,2.535022216796875,-0.04548457084596157,0.012734092494612558,-0.0033949031352996824
1772366218143093000,2.545093017578125,-0.030815994024276733,0.006830320944078266,0.0021036942809820173
1772366218153163300,2.555163330078125,-0.023780104038119313,-0.0007009787430521101,0.0017370894582942127
1772366218163233300,2.5652333984375,-0.03395663013756275,0.0027117523098830133,0.003653371408395469
1772366218173303000,2.575302978515625,-0.031574703437089915,-0.0018789182149339465,0.002797485231421888
1772366218183374000,2.5853740234375,-0.04384323337972164,-0.0029879663022235035,0.0046188919723033905
1772366218193444400,2.5954443359375,-0.03307166399657726,-0.001888736356049776,0.008469320322759448
1772366218203514000,2.60551416015625,-0.02902326538860798,0.003323710195766762,0.0036947628647089003
1772366218213585200,2.615585205078125,-0.03890636149942875,0.004353573833312839,0.004740545590594411
1772366218223655200,2.6256552734375,-0.048781274303793906,0.005369509410206228,0.004945712773874402
1772366218233725200,2.63572509765625,-0.034572131687402724,0.0032326983109116554,0.0009236176509410143
1772366218243795200,2.645795166015625,-0.03247662071287632,0.0018893939431756735,0.00046546208728104826
1772366218253866200,2.6558662109375,-0.03037467999756336,-0.0010907452456187456,0.004059650654345751
1772366218263936300,2.665936279296875,-0.026934184154868125,0.003746292122546583,0.0017982450610026716
1772366218274006000,2.676006103515625,-0.023342297142744065,0.0006178487705532462,0.0020807152641937137
1772366218284077000,2.6860771484375,-0.027529811960458755,-0.0056783652968239035,0.0006056742755696177
1772366218294147300,2.696147216796875,-0.03755728497803211,-0.005575398112693801,0.006091156481951475
1772366218304217000,2.706217041015625,-0.04443944570720196,-0.0027997867863625288,0.004936908412910997
1772366218314288000,2.7162880859375,-0.04039455423057079,0.0009681691787205636,0.0004176408901810646
1772366218324358100,2.726358154296875,-0.029620646759867666,0.01079831125959754,-0.004050955891236663
1772366218334428400,2.736428466796875,-0.03262216666340828,0.0031874983291607347,-0.00574007802195847
1772366218344498200,2.746498291015625,-0.021997896796464918,-0.004227600232930854,0.0006738076083362102
1772366218354569200,2.7565693359375,-0.02963175267577171,-0.00008504793494939804,-0.00043882980868220324
1772366218364639200,2.76663916015625,-0.0302379018753767,0.005316975505370646,0.002418897709995508
1772366218374709200,2.776709228515625,-0.024254735812544823,0.003963642933964729,-0.0029818288223817943
1772366218384780300,2.7867802734375,-0.03966390186846256,0.00601483984272927,-0.0012692162182182073
1772366218394850300,2.796850341796875,-0.03861293151080608,-0.0013779007570818066,0.0013397607037797569
1772366218404920000,2.806920166015625,-0.03322773134112358,0.0002079619285650551,0.010603482807241379
1772366218414991000,2.8169912109375,-0.031584055787324906,0.004879853596584871,0.0009809738613665102
1772366218425061000,2.82706103515625,-0.02500292383134365,-0.0020290855416562406,0.0022810966745018956
1772366218435131400,2.83713134765625,-0.02500117026567459,-0.00020786146386526523,0.008468297409452498
1772366218445201200,2.847201171875,-0.026644261297583578,0.0011853099275846034,0.004310264414548874
1772366218455272200,2.857272216796875,-0.03232756763100624,0.005807371104508638,0.0010821692135185002
1772366218465342200,2.86734228515625,-0.02978080575764179,-0.005786638843733817,0.0006804565448313951
1772366218475412200,2.877412109375,-0.031573534393310544,-0.0026054332580417393,-0.004959266375191509
1772366218485483300,2.887483154296875,-0.022594109123945234,0.005692265958013013,0.005710523133911192
1772366218495553300,2.89755322265625,-0.031413959917426106,0.0002867079868912697,0.000054616264067590237
1772366218505623000,2.907623046875,-0.042327568119764326,0.0008048592426348478,0.008492408937402069
1772366218515693300,2.917693359375,-0.03439969772994518,-0.0031881650494411584,0.003496609944105148
1772366218525764400,2.927764404296875,-0.024669746354222297,0.0029920214228332043,0.00029299159720540046
1772366218535834400,2.93783447265625,-0.035890813070535654,0.010722195549774915,0.0019738208236172792
1772366218545904000,2.947904052734375,-0.04277238927781581,0.007477423208579421,-0.000937974969856441
1772366218555975200,2.95797509765625,-0.023618191474676132,-0.0010473627616185695,0.002509608200751245
1772366218566045200,2.968045166015625,-0.020772154393792153,0.003157486783387139,-0.0016054259026423096
1772366218576115200,2.978115234375,-0.03034896103441715,0.0031108528963755813,0.0036115050280466675
1772366218586185200,2.988185302734375,-0.031850597769021986,-0.0009626984191592783,-0.0027848814781755208
1772366218596256300,2.99825634765625,-0.027808628901839254,0.006784536440437659,-0.0031780455142259596
1772366218606326000,3.008325927734375,-0.03079728932380676,0.007234746159659698,-0.0035076427947729823
1772366218616396300,3.018396240234375,-0.033494857844710346,0.008503587918542325,-0.001328399059548974
1772366218626467300,3.02846728515625,-0.03304536051154137,0.011891184530220925,0.006000190262869
1772366218636537300,3.038537353515625,-0.02466740826666355,-0.0007648925584275275,0.004032141592912376
1772366218646607000,3.048607177734375,-0.03259469413459301,0.0061031939796172075,-0.0006876534705981612
1772366218656682500,3.0586826171875,-0.037384266498684884,-0.0011970094985328614,0.0028839944710955024
1772366218666752300,3.068752197265625,-0.027951836764812468,0.0031300051214173436,0.0062899304570630185
1772366218676822500,3.078822509765625,-0.032142274191975594,0.002632056403486058,0.00794566177483648
1772366218686892500,3.088892578125,-0.037978725260496136,0.0014293478165287525,-0.0074816975248977536
1772366218696963300,3.09896337890625,-0.031844168028235434,-0.0022570947444066403,-0.008555281573161481
1772366218707033300,3.109033447265625,-0.03094458884000778,-0.00222519263564609,0.004356624306924641
1772366218717103400,3.119103271484375,-0.027654899644851683,0.006261444148095324,-0.0004664850005879998
1772366218727174400,3.12917431640625,-0.02421907997727394,-0.00491103418613784,0.005560227943025529
1772366218737244400,3.139244384765625,-0.039191023659706115,-0.008332642665272578,0.0035469884244725106
1772366218747314400,3.149314453125,-0.03455751864016056,-0.0006743373312987387,0.006434380429051816
1772366218757384400,3.159384521484375,-0.03202244720458984,0.004016176838800311,0.004606543947383761
1772366218767455200,3.169455322265625,-0.03815641991496086,-0.007975618521682918,0.005104702727869153
1772366218777525500,3.179525390625,-0.03275777574181556,-0.00495518385511823,-0.00046794630531221627
1772366218787595500,3.189595458984375,-0.041433834150433536,-0.006408469669660553,0.007382474934123456
1772366218797666300,3.199666259765625,-0.04622165294885635,-0.0059616118181496855,0.004712671202979982
1772366218807736300,3.209736328125,-0.0366471843957901,-0.0019479191973805427,0.0006056012103334069
1772366218817806600,3.219806640625,-0.03679448391199112,0.00019926716545596717,-0.0007086597260087728
1772366218827876400,3.22987646484375,-0.03035597529709339,0.007564982761023566,-0.0006338043915107846
1772366218837947400,3.239947509765625,-0.032298926058411594,-0.0004783672346267849,0.0018150865979492663
1772366218848017400,3.250017333984375,-0.025710195317864417,-0.00393364052134566,0.002060147400200367
1772366218858087400,3.26008740234375,-0.030495091506838795,-0.0024802633752580732,0.000814312057569623
1772366218868158500,3.270158447265625,-0.031986206847429276,-0.0005695343831088394,0.0012313318932428955
1772366218878228500,3.280228515625,-0.030192893689870832,-0.0023203509726561606,0.0017891119064763188
1772366218888298500,3.290298583984375,-0.03377952000498771,0.0045529779960867016,0.005182078813016414
1772366218898369300,3.300369384765625,-0.03436988711357117,-0.004821163945598527,0.003573511105217039
1772366218908439300,3.310439208984375,-0.03601239362359047,0.002820601245528087,0.005150953022390604
1772366218918509600,3.320509521484375,-0.04304068482518196,0.000048350920062512156,0.006314480376429855
1772366218928579300,3.330579345703125,-0.033166356542706485,0.0008211071245372294,0.006612659605406224
1772366218938650400,3.340650390625,-0.032277298748493194,0.007530084977578371,0.005845365027338266
1772366218948720400,3.350720458984375,-0.032872926554083824,0.000162588416878134,0.0014426000237464905
1772366218958790700,3.360790771484375,-0.030928222227096555,0.00034730646717362105,0.0026388240709900855
1772366218968861400,3.370861328125,-0.03585632627904415,0.0030981121458113193,0.008701667773909866
1772366218978931500,3.380931396484375,-0.027031799310445782,0.008407406668225302,0.0008875234242528676
1772366218989001500,3.39100146484375,-0.032278467792272565,0.0026698585300706326,0.000274396494589746
1772366218999071200,3.4010712890625,-0.03483049036264419,0.004704570094915107,-0.0028783684479072686
1772366219009142300,3.411142333984375,-0.031394086173176766,0.012958046576753257,-0.0011909633502364158
1772366219019212500,3.421212646484375,-0.03722936819791794,0.007906535340845584,0.00886135184764862
1772366219029282300,3.4312822265625,-0.03333937502205372,0.0034077169511001555,0.009595401743240655
1772366219039353300,3.441353271484375,-0.031098318096995353,0.0034897600782103837,0.010394735427387058
1772366219049423400,3.45142333984375,-0.03334638928472996,-0.0029551782774738964,0.0049310997266322374
1772366219059493600,3.46149365234375,-0.021819033098220825,0.008782596656167879,0.0027794381180778144
1772366219069563400,3.4715634765625,-0.025252514678239822,-0.004421725432388484,0.003559628710336983
1772366219079634400,3.481634521484375,-0.041558921834826464,0.009479776006937026,0.0063339157292619346
1772366219089704400,3.491704345703125,-0.033787703311443325,0.004260141662508249,0.0005833893785253167
1772366219099774500,3.5017744140625,-0.024967852517962453,0.0062546582142822445,0.004886529932543635
1772366219109845500,3.511845458984375,-0.027962358158826826,-0.0014430201488547026,0.0054657911252230405
1772366219119915500,3.52191552734375,-0.02301964105963707,-0.004909308019932359,0.007810673750936984
1772366219129985300,3.5319853515625,-0.030953941190242765,-0.0009501768643036485,0.006253763165138661
1772366219140055300,3.54205517578125,-0.02467617609500885,0.0017009586989879606,0.0008776596173644065
1772366219150126300,3.552126220703125,-0.0318587810754776,-0.0013001958783715962,-0.007048968663439154
1772366219160196600,3.562196533203125,-0.03157002726197242,0.008571456389827653,0.004838197278790176
1772366219170266400,3.572266357421875,-0.029328970336914062,0.0055006797755137084,0.006262202199921012
1772366219180337400,3.58233740234375,-0.024994740524888037,0.001987219161307439,0.003435965798050165
1772366219190407400,3.592407470703125,-0.02709258958697319,-0.0020957849691621957,0.005766564170084893
1772366219200477400,3.6024775390625,-0.03786006731688976,-0.0028093857317697257,0.003512574698217213
1772366219210548500,3.612548583984375,-0.02798281642496586,0.0041881358722224826,-0.006755830935761332
1772366219220618500,3.622618408203125,-0.016593991926312446,0.0002728073257021606,-0.0007190715221688151
1772366219230688300,3.632688232421875,-0.030661095723509786,-0.0051861156673170625,-0.0007224690556526184
1772366219240758500,3.642758544921875,-0.03499766362309455,0.003545956378011033,-0.0028891821028664707
1772366219250829600,3.65282958984375,-0.03259001795947552,0.0006424717551562934,0.005925152265280485
1772366219260899600,3.662899658203125,-0.0279459915459156,0.0018803338538855314,0.006644041124358773
1772366219270969300,3.67296923828125,-0.039462241816520686,0.008244178930530324,0.002452617316506803
1772366219281040400,3.683040283203125,-0.025400983238220213,0.0015810769126750528,-0.00018277268838137387
1772366219291110400,3.6931103515625,-0.0276455472946167,-0.0006628569560591131,0.0050335006551817055
1772366219301180400,3.703180419921875,-0.0267436300188303,0.00017891849717125295,0.013181589666940271
1772366219311250400,3.71325048828125,-0.034219664987921714,0.007312076579034328,0.012112499130703508
1772366219321321500,3.723321533203125,-0.03257014421522617,0.005875614035129547,0.006063172496482729
1772366219331391200,3.73339111328125,-0.0301724354237318,0.00476336021060124,-0.0039001857763156294
1772366219341461500,3.74346142578125,-0.03406944286227226,0.006146950922952965,0.0006114098966121674
1772366219351532500,3.753532470703125,-0.03391571360528469,0.008549472886882722,-0.0004923500942066311
1772366219361602300,3.763602294921875,-0.0351046311289072,0.005817536305496469,0.002398914367891848
1772366219371672300,3.77367236328125,-0.024033202016353606,0.0028365659996401516,0.010145327243581413
1772366219381743400,3.783743408203125,-0.02254033311009407,0.0005288005139213055,0.0008090513605624437
1772366219391813600,3.793813720703125,-0.01834405046403408,0.00788658853136003,0.0041014439694583415
1772366219401883400,3.80388330078125,-0.02985971621274948,0.007358445604564621,0.004373867702670395
1772366219411953400,3.813953369140625,-0.028803485158085822,0.005230174004752189,0.011333075723424553
1772366219422024400,3.8240244140625,-0.03359071943461895,0.005947747689578682,0.007161123801022767
1772366219432094200,3.83409423828125,-0.03075111209452152,0.006515035316674038,0.003778787886351347
1772366219442164500,3.84416455078125,-0.027459669333696365,-0.00853079558587633,0.0060345674565061925
1772366219452235500,3.854235595703125,-0.03269640094339847,0.006172295426763594,0.0081422437928617
1772366219462305300,3.86430517578125,-0.035090602603554726,0.010431551173282786,-0.0021644845575094222
1772366219472375300,3.874375244140625,-0.03464578144550323,0.011339386733202263,0.0026866452680900693
1772366219482445600,3.884445556640625,-0.02536883453428745,0.007923157682083546,0.0001274257719516754
1772366219492516600,3.8945166015625,-0.024324293917417524,0.001248036432871595,0.009917473304457962
1772366219502586400,3.90458642578125,-0.027177345260977745,-0.00006476319874636828,0.006533128095790743
1772366219512656400,3.914656494140625,-0.02717617621719837,0.009442120010824874,0.006400770420394837
1772366219522727400,3.9247275390625,-0.04214870442152023,0.007091593095613643,0.009796331142820417
1772366219532797400,3.93479736328125,-0.03571662554740906,-0.0006387819607276469,0.002690115866810083
1772366219542867500,3.944867431640625,-0.025990765824913976,0.0067610642333049325,0.0014640081379562616
1772366219552937500,3.9549375,-0.03766016083061695,0.0042469533873721954,0.0045168929025530815
1772366219563008300,3.96500830078125,-0.03106792295873165,0.004303359749726951,0.007371661279164254
1772366219573078300,3.975078369140625,-0.052149289432168004,0.009381265802215785,0.006409940107539295
1772366219583148500,3.9851484375,-0.022072131076455115,0.008780678693717346,0.0028275515761226415
1772366219593219600,3.995219482421875,-0.021176643541455268,-0.00421538920532912,0.0042371261131018394
1772366219603287600,4.00528759765625,-0.032704584249854084,0.0052955034590791905,-0.0021575068274512885
1772366219613357300,4.015357421875,-0.030611411362886427,0.0019952289378270508,0.002444726270996034
1772366219623427300,4.02542724609375,-0.02851414682269096,-0.0009480031735263764,0.0014310922490432857
1772366219633497600,4.03549755859375,-0.04048223251402378,0.012009385816100985,0.0046494697736576196
1772366219643568600,4.045568603515625,-0.03658873220682144,0.01202234576237388,0.0033431729480624195
1772366219653638400,4.055638427734375,-0.034489129579067225,0.005653413518657908,0.007466426890529692
1772366219663704300,4.065704345703125,-0.02341828498840332,-0.004420017532492057,0.0006728577602654695
1772366219673775400,4.075775390625,-0.029110943672060966,0.003069096113881096,0.002504749362543225
1772366219683845600,4.085845703125,-0.03973930519223213,0.003807630388345569,0.005560374073497951
1772366219693915400,4.095915283203125,-0.02044189952611923,-0.0024201854847837236,0.002568827574700117
1772366219703985400,4.1059853515625,-0.030475802284479138,-0.005581325529981404,0.0011854103922843931
1772366219714056400,4.116056396484375,-0.03347673766613007,0.00878860627184622,-0.006482274691388011
1772366219724126500,4.12612646484375,-0.0291442614197731,-0.00032586182034574445,-0.0015789397545158863
1772366219734196500,4.136196533203125,-0.02929506806731224,0.011525109430495648,0.006305529884994029
1772366219744267500,4.146267578125,-0.0375274743616581,0.009712278721714391,0.007019523373246192
1772366219754337300,4.156337158203125,-0.032439795833826064,0.005499994788924232,0.003877791281417012
1772366219764407300,4.1664072265625,-0.018075754916667935,0.005513484458159655,0.0025100100595504046
1772366219774477600,4.1764775390625,-0.025697920358180998,0.00500318771530874,0.010485044059343635
1772366219784548600,4.186548583984375,-0.03901566709280014,0.005685872749844566,-0.0035653643313795324
1772366219794618400,4.196618408203125,-0.028391981747746466,0.0035942250996828075,-0.000432948057167232
1772366219804688400,4.2066884765625,-0.03212766114473343,0.001842613925691694,0.0020880948530510065
1772366219814759400,4.216759521484375,-0.025386954712867737,0.005924092819355428,0.0076052508393302555
1772366219824829400,4.226829345703125,-0.022990999487042425,0.0037977026493754237,0.0019483575887978076
1772366219834899500,4.2368994140625,-0.027779987329244613,0.0022757263796404003,0.010308262720331548
1772366219844969500,4.246969482421875,-0.023294366347789763,0.005533531732344999,0.002746303033456206
1772366219855040300,4.257040283203125,-0.0183563254237175,-0.000354293330386281,0.001567103186249733
1772366219865110300,4.2671103515625,-0.030471126109361646,0.00112409039279446,0.003192877757176757
1772366219875180500,4.2771806640625,-0.0256803847014904,0.005304307820042595,0.004442549024708569
1772366219885251600,4.28725146484375,-0.025970307558774948,0.004221608883561566,0.0062801397154107685
1772366219895321300,4.2973212890625,-0.023723405414819716,-0.003725788190634921,0.01142371314894408
1772366219905391400,4.307391357421875,-0.04317512485980987,-0.0005023143657948821,0.0017025661341845987
1772366219915462400,4.31746240234375,-0.030150223591923712,0.005618963259784504,0.003486892267689109
1772366219925532400,4.327532470703125,-0.03164543058574199,0.011795167676685377,0.003979534622840583
1772366219935602400,4.3376025390625,-0.032089667221903796,-0.003545472320821136,-0.001137625727802515
1772366219945672400,4.34767236328125,-0.0328302564561367,0.00021514058802276847,0.0014275485850870609
1772366219955743200,4.3577431640625,-0.025496844828128813,0.0039621816292405125,0.007136318153329193
1772366219965813500,4.3678134765625,-0.02833469860255718,0.005417376273078844,0.01101286732573062
1772366219975883500,4.377883544921875,-0.0301332724571228,-0.0003573164045345038,0.010366313050501048
1772366219985953300,4.387953369140625,-0.026382980012893676,0.008857579854829236,-0.0031691680880263444
1772366219996024300,4.3980244140625,-0.04328559949696064,0.012553767491644248,0.009861030409485102
1772366220006094300,4.40809423828125,-0.029517186385393142,0.0021562829847447573,0.003935037893988192
1772366220016164600,4.41816455078125,-0.028012042519450185,-0.0028515261067543177,0.0019060162844136356
1772366220026235400,4.4282353515625,-0.025465280646085737,0.00886175370644778,0.0040661169277504084
1772366220036305400,4.438305419921875,-0.027401217144727704,-0.0018326131214853375,0.004742445286735892
1772366220046375400,4.44837548828125,-0.028452187502384183,0.0006855345787480473,-0.0011702858883887528
1772366220056446200,4.4584462890625,-0.027553777357935905,-0.003366325494786724,-0.0006849865894764662
1772366220066516500,4.4685166015625,-0.03399111692905426,0.0009460578116122632,0.006726714439131319
1772366220076586500,4.47858642578125,-0.03548573940098285,0.005073942263424397,0.01079480412825942
1772366220086656300,4.48865625,-0.02756312970817089,-0.0027413985294755545,0.006413739499822259
1772366220096727300,4.498727294921875,-0.020082418563961982,-0.0014714790583588181,0.011456738635711372
1772366220106797600,4.508797607421875,-0.030551790130138395,0.004969641638733447,0.004249693333730101
1772366220116867600,4.51886767578125,-0.03429273022413253,0.008384948241245001,0.0009444047106429934
1772366220126938400,4.5289384765625,-0.03727846803665161,-0.002268401589710265,0.010407521843723953
1772366220137008400,4.53900830078125,-0.025452421164512632,-0.0005937281094491482,0.011268412989377976
1772366220147078400,4.549078369140625,-0.03473345972895622,-0.003289762260392308,0.006398688061162829
1772366220157148400,4.5591484375,-0.03204348999261856,-0.0018813659003470093,0.011953984100744127
1772366220167219500,4.569219482421875,-0.0335404505521059,0.0031671222614124417,0.0031076471591368316
1772366220177291500,4.57929150390625,-0.025748189240694046,0.0020032569806557148,0.008858356172963976
1772366220187361500,4.589361572265625,-0.029637597894668577,0.004172801305772736,-0.002015687203966081
1772366220197431300,4.599431396484375,-0.039210897403955454,0.0036416079053655263,0.005255399777553975
1772366220207501300,4.609501220703125,-0.024096914902329444,0.0010158351121935993,0.011417137277685105
1772366220217572400,4.619572265625,-0.030384032347798344,0.004226321591297164,0.008206577733345329
1772366220227642600,4.629642578125,-0.03337152372598648,-0.0011931279078591613,0.0072781012441962955
1772366220237712400,4.63971240234375,-0.03756020758748054,0.0009216357564087957,0.008505012690648435
1772366220247783400,4.649783447265625,-0.034272271957993504,0.006315932547999546,0.006613536388240754
1772366220257853400,4.659853515625,-0.026191256833076475,0.0022958741185255347,0.008275624381564557
1772366220267923500,4.66992333984375,-0.014967267507314681,0.004160553745552897,0.003946363005600869
1772366220277993500,4.679993408203125,-0.023196751192212102,0.0019567235583439467,0.006061053604632616
1772366220288064500,4.690064453125,-0.028436989933252332,0.008542148096952588,0.008846556137315928
1772366220298134300,4.70013427734375,-0.02573532975912094,0.007441073253564536,0.007221366088278591
1772366220308204300,4.710204345703125,-0.039648704299330706,0.005065302299242467,0.006837810130789875
1772366220318275300,4.720275390625,-0.03485737836956978,0.005678127834806219,0.007391388892941176
1772366220328345600,4.730345703125,-0.028867782565951346,0.006544599337875843,0.006611636692099273
1772366220338415400,4.740415283203125,-0.01899403880536556,0.0007147424069233238,0.0013183525895699858
1772366220348485400,4.7504853515625,-0.023781857603788373,0.0037279801477212455,0.0055308922506868835
1772366220358556400,4.760556396484375,-0.033950784918665884,0.007910005939565598,0.005212254755571484
1772366220368626400,4.77062646484375,-0.02227671373784542,0.009714096219465135,0.01499298647046089
1772366220378696400,4.780696533203125,-0.024665070179104805,0.0025488076999783515,0.008518383628875017
1772366220388767500,4.790767578125,-0.029001638078689572,0.005846999861998483,0.0021379618767648936
1772366220398837200,4.800837158203125,-0.02645955238044262,0.008313161646667868,0.008110606545582414
1772366220408907500,4.810907470703125,-0.027203064224123955,-0.0016726276536472141,0.008373239537142217
1772366220418977500,4.8209775390625,-0.026465397599339482,0.00321413060775958,0.008312778054177761
1772366220429048600,4.831048583984375,-0.01883037267625332,0.005598148800618946,0.006746003661490976
1772366220439118300,4.841118408203125,-0.015536591827869414,0.011610942816734313,0.004234641895070672
1772366220449188400,4.851188232421875,-0.02256780563890934,0.006229003183217719,0.007420468856953084
1772366220459259400,4.86125927734375,-0.029745149922370907,-0.0010573544326703994,0.005722432767413556
1772366220469329400,4.871329345703125,-0.025405659413337705,-0.00014240414537489414,0.0124513391636312
1772366220479399400,4.8813994140625,-0.021966332614421845,0.0037588228105567396,0.004029365113936365
1772366220489469400,4.891469482421875,-0.018372107514739035,0.004804249343415722,0.007536715647764504
1772366220499540200,4.901540283203125,-0.022705752804875374,0.00843931791014038,0.005694521847181022
1772366220509610500,4.911610595703125,-0.039462826338410376,0.006333312941063195,0.0006603636048734188
1772366220519680500,4.921680419921875,-0.02179915935397148,0.003380637147929519,0.011544526517018676
1772366220529751600,4.93175146484375,-0.025832944914698598,0.0008326788313221186,0.011514679368026554
1772366220539821300,4.9418212890625,-0.017293664628267286,0.013181808862648903,0.014704013461247086
1772366220549891600,4.9518916015625,-0.02851590038836002,0.003712335054017603,0.006809606949612498
1772366220559962600,4.961962646484375,-0.03285480637550354,-0.0006226162772160023,0.0014426365563645958
1772366220570032400,4.972032470703125,-0.017746084570884703,0.010364212424959987,0.00239595522582531
1772366220580102400,4.982102294921875,-0.01581073259413242,-0.0037171025606803593,0.005765979648195207
1772366220590172400,4.99217236328125,-0.031228081956505775,-0.0005936824436765164,-0.0010724150044843553
1772366220600243500,5.002243408203125,-0.01955927147269249,0.0034864995420444754,-0.0019147841127589345
1772366220610313500,5.0123134765625,-0.027789339679479597,0.0057482247957959766,0.0006270823897793888
1772366220620383500,5.022383544921875,-0.034680852758884426,0.006840413079829886,0.004945530110783874
1772366220630454500,5.03245458984375,-0.029001053556799886,0.0010591719304211438,0.006130136785469949
1772366220640524300,5.042524169921875,-0.027955928418040274,0.0022462628231383857,0.004732764142937958
1772366220650594600,5.052594482421875,-0.029735797572135923,0.006892974384129047,0.0008924187950789928
1772366220660665000,5.0626650390625,-0.03243219704926014,0.004399257872253656,0.0032340500177815553
1772366220670736100,5.072736083984375,-0.025244915893673895,-0.0003784048583358526,0.009182875419594347
1772366220680806100,5.08280615234375,-0.026134558209776875,0.0013065982196945696,0.0035278087999671697
1772366220690876000,5.0928759765625,-0.027782909938693045,0.003177104799309745,0.005595518452115356
1772366220700947000,5.102947021484375,-0.025534254229068756,0.0012607041181996463,0.0055704936087131495
1772366220711017200,5.113017333984375,-0.025838790133595465,0.005586184368189424,0.009337810252979398
1772366220721087000,5.1230869140625,-0.023290859216451642,0.00392091803709045,0.0037372137669473885
1772366220731157000,5.133156982421875,-0.028222470399737357,0.0002331694350577891,0.0023714418390765784
1772366220741228000,5.14322802734375,-0.026718495577573775,0.001451285653701052,0.013464352131076156
1772366220751298300,5.15329833984375,-0.0243254629611969,0.005308207677025348,0.011036540462262929
1772366220761368000,5.1633681640625,-0.031207623690366743,0.004957841603085399,0.007193893559463322
1772366220771439000,5.173439208984375,-0.025977321821451186,0.00317483977698721,0.004045512531138956
1772366220781509000,5.183509033203125,-0.019247136783599853,0.008651462823478505,0.008779116924293338
1772366220791579100,5.1935791015625,-0.038403088152408595,0.01014000261449255,0.006635346361249685
1772366220801650000,5.20364990234375,-0.03167173407077789,0.00709167529400438,0.012278795608319341
1772366220811720200,5.21372021484375,-0.018355740901827813,0.006580200374219566,0.01031860145125538
1772366220821790000,5.2237900390625,-0.021055062988400458,0.013060155244357883,0.0008014525759965181
1772366220831860000,5.23385986328125,-0.03676701138317585,0.005756718629505485,0.003356507353670895
1772366220841931000,5.243930908203125,-0.03377250574231148,0.0050319023531395935,0.006694492669962346
1772366220852001300,5.254001220703125,-0.03153086429536343,0.00780294710220769,0.009634308981522918
1772366220862071000,5.264071044921875,-0.03960954133272171,0.0026693470734171568,0.005063274738937616
1772366220872142000,5.27414208984375,-0.02389700841605663,0.0022535054146777837,0.0007425254629924892
1772366220882212000,5.284212158203125,-0.02000876880586147,-0.0013618994703516363,0.0036701033474877474
1772366220892282000,5.2942822265625,-0.03602700667083263,0.007950237485254183,0.0035310967355966566
1772366220902352100,5.30435205078125,-0.017028291690349577,0.008025914803659544,0.0093763156324625
1772366220912423200,5.314423095703125,-0.0304991831600666,0.006929205608135089,-0.00013056757710874079
1772366220922493000,5.324492919921875,-0.026312837386131285,0.007845653732772916,0.0006549202447757124
1772366220932563000,5.33456298828125,-0.03155249160528183,0.007155570843070745,0.006606850919127464
1772366220942634000,5.344634033203125,-0.029154198291897773,0.0018315719418693333,0.004765497368760406
1772366220952704300,5.354704345703125,-0.03289163125455379,0.0024595676471013575,0.005405183511786163
1772366220962774000,5.36477392578125,-0.04530979880094528,0.007028373399982229,0.00902162044327706
1772366220972844000,5.374843994140625,-0.034387422770261765,0.006113076052814722,0.012583002719283103
1772366220982915000,5.3849150390625,-0.03319324454963207,0.0023929504179861396,0.010857749829255043
1772366220992985000,5.394985107421875,-0.02705810279548168,-0.010227059843437745,0.010422463684529065
1772366221003055000,5.40505517578125,-0.024361703318357467,-0.002153689168859273,0.006321933030523359
1772366221013126100,5.415126220703125,-0.034237785166502,0.0007363879831507802,0.0062966159261763095
1772366221023196000,5.42519580078125,-0.02975041061937809,-0.004631450059777126,0.006866707431711256
1772366221033266200,5.43526611328125,-0.030656419548392294,0.0020046452201437203,0.012685476713068782
1772366221043337200,5.445337158203125,-0.03275251504480839,0.0071462732917629175,0.006415785326436161
1772366221053407200,5.4554072265625,-0.024373393756151197,0.0010098163633607327,0.008529964468814433
1772366221063477000,5.46547705078125,-0.025717209580540655,0.004230650706542656,0.0014398966100066899
1772366221073547000,5.475547119140625,-0.028714053308963775,0.007373259581206366,-0.00030336686074733735
1772366221083618000,5.4856181640625,-0.02677577872276306,0.0033631197575479744,0.003731916537322104
1772366221093688000,5.49568798828125,-0.02797346407473087,0.001072223208239302,0.00895498494785279
1772366221103758000,5.505758056640625,-0.03350888637006283,-0.0005501994949765503,0.004199278320744634
1772366221113829000,5.5158291015625,-0.027669512692093848,0.0008343593317549675,0.002147679553180933
1772366221123899000,5.52589892578125,-0.021682254976034165,-0.0027006281276699155,0.0017507526574656366
1772366221133969200,5.53596923828125,-0.023631635478138922,-0.00048155470555648203,0.0031931700181216
1772366221144039200,5.5460390625,-0.020039163944125173,0.005272688839072361,0.00873140532504767
1772366221154110200,5.556110107421875,-0.023480244308710096,0.0011461469609756023,0.008277231816761195
1772366221164180000,5.566179931640625,-0.037245150288939474,0.004321607792470604,0.01191694002598524
1772366221174250200,5.576250244140625,-0.04517418972253799,0.005933773963153362,0.0074522887673228976
1772366221184321300,5.5863212890625,-0.026328619477152822,0.002797731826594099,0.0037944969121366736
1772366221194391000,5.59639111328125,-0.04234042760133743,0.0038669410938397047,0.0148479154439643
1772366221204461000,5.6064609375,-0.029472178199887275,0.009606489392835647,0.010217844490520656
1772366221214532000,5.616531982421875,-0.03515782262086868,0.006991073596896603,0.001829809243045747
1772366221224602000,5.62660205078125,-0.03006663696169853,0.0031662363454233854,0.0008425517713651061
1772366221234672000,5.636672119140625,-0.03486088550090789,-0.006793751793354749,0.0049205417999997735
1772366221244742100,5.6467421875,-0.018393150302767752,0.00497138607124798,0.0038807504234835504
1772366221254813200,5.656813232421875,-0.029464579415321348,0.004087378911487758,0.009153064803220331
1772366221264883000,5.666883056640625,-0.02227788278162479,0.003604764760006219,0.003709923901222646
1772366221274953200,5.676953125,-0.015852818170189856,0.0028670981352217494,0.010233553516305982
1772366221285024300,5.687024169921875,-0.03216331698000431,0.003434422294935211,0.013216405251994728
1772366221295094000,5.697093994140625,-0.023324761486053464,0.0026992855539545416,0.012513846473209559
1772366221305164000,5.7071640625,-0.023324761486053464,0.0035889735358301546,0.00621898411270231
1772366221315234300,5.717234375,-0.02557107910811901,-0.0014281331069767474,0.00844630477335304
1772366221325305000,5.72730517578125,-0.03126081518232822,0.01015137339187786,0.006129844524525105
1772366221335375000,5.737375,-0.03291501213014126,0.008215957483043894,0.008836327004246414
1772366221345445000,5.747445068359375,-0.02229015774130821,0.006761648755194619,0.0049310631940141314
1772366221355516200,5.75751611328125,-0.027384850531816482,-0.0008551920572295785,0.007471943315863609
1772366221365586000,5.7675859375,-0.0237894563883543,0.004768474777135998,0.0054853726085275405
1772366221375656200,5.77765625,-0.034410219123959536,0.009487685318756848,0.00704421942308545
1772366221385726000,5.787725830078125,-0.028433482801914215,0.0037631975915748623,0.013128398174978791
1772366221395797000,5.797796875,-0.030975568500161168,0.006036083560157567,0.016910802790522574
1772366221405867000,5.807866943359375,-0.040996611776947973,0.004503101839218288,0.006835435510613024
1772366221415937300,5.817937255859375,-0.03874561797976494,0.0020171302423812446,0.007078487018868327
1772366221426008000,5.828008056640625,-0.015695581781864164,-0.0025357746884692458,-0.0004395969936624169
1772366221436078000,5.838078125,-0.02302081010341644,0.0036880773955956098,0.007364647016488015
1772366221446148000,5.848148193359375,-0.030793197670578955,0.007346024514408782,0.004698167753592134
1772366221456218000,5.858218017578125,-0.03542845625579357,0.008251631584623827,0.0082097560711205
1772366221466289200,5.8682890625,-0.02795534389615059,-0.006745674867928027,0.0113111196199432
1772366221476359200,5.878359130859375,-0.03694295247197151,0.005756782561587169,0.002704765446670353
1772366221486429000,5.888428955078125,-0.027671266257762908,0.00363103171242401,0.006641629971563816
1772366221496500000,5.8985,-0.026480010646581648,-0.0011395162907894701,0.0066288435552269214
1772366221506570000,5.908570068359375,-0.034112697482109065,-0.0019103271333500741,0.0010629530563950537
1772366221516640300,5.91864013671875,-0.030828853505849838,0.00842574604251422,0.004184080751612782
1772366221526711000,5.9287109375,-0.04070668891966343,0.006048047992587089,0.0015623904785141349
1772366221536781000,5.938781005859375,-0.03158113317787647,-0.0026613372968975453,0.00438855381514877
1772366221546851000,5.94885107421875,-0.04146247572302818,0.008136088046710939,0.007855645403824746
1772366221556921000,5.958921142578125,-0.027702245917916295,0.01360715813525021,0.005303805496543646
1772366221566992100,5.9689921875,-0.031896774998307224,0.007170878010056912,0.005927380754984915
1772366221577062100,5.979062255859375,-0.02844926489293575,-0.001389974787365645,0.0034137174336239693
1772366221587132000,5.9891318359375,-0.02306055759191513,-0.0003111848410218954,0.004989332719892263
1772366221597203000,5.999202880859375,-0.038324762219190595,0.004212128669163212,0.007660378560051322
1772366221607273200,6.009273193359375,-0.026945874592661855,0.00858824312784709,0.005424363136291504
1772366221617343200,6.01934326171875,-0.02903320226073265,-0.00004444192992523312,0.0018240005567669868
1772366221627413000,6.0294130859375,-0.027243980756402015,0.008589329973235726,0.013195837388001381
1772366221637484000,6.039484130859375,-0.041756490233540534,0.0072808411905542015,0.010688603807426988
1772366221647554000,6.049553955078125,-0.0013666121780872343,0.0026556656079366804,-0.0051448886077851055
1772366221657624000,6.0596240234375,-0.02888940987586975,-0.003064310340909287,0.01288129154611379
1772366221667698400,6.069698486328125,-0.026793898901343344,0.008293406633427366,0.01004559319615364
1772366221677768200,6.079768310546875,-0.02201484793126583,0.0029583931478671726,0.005631430015712976
1772366221687838200,6.089838134765625,-0.019772621962428093,0.004138067919109017,0.005759074983373284
1772366221697908500,6.099908447265625,-0.026059154886007307,0.00553954134802334,0.001835910190269351
1772366221707979300,6.109979248046875,-0.025168343526124952,0.0014870876194443552,0.011704356721229851
1772366221718049300,6.12004931640625,-0.020218612164258954,0.008441034943191334,0.009409231521375476
1772366221728119300,6.130119384765625,-0.022765374037623406,0.00366809405349195,0.004856244392134249
1772366221738190300,6.1401904296875,-0.027545009529590606,-0.00033703166833147404,0.009102211398817598
1772366221748260400,6.15026025390625,-0.03412672600746155,0.006457386845303699,0.00468012064024806
1772366221758330400,6.160330322265625,-0.019752748218178746,0.00435169240348041,0.008601787596009672
1772366221768401400,6.1704013671875,-0.016911387312412263,0.003677574267890304,0.006936302069202065
1772366221778471200,6.18047119140625,-0.03531564353108406,0.011925442992849275,0.004727686109021306
1772366221788541400,6.19054150390625,-0.02574059045612812,0.0029552787421736866,0.011125387789495289
1772366221798611500,6.200611572265625,-0.011073767200112342,-0.0026547431593295185,0.003339921545051038
1772366221808682200,6.21068212890625,-0.02663724703490734,0.011489855454023926,0.003901902809366584
1772366221818752300,6.220752197265625,-0.021253800430893897,0.00057368996841833,0.01265230509582907
1772366221828822300,6.230822265625,-0.01706394752562046,0.009798888426087796,0.0026196809791028497
1772366221838893300,6.240893310546875,-0.02468962009847164,0.010323496822081505,0.006286679054051637
1772366221848963300,6.25096337890625,-0.027681203129887578,0.014498097359295933,0.005751695394515991
1772366221859033300,6.261033447265625,-0.027077976539731024,0.008609267649566755,0.009309095615148543
1772366221869104400,6.2711044921875,-0.025875030490756033,0.008649709257809444,0.006164660109579563
1772366221879174100,6.281174072265625,-0.010613748472929,0.013331556064262985,0.00460639781691134
1772366221889244400,6.291244384765625,-0.021994974187016486,0.009845239185309038,0.007389671859890222
1772366221899314400,6.301314453125,-0.022753683599829672,0.005538828961970285,0.010608560841158032
1772366221909385200,6.31138525390625,-0.022453823870420456,0.01042117590974085,0.01255421501621604
1772366221919455200,6.321455322265625,-0.03591419394612312,0.005865604097768664,0.0022188450932502744
1772366221929525200,6.331525146484375,-0.020193477723002434,0.008167323435191064,0.009571363280527294
1772366221939596300,6.34159619140625,-0.020945757395029067,0.0052127296796068544,0.00575074554644525
1772366221949666300,6.351666259765625,-0.013761983370780944,0.009193670808244497,-0.00037442280296236274
1772366221959736300,6.361736328125,-0.014655132818222045,0.0024703904352150856,0.0074848393300548195
1772366221969807400,6.371807373046875,-0.020793781703710556,-0.0008381313245743512,0.00904408800341189
1772366221979877000,6.381877197265625,-0.028274492847919462,0.004843357511097565,0.0033809111425653097
1772366221989947400,6.391947509765625,-0.01884381667971611,0.011815507211815564,0.0049511196013540025
1772366222000017400,6.402017333984375,-0.019287468793988228,0.009240898350300267,0.009996749085746704
1772366222010088200,6.412088134765625,-0.018685411247611045,0.003846473694546148,0.00872830005250871
1772366222020158200,6.422158203125,-0.01883212624192238,0.006153718590456992,-0.0005075111307203769
1772366222030228500,6.432228515625,-0.03124912474453449,0.008444898267555982,0.00926876360476017
1772366222040299500,6.442299560546875,-0.016285364368557927,0.005096081029996276,0.004351473207771778
1772366222050369300,6.452369384765625,-0.021364275068044662,0.005386186550371349,0.005876929209381342
1772366222060439300,6.462439208984375,-0.02659457693696022,0.00034565336620435115,0.011439568305201828
1772366222070510300,6.47251025390625,-0.026147417691349983,0.00558764567291364,0.010349763774499296
1772366222080580400,6.482580322265625,-0.025091186636686323,-0.001120829856628552,-0.0007017915938049554
1772366222090650400,6.492650390625,-0.012072715109586714,0.007836447513010353,0.006175619895011186
1772366222100720400,6.502720458984375,-0.025994272956252097,0.008360791047522798,0.007983436501957476
1772366222110791200,6.512791259765625,-0.03332476197481155,0.0013999755915720016,0.009053696081973612
1772366222120861200,6.522861083984375,-0.036166122880578036,0.009770950106391682,0.006139416070468724
1772366222130931500,6.532931396484375,-0.02927987049818039,0.011976780454441904,0.00948682680223137
1772366222141002500,6.54300244140625,-0.03540215277075767,0.005397676058765501,0.00919909590203315
1772366222151072300,6.553072265625,-0.02432838557064533,0.00472184089012444,0.008482873924076557
1772366222161142300,6.563142333984375,-0.024176994401216505,-0.00016420498522929847,0.006257160698622465
1772366222171213300,6.57321337890625,-0.04063420820534229,0.005235206372896209,0.00962082844544202
1772366222181283300,6.583283447265625,-0.030449498799443243,0.001289108228776604,0.014759287312440573
1772366222191353300,6.593353271484375,-0.030590953096747395,0.0054653983995784075,0.00849821762368083
1772366222201424400,6.60342431640625,-0.03178688488304615,-0.0004128825166728347,0.006716083447262645
1772366222211494100,6.613494140625,-0.02191197207868099,0.005337990893935785,0.015210319015569984
1772366222221564400,6.623564453125,-0.016073767444491384,0.0072216218166053295,0.006000263328105211
1772366222231634400,6.633634521484375,-0.026394670450687406,0.006008382702479139,0.013122406825609504
1772366222241705500,6.64370556640625,-0.017708675169944763,0.006083101039659231,0.009215535580180585
1772366222251775200,6.653775146484375,-0.03117372142076492,-0.0000711564069148153,0.007771437719091772
1772366222261845200,6.66384521484375,-0.026379472881555555,0.005335232681268826,0.007881291301734745
1772366222271916300,6.673916259765625,-0.03715162678658962,0.004291258319979533,0.0017805632738396525
1772366222281986300,6.683986328125,-0.03849836522042751,0.0077731364858336744,0.015261647344008087
1772366222292056300,6.694056396484375,-0.026978607818484306,0.00959686304796487,0.012366254696063696
1772366222302127400,6.70412744140625,-0.02383914074897766,0.000337159532494843,0.01294178956169635
1772366222312197000,6.714197021484375,-0.03192190943956375,0.01028957628617063,0.011407236938178538
1772366222322267400,6.724267333984375,-0.023386720806360242,0.012280229513579979,0.011217632650211452
1772366222332337400,6.73433740234375,-0.03385667689442634,0.008609203717485069,0.006992489235848188
1772366222342408400,6.744408447265625,-0.025619594424962994,0.00713514910954982,0.0025193258771672843
1772366222352478200,6.754478271484375,-0.023685996013879773,0.010534399626404047,0.012275434607453643
1772366222362548200,6.76454833984375,-0.02459375850856304,0.014704451852664351,0.007703012125380337
1772366222372619300,6.774619384765625,-0.03012976532578468,0.0017953498510178178,0.011296470040082931
1772366222382689300,6.784689208984375,-0.028628128591179847,0.0006837627467699348,0.010990618961304426
1772366222392759300,6.79475927734375,-0.034164135408401484,0.007002462640590965,0.00996087405476719
1772366222402830300,6.804830322265625,-0.02698445303738117,0.006835335045913234,0.011087832258082925
1772366222412900000,6.814900146484375,-0.02295125199854374,-0.003141531162429601,0.01005187680646777
1772366222422970400,6.824970458984375,-0.02474456515610218,0.006324727775808423,0.006032156303711235
1772366222433041400,6.83504150390625,-0.037007249879837036,0.011650434576906264,0.01259337798282504
1772366222443111200,6.845111083984375,-0.033111996006965634,0.002013796640979126,0.016570684115961194
1772366222453181200,6.85518115234375,-0.03415186044871807,0.005948377877241,0.013163907879777252
1772366222463251500,6.86525146484375,-0.03251578367948532,0.007797659005736932,0.009365465444885195
1772366222473322500,6.875322509765625,-0.022640286353230475,0.0064507561751175665,0.0067991220882162445
1772366222483392300,6.885392333984375,-0.029372809478640554,0.003891408814815804,0.0023321327419951556
1772366222493462300,6.895462158203125,-0.0406032285451889,0.0046600277002900835,0.01758355095293373
1772366222503533300,6.905533203125,-0.02982172228991985,0.0034291798642370848,0.00473250841461122
1772366222513603300,6.915603271484375,-0.0349088162958622,-0.00046440264135599136,0.005034633166342973
1772366222523673300,6.92567333984375,-0.03250935393869877,0.008288109403802082,0.00891549318768084
1772366222533744400,6.935744384765625,-0.03250467776358128,-0.002220160267502069,0.010060717700049281
1772366222543814100,6.945814208984375,-0.030254268488287925,-0.00034110505525022743,0.007777356003224849
1772366222553884200,6.95588427734375,-0.02411445055902004,0.004029712173808366,0.01997702196072787
1772366222563955200,6.965955078125,-0.03428746952712536,0.007645610249182209,0.017616978298500178
1772366222574025500,6.976025390625,-0.026950550767779347,0.009071323070209473,0.01037051430158317
1772366222584095200,6.98609521484375,-0.026651275560259816,0.007134829449141397,0.010523549438826739
1772366222594165200,6.996165283203125,-0.023658523485064507,-0.00021496705808676778,0.0009737769355997443
1772366222604236300,7.006236328125,-0.026653029125928877,0.0007139295561704785,0.004678659335523844
1772366222614306300,7.016306396484375,-0.030842297509312628,0.01047504325513728,0.00381236136239022
1772366222624376300,7.026376220703125,-0.02111117708981037,0.005778409871505573,0.0007246975453570484
1772366222634447400,7.036447265625,-0.03023965544104576,0.002863983729528263,0.01146733309496194
1772366222644517000,7.04651708984375,-0.03652209671139717,0.002975280350586399,0.014359291676804423
1772366222654587400,7.05658740234375,-0.03532031970620155,0.008853296405356377,0.017725845500454307
1772366222664654800,7.06665478515625,-0.02814531351029873,0.013216112991049885,0.010986454242840409
1772366222674724900,7.076724853515625,-0.039375148054957385,0.004747048396617174,0.006045234980992973
1772366222684795000,7.086794921875,-0.028749709144234657,0.0048330005138646805,0.006241488205455243
1772366222694864600,7.09686474609375,-0.028290859460830688,0.0011896025102119893,0.0030493776332587
1772366222704935700,7.106935791015625,-0.03261865953207016,0.003352781026624143,0.010623758410289882
1772366222715006000,7.117005859375,-0.027079730105400084,0.01162489827685058,-0.0003946253407746553
1772366222725075700,7.12707568359375,-0.029915245792269705,0.009014487449591978,0.0074043945049867025
1772366222735146800,7.137146728515625,-0.01450198808312416,-0.0014847860645037143,0.01025108917299658
1772366222745216800,7.147216796875,-0.0424766212016344,-0.00532948792707175,0.0022048165678977966
1772366222755286800,7.157286865234375,-0.032146950367093086,0.006620386254135519,0.005137655149400234
1772366222765357800,7.16735791015625,-0.03633621875047684,0.00550683552166447,0.012773447257466614
1772366222775427800,7.177427734375,-0.03933189343512058,-0.003402812447119504,0.014372662615031003
1772366222785497900,7.187497802734375,-0.04262333619594574,-0.0010586056748405099,0.011529767339304088
1772366222795568600,7.197568603515625,-0.032144612279534336,0.005574238202068954,0.0005268368856981396
1772366222805639000,7.207638916015625,-0.03529167813360691,0.002482391400262713,0.005216090680472552
1772366222815709000,7.217708984375,-0.027964696246385572,0.00124682172331959,0.0064707303840667
1772366222825778700,7.22777880859375,-0.03635200084149837,0.011096399157028645,0.01006510161422193
1772366222835849700,7.237849609375,-0.03036298955976963,0.005837948905862867,0.014328750408068299
1772366222845919700,7.247919677734375,-0.036945290559530254,0.002462170596141368,0.00014393851533532143
1772366222855989800,7.25798974609375,-0.030960370931029317,0.005405329642258584,0.0034055706597864626
1772366222866060800,7.268060791015625,-0.03442366312742233,0.00428671000902541,0.015209040373936295
1772366222876130800,7.278130859375,-0.029497897163033485,0.005464567282516509,0.0034345775585621595
1772366222886200800,7.288200927734375,-0.03277297331094742,0.0008700060338713228,-0.0014094284065067767
1772366222896271600,7.298271728515625,-0.034707156243920324,0.001383033589925617,0.008843012473359703
1772366222906342000,7.308341796875,-0.030681553989648818,0.005174973218794912,0.012692381377890706
1772366222916412000,7.318411865234375,-0.022607553127408028,-0.006538196996552869,0.002506868254393339
1772366222926481700,7.328481689453125,-0.029790742629766463,0.007228617812972515,-0.0008014160433784126
1772366222936552700,7.338552734375,-0.037272622817754744,-0.001615298842685297,-0.001248502223752439
1772366222946623000,7.348623046875,-0.03532324231564998,-0.0013246818656567484,0.0028873189393430945
1772366222956692700,7.358692626953125,-0.02409574585855007,-0.0019347400553990154,0.011070954188518226
1772366222966763800,7.368763671875,-0.026489362996816635,0.004917427394306287,0.011520305391214788
1772366222976833800,7.378833740234375,-0.025740005934238433,0.010160086421296,0.008399762217886745
1772366222986903800,7.38890380859375,-0.030984920850396155,-0.001755629761982709,0.015134879159182308
1772366222996974600,7.398974609375,-0.019915829825401306,0.009379484837083146,0.01149710717871785
1772366223007044900,7.409044921875,-0.024698972448706627,0.0024318393899593503,0.005791917807050049
1772366223017115000,7.419114990234375,-0.023656769919395446,0.001267654448794201,0.010358275874517858
1772366223027184600,7.4291845703125,-0.018420038309693337,0.005612259524362162,0.008847396387532352
1772366223037255700,7.439255615234375,-0.02111468422114849,0.0018372801634483039,0.012405454195290802
1772366223047326000,7.449325927734375,-0.020071312648057938,0.004942397438781335,0.011140548826009034
1772366223057395700,7.459395751953125,-0.021119360396265982,0.00779801519876346,0.012028949033096432
1772366223067466800,7.469466796875,-0.019766776743531226,0.01055895867892541,0.011388093846291303
1772366223077536800,7.479536865234375,-0.016769933015108106,0.007029441979061812,0.0074506813321262595
1772366223087606800,7.489606689453125,-0.017810381978750227,0.007510466961655765,0.005679543473757803
1772366223097677800,7.499677734375,-0.020503274324536323,-0.001527684491313994,0.008663418122753501
1772366223107747800,7.509747802734375,-0.012570727759599686,0.0031119488749187436,0.015591792613826691
1772366223117817900,7.51981787109375,-0.020204583638906478,0.0016310444010887294,0.0029731705918908118
1772366223127889000,7.529888916015625,-0.026338556349277495,0.00389870620528236,0.0013542641531676053
1772366223137958700,7.539958740234375,-0.019315525844693184,0.007047315562469884,0.005481207890063524
1772366223148029000,7.55002880859375,-0.02155775181353092,-0.0010934303930494934,0.0029755452120676634
1772366223158100000,7.560099853515625,-0.025293431210517883,0.009317571182548999,0.0011284560406580567
1772366223168169700,7.570169677734375,-0.026494039171934127,-0.0063296140134800226,0.008816343662142753
1772366223178239700,7.58023974609375,-0.02201134079992771,0.007228946606535464,0.00614796470310539
1772366223188310000,7.59031005859375,-0.020374679508805275,-0.013366755241807549,0.008309709314256905
1772366223198380800,7.600380859375,-0.026066169148683545,0.000006420607632026076,0.00850632786490023
1772366223208450800,7.610450927734375,-0.020237316864728926,0.003899226795090362,0.004759907878190279
1772366223218520800,7.620520751953125,-0.02053250041902065,0.008237192067317664,0.0006545549185946584
1772366223228591600,7.630591552734375,-0.03280336844921112,-0.00765489866733551,0.012753317784890531
1772366223238662000,7.640661865234375,-0.034895372292399404,-0.008044582971511408,0.009101225018128753
1772366223248732000,7.65073193359375,-0.02950900307893753,0.009420657097687943,0.0029696999931707975
1772366223258803000,7.660802978515625,-0.022913842597603797,0.010516270314669236,0.015167868113331496
1772366223268872700,7.670872802734375,-0.02561024207472801,0.004604470721306279,0.004945712773874402
1772366223278942700,7.680942626953125,-0.02741056949496269,0.009744984548073262,0.0069395534722134465
1772366223289013800,7.691013671875,-0.0299503171056509,-0.004369209793861955,0.008549765147827565
1772366223299083800,7.701083740234375,-0.02711655498445034,-0.00036373701216652987,0.005192819402739406
1772366223309153800,7.71115380859375,-0.031609774750471116,-0.004386845915252343,0.005581709122471511
1772366223319223800,7.721223876953125,-0.023536358410120008,-0.004645834778156131,0.0048432387800887225
1772366223329294600,7.731294677734375,-0.02353402032256126,0.006378120197169482,0.0020449498310685156
1772366223339364900,7.74136474609375,-0.030418519139289855,0.004526254385942593,0.0068572089510038495
1772366223349435000,7.751434814453125,-0.02353402032256126,0.0020181348893791437,0.007967216019518672
1772366223359506000,7.761505859375,-0.025037410622835158,0.011447779011121019,0.004071925614029169
1772366223369575700,7.77157568359375,-0.031331542330980296,0.0037922410229686647,-0.0007873509854078293
1772366223379646000,7.78164599609375,-0.02460778703391552,0.007112023962289094,0.004089059411920607
1772366223389716700,7.791716796875,-0.02864507972598076,0.003509140632115304,0.005429221974499523
1772366223399786800,7.801786865234375,-0.039267596027255054,0.0018384035414550453,0.006060103756561875
1772366223409856800,7.811856689453125,-0.03044482262432575,-0.00556583569990471,-0.002760221960954368
1772366223419927800,7.821927734375,-0.030596798315644262,-0.002087638195324689,0.011527319653891026
1772366223429997600,7.83199755859375,-0.02954816604554653,-0.004540849166875705,0.0028584216384217142
1772366223440067800,7.84206787109375,-0.03882043678164482,0.007547474503796547,0.0035692002562806007
1772366223450139000,7.852138916015625,-0.035220950984954834,0.005320701832417399,0.014983013065718113
1772366223460209000,7.862208984375,-0.026238603106141088,0.0015657514793798327,0.006538936782069504
1772366223470278700,7.872278564453125,-0.03356733855903148,0.0035503494253382086,0.0019874840227887035
1772366223480349000,7.882348876953125,-0.019350597158074377,0.003969186758762225,0.012480747921206056
1772366223490420000,7.892419921875,-0.02250117014348507,-0.007076970915216952,0.00886358033735305
1772366223500489700,7.90248974609375,-0.014126140508055687,0.00796071321349591,0.005934285419806838
1772366223510559700,7.912559814453125,-0.03103694329857826,0.004206319982884452,0.005022431271895766
1772366223520630800,7.922630859375,-0.030288170757889747,0.00180974370255135,0.007138985034450888
1772366223530700800,7.93270068359375,-0.01937280898988247,0.0008290803684387355,0.005612506119534373
1772366223540770800,7.942770751953125,-0.028950200152397153,0.003938453693781048,0.005153802566602826
1772366223550841900,7.952841796875,-0.031788638448715205,0.008712746290350333,0.008841624233871697
1772366223560912000,7.962911865234375,-0.04750175588726997,0.0008086038359906524,0.008816855118796228
1772366223570981600,7.972981689453125,-0.028650924944877622,0.0012365834570955483,0.014450111765414475
1772366223581052700,7.983052734375,-0.02685293561220169,0.0026131507736165075,0.009422675524838268
1772366223591123000,7.993123046875,-0.034027357286214824,-0.0038547483325470236,0.010196692104637622
1772366223601191700,8.003191650390624,-0.022809213179349898,-0.0018431984475813805,0.007870623777247964
1772366223611262000,8.013261962890626,-0.02520633744895458,-0.001844166561961174,0.005556245887652039
1772366223621331700,8.023331787109376,-0.0400151995241642,-0.004279860143130645,0.005927636483311653
1772366223631402800,8.03340283203125,-0.03044131549298763,-0.0027777850171085447,0.007511763869598507
1772366223641472800,8.04347265625,-0.029395605832338332,-0.004673499103216454,0.003449811660312116
1772366223651542800,8.053542724609375,-0.02236556106507778,-0.0011622030466329305,0.0018930106723681092
1772366223661613800,8.06361376953125,-0.02685118204653263,-0.0023686014280188826,0.00047583735082298514
1772366223671683800,8.073683837890625,-0.05227729972600936,0.004229025005036965,0.005806092462874949
1772366223681753600,8.083753662109375,-0.02639233236312866,0.002118690920714289,0.0035076427947729823
1772366223691823600,8.09382373046875,-0.028036592438817023,0.0031353662831243127,0.005229169357754289
1772366223701894700,8.103894775390625,-0.027878771528601645,0.0038220516393426803,0.0033254546282812953
1772366223711964700,8.113964599609375,-0.02892740379869938,0.0033617771838326004,0.012583221914991735
1772366223722034700,8.12403466796875,-0.013211948272585868,0.006169847741350531,0.010433679198287428
1772366223732105700,8.134105712890625,-0.04702770863473415,0.0026496468591038136,0.002720985929109156
1772366223742175500,8.144175537109374,-0.032816227930784224,0.010567315515317022,0.0041265784107148646
1772366223752245800,8.154245849609374,-0.0322159239500761,0.0043344581408891825,0.007442644156143069
1772366223762316800,8.16431689453125,-0.04284077833890915,-0.007205949323438108,0.0003861132407560944
1772366223772386800,8.17438671875,-0.03266951293647289,0.005306006586784496,0.00674899933617562
1772366223782456600,8.18445654296875,-0.027134090641140935,0.004911929235281423,0.004497201821394264
1772366223792527600,8.194527587890626,-0.026540216401219365,0.00930154249635525,0.007246390931680798
1772366223802598000,8.204597900390626,-0.0389607220351696,0.008800004448695107,0.008859817477688194
1772366223812667600,8.214667724609376,-0.03132160545885563,0.0021891623410396277,0.001130173073709011
1772366223822738700,8.22473876953125,-0.027424598020315168,-0.0005085797097999602,0.013842464728467166
1772366223832808700,8.23480859375,-0.02502864279448986,-0.001892334818933159,0.0034001638323068618
1772366223842878500,8.24487841796875,-0.00362637380361557,-0.00022582637881860137,0.003197955791093409
1772366223852948700,8.25494873046875,-0.03549918340444565,0.0032919450843241064,0.009640994450636207
1772366223863019800,8.265019775390625,-0.0277151053994894,0.004092667007958516,0.0022051818940788505
1772366223873089800,8.27508984375,-0.036846506360173226,0.01670022877976298,0.009467683710344135
1772366223883159600,8.28515966796875,-0.03715513391792774,0.0024111527949571606,0.010025719451904296
1772366223893230600,8.295230712890625,-0.029520108994841573,0.0007965937377884983,0.00531666497811675
1772366223903300900,8.30530078125,-0.027874095353484153,0.008147038698988035,0.004433598533272743
1772366223913370600,8.31537060546875,-0.02338204463124275,-0.001007825335673988,0.007818893590010702
1772366223923441700,8.325441650390625,-0.024725860455632208,0.0008059004222508519,0.007578070571459829
1772366223933511700,8.33551171875,-0.0286082548469305,0.005631484814640134,0.008634959213249385
1772366223943581700,8.345581787109374,-0.032197219249606134,0.007725890677468851,0.011807415236905216
1772366223953652700,8.35565283203125,-0.032951252487301824,0.010297522130608559,0.007490611483715474
1772366223963722800,8.36572265625,-0.03370353215932846,0.004459372295346111,0.005930741755850613
1772366223973792800,8.375792724609376,-0.0295101721227169,0.0063197867392096665,-0.003850026491656899
1772366223983862500,8.385862548828126,-0.02755611544549465,-0.0002843151004053652,0.003068812986090779
1772366223993933600,8.39593359375,-0.03369067267775536,0.006932904535718262,0.007283142745494842
1772366224004003800,8.40600390625,-0.04266308368444442,0.008465703593567013,0.006860095027834177
1772366224014073600,8.416073486328125,-0.03831540986895561,0.00677704725372605,0.0044933658964931966
1772366224024144600,8.42614453125,-0.030975568500161168,0.0035058435633312907,0.0026840149195864796
1772366224034214700,8.436214599609375,-0.020645897665619847,0.002131276407651603,0.0034141558250412344
1772366224044284700,8.44628466796875,-0.02917348751425743,-0.004906284945784136,0.005552556093223393
1772366224054355700,8.456355712890625,-0.014656886383891106,-0.00010460201879031956,-0.00038669776264578103
1772366224064425700,8.46642578125,-0.0513216064363718,0.0021156769797205923,0.014781133818067609
1772366224074495700,8.476495849609375,-0.032167408633232114,0.020503082528291267,0.011199147145450115
1772366224084566500,8.48656640625,-0.025737667846679687,0.004037237893138081,0.004402947666682303
1772366224094636800,8.49663671875,-0.03741173902750015,-0.002948903800314292,0.012730046507157384
1772366224104706800,8.506706787109374,-0.03457271620929241,0.004475382715230808,0.00951437239628285
1772366224114776600,8.516776611328124,-0.026049218013882637,0.004022752710059285,0.009842289176397024
1772366224124847600,8.52684765625,-0.02679799055457115,-0.004119829009519889,0.0030725027805194255
1772366224134917600,8.536917724609374,-0.03488601994216442,-0.0023643727774731813,0.004425232563726604
1772366224144987600,8.546987548828126,-0.020990765580534934,0.0005283895219676196,0.0032132629580795763
1772366224155058700,8.55705859375,-0.03547697157263756,0.0006053272156976164,0.0005456146514043211
1772366224165128700,8.567128662109376,-0.03398760979771614,0.0015426445984281598,0.004416282072290778
1772366224175198700,8.57719873046875,-0.02158347077667713,0.0038667949633672833,0.007899922936968505
1772366224185269500,8.58726953125,-0.02174655238389969,-0.0004454056799411773,0.00041303778029978274
1772366224195339800,8.59733984375,-0.03178396227359771,0.004697108307667076,0.005257372538931667
1772366224205409800,8.607409912109375,-0.033577859953045845,0.009552274987567215,0.008873626807332039
1772366224215480600,8.61748046875,-0.03357318377792835,0.00978480510180816,0.005371683100983501
1772366224225550600,8.627550537109375,-0.03297521788477897,-0.0026075430167373267,0.005210610787756741
1772366224235620900,8.637620849609375,-0.026090134546160697,-0.0031986955766100437,0.0019630802338942883
1772366224245690600,8.647690673828125,-0.027587095105648038,0.006957143927831202,-0.0004893544195219874
1772366224255761700,8.65776171875,-0.030288755279779433,-0.0005159684318117797,0.004122669420577586
1772366224265831700,8.667831787109375,-0.024156536135077476,0.009278819207893684,0.0049318669116124505
1772366224275901400,8.6779013671875,-0.021017653587460515,-0.001488786386186257,0.00770418116915971
1772366224285972500,8.687972412109374,-0.0329915844976902,0.004244396104104817,0.0010640490349382162
1772366224296042800,8.698042724609374,-0.022222353202104566,0.0060024096194189035,0.003977781057171523
1772366224306112800,8.70811279296875,-0.02282090361714363,0.007521819472732022,-0.00008493833709508181
1772366224316183600,8.71818359375,-0.03374152608215809,0.001178624458471313,0.002350362518429756
1772366224326253600,8.728253662109376,-0.03464168979227543,-0.0015312555547337978,0.010674173423275351
1772366224336323800,8.73832373046875,-0.029548750567436218,0.0036318719626404344,0.007490940277278423
1772366224346395000,8.748394775390626,-0.016823124507069586,-0.0022313575149513778,0.0022049992309883235
1772366224356464600,8.758464599609376,-0.030282910060882566,-0.0022650679883081466,0.004164974192343652
1772366224366534700,8.76853466796875,-0.01861293053328991,0.00133802540441975,0.0030812340762466192
1772366224376605700,8.778605712890625,-0.016671148815751075,-0.0004985241066664457,0.0045294235905632375
1772366224386675700,8.78867578125,-0.013232406538724898,0.012612995998747645,0.0016017726408317685
1772366224396745700,8.798745849609375,-0.021461305701732634,0.0014829229009803383,0.004752418691478669
1772366224406815700,8.808815673828125,-0.028188568130135535,0.010651230939105152,0.001917852852679789
1772366224416886500,8.818886474609375,-0.023090368208289146,0.001187008694326505,0.010381802880577742
1772366224426956500,8.82895654296875,-0.013954875594377516,0.005792675858875736,0.0068042366547510025
1772366224437026800,8.83902685546875,-0.024871406406164167,0.0006973894133232533,0.005311769607290625
1772366224447097900,8.849097900390625,-0.026361352702975273,-0.00285960894851014,0.0023153277376666663
1772366224457167600,8.859167724609375,-0.026809096470475195,-0.004516655440535396,0.0044651261826977135
1772366224467237600,8.869237548828124,-0.023365678018331525,0.00300542889367789,0.001936594085767865
1772366224477308700,8.87930859375,-0.021571195816993714,0.0017124938731547443,0.00057747109439224
1772366224487378700,8.889378662109374,-0.022473113092780113,0.0019272691349964588,0.003488974626921117
1772366224497448700,8.89944873046875,-0.026366028878092765,0.006542370848171413,0.005677716842852533
1772366224507519700,8.909519775390624,-0.026968086424469948,-0.0029687684114091096,0.0034873306591063735
1772366224517589500,8.919589599609376,-0.03744330320954323,0.0008059460880234837,0.009139986125938594
1772366224527659800,8.92965966796875,-0.03340133434236049,0.001348199738562107,0.002171023896150291
1772366224537730800,8.939730712890626,-0.017831424766778944,0.004709246270032599,0.0036971740175038574
1772366224547800800,8.94980078125,-0.016029928302764892,-0.0031228355951141563,0.0050507440509274595
1772366224557870600,8.95987060546875,-0.03533960892856121,0.009228614257462322,0.012550050297752023
1772366224567941600,8.969941650390625,-0.024418401941657064,0.002676680996501818,0.006969948610477149
1772366224578011600,8.98001171875,-0.019026187509298322,-0.0002587879335042089,0.007372903388179838
1772366224588081700,8.99008154296875,-0.01827741496860981,0.0037146457421127705,-0.001908537035062909
1772366224598151700,9.000151611328125,-0.019473346754908562,0.00557447566408664,0.006810045341029762
1772366224608222700,9.01022265625,-0.02380465395748615,0.003328432036656886,0.010587992977164685
1772366224618292500,9.02029248046875,-0.024550503888726233,0.00430997215360403,0.011706402547843754
1772366224628362800,9.03036279296875,-0.028446926805377006,0.005619081990793347,0.0038979207539930937
1772366224638433800,9.040433837890625,-0.021863456761837003,0.008520009330380707,0.008351210368424653
1772366224648503800,9.05050390625,-0.028592472755908965,0.0027813104147557167,0.007703779310360551
1772366224658573600,9.060573486328124,-0.026187749701738355,-0.002535135367652401,0.0010338730923831463
1772366224668645000,9.07064501953125,-0.03201894007325172,-0.0004099416409153491,0.005063713130354881
1772366224678715100,9.080715087890624,-0.03455810316205025,0.005005608001258224,0.000278305484727025
1772366224688785200,9.09078515625,-0.026636662513017655,-0.0003584123830776661,0.008300430029258132
1772366224698856200,9.100856201171876,-0.020651742884516714,-0.003451601758599281,0.006947152256779372
1772366224708926200,9.11092626953125,-0.020653496450185774,0.0031093550590332595,0.008554843181744218
1772366224718996200,9.120996337890626,-0.036815526700019835,0.0010266487671528012,0.003736373516730964
1772366224729067000,9.13106689453125,-0.030235563787817953,-0.003619697467656806,0.012923632850497961
1772366224739137300,9.14113720703125,-0.027993337818980217,0.0008713486075866966,0.009884228621982037
1772366224749207300,9.151207275390625,-0.042055765441060065,0.003157687712786719,0.0026395181907340882
1772366224759278000,9.161278076171875,-0.036813188612461085,0.00023257578001357614,0.01051964044868946
1772366224769348000,9.17134814453125,-0.02859013466835022,0.0010829546648077667,0.004399075209163129
1772366224779418000,9.181418212890625,-0.0342857159614563,0.0029017401903402057,0.006466309937275946
1772366224789488000,9.191488037109375,-0.020683891588449476,0.006141388831846416,0.005693352803401649
1772366224799559200,9.20155908203125,-0.02397942600250244,-0.003620528584718704,0.014925145398639142
1772366224809629200,9.211629150390625,-0.029371055912971494,0.00761851217970252,0.00348656347412616
1772366224819699200,9.22169921875,-0.033110242441296574,0.009075926180090755,0.007137596794962882
1772366224829770000,9.23177001953125,-0.03968085300326347,0.002234380589099601,0.011638488410785793
1772366224839840300,9.24184033203125,-0.03129764006137848,0.003037678062310442,0.010239216072112322
1772366224849910300,9.25191015625,-0.029798341414332387,0.003373540686862543,0.004885726214945316
1772366224859981000,9.26198095703125,-0.031437925314903255,0.0023655692207161334,0.008598572725616396
1772366224870051000,9.272051025390626,-0.0293359845995903,0.005515128425974398,0.005012567465007305
1772366224880121300,9.282121337890626,-0.02468962009847164,-0.0022210735829547045,0.007145889699272811
1772366224890192400,9.2921923828125,-0.0330699104309082,-0.0009231427269056439,0.006813187146186828
1772366224900262100,9.30226220703125,-0.035468788266181946,0.005421330928988754,0.004746062015928328
1772366224910332200,9.312332275390625,-0.03337736894488334,0.0023539701144676653,0.007082907465659082
1772366224920403200,9.3224033203125,-0.03412731052935123,-0.00018577749622054396,0.004945493578165769
1772366224930473200,9.33247314453125,-0.028583704927563666,0.007179335311148316,0.0032854514114558694
1772366224940543200,9.342543212890625,-0.0206610952347517,0.0038292485651094466,-0.0007705459810793399
1772366224950614300,9.3526142578125,-0.038629882645606996,-0.0013594517849385738,0.003899528189189732
1772366224960684000,9.36268408203125,-0.04102992952466011,-0.0027706702897325156,0.010219999914988875
1772366224970754000,9.372754150390625,-0.034144261664152145,-0.007112809413578361,0.010307093676552175
1772366224980824300,9.38282421875,-0.036378888848423954,0.007039022658159956,0.006517601733095944
1772366224990895400,9.392895263671875,-0.030844635596871374,0.017326169525226576,0.0054027358263731
1772366225000965000,9.402965087890625,-0.02948679124712944,0.014391065921401604,0.00611873860862106
1772366225011035100,9.41303515625,-0.03501578380167484,0.00914458010266535,0.0022387188374996185
1772366225021106200,9.423106201171874,-0.032762451916933055,0.0063013103676028545,0.00692431937046349
1772366225031176200,9.43317626953125,-0.03156827369630336,-0.006667148005310446,0.0014517331782728433
1772366225041246200,9.44324609375,-0.029765023666620254,0.006404423682205378,0.004744125787168741
1772366225051317200,9.453317138671874,-0.030073066702485083,0.005906438431655988,0.006660152008943259
1772366225061387000,9.463386962890626,-0.019306758016347885,0.002872157902829349,0.006664280194789171
1772366225071457000,9.47345703125,-0.02889057891964912,0.009374288072157651,0.007092040620185434
1772366225081528000,9.483528076171876,-0.034136662879586215,-0.006736541713401675,0.006121624685451388
1772366225091598300,9.493598388671876,-0.02740706236362457,-0.00335917423479259,0.0025815409258008
1772366225101668000,9.503668212890625,-0.037138767305016515,0.009122660531802102,0.006026639878377318
1772366225111739100,9.5137392578125,-0.035649990051984784,0.003296822188841179,0.0028697102174162865
1772366225121809200,9.52380908203125,-0.024877251625061034,-0.0017960348376072942,0.0025410262523218987
1772366225131879200,9.533879150390625,-0.03355272551178932,-0.0070662211923394344,0.00874590877443552
1772366225141950200,9.5439501953125,-0.03489244968295097,-0.00046392771732062097,0.007386420456878841
1772366225152020200,9.554020263671875,-0.023212533283233642,0.0031988234407734125,0.004857048109732568
1772366225162090000,9.564090087890625,-0.02769114000201225,0.010064718021731823,-0.0003017228929325938
1772366225172160300,9.57416015625,-0.026346739655733108,0.006263499107863754,-0.00007017915938049554
1772366225182231300,9.584231201171875,-0.03531155187785625,-0.00880007751393132,0.005780081238783896
1772366225192301300,9.59430126953125,-0.03591185585856437,0.001982250725245103,0.006493672868236899
1772366225202371000,9.60437109375,-0.03321078020632267,0.0031542262472212313,0.005314217292703688
1772366225212442000,9.614442138671874,-0.03858955063521862,0.00187222361266613,0.0044282282384112475
1772366225222512000,9.62451220703125,-0.022128829699754715,0.001135479436488822,0.005488624011538923
1772366225232582100,9.63458203125,-0.02258124964237213,0.002214817372104153,-0.0007198752397671341
1772366225242653200,9.644653076171876,-0.026168460479378697,-0.00020565124046988784,0.008463767364807426
1772366225252723200,9.65472314453125,-0.03065700407028198,-0.0032181765952147543,0.015206008166633546
1772366225262793000,9.66479296875,-0.033200843334197996,-0.00007876432463526726,0.013901391841471194
1772366225272864000,9.674864013671876,-0.03649637774825096,0.0029635351138655092,0.014692761414870619
1772366225282934300,9.684934326171875,-0.036660043877363206,0.0040758528704755,0.0019750629326328634
1772366225293004300,9.69500439453125,-0.03800561326742172,0.0013672423657495527,0.00920841171965003
1772366225303074000,9.705073974609375,-0.03306523425579071,-0.0023463347972836343,0.003129968588799238
1772366225313145000,9.71514501953125,-0.0305254866451025,-0.0003424476289656013,0.003957067062705755
1772366225323215400,9.72521533203125,-0.030986674416065216,0.0054594618491362774,0.013995353735238313
1772366225333285000,9.73528515625,-0.02964870381057262,0.007163745016371831,0.008986877923458814
1772366225343356200,9.745356201171875,-0.030854572468996047,0.004957576741604134,0.0029594708601012824
1772366225353426200,9.75542626953125,-0.029815877071022987,0.0007616228891070932,0.0016852496732026338
1772366225363496200,9.76549609375,-0.018449848926067353,-0.0016193813627585767,0.010184197949245572
1772366225373567200,9.775567138671875,-0.021149171012639998,-0.00521715012639761,0.0003270034646615386
1772366225383637200,9.78563720703125,-0.04074935901761055,-0.0021858287396375087,0.001443111480399966
1772366225393707300,9.795707275390624,-0.0230967979490757,0.0018375998238567262,0.011501892951689659
1772366225403778000,9.805778076171874,-0.023545710760354995,0.0015985943030565977,0.0038895547844469544
1772366225413848000,9.81584814453125,-0.012934884896874428,-0.006067474212264641,0.006600201982632279
1772366225423918300,9.82591845703125,-0.02627425894141197,0.0037951453661080447,-0.002890424211882055
1772366225433989400,9.8359892578125,-0.03212064688205719,0.004996940637612715,0.008027239111065863
1772366225444059100,9.84605908203125,-0.029438275930285453,-0.0008831395100802183,0.01480206700824201
1772366225454129200,9.856129150390625,-0.021366613155603408,0.0049208979930263005,-0.0017123568758368492
1772366225464199200,9.86619921875,-0.016435001972317696,-0.0063083885623607784,0.008920863482542335
1772366225474270200,9.876270263671875,-0.025268881291151044,-0.008700736192148178,0.007169343640096485
1772366225484340200,9.88634033203125,-0.019135493102669716,-0.006103586705261841,0.003843852479197085
1772366225494410200,9.89641015625,-0.04053191687464714,-0.0032094452994875606,0.008085764365270733
1772366225504481000,9.90648095703125,-0.024221418064832686,0.009836836683144792,0.005816394661180674
1772366225514551000,9.916551025390625,-0.020479308927059174,-0.008949605519836768,0.010753887595981358
1772366225524621300,9.926621337890625,-0.03529050908982754,-0.007332142119528725,0.00816357884183526
1772366225534692400,9.9366923828125,-0.03244739461839199,0.0008687821911647915,-0.008789565253071487
1772366225544762000,9.94676220703125,-0.027957681983709334,-0.00897972666346468,0.0027244565278291702
1772366225554832100,9.95683203125,-0.02153086380660534,-0.0025522782986983654,0.008986256868951022
1772366225564903200,9.966903076171874,-0.027520459610223768,0.003443445851607248,0.012002901276387274
1772366225574973200,9.97697314453125,-0.026169045001268387,0.008154107760591433,0.0002670534383505583
1772366225585043200,9.987043212890624,-0.021830723536014555,0.004578715225541964,0.001107815111428499
1772366225595114200,9.9971142578125,-0.012596446722745895,-0.0012065079792402684,0.0045682577636092896
1772366225605184000,10.00718408203125,0.09711071318686008,0.003528804313810542,-0.027539127778075635
1772366225615254300,10.017254150390626,-0.04542378056943416,0.002516266270400956,0.028514512148872018
1772366225625324300,10.02732421875,-0.07913432699143887,-0.0005475874127820134,0.0033579686583951112
1772366225635395300,10.037395263671876,-0.08438216451704501,-0.0007998908065725117,0.011011369488388299
1772366225645465000,10.047465087890625,-0.024537059885263442,0.007462746229255571,0.006263042450137436
1772366225655535000,10.05753515625,-0.05069032279551029,0.0010388963273726404,0.005654555162973702
1772366225665605400,10.06760546875,-0.0783177499115467,-0.0010900511258747428,0.0112550785837695
1772366225675675400,10.07767529296875,-0.02543605455160141,-0.0006301511297002434,0.005564319596253335
1772366225685745400,10.087745361328125,0.00317453838288784,0.00033815504633821547,-0.0013690963961184024
1772366225695816400,10.09781640625,-0.006229249778389931,0.005381702171498909,-0.0023431655926629898
1772366225705886500,10.107886474609375,-0.019947978529334068,0.006339075961569324,-0.0001955956373363733
1772366225715956500,10.11795654296875,-0.026498130825161934,0.0017945461334194987,0.010773578677140176
1772366225726027500,10.128027587890625,-0.0058306058496236796,-0.0011586228500586003,-0.0007100479654967784
1772366225736097300,10.13809716796875,-0.024212650236487387,0.0033556123045273122,0.007669913573376834
1772366225746167300,10.148167236328124,-0.010448328778147697,0.01179440962485969,0.0013146262625232338
