time,seconds_elapsed,accel_x,accel_y,accel_z,gyro_x,gyro_y,gyro_z
1772376364813210400,0.06721044921875,-0.009349135364592075,-0.07635960158109664,-0.04667597258761525,0.0836872011423111,0.0031609591096639633,0.04062313959002495
1772376364823160000,0.07716015625,-0.03172996706403792,-0.05692191066145896,-0.06989815048202871,0.09029649198055267,-0.0043736170046031475,0.04368026554584503
1772376364833110300,0.0871103515625,-0.017537629451975227,-0.012570727759599686,-0.14278174651563166,0.0945008248090744,-0.01349014975130558,0.0439271405339241
1772376364843060200,0.097060302734375,0.02284015630688518,0.022611060258746145,-0.21678908588215706,0.10494600236415863,-0.009923185221850872,0.04573121666908264
1772376364853010200,0.10701025390625,0.10541121628135443,0.04154547783136368,-0.27831483707726,0.12467097491025925,-0.00991200003772974,0.04692857339978218
1772376364862959400,0.11695947265625,0.1657105674866587,0.09506488657295703,-0.2829487804882228,0.1499834805727005,-0.02105128765106201,0.05318514630198479
1772376364872909300,0.126909423828125,0.20999014645703135,0.058903439867496486,-0.25905937085673214,0.17329758405685425,-0.04001059755682945,0.048301439732313156
1772376364882859300,0.136859375,0.2629578030673787,-0.05256079284250736,-0.3214301945738494,0.1675659716129303,-0.06255604326725006,0.05788283050060272
1772376364892809200,0.146809326171875,0.2818130544565618,-0.06883563581705093,-0.4468756063632667,0.13597901165485382,-0.07783326506614685,0.07669007033109665
1772376364902759400,0.156759521484375,0.34591095769461244,-0.054397945141792296,-0.6260977626562119,0.12553390860557556,-0.06080752611160278,0.09687256813049316
1772376364912709000,0.166709228515625,0.4669117381000891,-0.02753039648234844,-0.7458866099886595,0.14260104298591614,-0.038547225296497345,0.1264621615409851
1772376364922658300,0.176658203125,0.4268545260651037,0.0012444471031427384,-0.725353086656332,0.17544645071029663,-0.03066191077232361,0.16377010941505432
1772376364932608300,0.186608154296875,0.2902884391939267,-0.010275310298800468,-0.7237118953205645,0.22509576380252838,-0.048953570425510406,0.1932598203420639
1772376364942558200,0.19655810546875,0.17209003939069806,-0.019359949508309365,-0.6173648594938218,0.3044204115867615,-0.06606757640838623,0.2234981507062912
1772376364952508200,0.206508056640625,0.18014241294302044,-0.012125906601548194,-0.44057679848000403,0.4045696556568146,-0.0696021169424057,0.2523132860660553
1772376364962458400,0.216458251953125,0.2261655111124739,0.02712473829090595,-0.32580022635161876,0.4908280372619629,-0.001777683850377798,0.2803490459918976
1772376364972407300,0.2264072265625,0.2095536182032898,0.19203648355007172,-0.39034605602025985,0.5621501207351685,0.07949293404817581,0.34485748410224915
1772376364982357200,0.236357177734375,0.27664551562555134,0.13931377814412116,-0.5489833971850574,0.5991093516349792,0.197199285030365,0.4067946672439575
1772376364992307200,0.24630712890625,0.19239121527187525,0.20833996809720992,-0.6896931597322226,0.6818007230758667,0.32005757093429565,0.46331092715263367
1772376365002257400,0.25625732421875,0.2552409085471183,0.3269447202116251,-1.0281785340033471,0.8744433522224426,0.4252600073814392,0.5329764485359192
1772376365012207400,0.266207275390625,0.40133722297083585,0.28749767596423625,-1.4306968199849128,0.9990902543067932,0.40673744678497314,0.5733252167701721
1772376365022156300,0.27615625,0.12615755124730058,0.10467267287373543,-0.7273258480340242,0.9781556129455566,0.24169418215751648,0.5076962113380432
1772376365032106200,0.286106201171875,-0.31346308815218504,-0.07277005265653133,0.2715139248907566,0.906093418598175,0.12140531092882156,0.4319327175617218
1772376365042056400,0.296056396484375,0.06988097101836464,-0.38017946679294107,0.3687676998101175,0.8496115803718567,0.05387427657842636,0.42200353741645813
1772376365052006100,0.306006103515625,0.6785774530865252,-0.5450298372536897,0.11064590206444262,0.7947688698768616,0.053363215178251266,0.4100843071937561
1772376365061956000,0.3159560546875,0.9198407627508044,-0.3957464537590742,-0.0816337425917387,0.7344899773597717,-0.00031473394483327866,0.41737836599349976
1772376365071906300,0.32590625,1.100570693258196,-0.2603022105246782,-0.10106529603153466,0.6440274715423584,-0.11584718525409698,0.4050130546092987
1772376365081855200,0.335855224609375,0.9389796168543398,-0.24320260716378686,-0.152676825325191,0.5735760927200317,-0.19947953522205353,0.35069677233695984
1772376365091805200,0.34580517578125,0.5288293381569906,-0.09312252033352851,-0.4627753324151039,0.516852080821991,-0.24673733115196228,0.28964993357658386
1772376365101755400,0.35575537109375,0.17590535989515482,-0.03799216926395893,-0.42238399305492635,0.4398406445980072,-0.2847784459590912,0.22552742063999176
1772376365111705300,0.365705322265625,-0.17115915174875407,0.00834463449716568,-0.20334873568117617,0.36491793394088745,-0.3181587755680084,0.16839249432086945
1772376365121655300,0.3756552734375,-0.4002453726135194,0.07827683337926865,-0.013841770608723164,0.2952553927898407,-0.357776939868927,0.08334363996982574
1772376365131604200,0.385604248046875,-0.6657032123357057,0.14178162956237791,-0.12293430575132369,0.2284494936466217,-0.25023049116134644,0.05906759947538376
1772376365141554400,0.395554443359375,-0.5258738128196447,-0.021810265269875524,-0.11801935344189404,0.15892675518989563,-0.13103987276554108,0.0745522752404213
1772376365151504400,0.40550439453125,-0.3898802651394158,-0.12384615989923477,-0.0633577889278531,0.09383590519428253,-0.043289780616760254,0.07339566946029663
1772376365161454000,0.4154541015625,-0.5021220580931752,-0.17731237714886663,-0.2943216767653823,0.039637643843889236,0.020251106470823288,0.060890063643455505
1772376365171404300,0.425404296875,-0.5021479231867939,-0.27212591930925845,-0.3984855233341455,0.003724115900695324,0.05412598326802254,0.04647836834192276
1772376365181354200,0.435354248046875,-0.39790772344619035,-0.3309814283818006,-0.35352468410134313,-0.023882482200860977,0.061945825815200806,0.038026630878448486
1772376365191303200,0.44530322265625,-0.26038747765533626,-0.3353051367998123,-0.3136003777310252,-0.033079177141189575,0.044653914868831635,0.031822532415390015
1772376365201253000,0.455253173828125,-0.11594134159144014,-0.3265536750674248,-0.3371729764983058,-0.03544759750366211,0.024081114679574966,0.02633182518184185
1772376365211203300,0.465203369140625,-0.03889266176763922,-0.4660936631828546,-0.26744740610420703,-0.053963493555784225,0.03522377833724022,0.019862741231918335
1772376365221153300,0.4751533203125,-0.03169153474979102,-0.6595698241472244,-0.20971827071309088,-0.0688101276755333,0.02896074578166008,0.0015246848342940211
1772376365231103200,0.485103271484375,-0.14462320966385303,-0.6953589304089546,-0.2305988539174199,-0.09317272901535034,0.0018545612692832947,-0.029758669435977936
1772376365241052400,0.495052490234375,-0.10331702048107981,-0.6535644462525845,-0.264217338141799,-0.10731897503137589,-0.02533806301653385,-0.03850143402814865
1772376365251002400,0.50500244140625,0.14968162556458264,-0.6439964074403047,-0.3942889484271407,-0.11394065618515015,-0.026118900626897812,-0.045687973499298096
1772376365260952300,0.514952392578125,0.3367411244196817,-0.7273574122160673,-0.483776911650598,-0.12140814960002899,-0.033405229449272156,-0.044358182698488235
1772376365270902300,0.52490234375,0.4518774697711691,-0.869896582147479,-0.6045706982418895,-0.11706346273422241,-0.06464144587516785,-0.0588148832321167
1772376365280852200,0.534852294921875,0.5121832141846419,-0.8328846560925245,-0.8084247530966997,-0.08758336305618286,-0.08753219991922379,-0.09119626134634018
1772376365290802200,0.54480224609375,0.7187206629045307,-0.7408820796996355,-0.8698784619688987,-0.06279199570417404,-0.14003534615039825,-0.10201668739318848
1772376365300751000,0.554751220703125,1.0593708870593457,-0.7751783170551061,-0.833439367365837,-0.05663144588470459,-0.16721667349338531,-0.10663793981075287
1772376365310701300,0.564701416015625,1.264364102011919,-0.9194961870968341,-0.7618617393642664,-0.05055251717567444,-0.1523865908384323,-0.08985602855682373
1772376365320651300,0.5746513671875,1.4449379651747642,-1.0885264735907316,-0.9498042315989732,-0.02078603394329548,-0.13984854519367218,-0.07089818269014359
1772376365330601200,0.584601318359375,1.5069177437476813,-1.1210206299602985,-1.2362035909324884,0.026787875220179558,-0.15305009484291077,-0.049233101308345795
1772376365340551400,0.594551513671875,1.3974505300737916,-1.2307447410047054,-1.2720064334586263,0.029557498171925545,-0.212312251329422,-0.03961416706442833
1772376365350500400,0.604500244140625,1.1333687279451639,-1.3168126666516065,-1.1651508635878562,0.007338745519518852,-0.3042466938495636,-0.053472455590963364
1772376365360450300,0.6144501953125,0.9375234266966581,-1.2430576946109533,-1.1882687043249607,-0.03199675679206848,-0.3701734244823456,-0.06623512506484985
1772376365370400300,0.624400146484375,0.9226067203328013,-1.0226958648085593,-1.1913012038886546,-0.06789377331733704,-0.4107716977596283,-0.06177486106753349
1772376365380350500,0.6343505859375,1.074685579764843,-0.7822527854859829,-1.1577727360352874,-0.09566088020801544,-0.4315069019794464,-0.03126082941889763
1772376365390300200,0.644300048828125,1.428211579040438,-0.6922229704707861,-1.1521461283251642,-0.11029574275016785,-0.44901347160339355,0.019602354615926743
1772376365400250000,0.65425,1.778633474820852,-0.6722001731395721,-1.144205398453772,-0.11435044556856155,-0.44082725048065186,0.08680382370948792
1772376365410199000,0.664198974609375,1.9915825441487132,-0.8175146530032158,-1.0323176796346902,-0.11932922154664993,-0.43297332525253296,0.13886702060699463
1772376365420149200,0.674149169921875,1.9247775373764335,-0.9572112929850816,-0.9501441310778259,-0.1479867398738861,-0.43509888648986816,0.1656590849161148
1772376365430099200,0.68409912109375,1.7859493507921695,-1.026466030997038,-0.9189522894784807,-0.19724750518798828,-0.44491317868232727,0.17698444426059723
1772376365440049200,0.694049072265625,1.589901439643651,-1.0226344900101423,-0.8882219279110432,-0.2614181339740753,-0.46136945486068726,0.18493930995464325
1772376365449999400,0.703999267578125,1.3232418229162692,-1.0163082095980644,-0.9645040803417563,-0.3340041935443878,-0.49142828583717346,0.1902826875448227
1772376365459948300,0.7139482421875,0.8850080804310738,-0.7977016990303992,-1.2059198040887713,-0.39680758118629456,-0.5190890431404114,0.18109583854675293
1772376365469898200,0.723898193359375,0.4166685380175709,-0.3372796517431736,-1.481295957365632,-0.40340128540992737,-0.533758282661438,0.17592105269432068
1772376365479848400,0.733848388671875,0.08294480692399665,0.20229016653895376,-1.750314412178844,-0.37632498145103455,-0.5168264508247375,0.16725638508796692
1772376365489798400,0.74379833984375,-0.08752634429428725,0.8254092056453227,-1.6826950202837585,-0.31001654267311096,-0.44525134563446045,0.1659059077501297
1772376365499748400,0.753748291015625,-0.12574903437849133,1.3100970946609973,-1.3846917323961854,-0.20120544731616974,-0.37089771032333374,0.1914767026901245
1772376365509698000,0.763697998046875,-0.39378644226510073,1.6740636777997016,-1.072372918908298,-0.10908590257167816,-0.347682923078537,0.19398540258407593
1772376365519647200,0.773647216796875,-1.2678997287921607,2.1329694753050803,-0.8700051570884882,-0.065861776471138,-0.3371827006340027,0.14688114821910858
1772376365529597200,0.78359716796875,-2.308452006678283,2.7240567148566246,-0.7868364600144326,-0.011734627187252045,-0.31461694836616516,0.07876680046319962
1772376365539547100,0.793547119140625,-2.9465125943288206,3.218265296411514,-0.9342924819514155,0.06714335829019547,-0.2554045617580414,0.047644779086112976
1772376365549497300,0.803497314453125,-2.8607188094481826,3.263143718057871,-1.2426973368659615,0.11288341134786606,-0.010282945819199085,0.09356991946697235
1772376365559447300,0.813447265625,-1.554659884262085,1.7594009510844946,-1.3195030747793615,0.0513555146753788,0.37014326453208923,0.20264273881912231
1772376365569396200,0.823396240234375,0.16833320760782808,-0.34334757348001,-0.4496590996019542,-0.17311647534370422,0.585301399230957,0.27604103088378906
1772376365579346200,0.83334619140625,0.9526086214952171,-1.7450801647871732,0.8247919505298137,-0.41667646169662476,0.5216536521911621,0.231428325176239
1772376365589296400,0.84329638671875,0.5830479812091216,-2.4975340243369337,1.0215078240677713,-0.5088748335838318,0.27821245789527893,0.11827407032251358
1772376365599246600,0.85324658203125,0.09371336236614733,-2.552247611299157,0.3320635245300829,-0.4737766683101654,-0.00621192529797554,0.012074660509824753
1772376365609196500,0.863196533203125,0.02401150164119899,-2.0194068090111017,-0.16689444350898264,-0.41252556443214417,-0.2065705955028534,-0.07081808894872665
1772376365619146200,0.873146240234375,0.4587477208668366,-1.0769862579226492,-0.06500862487480044,-0.4051569998264313,-0.2778015732765198,-0.09942783415317535
1772376365629095400,0.883095458984375,1.0709819760065524,0.031044542083144187,0.5444739569365978,-0.44114482402801514,-0.29838889837265015,-0.06011797487735748
1772376365639045400,0.89304541015625,1.2554150718808172,0.9547481177419423,1.1799768229283392,-0.4686405062675476,-0.3208867609500885,0.0028660527896136045
1772376365648995300,0.902995361328125,0.6667271485559642,1.267866557174921,1.259781012005359,-0.4401220381259918,-0.35712864995002747,0.036632269620895386
1772376365658945300,0.9129453125,-0.36305509431697425,1.0197077889084816,0.9919963367708027,-0.41096699237823486,-0.402253121137619,0.031149284914135933
1772376365668895500,0.9228955078125,-1.0939750943854452,0.5276286205977201,0.8129922071427106,-0.40861836075782776,-0.39973562955856323,0.015293088741600513
1772376365678844400,0.932844482421875,-1.137075400443375,0.1993476833462715,0.8149602923452853,-0.4410502016544342,-0.3692229688167572,0.03525042161345482
1772376365688794400,0.94279443359375,-0.8053191152315586,-0.04172960222661495,0.9141041187949478,-0.485187828540802,-0.3254041075706482,0.06395477056503296
1772376365698744300,0.952744384765625,-0.5607369268102571,-0.3086643826335668,0.9672048637330531,-0.49316227436065674,-0.29180827736854553,0.06374112516641617
1772376365708694500,0.962694580078125,-0.3413006508875638,-0.487859504789114,0.9818902455590665,-0.46893733739852905,-0.3001583516597748,0.039474666118621826
1772376365718644500,0.97264453125,-0.25635584751907736,-0.49100890873074526,1.170513267403841,-0.4334478974342346,-0.33873260021209717,0.013511506840586662
1772376365728593400,0.982593505859375,-0.2863456929175183,-0.2746802799671888,1.2180668996088206,-0.4235459864139557,-0.39723241329193115,0.004393109120428562
1772376365738543600,0.992543701171875,-0.25392911356249825,-0.026747137150168417,1.1483487818688154,-0.43184900283813477,-0.40112581849098206,0.002248327946290374
1772376365748493300,1.002493408203125,-0.09153064803220332,0.25287819800376893,1.2697114543892443,-0.4650852382183075,-0.39484795928001404,0.021056901663541794
1772376365758443300,1.012443359375,0.10309309379840269,0.3290250336170196,1.4268611873447894,-0.49515482783317566,-0.37910881638526917,0.03347163647413254
1772376365768393200,1.022393310546875,0.12988730322699993,0.37540976817309857,1.3641900655068457,-0.5096874237060547,-0.3860253095626831,0.043499235063791275
1772376365778343400,1.032343505859375,0.11983347192546352,0.30591479166448116,1.216372662911564,-0.5181025862693787,-0.38659974932670593,0.04371761158108711
1772376365788292400,1.042292236328125,0.10394855985026806,0.18841069426834584,0.9768407070845365,-0.5236326456069946,-0.34601181745529175,0.06103748083114624
1772376365798242300,1.0522421875,0.08149997841054574,0.1371025318354368,0.772826785492897,-0.5307784676551819,-0.24545805156230927,0.07724494487047195
1772376365808192500,1.062192626953125,-0.10048625403456389,0.19550737453103065,0.6502689118385314,-0.5474953651428223,-0.12890881299972534,0.0999920666217804
1772376365818142500,1.072142578125,-0.1968673012400046,0.24836276640594004,0.5986850012041628,-0.557950496673584,0.02325846068561077,0.10635429620742798
1772376365828092400,1.082092529296875,-0.35639592868871983,0.24078911628127098,0.591263911292702,-0.5715730786323547,0.09304659813642502,0.11028805375099182
1772376365838041300,1.092041259765625,-0.217669010521844,-0.0007908581167459487,0.8067758168458938,-0.5744227766990662,0.11554598063230515,0.07992854714393616
1772376365847991600,1.101991455078125,-0.14522720343898982,-0.353579044637084,0.8933049302637577,-0.5563780069351196,0.10269942879676819,0.0289833452552557
1772376365857941500,1.11194140625,0.05132843803595751,-0.35352819123268125,0.8777816363088786,-0.5092208385467529,0.07112543284893036,0.016499102115631104
1772376365867891200,1.12189111328125,0.15305590603696181,-0.3457575572311878,0.751887311708182,-0.47001218795776367,0.06920209527015686,0.006566042546182871
1772376365877841400,1.13184130859375,0.0933671610106714,-0.40427755073904986,0.6066961659632623,-0.43321582674980164,0.07779958844184875,-0.01070262212306261
1772376365887791400,1.141791259765625,0.05118698373865336,-0.5209434437453746,0.4536860170304775,-0.41397687792778015,0.07326395809650421,-0.03076528199017048
1772376365897740300,1.151740234375,0.21616850629840045,-0.5019499894618987,0.4516542189419269,-0.3850943446159363,0.05219016969203949,-0.022173985838890076
1772376365907690200,1.161690185546875,0.29915404709158466,-0.3333937502205372,0.35773265718519687,-0.35862571001052856,0.051207996904850006,-0.03488339111208916
1772376365917640400,1.171640380859375,0.23319778436943886,-0.36292613417506214,0.29879999122321604,-0.33404541015625,0.04423020780086517,-0.052428629249334335
1772376365927590400,1.18159033203125,0.2746052785022184,-0.423874816134572,0.21816000890918075,-0.3275134861469269,0.0029701227322220802,-0.07630306482315063
1772376365937540400,1.191540283203125,0.49083033729344605,-0.2575140411108732,0.26395554540045557,-0.3170296251773834,-0.003383760806173086,-0.06908237189054489
1772376365947489500,1.201489501953125,0.7238679626651108,-0.10919336516857146,0.24130824478454888,-0.30318063497543335,-0.013999121263623238,-0.06112191453576088
1772376365957439500,1.211439453125,0.8234547105766832,-0.07121931608319282,0.17050218567736447,-0.2881704568862915,-0.018744714558124542,-0.05344788357615471
1772376365967389400,1.221389404296875,0.8106853184398263,-0.016796236500144005,0.1151168369334191,-0.2810393273830414,-0.032422978430986404,-0.06789207458496094
1772376365977339400,1.23133935546875,0.6259793239083141,0.02780804437994957,0.08037124837525189,-0.2847577631473541,-0.05271178111433983,-0.08186108618974686
1772376365987289300,1.241289306640625,0.5748420610629021,0.05241700045764446,-0.0593423427414149,-0.28013768792152405,-0.0637844055891037,-0.09175179898738861
1772376365997238300,1.25123828125,0.6960549498490989,-0.0107183778911829,-0.15309037456214428,-0.27666711807250977,-0.07132415473461151,-0.09761574864387512
1772376366007188200,1.261188232421875,0.7981300805103033,-0.1020505076766014,-0.23824761510491368,-0.2763232886791229,-0.09242251515388489,-0.10952886939048767
1772376366017138400,1.271138427734375,0.8405357553675771,-0.20035656812787056,-0.2713187676448375,-0.27622222900390625,-0.11569033563137054,-0.1211957037448883
1772376366027088400,1.28108837890625,0.8579248431943356,-0.276464825296402,-0.2825602195620537,-0.27984148263931274,-0.13517162203788757,-0.1328316032886505
1772376366037038300,1.291038330078125,0.822558053997904,-0.30164719734787937,-0.3544850535660982,-0.2859041690826416,-0.15466728806495667,-0.147125706076622
1772376366046988500,1.300988525390625,0.7387152570545673,-0.2235597490608692,-0.42251003058739006,-0.2982756495475769,-0.15631365776062012,-0.19369320571422577
1772376366056937500,1.3109375,0.5237208725694567,-0.3300117065668106,-0.463942622628808,-0.3125005066394806,-0.17169637978076935,-0.2245820164680481
1772376366066887400,1.320887451171875,0.7094190199434757,-0.1936357354402542,-0.5850777700036763,-0.3085918128490448,-0.15415920317173004,-0.21207846701145172
1772376366076837400,1.33083740234375,0.877026214831695,-0.07279109544456004,-0.6513450166374445,-0.2958938479423523,-0.12134559452533722,-0.19096820056438446
1772376366086787600,1.34078759765625,0.9006688831605016,-0.05515723907649517,-0.6329015974521637,-0.287728875875473,-0.06933325529098511,-0.1779344230890274
1772376366096737300,1.3507373046875,0.8328230620983987,-0.11175415556728839,-0.5848404541164637,-0.27947282791137695,-0.03274700790643692,-0.18435116112232208
1772376366106686500,1.3606865234375,0.7403473152358084,-0.2336252160012722,-0.5591110061088577,-0.27505597472190857,-0.029729649424552917,-0.2222287654876709
1772376366116636400,1.370636474609375,0.7645704138010739,-0.2999789718747139,-0.4807914660990238,-0.2522127032279968,-0.03654102981090546,-0.21487845480442047
1772376366126586400,1.38058642578125,1.0606721789162605,-0.16773381694257258,-0.42263910032715646,-0.21947447955608368,-0.03788938745856285,-0.20177224278450012
1772376366136536300,1.390536376953125,1.1883655888281761,-0.1792746171325445,-0.3599485796689987,-0.19861575961112976,-0.028868654742836952,-0.19602526724338531
1772376366146486300,1.400486328125,1.202936112102866,-0.12652151658833027,-0.20347672770870848,-0.19615978002548218,-0.052713267505168915,-0.1952710598707199
1772376366156435500,1.410435546875,1.2602820933952927,-0.06590250497460365,0.027909769455064088,-0.19158995151519775,-0.09615292400121689,-0.21501755714416504
1772376366166385400,1.420385498046875,1.1394662411026657,-0.1518336524993181,0.15332246628496796,-0.18906261026859283,-0.17376968264579773,-0.21419890224933624
1772376366176335400,1.43033544921875,1.145127627865225,0.05650397751033306,0.2016331822012551,-0.1667419821023941,-0.20659470558166504,-0.18727119266986847
1772376366186285600,1.44028564453125,0.9657860099110752,0.04658405652046203,0.11791267819702625,-0.1608007252216339,-0.2105228751897812,-0.17572878301143646
1772376366196235500,1.450235595703125,0.7459499575484544,-0.11097323432266712,0.005894318735599518,-0.1597464680671692,-0.20676717162132263,-0.16878220438957214
1772376366206185200,1.460185302734375,0.6353006214179098,-0.2167196739077568,-0.0206523274064064,-0.17488574981689453,-0.2517727017402649,-0.1680128127336502
1772376366216134400,1.470134521484375,0.6525918018281459,-0.18354454953670502,0.03870120344930328,-0.18577846884727478,-0.3332289159297943,-0.18052980303764343
1772376366226084400,1.48008447265625,0.7091128035385161,-0.12425707878768444,-0.09669044194817543,-0.1876743733882904,-0.3825080692768097,-0.1898154467344284
1772376366236034300,1.490034423828125,0.6882419380106032,-0.19792028089165686,-0.39997079345583914,-0.17625963687896729,-0.35719043016433716,-0.1848471760749817
1772376366245984300,1.499984375,0.533324822945334,-0.27991175087988374,-0.6814858878791332,-0.1660115271806717,-0.2881455719470978,-0.1781621128320694
1772376366255934500,1.5099345703125,0.2346636922035366,-0.3503840479880571,-0.7459142286479473,-0.17112915217876434,-0.1688295304775238,-0.25158295035362244
1772376366265883400,1.51988330078125,-0.2327564703427255,-0.34584348194897174,-0.8200175757348537,-0.17315608263015747,0.015021268278360367,-0.2586477994918823
1772376366275833300,1.529833251953125,0.03499612925313413,0.16314298202097416,-0.8843710977017879,-0.17163394391536713,0.1989075094461441,-0.2086840122938156
1772376366285783300,1.539783203125,0.4360511742817238,0.46119887687861916,-0.7734639143526554,-0.15641051530838013,0.4039562940597534,-0.1485961675643921
1772376366295733500,1.5497333984375,0.8879905303079635,0.37997079247832294,-0.7579214773058891,-0.13182112574577332,0.562772274017334,-0.12565438449382782
1772376366305683500,1.559683349609375,1.1701925110168754,-0.05902794302999973,-0.8417290568053721,-0.1171974465250969,0.5979385375976562,-0.13899894058704376
1772376366315632400,1.56963232421875,1.6300269676744936,-0.27246201939582826,-0.8019231161177158,-0.0957055613398552,0.5670760869979858,-0.14361892640590668
1772376366325582600,1.57958251953125,2.2252365478530525,-0.2335767006844282,-0.6652034461200237,-0.0661599189043045,0.5305279493331909,-0.1588554084300995
1772376366335532500,1.589532470703125,2.5870874540120363,-0.09760054253041743,-0.5710767171800136,-0.018346283584833145,0.4125151038169861,-0.11753179132938385
1772376366345482200,1.599482177734375,3.010179595336318,0.5422615415841341,-0.4514075507044792,0.06761150807142258,0.3149677515029907,-0.05376134067773819
1772376366355432400,1.609432373046875,2.8560902728646993,1.0477560717850922,-0.29925884090662,0.19424621760845184,0.215338796377182,0.004990656394511461
1772376366365382400,1.61938232421875,2.293855764440447,1.3988707721352576,-0.22015198644399642,0.3259488642215729,0.11091652512550354,0.06389471888542175
1772376366375331300,1.629331298828125,1.4459519645228982,1.8102695530563593,-0.12225333774983882,0.41764405369758606,0.02215375192463398,0.1267768144607544
1772376366385281300,1.63928125,0.5506912240162491,2.2789783671736714,-0.034303251618146895,0.48657599091529846,-0.01515660248696804,0.16748163104057312
1772376366395231500,1.6492314453125,-0.211820613287203,2.588238377612829,-0.0804623698579613,0.5552512407302856,0.0014283088967204094,0.16855448484420776
1772376366405181400,1.659181396484375,-0.7654815372966229,2.4782167449265717,-0.1862958758051507,0.6366137266159058,0.06191162392497063,0.14296284317970276
1772376366415131400,1.66913134765625,-0.9713367028407752,2.099520794689655,-0.2225011799186468,0.7563801407814026,0.16298486292362213,0.12203652411699295
1772376366425080300,1.679080322265625,-0.7999668674834072,1.6573744088053701,-0.0021989713490009307,0.8921278715133667,0.29535701870918274,0.1286906898021698
1772376366435030500,1.689030517578125,-0.46740533030331133,1.143252335512638,0.3818342482626438,1.03544020652771,0.41175785660743713,0.1605779230594635
1772376366444980500,1.69898046875,-0.17855574653977527,0.5377332505047321,0.6918343364793806,1.1701204776763916,0.5050662159919739,0.20528973639011383
1772376366454930400,1.708930419921875,0.016075594075396656,-0.30512627163529393,0.9081582890678197,1.2406493425369263,0.5458424091339111,0.26369237899780273
1772376366464880400,1.71888037109375,0.1440624705085531,-1.5013549950540064,1.1799398519188165,1.234195351600647,0.5343588590621948,0.3544979393482208
1772376366474829300,1.728829345703125,0.3662006258010864,-2.2558038278132675,1.219105741137266,1.215279459953308,0.5367394685745239,0.4714488387107849
1772376366484779300,1.738779296875,0.18308354442883282,-1.6699492282181978,0.6745411833077669,1.2216664552688599,0.547053873538971,0.538312554359436
1772376366494729200,1.748729248046875,-0.2535983837707899,-0.6258031636238098,0.1250784781731665,1.2555203437805176,0.5703210830688477,0.5748498439788818
1772376366504679400,1.758679443359375,-0.7040771474588662,0.4537327787816524,-0.5007631177648901,1.381592035293579,0.5554489493370056,0.5479692220687866
1772376366514629400,1.76862939453125,-1.1196395508654415,0.907910963243246,-1.3838267861299216,1.5020872354507446,0.43649691343307495,0.5329275131225586
1772376366524579300,1.778579345703125,-0.7631547748494892,0.9390414300441742,-1.1578009392164648,1.4690980911254883,0.3017822504043579,0.5398985743522644
1772376366534528500,1.788528564453125,-0.2594624352322891,0.9032207596004008,-0.5251331505201756,1.357508659362793,0.2139277458190918,0.5260733366012573
1772376366544478500,1.798478515625,-0.2008332274626009,1.3973925162762402,-0.006527940464019775,1.242194652557373,0.1478469967842102,0.5323160290718079
1772376366554428400,1.808428466796875,-0.2275853513151407,1.3455974471092222,0.2715551336839795,1.1378930807113647,-0.020117808133363724,0.5137516260147095
1772376366564378600,1.818378662109375,-0.501753882367909,1.2623135992228984,0.3772103878542781,1.0538206100463867,-0.2265910804271698,0.44571399688720703
1772376366574328300,1.828328369140625,-0.6252697143342345,1.1537257987320422,0.5904170852050185,0.9618810415267944,-0.3086887300014496,0.38206911087036133
1772376366584277500,1.838277587890625,-0.4872678225062787,0.6858937674492597,0.9636649991691112,0.8768255710601807,-0.3310866951942444,0.3824339509010315
1772376366594227200,1.848227294921875,-0.3781575690438971,0.30811902371048927,1.1754006010539828,0.8093163371086121,-0.3901526927947998,0.4159712791442871
1772376366604177400,1.858177490234375,-0.5826970123469829,-0.27040567138791083,1.3438696004033088,0.7234323024749756,-0.40473562479019165,0.3841659426689148
1772376366614127400,1.86812744140625,-1.07517329021655,-0.4697060084611177,1.4275797108776866,0.6277757883071899,-0.4829464554786682,0.337312787771225
1772376366624077300,1.878077392578125,-1.1395099341139197,-0.6197369954526424,1.4004375830605624,0.5381476283073425,-0.49552083015441895,0.27882498502731323
1772376366634026200,1.888026123046875,-1.4035481162965298,-0.9607488194614648,1.0950927002385258,0.45597872138023376,-0.41965794563293457,0.23638565838336945
1772376366643976400,1.8979765625,-1.450959563551843,-1.210808452913165,0.8323632625669241,0.37616831064224243,-0.3458617329597473,0.21751344203948975
1772376366653926400,1.907926513671875,-1.2946791607767343,-1.2683230687707663,0.8765276907250285,0.31593018770217896,-0.31967610120773315,0.2294101119041443
1772376366663876400,1.91787646484375,-1.0302930419392884,-1.1435457655012606,1.0234414224788546,0.2724234461784363,-0.2514626979827881,0.2503625452518463
1772376366673826600,1.92782666015625,-0.8555931123111397,-0.9938269131988287,0.9913599385634064,0.22451770305633545,-0.15498603880405426,0.2631361186504364
1772376366683775500,1.937775390625,-0.8370176642440259,-0.8158043419539928,0.8768857103824615,0.17844581604003906,-0.12761273980140686,0.2665356397628784
1772376366693725400,1.947725341796875,-0.7788251491248607,-0.4977992995232343,0.6227817699760199,0.1434268206357956,-0.1161360964179039,0.25841811299324036
1772376366703675400,1.95767529296875,-0.7757641541190445,-0.1881236940205097,0.5674938902571797,0.1295943558216095,-0.130503848195076,0.2424604743719101
1772376366713625300,1.967625244140625,-0.7419991740960628,-0.05842997713685035,0.6100023679018021,0.1153993010520935,-0.12178497016429901,0.2563021183013916
1772376366723575300,1.9775751953125,-0.4414250858724117,-0.10825228492617607,0.7129211828455329,0.09178078919649124,-0.10932058095932007,0.28956741094589233
1772376366733524200,1.987524169921875,-0.3411635805044323,0.05851005663573742,0.6876303819835186,0.0855826735496521,-0.15429235994815826,0.2882802188396454
1772376366743474400,1.997474365234375,-0.6062525138489901,0.10684592525959015,0.5268240262165665,0.0807892382144928,-0.18669423460960388,0.24059578776359558
1772376366753424400,2.00742431640625,-1.1041747821647674,-0.0683838003963232,0.3767138365089893,0.0787225142121315,-0.199079230427742,0.14268021285533905
1772376366763374300,2.017374267578125,-1.5024290540263057,-0.2287362749159336,0.3177083975717425,0.03689730912446976,-0.24355082213878632,0.06679103523492813
1772376366773324500,2.027324462890625,-1.397558812753856,-0.41794425704181193,0.5724164413511753,-0.035615213215351105,-0.2726345956325531,-0.008029468357563019
1772376366783274500,2.0372744140625,-1.4129466437608003,-0.5526239456444978,0.7293436175972223,-0.10057689994573593,-0.26490822434425354,-0.09007266908884048
1772376366793223400,2.047223388671875,-1.3398919289439917,-0.6422153692424297,0.6008472938045859,-0.1317606121301651,-0.2393154501914978,-0.1393287628889084
1772376366803173400,2.05717333984375,-0.982724942817539,-0.6398954018622637,0.42346126689761876,-0.14972655475139618,-0.21574221551418304,-0.16407938301563263
1772376366813123600,2.06712353515625,-0.46944027019701895,-0.5883335569292306,0.34472909096628424,-0.1587112545967102,-0.2006651759147644,-0.16500484943389893
1772376366823073300,2.0770732421875,0.00816628225557506,-0.5008493347436189,0.2660869314059615,-0.1668490767478943,-0.19029934704303741,-0.15948009490966797
1772376366833023200,2.087023193359375,0.4539920142397284,-0.5044289467960595,0.14035831876099109,-0.16675837337970734,-0.1712595671415329,-0.1354314237833023
1772376366842972200,2.09697216796875,0.7767770574886351,-0.6057511401981115,0.03487959020137787,-0.15300580859184265,-0.17807219922542572,-0.1087857037782669
1772376366852922400,2.10692236328125,0.9609834319349377,-0.609345949819684,-0.03462006248235702,-0.14620263874530792,-0.18978002667427063,-0.07649261504411697
1772376366862872300,2.116872314453125,1.0163942804463206,-0.6237152514338493,-0.10174071107506752,-0.142725870013237,-0.20874573290348053,-0.04522523656487465
1772376366872822300,2.126822265625,0.8770029070213436,-0.6540642124682664,-0.29167320808321234,-0.1386292278766632,-0.2163630574941635,-0.040811050683259964
1772376366882772500,2.1367724609375,0.643353287231177,-0.5979518646240234,-0.4755789921477437,-0.14698702096939087,-0.20516446232795715,-0.038711681962013245
1772376366892721400,2.146721435546875,0.5324202022558078,-0.5982885492324829,-0.6385200218558311,-0.15048445761203766,-0.18809719383716583,-0.035638462752103806
1772376366902671400,2.15667138671875,0.48630533414967353,-0.6004676468372344,-0.7825497226059437,-0.15876474976539612,-0.1783183366060257,-0.020456844940781593
1772376366912621600,2.16662158203125,0.47149800644442436,-0.7410282101720571,-0.8404495383888483,-0.19335779547691345,-0.15249349176883698,-0.003504761029034853
1772376366922571500,2.176571533203125,0.34627120584174986,-0.8577063781380653,-0.8156763316601514,-0.23586398363113403,-0.11216764897108078,-0.011876408010721207
1772376366932521200,2.186521240234375,0.3126606126628816,-0.8266571598798036,-0.9360606606677174,-0.25798675417900085,-0.08903440833091736,-0.017325300723314285
1772376366942471400,2.196471435546875,0.5098001184403896,-0.7388175483852625,-1.0762582359090447,-0.26852911710739136,-0.07208258658647537,-0.01874023862183094
1772376366952420400,2.20642041015625,0.6225283797368407,-0.7002467024505138,-1.2187903915777802,-0.2929994761943817,-0.018615327775478363,-0.01148272305727005
1772376366962370300,2.216370361328125,0.7229360886424779,-0.7472019303709269,-1.14983229842484,-0.3105161488056183,0.037699609994888306,0.007938378490507603
1772376366972320300,2.2263203125,0.9082194446705282,-0.7062409744292497,-1.0673711650982498,-0.3017936944961548,0.05516211315989494,0.03141607344150543
1772376366982270500,2.2362705078125,1.0612030709225684,-0.5435673634856939,-0.9754523214660584,-0.26081031560897827,0.02883303537964821,0.05740533024072647
1772376366992220400,2.246220458984375,1.1004523275755345,-0.3200292417347431,-0.8471678868584335,-0.22619354724884033,-0.01292388141155243,0.07747837901115417
1772376367002169300,2.25616943359375,1.0344435857474803,-0.13789981969296933,-0.7120771332368254,-0.20520463585853577,-0.06015690788626671,0.0930032804608345
1772376367012119300,2.266119384765625,0.8205309320844709,0.0053261634588241576,-0.7260407766595482,-0.17468518018722534,-0.08683508634567261,0.10847863554954529
1772376367022069500,2.276069580078125,0.5998380802294239,0.06782908912301062,-0.9521355971559882,-0.1485411822795868,-0.08190291374921799,0.09689308702945709
1772376367032019500,2.28601953125,0.5374518397474661,0.03828326116502285,-1.251820700650662,-0.10694210976362228,-0.05005531758069992,0.07595670968294144
1772376367041969400,2.295969482421875,0.7918255004733801,0.004327215549349785,-1.5207394944816828,-0.042213451117277145,-0.030276551842689514,0.06924580782651901
1772376367051918600,2.305918701171875,1.0889935065805911,-0.039598435416817665,-1.8074737848579883,0.022117283195257187,-0.02550184354186058,0.08476211875677109
1772376367061868500,2.31586865234375,1.3181841011352837,-0.12405951038897037,-2.004277628940344,0.07825751602649689,-0.021783538162708282,0.09975758194923401
1772376367071818200,2.325818359375,1.6358867996186017,-0.35310616642832754,-2.0429504739448427,0.11545834690332413,-0.02413925714790821,0.11686486005783081
1772376367081768400,2.3357685546875,1.9793658905237912,-0.6366507208526134,-1.9145175707772373,0.13943929970264435,-0.04375876486301422,0.12962006032466888
1772376367091718400,2.345718505859375,2.0319138238847256,-0.855446616512537,-1.8317150766670702,0.15329456329345703,-0.09844060987234116,0.13207849860191345
1772376367101667300,2.355667236328125,1.7637316737651825,-1.050276530173421,-1.7145619846656917,0.14593225717544556,-0.17453432083129883,0.1084890216588974
1772376367111617300,2.3656171875,1.393216253504902,-1.2676005997151136,-1.4860615643322468,0.12439330667257309,-0.26712724566459656,0.07676737755537033
1772376367121567500,2.3755673828125,1.0466516176745295,-1.3311200089454651,-1.3224945116803049,0.12513473629951477,-0.3484918773174286,0.054359808564186096
1772376367131517400,2.385517333984375,0.5795069841340184,-0.9871657017439603,-1.1211924793958663,0.10101591050624847,-0.4600858986377716,0.02050909772515297
1772376367141467400,2.39546728515625,0.13565065252669153,-0.5740297217667103,-0.7190121931970119,-0.03454511612653732,-0.5313928723335266,-0.022644763812422752
1772376367151416300,2.405416259765625,-0.11914178160056471,-0.4883370591729879,0.007075052952766418,-0.22306282818317413,-0.5314836502075195,-0.061903420835733414
1772376367161366500,2.415366455078125,-0.19607713724300263,-0.5969786356776953,0.33334406585991383,-0.34848839044570923,-0.5095988512039185,-0.09566377103328705
1772376367171316500,2.42531640625,-0.5452169573236256,-0.7875619978100061,0.17009703894257544,-0.4216148555278778,-0.47176820039749146,-0.146677628159523
1772376367181266400,2.435266357421875,-1.3755541939556597,-0.23494272834062574,0.18911796575486658,-0.3830123245716095,-0.5476579070091248,-0.2123224139213562
1772376367191216400,2.44521630859375,-2.1537989128440618,1.513733999633789,-0.2164396879225969,-0.21297703683376312,-0.5880915522575378,-0.28649652004241943
1772376367201165300,2.455165283203125,-2.6667522346183654,3.644395197996497,-0.8343488834261894,-0.006668884307146072,-0.4612728953361511,-0.30423450469970703
1772376367211115300,2.465115234375,-2.465192428180575,5.744511620491743,-1.2664356475889682,0.09162987023591995,-0.0924152135848999,-0.13947470486164093
1772376367221065200,2.475065185546875,-1.6136396042361854,6.487549416920542,-0.9283616305977106,0.010535546578466892,0.46139979362487793,0.14456020295619965
1772376367231015400,2.485015380859375,-0.5278215858865529,3.8863147796124218,0.4815273791581392,-0.14834243059158325,0.7747549414634705,0.2944895327091217
1772376367240965400,2.49496533203125,-0.13343893129397183,-0.027201310658454894,1.5800433318436145,-0.2876920700073242,0.6385132074356079,0.21508124470710754
1772376367250915300,2.504915283203125,-1.0889707102268933,-2.575304077237844,1.86519239885509,-0.31520089507102966,0.2670993208885193,0.011300090700387955
1772376367260864500,2.514864501953125,-1.8147602886043488,-3.638889586317539,1.3159066577225922,-0.24638719856739044,-0.09079409390687943,-0.13825425505638123
1772376367270814500,2.524814453125,-1.500761120814085,-3.1853456081062554,0.5791480876937508,-0.24136509001255035,-0.2956278920173645,-0.17339499294757843
1772376367280764400,2.534764404296875,-0.4915466323366388,-2.1905086410820482,0.514241900280118,-0.35180771350860596,-0.3395026922225952,-0.12103670835494995
1772376367290714600,2.544714599609375,0.513986135420762,-0.8970797726273536,0.8520371003299951,-0.48560774326324463,-0.27921828627586365,-0.039450641721487045
1772376367300664300,2.554664306640625,1.0380136993192135,0.2806944256901741,1.1705910088151692,-0.5556038022041321,-0.2540271580219269,0.0301396232098341
1772376367310613500,2.564613525390625,0.7682628385782241,1.0102566544741391,1.3377180920362473,-0.5469092726707458,-0.31244802474975586,0.06324990838766098
1772376367320563200,2.574563232421875,-0.0723850353943184,1.1640472862601279,1.3902895524032413,-0.511482834815979,-0.40404051542282104,0.03951927646994591
1772376367330513400,2.584513427734375,-0.7233277913738042,0.8662894975662231,1.444599965392053,-0.4838535785675049,-0.4834114909172058,-0.011388713493943214
1772376367340463400,2.59446337890625,-0.8746102397311478,0.38678281058073044,1.3987439308851957,-0.45267459750175476,-0.5112945437431335,-0.06003374606370926
1772376367350413300,2.604413330078125,-0.6883075505927204,0.05162321973145008,1.1679138985604047,-0.43456655740737915,-0.549431562423706,-0.09271140396595001
1772376367360362200,2.6143623046875,-0.492055458641611,-0.0024041385322809217,1.1019022341229021,-0.42079535126686096,-0.5727848410606384,-0.10736677795648575
1772376367370312400,2.6243125,-0.357979471553117,0.053581368061900135,1.1133062561906875,-0.4117710590362549,-0.5274803042411804,-0.1019805297255516
1772376367380262400,2.634262451171875,-0.2844542166151106,0.10493278511464595,1.0726317159749568,-0.4463639259338379,-0.5093396306037903,-0.09295108169317245
1772376367390212400,2.64421240234375,-0.21414701040815562,-0.036712650847435,1.4133571242578327,-0.48555678129196167,-0.48445677757263184,-0.0673714131116867
1772376367400162600,2.65416259765625,-0.2480027374545112,-0.09402326856553554,1.3459284326292573,-0.4903304874897003,-0.40461254119873047,-0.032906919717788696
1772376367410111500,2.664111572265625,-0.3549803628023714,-0.020136194577813148,1.0767338905967772,-0.493717759847641,-0.32484251260757446,0.0002057615201920271
1772376367420061400,2.6740615234375,-0.44697234473600983,0.0016010054558515548,0.9700655138611793,-0.5041552186012268,-0.242839515209198,0.0020116509404033422
1772376367430011400,2.684011474609375,-0.6584004150416701,0.06201309632062912,0.8423024727791547,-0.48579463362693787,-0.12530212104320526,-0.025173433125019073
1772376367439961300,2.69396142578125,-0.899387026656419,0.19178572365939617,0.6855347248785197,-0.47957298159599304,-0.05140552669763565,-0.02936125174164772
1772376367449911300,2.703911376953125,-0.8045363673560321,0.17437807726263999,0.8351881107293069,-0.48047080636024475,-0.025858061388134956,-0.05690586566925049
1772376367459860200,2.713860107421875,-0.6164946525305509,0.1573193904340267,0.8776670700185001,-0.47165122628211975,0.0829901248216629,-0.059597522020339966
1772376367469810400,2.723810546875,-0.2740311866750009,0.007195464462041855,0.6563876869797706,-0.45996323227882385,0.15318477153778076,-0.03909936919808388
1772376367479760400,2.733760498046875,-0.006458729419019073,-0.2557172208219766,0.6701156219504774,-0.45822206139564514,0.1911662518978119,-0.035232722759246826
1772376367489710300,2.74371044921875,0.04190901391413063,-0.38775194787383077,0.7852806088745593,-0.4505669176578522,0.1550607532262802,-0.03827984631061554
1772376367499660500,2.75366064453125,0.18583702612174674,-0.44123044008314605,0.8063930280733853,-0.4368806779384613,0.09414147585630417,-0.051858238875865936
1772376367509609500,2.763609375,0.26778717771889643,-0.4376818076908588,0.7103069817591459,-0.40414655208587646,0.07484958320856094,-0.05779269337654114
1772376367519559400,2.773559326171875,0.4307709323238581,-0.3444271854102611,0.5637006354540586,-0.36906686425209045,0.0605931431055069,-0.05882386863231659
1772376367529509400,2.78350927734375,0.478764782577008,-0.29956629942059515,0.5750866104084998,-0.35765907168388367,0.036102406680583954,-0.08045180141925812
1772376367539459600,2.79345947265625,0.34471889836583286,-0.269431857919693,0.5937726792432367,-0.3565956950187683,0.0005068611353635788,-0.10552705824375153
1772376367549409300,2.8034091796875,0.16706340686772017,-0.24512100800573824,0.49081952363848685,-0.3393591344356537,-0.005400489084422588,-0.12300339341163635
1772376367559358500,2.8133583984375,0.2535447538874112,-0.15961831502616405,0.30941666230559345,-0.3210645616054535,-0.018340788781642914,-0.13240967690944672
1772376367569308200,2.82330810546875,0.4817401451259851,-0.05360065728425979,0.3006406506538391,-0.32076507806777954,-0.04534652829170227,-0.13725143671035767
1772376367579258400,2.83325830078125,0.6412590914309024,0.04581190310418606,0.2459597969174385,-0.3196052610874176,-0.04673323780298233,-0.13197171688079834
1772376367589208300,2.843208251953125,0.6892693813621997,0.05127192207574844,0.06932203109450638,-0.3127727508544922,-0.04465274512767792,-0.13451716303825378
1772376367599158500,2.853158447265625,0.5983799173103646,-0.020939327654242515,-0.048421208819746965,-0.31317248940467834,-0.0497196763753891,-0.14051194489002228
1772376367609107500,2.863107421875,0.5374149052705616,-0.10683891099691391,-0.08786533045768738,-0.3204372823238373,-0.0782572329044342,-0.14525915682315826
1772376367619057400,2.873057373046875,0.5800871221095323,-0.1478045431137085,-0.10095686722099781,-0.3280864357948303,-0.095436230301857,-0.14082765579223633
1772376367629007400,2.88300732421875,0.6343462433025241,-0.20376959144175052,-0.1769732813876122,-0.3253241181373596,-0.11298442631959915,-0.133417546749115
1772376367638957600,2.89295751953125,0.6289920958582311,-0.2536234634131193,-0.26932905513234434,-0.3257635533809662,-0.12907817959785461,-0.13079753518104553
1772376367648907500,2.902907470703125,0.6282265913784504,-0.3084317429214716,-0.2999877397030592,-0.3276117444038391,-0.14061999320983887,-0.1234857589006424
1772376367658857500,2.912857421875,0.6462893406830728,-0.38706864178478717,-0.2849888349484652,-0.32869163155555725,-0.15543195605278015,-0.12357418239116669
1772376367668806700,2.922806640625,0.6274126446470618,-0.4101023113697767,-0.276854043809697,-0.33782851696014404,-0.1635265201330185,-0.13652512431144714
1772376367678756400,2.93275634765625,0.5950781358186156,-0.3542313710659742,-0.22623682278301566,-0.345121294260025,-0.18242430686950684,-0.15619923174381256
1772376367688706300,2.942706298828125,0.5569643494689837,-0.23779694872796533,-0.35054011533260343,-0.3431168496608734,-0.18060614168643951,-0.17705656588077545
1772376367698656300,2.95265625,0.5909415109379217,-0.18957623091638087,-0.44955878103263675,-0.33680886030197144,-0.16910846531391144,-0.19402863085269928
1772376367708606500,2.9626064453125,0.5902914129987359,-0.14179741165339946,-0.5089555573750287,-0.3348473310470581,-0.14719033241271973,-0.2080739438533783
1772376367718555400,2.972555419921875,0.5884975883845239,-0.0862473738670349,-0.580410362714529,-0.33822953701019287,-0.1105862483382225,-0.22545400261878967
1772376367728505300,2.98250537109375,0.6877707403022796,0.017201310169696806,-0.6209978091686964,-0.3384665846824646,-0.0679808184504509,-0.2248627096414566
1772376367738455600,2.99245556640625,0.842585016047582,-0.010574585506319999,-0.6354191332310438,-0.3373776376247406,-0.029695214703679085,-0.22176572680473328
1772376367748405500,3.002405517578125,1.0286673404335975,-0.12439093430042267,-0.6355979969292879,-0.33902499079704285,-0.0013792640529572964,-0.21745559573173523
1772376367758355500,3.01235546875,1.1373073825683444,-0.2581184367448091,-0.6367711323618889,-0.3450525403022766,0.03733804076910019,-0.2145780473947525
1772376367768304400,3.022304443359375,1.1638474528390914,-0.31508944724500176,-0.6325847865879536,-0.34571704268455505,0.07554421573877335,-0.21059775352478027
1772376367778254600,3.032254638671875,1.1581255680609495,-0.3310340353518724,-0.567293691509962,-0.32978707551956177,0.09357301145792007,-0.2053595781326294
1772376367788204500,3.04220458984375,1.131014566034451,-0.23454992963075635,-0.4737409630656242,-0.2994193434715271,0.09723228961229324,-0.20769676566123962
1772376367798154200,3.052154296875,1.1218149952083825,-0.11599661544263362,-0.30352409713566303,-0.2587547302246094,0.07303747534751892,-0.22202405333518982
1772376367808104400,3.0621044921875,1.119151767348498,-0.05902735850811004,-0.16494329117489978,-0.22309428453445435,0.06900964677333832,-0.2329363375902176
1772376367818053400,3.072053466796875,0.9968257296886295,-0.020599135914444924,-0.07209081995440647,-0.18933312594890594,0.07568912208080292,-0.22396788001060486
1772376367828003300,3.08200341796875,0.8431747255690395,-0.0007733224600553512,-0.011727262672781943,-0.1666717231273651,0.08792801946401596,-0.21228547394275665
1772376367837953300,3.091953369140625,0.6721287884037941,-0.06393325072824954,-0.028845570734143254,-0.15985722839832306,0.09069451689720154,-0.19921094179153442
1772376367847903500,3.101903564453125,0.5994769552994519,-0.13781155688762664,-0.06972526899999938,-0.15851719677448273,0.09958186000585556,-0.20209813117980957
1772376367857853400,3.111853515625,0.6854007232353091,-0.23960136780142782,-0.12545767761594614,-0.16493567824363708,0.08506496995687485,-0.20379936695098877
1772376367867802400,3.12180224609375,0.919409531726688,-0.18258301102817057,-0.19822540131807326,-0.16187123954296112,0.10006345808506012,-0.19674931466579437
1772376367877752600,3.131752685546875,0.9386963429335504,-0.12292729148864745,-0.4310679425090551,-0.17834101617336273,0.12466521561145782,-0.21698401868343353
1772376367887702500,3.14170263671875,0.8773249055173248,-0.035790275305509565,-0.5625345142841339,-0.20159216225147247,0.16415666043758392,-0.22079719603061676
1772376367897652500,3.151652587890625,1.1192377651315182,0.09913198988139629,-0.6723334441304206,-0.21974506974220276,0.220281720161438,-0.20273908972740173
1772376367907602400,3.1616025390625,1.400867498910427,0.08080898220539093,-0.6806944452404976,-0.22320987284183502,0.2875205874443054,-0.16963034868240356
1772376367917551600,3.171551513671875,1.6045461971983312,-0.032145781323313714,-0.6129495272696018,-0.22993861138820648,0.34964150190353394,-0.13375809788703918
1772376367927501600,3.18150146484375,1.7542763015471399,-0.12212941910922527,-0.5708627821683884,-0.22434034943580627,0.3954814672470093,-0.1107412576675415
1772376367937451300,3.191451171875,1.715011920390278,-0.21849077523350716,-0.5096317761361598,-0.20701436698436737,0.37524572014808655,-0.1264326125383377
1772376367947401500,3.2014013671875,1.5787880710855124,-0.129604869556427,-0.31916181125044824,-0.15383146703243256,0.30424821376800537,-0.09755408763885498
1772376367957351400,3.211351318359375,1.8142216516830025,0.10023439816534518,-0.23461071990728377,-0.07788877934217453,0.25965145230293274,-0.06139368563890457
1772376367967300400,3.22130029296875,1.9485057650968431,0.2657844413280487,0.060199909418821335,0.01616508513689041,0.20305490493774414,-0.014631440863013268
1772376367977250300,3.231250244140625,1.9523231314279137,0.7811252427607774,0.36232992184758184,0.13746941089630127,0.13882479071617126,0.06021616607904434
1772376367987200500,3.241200439453125,1.7250810405924915,1.6264321580529213,0.4402689015746116,0.2735171914100647,0.0829988420009613,0.13853435218334198
1772376367997150500,3.251150390625,1.1729337725490332,2.300315169712901,0.2722726343035698,0.42044591903686523,0.06354232132434845,0.17687374353408813
1772376368007100400,3.261100341796875,0.37424189343750475,2.5904560536623,-0.037677696487307545,0.5546361804008484,0.10812443494796753,0.1846449077129364
1772376368017049600,3.271049560546875,-0.4230525034336373,2.539931150561571,-0.35768940256536,0.6600901484489441,0.2219681739807129,0.184227854013443
1772376368026999600,3.28099951171875,-0.996246103169769,2.3497388335734604,-0.4503098185956478,0.7347484827041626,0.4076145589351654,0.18060235679149628
1772376368036949500,3.290949462890625,-1.2375792631998657,2.0535364576280117,-0.2721124570394866,0.810789942741394,0.601133406162262,0.18382452428340912
1772376368046899500,3.3008994140625,-1.184949058382958,1.5862924553662539,-0.05378478167951107,0.9095630049705505,0.7599397897720337,0.18676398694515228
1772376368056849400,3.310849365234375,-0.981792338142544,0.9491986669212579,-0.0361024099946022,1.0135362148284912,0.8691025376319885,0.18940530717372894
1772376368066798300,3.32079833984375,-0.6277164498992264,0.17976444647610187,0.03172843269407749,1.098458170890808,0.8968633413314819,0.203950434923172
1772376368076748300,3.330748291015625,-0.3224094879347831,-0.5301099160194397,0.2865274426925927,1.1493165493011475,0.8812900185585022,0.24824866652488708
1772376368086698500,3.340698486328125,-0.1765046044299379,-1.3369494457513094,0.43636378389485175,1.1973849534988403,0.8670023083686829,0.3614833354949951
1772376368096648400,3.3506484375,0.05249598397798836,-1.1850146709650755,0.17516835085749624,1.254281759262085,0.898681104183197,0.4799119830131531
1772376368106598400,3.360598388671875,-0.13068472808185033,-0.26059564051330086,-0.10875029757618904,1.2754037380218506,0.8441122770309448,0.4970264732837677
1772376368116547300,3.37054736328125,-0.7788713994193822,-0.161093648275733,-0.1761772356390953,1.2363165616989136,0.7338563203811646,0.4666286110877991
1772376368126497500,3.38049755859375,-0.8750740578506141,0.0696165570616722,-0.3753210669763386,1.2739700078964233,0.5796726942062378,0.43605419993400574
1772376368136447500,3.390447509765625,-0.7822324733503162,0.8938818533688783,-0.9797814367115497,1.3100610971450806,0.5375534892082214,0.43153268098831177
1772376368146397400,3.4003974609375,-0.5725980084631592,0.8653969326406716,-1.030787839718908,1.2692278623580933,0.45256108045578003,0.45744407176971436
1772376368156347400,3.410347412109375,-0.2759942669088952,0.6532581567823886,-0.9401623968981205,1.1615111827850342,0.3852611184120178,0.44943568110466003
1772376368166296600,3.420296630859375,-0.31581111258305605,0.36059798348844047,-0.52656595980227,1.0895118713378906,0.25865599513053894,0.4133281707763672
1772376368176246500,3.43024658203125,-0.4285034988485276,0.8100415406435728,-0.13028642207980154,1.081049919128418,0.06705165654420853,0.32309412956237793
1772376368186196200,3.4401962890625,-0.6445999262914062,0.9511001166284083,0.14782909303307532,1.0216763019561768,-0.1030561551451683,0.2894187271595001
1772376368196146400,3.450146484375,-0.344843364995718,0.8426736441791057,0.5953320375144481,0.920930802822113,-0.1772954910993576,0.33126258850097656
1772376368206096400,3.460096435546875,-0.11480134124346077,0.308981193497777,0.6345103478230536,0.8117198944091797,-0.1815730780363083,0.3429058790206909
1772376368216045300,3.47004541015625,-0.46422531202770767,0.21363281380832194,0.6499873184181749,0.7323486804962158,-0.2138732224702835,0.3570384681224823
1772376368225995500,3.47999560546875,-0.5481727018566802,0.09872282455861568,0.8423401744410395,0.6569247841835022,-0.22003206610679626,0.3603006899356842
1772376368235945500,3.489945556640625,-0.7935390263929962,-0.19992460645139215,1.0323664872124791,0.5769324898719788,-0.20865370333194733,0.3532033860683441
1772376368245895400,3.4998955078125,-1.1182207701086997,-0.6450766038924455,1.0928370302662254,0.5103306174278259,-0.14579541981220245,0.32929861545562744
1772376368255845600,3.509845703125,-1.653394983780384,-1.0751841769367456,0.8836959749191999,0.43530407547950745,-0.08374295383691788,0.2860963046550751
1772376368265794600,3.519794677734375,-1.9698203558042644,-1.1732394774973391,0.8626981950759888,0.3611829876899719,-0.10864831507205963,0.24414372444152832
1772376368275744500,3.52974462890625,-1.8280616687260567,-1.1902923191070556,0.9648772975683212,0.30948302149772644,-0.11880294233560562,0.23356245458126068
1772376368285694500,3.539694580078125,-1.5090236299857496,-1.1153232951015233,0.9683528647243976,0.26642701029777527,-0.08859002590179443,0.2091924548149109
1772376368295644400,3.54964453125,-1.3164696984328328,-0.9509738599002361,0.787998635661602,0.24424578249454498,-0.02666407823562622,0.19362682104110718
1772376368305594400,3.559594482421875,-0.9369543946370482,-0.7833651306420564,0.4138452972903848,0.22230394184589386,0.09511493891477585,0.1837107390165329
1772376368315543300,3.569543212890625,-0.7634095533281564,-0.7065718138188123,0.3362354033872485,0.20570072531700134,0.20760579407215118,0.19290584325790405
1772376368325493200,3.5794931640625,-0.5853440562570468,-0.591855885836482,0.4675660738229751,0.184501051902771,0.232771098613739,0.21184442937374115
1772376368335443500,3.589443359375,-0.43824302177019414,-0.15815876386761665,0.6893997297435999,0.14575311541557312,0.22484473884105682,0.16888418793678284
1772376368345393400,3.599393310546875,-0.7380314395088702,0.007437456524372101,0.8501315589696168,0.13212095201015472,0.21694277226924896,0.125235453248024
1772376368355343400,3.60934326171875,-0.7910176912218332,-0.17609131092131136,0.7089099013775587,0.11800381541252136,0.19904953241348267,0.10902505367994308
1772376368365292500,3.61929248046875,-0.6037520753353833,-0.36867198435068127,0.7581067707449197,0.08147556334733963,0.16771994531154633,0.0871489867568016
1772376368375242500,3.629242431640625,-0.7451354262951762,-0.571603955924511,0.8046022721990942,0.03055885061621666,0.1513625532388687,0.02434791624546051
1772376368385192400,3.6391923828125,-1.1722033393826334,-0.7645733364105224,0.6534139318659902,0.008734197355806828,0.10126246511936188,-0.06883808970451355
1772376368395142700,3.649142578125,-1.2769392136856912,-0.8547428521573543,0.4806017887458205,0.007050014100968838,0.07760613411664963,-0.14320793747901917
1772376368405092400,3.65909228515625,-1.0592380544599145,-0.8295861990690231,0.31696517798900603,-0.013440433889627457,0.1062040776014328,-0.2115800529718399
1772376368415041500,3.66904150390625,-0.865433757519722,-0.7794839052945375,0.24918285061717033,-0.05017421394586563,0.13990478217601776,-0.2540750503540039
1772376368424991500,3.678991455078125,-0.5246392660560086,-0.6293138020932674,0.23353695319592951,-0.07770654559135437,0.16403889656066895,-0.27683669328689575
1772376368434941400,3.68894140625,-0.2078571530163288,-0.4626701184749603,0.22424071706235407,-0.08535727858543396,0.17488887906074524,-0.2828144133090973
1772376368444891400,3.698891357421875,0.06364990374222397,-0.42847091175317764,0.23699440017342566,-0.08782938122749329,0.15791669487953186,-0.26580965518951416
1772376368454841300,3.70884130859375,0.32110030503235754,-0.5407534751087427,0.11951485269665717,-0.09739252179861069,0.14647787809371948,-0.24991406500339508
1772376368464790300,3.718790283203125,0.5876784174887463,-0.7063274836689233,-0.07920446961820125,-0.12520724534988403,0.1671551614999771,-0.21215936541557312
1772376368474740500,3.728740478515625,0.801076874551922,-0.8564964178264141,-0.252626269069314,-0.15037916600704193,0.16744917631149292,-0.18656238913536072
1772376368484690400,3.7386904296875,0.9050727441426366,-0.7242623688101768,-0.3380012440159917,-0.15352101624011993,0.1586674302816391,-0.17696082592010498
1772376368494640400,3.748640380859375,0.9495141626112162,-0.44805940932035443,-0.4430257990673184,-0.15774106979370117,0.12976893782615662,-0.1760452389717102
1772376368504590600,3.758590576171875,0.9266747004240751,-0.26976035922169683,-0.5504249742954969,-0.16540119051933289,0.13185332715511322,-0.16178487241268158
1772376368514539500,3.76853955078125,0.788728849632293,-0.37975627294480796,-0.699157153648138,-0.17665570974349976,0.10466937720775604,-0.1309361457824707
1772376368524489500,3.778489501953125,0.7908020026445388,-0.509193384718895,-0.8858578291282058,-0.16672272980213165,0.05386880785226822,-0.16018244624137878
1772376368534439400,3.788439453125,0.5941848767733201,-0.48830432594716544,-1.0125576248928905,-0.1542854905128479,0.058540262281894684,-0.17040713131427765
1772376368544389400,3.798389404296875,0.6586364157546312,-0.8311065405040979,-0.8424789983898401,-0.1604408174753189,0.07456617802381516,-0.14698635041713715
1772376368554339300,3.80833935546875,0.6548600390210747,-1.1509013889610766,-0.6467873533330858,-0.19174255430698395,0.09863316267728806,-0.11370109766721725
1772376368564288300,3.818288330078125,0.5213572487106547,-1.2823188608974219,-0.6037244566760956,-0.22555415332317352,0.09234236925840378,-0.07712358236312866
1772376368574238500,3.828238525390625,0.4408491491479799,-1.0785901859879492,-0.7502391061097383,-0.2623893916606903,0.08010593801736832,-0.028862042352557182
1772376368584188400,3.8381884765625,0.45066455031745134,-0.8278507535785437,-1.0097767620027065,-0.2806110382080078,0.0873117595911026,0.026020780205726624
1772376368594138400,3.848138427734375,0.528576788168028,-0.5376046556890011,-1.208227204248309,-0.2513178884983063,0.09630925208330154,0.05258101597428322
1772376368604088600,3.858088623046875,0.6943404010161757,-0.14679507381021975,-1.2937538626253604,-0.1615111529827118,0.08402074873447418,0.09177562594413757
1772376368614037500,3.86803759765625,0.8782363212738186,0.09433949490785598,-1.3529846347510814,-0.06676439195871353,0.06991052627563477,0.12692828476428986
1772376368623987500,3.877987548828125,0.9016413814544677,0.15381576622724533,-1.2573358108103274,-0.011393925175070763,0.04709233343601227,0.16404563188552856
1772376368633937400,3.8879375,0.8969090922355651,0.06761924576461315,-1.2775611449763178,0.01630960777401924,0.014633992686867714,0.19727441668510437
1772376368643887600,3.8978876953125,0.9108154525130987,-0.022646131572127342,-1.4393494975179433,0.03269161656498909,-0.042910389602184296,0.21338701248168945
1772376368653837600,3.907837646484375,0.96487481335029,-0.0958200888544321,-1.5123736710660158,0.014018862508237362,-0.12770597636699677,0.2106817662715912
1772376368663786500,3.917786376953125,1.177611701232195,-0.23460662825405595,-1.6810796940416097,-0.002215500921010971,-0.18149515986442566,0.21630211174488068
1772376368673736400,3.927736328125,1.6264080465249717,-0.3270090176194906,-1.9447583952620624,-0.014446601271629333,-0.19548209011554718,0.23482385277748108
1772376368683686400,3.937686279296875,2.044500041474402,-0.4291203155726194,-2.0346819734238086,-0.018469100818037987,-0.2280249297618866,0.2522349953651428
1772376368693636400,3.94763623046875,2.1077149148002268,-0.5841109707981348,-2.046822054681182,-0.024132046848535538,-0.2901519536972046,0.24045825004577637
1772376368703586300,3.95758642578125,1.835823973290622,-0.7292530167043209,-2.1441873271510006,-0.03654681518673897,-0.39006471633911133,0.22578155994415283
1772376368713535500,3.967535400390625,1.3188077859915792,-0.638878333774209,-2.163738123056292,-0.07197058945894241,-0.4837576746940613,0.1860397458076477
1772376368723485400,3.9774853515625,0.8328697507843374,-0.46346097659170626,-2.0981050826728342,-0.1054140105843544,-0.5472444891929626,0.14466427266597748
1772376368733435400,3.987435302734375,0.44479558521881696,-0.3385468952000141,-1.766460806468129,-0.1997988373041153,-0.608262836933136,0.11021042615175247
1772376368743383300,3.99738330078125,0.10183277327269315,-0.22867606916129588,-1.0997764741405844,-0.29109126329421997,-0.6708419322967529,0.06827063858509064
1772376368753333200,4.007333251953125,-0.08110621158629655,-0.15300737245380877,-0.6158908414185047,-0.37932419776916504,-0.690494179725647,0.031599968671798706
1772376368763283500,4.017283447265625,-0.012695340519957243,-0.11882920852005481,0.03617927462309599,-0.46766161918640137,-0.6996684074401855,0.03455081954598427
1772376368773233400,4.0272333984375,0.014770393228344619,0.11671616188883781,0.30504736118018627,-0.5111606121063232,-0.7304340600967407,0.06264450401067734
1772376368783183400,4.037183349609375,-0.331320158816874,0.8549643859535455,-0.14776567240804434,-0.4594951272010803,-0.7138797044754028,0.06416117399930954
1772376368793132500,4.047132568359375,-1.0672424241520464,2.450055649325251,-0.3807411923289299,-0.33625760674476624,-0.6652040481567383,0.02763618715107441
1772376368803082500,4.05708251953125,-1.7429839231602846,4.284864015832543,-0.3360280442468822,-0.1593918353319168,-0.548872709274292,-0.029125895351171494
1772376368813032400,4.067032470703125,-2.08948294640854,5.257369324061274,-0.5619646054416895,0.02096993662416935,-0.30142882466316223,-0.039070140570402145
1772376368822982700,4.076982666015625,-2.145370691716671,4.607435927787423,-0.4638526062577963,0.06796301901340485,-0.06295146048069,0.01910075545310974
1772376368832932400,4.086932373046875,-1.968511172901839,1.8926520681887864,0.4696529630996287,-0.03487388417124748,0.07082098722457886,-0.025807596743106842
1772376368842881500,4.096881591796875,-1.7353728636346757,-1.2602408846020698,1.2059160046964883,-0.18935970962047577,0.07087508589029312,-0.15045279264450073
1772376368852831500,4.10683154296875,-1.7986976270757615,-2.7629385264366864,1.3677552106425166,-0.28758350014686584,-0.03218924626708031,-0.2814755439758301
1772376368862781400,4.116781494140625,-1.7750006712764501,-3.141469641500711,1.1680163360215723,-0.3479402959346771,-0.15309275686740875,-0.37151432037353516
1772376368872731400,4.1267314453125,-1.4346395662613212,-2.899398084193468,1.2646798899628222,-0.4322538673877716,-0.20298922061920166,-0.3856610655784607
1772376368882681300,4.136681396484375,-0.6228953864183276,-2.1448054590493437,1.557598860323429,-0.5494391918182373,-0.1761203557252884,-0.33523309230804443
1772376368892630300,4.14663037109375,0.19877686118837445,-0.9574509469598531,1.9032623095303773,-0.6560328006744385,-0.1554132103919983,-0.2358100861310959
1772376368902580500,4.15658056640625,0.48984552750717847,0.14737141239345072,2.0598329274237153,-0.6990317106246948,-0.15964272618293762,-0.14513452351093292
1772376368912530400,4.166530517578125,0.1714280318180099,0.5590875887006521,1.7822512269265949,-0.6527606248855591,-0.18790099024772644,-0.10921620577573776
1772376368922480400,4.17648046875,-0.46028212735988194,0.4567927508741617,1.3573575891382992,-0.5662716031074524,-0.20045769214630127,-0.12861420214176178
1772376368932430600,4.1864306640625,-0.9193283562492579,0.31013211709856986,1.1878718139618634,-0.48490723967552185,-0.21318599581718445,-0.1468757688999176
1772376368942379500,4.196379638671875,-0.8624073954358696,0.25530805549919605,1.0934161453284323,-0.434684157371521,-0.19967955350875854,-0.15115419030189514
1772376368952329500,4.20632958984375,-0.6860092835877091,0.21257482918798923,1.1056688931800425,-0.4097737669944763,-0.1624957025051117,-0.16985970735549927
1772376368962279400,4.216279541015625,-0.7406602536424994,0.15528642330169676,1.0450253316469489,-0.3782840073108673,-0.1051863431930542,-0.17568090558052063
1772376368972229400,4.2262294921875,-0.7622190283693373,0.09277180719971656,0.8723100730299949,-0.3592120409011841,-0.06187615543603897,-0.15713626146316528
1772376368982179300,4.236179443359375,-0.7247488371528684,0.03596270926296711,0.8678196297429501,-0.38343510031700134,-0.0266224667429924,-0.14295519888401031
1772376368992128300,4.246128173828125,-0.5546007256101817,-0.06145078626275062,0.8841150771141052,-0.4098246097564697,0.012492713518440723,-0.12668940424919128
1772376369002078500,4.256078369140625,-0.3026249563388526,-0.14219547106027602,0.8003529441915452,-0.4495709240436554,-0.009863919578492641,-0.09577582776546478
1772376369012028400,4.2660283203125,0.005777505689207464,-0.15711246968507767,0.9020318420767783,-0.4677872061729431,-0.020071549341082573,-0.06164981797337532
1772376369021978400,4.275978271484375,0.29636522009065375,-0.07285480833053588,0.7473240954458713,-0.447782039642334,-0.023587200790643692,-0.018760470673441887
1772376369031928600,4.285928466796875,0.47572179815191773,0.10729074641764164,0.542836126601696,-0.4236926734447479,0.024096431210637093,0.021148860454559326
1772376369041877500,4.29587744140625,0.40255653563272203,0.27264029857218264,0.538199698972702,-0.4077613949775696,0.042290084064006805,0.040389399975538254
1772376369051827500,4.305827392578125,0.23756436381479723,0.3071843732088804,0.5116530528306961,-0.3810807764530182,0.07621342688798904,0.03705858439207077
1772376369061777400,4.31577734375,0.07003660910464823,0.24155542447865008,0.5124054055679589,-0.3670686185359955,0.11928331851959229,0.035124730318784714
1772376369071727600,4.3257275390625,0.007815550855454058,-0.024069442373514174,0.6770844380497932,-0.36159074306488037,0.14875440299510956,0.03347303718328476
1772376369081677300,4.33567724609375,0.014406911944504826,-0.2305751807808876,0.7931852445192634,-0.35515058040618896,0.13933946192264557,0.0029462201055139303
1772376369091626500,4.34562646484375,-0.04260234820684418,-0.3173614838302135,0.8128653658926487,-0.33928242325782776,0.1315867304801941,-0.0399080365896225
1772376369101576400,4.355576416015625,0.0003252498989924788,-0.33998131191730496,0.7364123869396746,-0.31370809674263,0.14866480231285095,-0.07186909765005112
1772376369111527400,4.36552734375,0.14913951804451644,-0.2618681446671486,0.6498359272487462,-0.28789249062538147,0.11908000707626343,-0.07670140266418457
1772376369121477400,4.375477294921875,0.34712848025821147,-0.23695874433815478,0.7128384729981422,-0.28395456075668335,0.06836847960948944,-0.08240669220685959
1772376369131427600,4.385427490234375,0.5236539082804694,-0.23146423857510087,0.7632319317389279,-0.2925861179828644,0.016787847504019737,-0.08412496745586395
1772376369141377500,4.39537744140625,0.7246018298976122,-0.256617384532094,0.7178548398554324,-0.2989979684352875,-0.022325007244944572,-0.08026964217424393
1772376369151327500,4.405327392578125,0.8776381361849606,-0.28755379006564613,0.688964845457673,-0.30509689450263977,-0.04523857682943344,-0.07476435601711273
1772376369161276400,4.4152763671875,0.7686926813628524,-0.1629576885819435,0.7396329564213753,-0.31280046701431274,-0.1031859964132309,-0.07969485968351364
1772376369171226600,4.4252265625,0.6707409142419696,-0.03398760979771614,0.7117547694146633,-0.31776753067970276,-0.14347083866596222,-0.07761653512716293
1772376369181176300,4.43517626953125,0.7303500181607901,-0.05087444719076156,0.6643138768691569,-0.3298344016075134,-0.1838998943567276,-0.08887611329555511
1772376369191126300,4.445126220703125,0.6929161403667181,-0.04079027554988861,0.5888404835380614,-0.3345649540424347,-0.2217428833246231,-0.1025940552353859
1772376369201076500,4.455076416015625,0.6059527637174352,-0.0019061258822679519,0.4595517672587186,-0.3399362862110138,-0.24629563093185425,-0.10783302783966064
1772376369211025400,4.465025390625,0.5235966616678983,-0.014119710767269134,0.40862705118544396,-0.3451305329799652,-0.2500365674495697,-0.1091502234339714
1772376369220975400,4.474975341796875,0.4697019898731261,-0.06350128905177116,0.2739046924848109,-0.35360944271087646,-0.24801579117774963,-0.10126101225614548
1772376369230925300,4.48492529296875,0.3965203242084011,-0.12239128491580485,0.17995332011170684,-0.3666110038757324,-0.2521388828754425,-0.0934680700302124
1772376369240875500,4.49487548828125,0.34208409288283437,-0.1954565211266279,0.16959909935779868,-0.38972145318984985,-0.25877436995506287,-0.08079814165830612
1772376369250825500,4.504825439453125,0.30504712371816856,-0.285073663687706,0.1616460214614868,-0.4027882516384125,-0.27875715494155884,-0.08292361348867416
1772376369260774400,4.5147744140625,0.2989427424284629,-0.36037235803902146,0.21684351948313413,-0.4168578088283539,-0.2985508143901825,-0.09468898922204971
1772376369270724600,4.524724609375,0.26040793592147526,-0.31613983308076854,0.16679039861261843,-0.4218243360519409,-0.3186720609664917,-0.1081661805510521
1772376369280674600,4.534674560546875,0.21772539861788973,-0.21817864054441452,0.09138590579926967,-0.4271169602870941,-0.334163099527359,-0.12658900022506714
1772376369290624300,4.544624267578125,0.09736322664320468,-0.20025603036284445,-0.028905228499509394,-0.4434264302253723,-0.3378848731517792,-0.17847271263599396
1772376369300573400,4.554573486328125,-0.06770646739033982,-0.3334136239647865,-0.13002274790862575,-0.43484261631965637,-0.33005034923553467,-0.19770339131355286
1772376369310523400,4.5645234375,0.12103358669653534,-0.1759936957657337,-0.28730478374063967,-0.40295153856277466,-0.3291376829147339,-0.19967199862003326
1772376369320473300,4.574473388671875,0.20125181820085272,-0.06916062998771667,-0.4179951104462146,-0.3599102795124054,-0.3017341196537018,-0.19477085769176483
1772376369330423300,4.58442333984375,0.22448577786460516,0.013231237494945525,-0.503333552774787,-0.3146815299987793,-0.26239338517189026,-0.187923863530159
1772376369340373500,4.59437353515625,0.19457919030282644,0.06247545313537121,-0.566323969694972,-0.2747311294078827,-0.21591491997241974,-0.19960308074951172
1772376369350322400,4.604322509765625,0.2090472761163488,0.06071662676930427,-0.5273270073026418,-0.2412317544221878,-0.1739182025194168,-0.19825074076652527
1772376369360272400,4.6142724609375,0.3361640186514705,0.12597265053391457,-0.41790860120654105,-0.2160060554742813,-0.1446191668510437,-0.1878582239151001
1772376369370222300,4.624222412109375,0.4924016051981598,0.15211656109392643,-0.30855040086507796,-0.20050406455993652,-0.08237309753894806,-0.18898899853229523
1772376369380172500,4.634172607421875,0.42795857831686734,0.1080108773857355,-0.33181671016216274,-0.20065613090991974,-0.02631188929080963,-0.18271617591381073
1772376369390122500,4.64412255859375,0.33434747074879706,0.12501286559104918,-0.4181792348414659,-0.19280166923999786,0.048940785229206085,-0.17454427480697632
1772376369400071400,4.654071533203125,0.30688838593699036,0.049908232507109636,-0.5256511830449104,-0.18712054193019867,0.12902230024337769,-0.18092167377471924
1772376369410021600,4.664021728515625,0.33264914239831267,-0.07703940053880214,-0.5569347945809364,-0.19074617326259613,0.1911029815673828,-0.19037963449954987
1772376369419971600,4.6739716796875,0.39924397701863196,-0.14014789088070392,-0.5954769989430904,-0.19937294721603394,0.22925399243831635,-0.1983579397201538
1772376369429921300,4.68392138671875,0.5059126460151746,-0.17920213641822336,-0.6898667627334595,-0.2111169546842575,0.25274813175201416,-0.22332853078842163
1772376369439871500,4.69387158203125,0.6213978413369506,-0.2692892345786094,-0.7562216876506805,-0.2121947854757309,0.24886660277843475,-0.22324316203594208
1772376369449820400,4.7038203125,1.001613840747997,-0.09866144976019858,-0.7956056035339831,-0.1828068047761917,0.25563526153564453,-0.21081392467021942
1772376369459770400,4.713770263671875,1.284626114926487,-0.08512626088261604,-0.7235001522660255,-0.15258577466011047,0.22836372256278992,-0.2075297236442566
1772376369469720300,4.72372021484375,1.4894780947774648,-0.1662695896089077,-0.5842401501357555,-0.13151325285434723,0.17158645391464233,-0.20656725764274597
1772376369479670500,4.73367041015625,1.6497206791818142,-0.17239187188148497,-0.41571196794509885,-0.11973860114812851,0.09572337567806244,-0.22017447650432587
1772376369489620500,4.743620361328125,1.7138170115172862,-0.21839783625304698,-0.26184476379156113,-0.11465835571289062,0.007919217459857464,-0.20752686262130737
1772376369499569400,4.7535693359375,1.9199261518225073,-0.07141220830678939,-0.2095347308397293,-0.11645842343568802,-0.06356249749660492,-0.18138566613197327
1772376369509519400,4.763519287109375,1.9123133387312292,-0.0516442625194788,-0.2436637949347496,-0.1301739662885666,-0.08704864233732224,-0.1686408519744873
1772376369519469600,4.773469482421875,1.7522019794911146,-0.13495266032516956,-0.389763872218132,-0.15218302607536316,-0.08268163353204727,-0.159941166639328
1772376369529419500,4.78341943359375,1.602444110352546,-0.12680442518293858,-0.5803975032329559,-0.1605735719203949,-0.06077979505062103,-0.15059879422187805
1772376369539369500,4.793369384765625,1.4713102776631712,-0.038729835888743396,-0.760784465521574,-0.15300896763801575,-0.025251591578125954,-0.14825408160686493
1772376369549318700,4.803318603515625,1.2924639689452946,0.029037293913960455,-0.9318190775752067,-0.1411970555782318,0.018620524555444717,-0.1554265171289444
1772376369559268400,4.813268310546875,1.206624956683442,0.051073184633255005,-0.9597311668515205,-0.12134364247322083,0.05274704843759537,-0.16587835550308228
1772376369569218300,4.82321826171875,1.3366063314020633,0.0653378568291664,-0.8398597558021544,-0.07832879573106766,0.08738677948713303,-0.17128483951091766
1772376369579168300,4.833168212890625,1.4479565823435783,0.14936521655917168,-0.637705198341608,-0.022988084703683853,0.08156254887580872,-0.14704221487045288
1772376369589118500,4.843118408203125,1.4977821050032973,0.3157540486335754,-0.5431809945166111,0.013994700275361538,0.057357337325811386,-0.12090568244457245
1772376369599068000,4.85306787109375,1.3884791419804094,0.2942126634329557,-0.5973287642896175,0.041030336171388626,0.019645201042294502,-0.11086376756429672
1772376369609017900,4.863017822265625,1.5661363870441913,0.1292564945101738,-0.5640577783286571,0.12019146978855133,-0.004757344257086515,-0.08313760161399841
1772376369618968000,4.872968017578125,1.881236209552735,0.24052432786524294,-0.14528059586035086,0.26081472635269165,-0.030975498259067535,-0.026322850957512856
1772376369628918000,4.88291796875,2.008190126208961,0.7829793461948633,0.5454290657043457,0.4280710816383362,-0.09418562799692154,0.06100299954414368
1772376369638868000,4.892867919921875,1.7203177717134355,1.619858624881506,1.0492097777247429,0.5546987056732178,-0.2338712215423584,0.1737746298313141
1772376369648817000,4.90281689453125,1.1807020684629679,2.3881764085173605,1.0333446845948695,0.6379570960998535,-0.3239119052886963,0.2379980832338333
1772376369658767000,4.91276708984375,0.2073743014028296,2.4909482162058354,0.4419178378254175,0.7245445251464844,-0.3144967555999756,0.2515560984611511
1772376369668716800,4.922716796875,-0.6654027680844068,2.2158365590840576,-0.15588497371673582,0.8489304184913635,-0.19238683581352234,0.25240299105644226
1772376369678666800,4.932666748046875,-1.3011303827427327,1.7193629552066325,-0.3556090891599655,0.9942450523376465,-0.0035460893996059895,0.2623405456542969
1772376369688617000,4.942616943359375,-1.7407050184428692,0.983880104202032,-0.06936291109416634,1.1142550706863403,0.2483583241701126,0.28915247321128845
1772376369698566000,4.95256591796875,-1.9285862820096313,0.2066682354927063,0.38935415890607983,1.1805429458618164,0.5036994814872742,0.342938095331192
1772376369708515800,4.962515869140625,-1.7763209600947796,-0.6197901869446039,0.6832149036288261,1.1628202199935913,0.6634398698806763,0.3959754705429077
1772376369718465800,4.9724658203125,-1.5001080637328326,-1.8751877231687306,1.1086088921546935,1.0701147317886353,0.7675505876541138,0.4539198577404022
1772376369728416000,4.982416015625,-1.1175712201587855,-2.267143552473187,1.4330454289376735,0.9999308586120605,0.8295426368713379,0.5183902382850647
1772376369738366000,4.992365966796875,-0.97790176044479,-1.396680568614602,1.1158786639619618,1.0279972553253174,0.713361382484436,0.5540627241134644
1772376369748315000,5.00231494140625,-0.9937298094999044,-0.5079699804037809,0.19708514524176715,1.153993844985962,0.6393499970436096,0.514942467212677
1772376369758264800,5.012264892578125,-1.0901899498235434,0.11343231791257857,-0.6475320342205464,1.2691200971603394,0.6596192121505737,0.4936750531196594
1772376369768215000,5.022215087890625,-0.7032299560450017,0.8606640588998794,-0.9856476983964443,1.3766454458236694,0.6440152525901794,0.48111239075660706
1772376369778164700,5.032164794921875,-0.4426282145844772,1.7896201482594012,-1.3484819165043531,1.4765905141830444,0.6102397441864014,0.5101646780967712
1772376369788114000,5.042114013671875,-0.17612086580935865,1.6708967382013797,-1.1767324341796337,1.4821162223815918,0.5705117583274841,0.5303295850753784
1772376369798063900,5.05206396484375,-0.27672828027186913,1.1374842735052109,-0.6760409203462302,1.3628756999969482,0.46646344661712646,0.5417662262916565
1772376369808013800,5.062013916015625,-0.1547571204642765,1.1521890906840562,-0.02505830728039145,1.2679462432861328,0.37006738781929016,0.5135092735290527
1772376369817963800,5.0719638671875,-0.4272956208961084,1.505919526490569,0.03466404775455594,1.227961778640747,0.18594691157341003,0.4788535237312317
1772376369827914000,5.0819140625,-0.5417269232507794,1.3905284757256506,0.32984804043769833,1.157118797302246,0.08445411175489426,0.41425588726997375
1772376369837863000,5.09186279296875,-0.6344234001919626,0.8991402122884988,0.74495795083642,1.052330493927002,0.007260472513735294,0.3958602249622345
1772376369847812900,5.101812744140625,-0.3495007988801226,0.19057810143530368,0.8211810665562749,0.9181233644485474,0.02201065793633461,0.40492773056030273
1772376369857762800,5.1117626953125,-0.15389632065016776,-0.2890565958440304,0.8456967913925647,0.8088992238044739,0.05661087855696678,0.43355873227119446
1772376369867713000,5.121713134765625,-0.11651914147939532,-0.549857988062501,0.8739066945716738,0.7444712519645691,0.0741504654288292,0.4313472509384155
1772376369877663000,5.1316630859375,-0.5410664865806698,-0.47596682242155075,0.9501914773508906,0.6541425585746765,0.0936240702867508,0.37394338846206665
1772376369887612000,5.14161181640625,-1.1285853661261498,-0.39936405973434447,0.9882184256672859,0.5692473649978638,0.10626289248466492,0.3187640309333801
1772376369897561900,5.151561767578125,-1.6099765516839921,-0.44511458804011345,0.794336021989584,0.5045104026794434,0.02394309639930725,0.24889406561851501
1772376369907512000,5.161511962890625,-1.768462209418416,-0.5264952326536179,0.8522510353416204,0.46711215376853943,-0.12818385660648346,0.1695917844772339
1772376369917461800,5.171461669921875,-1.5614948448486625,-0.8025012082666159,1.0073723312094807,0.4426650404930115,-0.1805313527584076,0.13710947334766388
1772376369927411700,5.18141162109375,-1.122249733363837,-1.2234604292154312,1.0742027646839618,0.41654637455940247,-0.12394583970308304,0.13255999982357025
1772376369937361000,5.19136083984375,-0.9503883150972425,-1.420580499640107,0.8605757960945367,0.37563925981521606,-0.04665100574493408,0.12297728657722473
1772376369947310800,5.201310791015625,-0.9792316938742994,-1.3815414516717195,0.6009063305154443,0.31965988874435425,0.03178334981203079,0.09846554696559906
1772376369957260800,5.2112607421875,-0.9991754346199333,-1.10904436096251,0.49245004744976756,0.28559839725494385,0.0955367237329483,0.09116296470165253
1772376369967211000,5.2212109375,-0.7833868310172111,-0.7261275781601667,0.4810217677235603,0.2589641213417053,0.10466870665550232,0.09468606114387512
1772376369977161000,5.231160888671875,-0.7409827635951339,-0.23775369410812852,0.4781821603834629,0.2512526214122772,0.10756749659776688,0.06999076902866364
1772376369987110000,5.24110986328125,-0.821153374831751,0.05885726263821125,0.4859849430888891,0.24180105328559875,0.10723273456096649,0.054881591349840164
1772376369997059800,5.251059814453125,-0.809137066084519,0.014375731354951857,0.54574733787328,0.21605584025382996,0.10385990142822266,0.03728575259447098
1772376370007010000,5.261010009765625,-0.897600435500592,-0.09203881675004959,0.6131511873215436,0.17801791429519653,0.07769328355789185,-0.00010210089385509491
1772376370016960000,5.2709599609375,-1.0796608839593826,-0.21253157456815241,0.6264207110002636,0.12571778893470764,0.05453430861234665,-0.051196977496147156
1772376370026910000,5.280909912109375,-1.3250415658146142,-0.3981044150620699,0.577991611135006,0.08032393455505371,0.04482948035001755,-0.12111613899469376
1772376370036859000,5.29085888671875,-1.420568370810896,-0.5193617275118827,0.42039983350038523,0.036640167236328125,0.061045631766319275,-0.19081498682498932
1772376370046808800,5.300808837890625,-1.3243774028174577,-0.5876607722342014,0.22173545624315738,-0.018416158854961395,0.11017829179763794,-0.25408637523651123
1772376370056758800,5.3107587890625,-1.0561994174163787,-0.5482429540812969,0.0759609576523304,-0.06464479863643646,0.1653919667005539,-0.28823667764663696
1772376370066708700,5.320708740234375,-0.6628105596341193,-0.41275370266139505,0.0243275087878108,-0.10391896963119507,0.21215973794460297,-0.30256661772727966
1772376370076658000,5.330657958984375,-0.3665837068345397,-0.35894027940928935,0.002528933955729008,-0.1307494342327118,0.2310929149389267,-0.3095099627971649
1772376370086608000,5.34060791015625,-0.18683727093916386,-0.36846506360173226,-0.030460604715347287,-0.1426473706960678,0.2506021559238434,-0.3050701916217804
1772376370096557800,5.350557861328125,0.03471227081045508,-0.4173351852327585,-0.10706161383688449,-0.14579196274280548,0.25657179951667786,-0.2828090488910675
1772376370106507800,5.3605078125,0.25232158703431484,-0.5144394686788321,-0.2472013214111328,-0.15254680812358856,0.24699878692626953,-0.26268407702445984
1772376370116458000,5.3704580078125,0.46982115927338597,-0.5270546201020478,-0.3903396262794733,-0.16072428226470947,0.24446523189544678,-0.23251722753047943
1772376370126407000,5.380406982421875,0.7572960388839245,-0.587267973524332,-0.45473961773663757,-0.16633182764053345,0.20205599069595337,-0.1895143687725067
1772376370136356900,5.39035693359375,1.0173029197238386,-0.5764461352586746,-0.5360486584186553,-0.17182770371437073,0.12796556949615479,-0.13009525835514069
1772376370146307000,5.40030712890625,1.1462350045852363,-0.5654109465032816,-0.6466150655061006,-0.1786390095949173,0.04880497604608536,-0.06122297793626785
1772376370156257000,5.410257080078125,1.280499828776717,-0.6833499281853437,-0.8245002741068601,-0.19004841148853302,-0.07757197320461273,-0.052192531526088715
1772376370166206700,5.420206787109375,1.400907684790343,-0.5898129818320273,-1.0795552316278219,-0.2014845609664917,-0.14779126644134521,-0.08324579149484634
1772376370176156000,5.430156005859375,1.6904621471539139,-0.44520460441112514,-1.2323434083729983,-0.20982635021209717,-0.11529869586229324,-0.08255822956562042
1772376370186105900,5.44010595703125,1.8102055479094386,-0.5116583135277033,-1.204256839312613,-0.18115928769111633,-0.12345382571220398,-0.10029834508895874
1772376370196055800,5.450055908203125,1.5433753969207404,-0.6001426526665687,-1.0324512428864836,-0.17811846733093262,-0.13882088661193848,-0.06983184814453125
1772376370206005800,5.460005859375,1.3033952589347957,-1.0465595554769038,-0.7527680400654673,-0.23141364753246307,-0.11672409623861313,-0.022203341126441956
1772376370215956000,5.4699560546875,0.9367853947456926,-1.5609306350946426,-0.6696940355375409,-0.2809499204158783,-0.11188048869371414,-0.014413727447390556
1772376370225905000,5.47990478515625,0.6226352741774172,-1.75028942386806,-0.8120482042908668,-0.3182096779346466,-0.13517595827579498,-0.01365632377564907
1772376370235854800,5.489854736328125,0.45105354963503774,-1.7152660412818193,-0.9433487718492746,-0.3452717363834381,-0.1598212569952011,0.0012702272506430745
1772376370245804800,5.4998046875,0.38408900491949166,-1.4974416210025547,-1.0520455856725572,-0.3558428883552551,-0.18769922852516174,0.02364823780953884
1772376370255755000,5.509755126953125,0.4244786272466182,-1.1357295387923716,-1.1887459664478897,-0.3534264862537384,-0.22453023493289948,0.04092329740524292
1772376370265705000,5.519705078125,0.5994574103487655,-0.8002326788127422,-1.2653373309582472,-0.3091338574886322,-0.24730852246284485,0.05639200285077095
1772376370275654000,5.52965380859375,0.8913961740329861,-0.3648182315319776,-1.2317366746515035,-0.225504070520401,-0.2772579491138458,0.08495873212814331
1772376370285604000,5.53960400390625,1.146759320720285,0.12816402309834957,-1.2114829911738634,-0.14204992353916168,-0.3136231601238251,0.11885891109704971
1772376370295554000,5.549553955078125,1.2083012193325906,0.5293219805121422,-1.334144909724593,-0.08383858948945999,-0.3280942142009735,0.1546466052532196
1772376370305503700,5.559503662109375,1.1052332051765172,0.6374532694071531,-1.667080394783616,-0.06601937860250473,-0.294509619474411,0.16665533185005188
1772376370315453000,5.569452880859375,0.797364722160995,0.7646890717446804,-1.955716134867072,-0.06019335612654686,-0.2573554515838623,0.1672782450914383
1772376370325403000,5.57940283203125,0.7393908182285726,0.6588292349129915,-2.0587783038042486,-0.03805582970380783,-0.21017223596572876,0.17903636395931244
1772376370335352800,5.589352783203125,0.8433592883557081,0.2855447883307934,-2.227309846995771,0.00568379508331418,-0.17364808917045593,0.1937699019908905
1772376370345302800,5.599302734375,0.8456442574877291,-0.08589432264566421,-2.1994266915529965,0.04328603297472,-0.15867632627487183,0.20781302452087402
1772376370355253000,5.6092529296875,0.8379885551027954,-0.044863808599114416,-1.8621157678887248,0.086427241563797,-0.14420174062252045,0.21173599362373352
1772376370365202000,5.619201904296875,0.8497560036554932,0.2441816813290119,-1.4993731735870242,0.13426560163497925,-0.16667908430099487,0.19964256882667542
1772376370375151900,5.62915185546875,0.493926951601915,0.423171636301279,-1.2506265224300324,0.14655359089374542,-0.25503820180892944,0.15681181848049164
1772376370385101800,5.639101806640625,-0.37338929519616065,0.595759323015809,-1.0742232229501008,0.13337253034114838,-0.3522174656391144,0.08065526932477951
1772376370395052000,5.649052001953125,-1.2251018397469073,0.9909919820338488,-1.064338373273611,0.12443084269762039,-0.3930933177471161,0.023054154589772224
1772376370405002000,5.659001953125,-1.677045031698048,1.8213725463509558,-0.8830328348353504,0.10433409363031387,-0.3517349660396576,0.0015794873470440507
1772376370414951000,5.668950927734375,-1.752764289548993,2.9923546003103256,-0.14485957570299504,0.09126109629869461,-0.29478174448013306,0.02586105838418007
1772376370424901000,5.678901123046875,-1.5577245325297115,3.7773844492942095,0.3150526223659515,0.0952015072107315,-0.18484511971473694,0.09794776886701584
1772376370434850800,5.688850830078125,-0.9219477449674158,3.290696910893917,0.1612301341369748,0.06297218054533005,0.0991780012845993,0.25819075107574463
1772376370444800800,5.69880078125,0.02298650597501546,1.3979168324112892,0.18894494727551936,-0.10400455445051193,0.33696338534355164,0.3480546176433563
1772376370454751000,5.7087509765625,0.4642532594805583,-1.0031038601100444,0.7455477334231138,-0.316438764333725,0.3088724613189697,0.28364279866218567
1772376370464700000,5.718699951171875,0.010935052849166094,-2.5862790602385997,0.9215867296352982,-0.3832511007785797,0.07134193181991577,0.10658226907253265
1772376370474649900,5.72864990234375,-0.7735219281502067,-3.035074967139959,0.40775808633118865,-0.31771472096443176,-0.26291611790657043,-0.0607977993786335
1772376370484599800,5.738599853515625,-1.0412414291940628,-2.4542577771902083,0.17981354631483554,-0.2626480162143707,-0.5128090381622314,-0.17850792407989502
1772376370494550000,5.748550048828125,-0.6969339246407151,-1.3504267669618129,0.3353530675947666,-0.2913839519023895,-0.6077060103416443,-0.2179139256477356
1772376370504500000,5.7585,0.03222987941019237,-0.17045359729528425,0.7512626039385795,-0.38718265295028687,-0.5739600658416748,-0.1784546673297882
1772376370514449000,5.768448974609375,0.6931497299268842,0.7926607822537421,1.3457418240159749,-0.4856257736682892,-0.5279309153556824,-0.08792056888341904
1772376370524398800,5.77839892578125,0.6781855311594903,1.2084148357748985,1.5589577275864779,-0.5191850662231445,-0.5406402945518494,-0.015005082823336124
1772376370534349000,5.78834912109375,-0.11348686111140996,1.1035831729471683,1.3150713759422301,-0.4995889365673065,-0.6061330437660217,0.009655056521296501
1772376370544299000,5.798299072265625,-0.9315937443867325,0.6079220544964075,1.0682406414091588,-0.47788843512535095,-0.6646743416786194,0.00704515865072608
1772376370554248000,5.808248046875,-1.2956819080784916,-0.029439444974064824,0.9757283619284629,-0.47300833463668823,-0.6875760555267334,-0.02094506286084652
1772376370564198000,5.818197998046875,-1.2871119403928517,-0.40917292156517504,0.9166735308915376,-0.48103588819503784,-0.6574463844299316,-0.06134894862771034
1772376370574147800,5.82814794921875,-0.9075130499668419,-0.5283697943538427,0.8848509901732206,-0.4717544615268707,-0.661038875579834,-0.07229732722043991
1772376370584097800,5.838097900390625,-0.3534237444775179,-0.4846294368267059,0.9845312615871429,-0.4412716329097748,-0.7060787677764893,-0.07612083107233047
1772376370594048000,5.848048095703125,-0.06827621183600276,-0.33733284323513507,1.0684884786903857,-0.41601818799972534,-0.7132142782211304,-0.07059537619352341
1772376370603997000,5.857996826171875,-0.022234682960715145,-0.21425532962083815,1.0649107663340867,-0.4352312982082367,-0.7171562910079956,-0.059809572994709015
1772376370613947000,5.86794677734375,0.02193613840555772,-0.08695113822221756,1.2018570846945047,-0.4947890639305115,-0.7296170592308044,-0.04835085570812225
1772376370623897000,5.87789697265625,0.007419957400299608,-0.010895488023757933,1.281679832341522,-0.5339913368225098,-0.7041319608688354,-0.03941328451037407
1772376370633847000,5.887846923828125,-0.07737650527236983,-0.002601122409105301,1.1683540435433386,-0.5724242329597473,-0.7236332297325134,-0.03574005514383316
1772376370643797000,5.897796875,-0.027618860217090695,-0.2008861449599266,1.1899772618085145,-0.5758165717124939,-0.6925147771835327,-0.03728815168142319
1772376370653746200,5.90774609375,0.015806239082105458,-0.35711540206968784,0.9529840306788683,-0.5773518085479736,-0.6637120246887207,-0.025990022346377373
1772376370663696100,5.917696044921875,0.030152671277336774,-0.3038070057302713,0.8576075939387082,-0.5767688751220703,-0.6040279269218445,-0.009176954627037048
1772376370673646000,5.92764599609375,0.004403020731918513,-0.15297931540310383,0.759288674005866,-0.591391921043396,-0.5164617896080017,0.004686062224209309
1772376370683596000,5.937595947265625,-0.16447032163459807,0.03516308331787586,0.7041513086736202,-0.5913253426551819,-0.4100053906440735,0.02560705505311489
1772376370693545200,5.947545166015625,-0.38178485616296526,0.21900924614965914,0.5823967142261565,-0.5760162472724915,-0.317403107881546,0.0424739234149456
1772376370703495000,5.957494873046875,-0.4630563413135707,0.221068516767025,0.4841694180995226,-0.5597395300865173,-0.24934548139572144,0.058799635618925095
1772376370713444900,5.96744482421875,-0.2469505067215301,0.04269230977892875,0.5635762784220278,-0.5445033311843872,-0.15229830145835876,0.06561838835477829
1772376370723395000,5.97739501953125,-0.13328198716659098,-0.17097440629899502,0.49611236934959885,-0.513451099395752,-0.0847805067896843,0.08184848725795746
1772376370733345000,5.987344970703125,-0.11884024137072265,-0.31804478991925716,0.4173405189950019,-0.4936287999153137,-0.08840235322713852,0.06540733575820923
1772376370743294000,5.9972939453125,-0.2805802795249037,-0.3621791152000427,0.5805678182985633,-0.46241122484207153,-0.11438575387001038,0.02851909212768078
1772376370753244000,6.007243896484375,-0.28352150234226137,-0.4030009549319744,0.5425958881050348,-0.4202635884284973,-0.11585329473018646,0.012806175276637077
1772376370763194000,6.017194091796875,-0.15718392748609183,-0.43327918881773947,0.5187632501620799,-0.3939225375652313,-0.09835978597402573,0.003941843751817942
1772376370773144000,6.02714404296875,-0.028558771415706723,-0.35573651493191716,0.4534920288283378,-0.37448737025260925,-0.08186797052621841,-0.009571169503033161
1772376370783094000,6.037093994140625,0.07363213111227378,-0.24114099845886228,0.42799101928174493,-0.3640080988407135,-0.08681319653987885,-0.02825777232646942
1772376370793043200,6.047043212890625,0.15879784722244367,-0.18609891019463537,0.4049466821722686,-0.35783249139785767,-0.09370633959770203,-0.042119454592466354
1772376370802993200,6.0569931640625,0.20920206481926143,-0.08214169211387634,0.3548820169944316,-0.3569997251033783,-0.09765421599149704,-0.05309833586215973
1772376370812943000,6.066943115234375,0.26297082694573326,-0.07801789018213748,0.3856693694461137,-0.35648995637893677,-0.07981032878160477,-0.05067046731710434
1772376370822892800,6.076892822265625,0.26054652240825815,-0.19834815091490746,0.3918454277325421,-0.34383702278137207,-0.09073860943317413,-0.06836052238941193
1772376370832843000,6.086843017578125,0.20126555446526034,-0.15617489657402037,0.36403665270023045,-0.34215787053108215,-0.09817034006118774,-0.09021981060504913
1772376370842792000,6.0967919921875,0.3072017992677167,-0.06529518673121928,0.3889700914919376,-0.3473963141441345,-0.10529775172472,-0.09886842966079712
1772376370852742000,6.106741943359375,0.4101750112798065,0.02225041025280952,0.36605851391665634,-0.3424133360385895,-0.09974522888660431,-0.10335778445005417
1772376370862692000,6.116692138671875,0.44411669957656413,0.11832768873870372,0.285769244736433,-0.34010252356529236,-0.0838642567396164,-0.10331464558839798
1772376370872642000,6.12664208984375,0.4586444431554526,0.014368132570385932,0.2726198403060436,-0.32728099822998047,-0.06492865830659866,-0.10147585719823837
1772376370882592000,6.136592041015625,0.4083106787126511,-0.17214111199080942,0.2044148305427283,-0.3149774670600891,-0.06647249311208725,-0.10632920265197754
1772376370892541000,6.146541015625,0.30683376967292275,-0.2228986548036337,0.11883161967284976,-0.30607518553733826,-0.055325698107481,-0.11387360095977783
1772376370902491100,6.1564912109375,0.23117826124057173,-0.29524843622148034,0.05304485003240406,-0.3102385103702545,-0.02745545282959938,-0.1178281307220459
1772376370912441000,6.166441162109375,0.18565916707050054,-0.3148264123946428,-0.041922494450211525,-0.30995386838912964,0.001920756883919239,-0.11051250249147415
1772376370922391000,6.17639111328125,0.21018252722397446,-0.33370705395340916,-0.12957326884176582,-0.31096428632736206,0.03265230357646942,-0.11336793750524521
1772376370932340000,6.186340087890625,0.20825926754381507,-0.31074761864840983,-0.20543719586040823,-0.30775460600852966,0.05946550890803337,-0.12183079123497009
1772376370942290200,6.196290283203125,0.22595409685149787,-0.19758184271752832,-0.3112579793233424,-0.3073021173477173,0.0988648533821106,-0.13257504999637604
1772376370952239900,6.206239990234375,0.29268311577811834,-0.15059914226830004,-0.4061018800893798,-0.3038174510002136,0.1256798952817917,-0.1377539038658142
1772376370962189800,6.21618994140625,0.4338457731919363,-0.15601006140112875,-0.4751005975136533,-0.29676246643066406,0.14802008867263794,-0.14115342497825623
1772376370972140000,6.22614013671875,0.5575196087315678,-0.1705564731478691,-0.49561548921074716,-0.286221981048584,0.17450249195098877,-0.1471448689699173
1772376370982089000,6.2360888671875,0.7279884035959839,-0.2298562188565731,-0.4364425847521052,-0.278447687625885,0.1968996673822403,-0.1553812325000763
1772376370992039000,6.246038818359375,0.79929481344074,-0.23620588014423846,-0.3408329603105783,-0.27115100622177124,0.2010093331336975,-0.17713499069213867
1772376371001989000,6.255989013671875,0.8690157807249576,-0.2342033081501722,-0.2650999661952257,-0.2664499878883362,0.1830367147922516,-0.1934729516506195
1772376371011939000,6.26593896484375,0.9361390596661716,-0.15546587152183056,-0.2427262218236923,-0.26078683137893677,0.16248032450675964,-0.20849958062171936
1772376371021889000,6.275888916015625,0.9445953378442674,-0.09305646935999393,-0.2545476290533319,-0.25751566886901855,0.1617889702320099,-0.2230340540409088
1772376371031838000,6.285837890625,0.9310389600481838,-0.028415947145223615,-0.2527501694436185,-0.24465814232826233,0.1681935042142868,-0.2279304713010788
1772376371041788200,6.2957880859375,0.9569348141312599,-0.01974748752117157,-0.22176411608206106,-0.23243184387683868,0.18223342299461365,-0.2384166717529297
1772376371051738000,6.305738037109375,1.0059125608552246,-0.03877952024936676,-0.20161036758124828,-0.22776107490062714,0.2076314091682434,-0.23838956654071808
1772376371061688000,6.31568798828125,1.0275991997454315,-0.11367314093112944,-0.1643038424938917,-0.2311536818742752,0.22659525275230408,-0.2374257594347
1772376371071637000,6.325636962890625,1.004263697669655,-0.1784557019650936,-0.10577740097893401,-0.2455521821975708,0.22976109385490417,-0.23227648437023163
1772376371081587200,6.335587158203125,0.9971212785691023,-0.22610709545612334,-0.06237142650531605,-0.2623586058616638,0.2050032764673233,-0.22544734179973602
1772376371091537000,6.345536865234375,0.9792837163224816,-0.2446528059720993,-0.06516600739359855,-0.2624737620353699,0.17808176577091217,-0.2111489623785019
1772376371101486800,6.35548681640625,0.9859884746581316,-0.1788695434629917,-0.09304886144227348,-0.2541620135307312,0.13652072846889496,-0.19450020790100098
1772376371111437000,6.36543701171875,1.1052549055516718,-0.09133271430730819,-0.07979308316111564,-0.23837947845458984,0.06593982875347137,-0.17190662026405334
1772376371121386000,6.375385986328125,1.2950877415776252,-0.05194295320510864,-0.10759878945350647,-0.22990316152572632,-0.0029441635124385357,-0.15270788967609406
1772376371131336000,6.3853359375,1.431235164645314,-0.07657178302705288,-0.18268062618374822,-0.22042351961135864,-0.04504533112049103,-0.13599056005477905
1772376371141286100,6.3952861328125,1.469307705669105,-0.13694938710033894,-0.34469138930439946,-0.21798032522201538,-0.012772876769304276,-0.11760275810956955
1772376371151236000,6.405236083984375,1.245796910316497,-0.09496084167659283,-0.7134405305445194,-0.2210366576910019,0.07229466736316681,-0.10393788665533066
1772376371161186000,6.41518603515625,0.8476897187754512,-0.021287118178606033,-0.9722831899106502,-0.24509885907173157,0.21817196905612946,-0.14494310319423676
1772376371171135000,6.425135009765625,0.36120329243782906,-0.02246200717687607,-1.0562824925899506,-0.2523549795150757,0.3736938238143921,-0.12523065507411957
1772376371181085200,6.435085205078125,0.5565457587307319,0.17518647103607654,-1.1532570121765136,-0.22671164572238922,0.5691956877708435,-0.08761031180620193
1772376371191035100,6.44503515625,0.7691270541921258,-0.04965338096320629,-1.2052677699208258,-0.16177833080291748,0.7083563208580017,-0.09236658364534378
1772376371200984800,6.45498486328125,1.0457984349112956,-0.23783494265079497,-1.0541045640289783,-0.08356369286775589,0.7639380693435669,-0.10640117526054382
1772376371210935000,6.46493505859375,1.5861942556887865,-0.08374035948216915,-0.8243816161632538,0.004762159660458565,0.7831870317459106,-0.08457064628601074
1772376371220884000,6.474884033203125,1.9511549644313753,0.30670915691256523,-0.7679168016195297,0.09251517802476883,0.7836754322052002,-0.04603736475110054
1772376371230834000,6.484833984375,2.0057393720559773,0.5472966131418943,-0.8260171084105968,0.21591301262378693,0.7665735483169556,-0.021240144968032837
1772376371240784000,6.494783935546875,2.230239762967825,0.724621849772334,-0.476337409299612,0.388526052236557,0.6967646479606628,0.04819831997156143
1772376371250734000,6.504734130859375,2.461846332623064,1.1537462569981813,0.31737200522422787,0.5523130297660828,0.5469212532043457,0.1815510392189026
1772376371260683000,6.51468310546875,2.361516511259228,1.8553893822431564,1.065576975157857,0.647179365158081,0.34304291009902954,0.34238332509994507
1772376371270633000,6.524633056640625,1.8606395578563213,2.716124168291688,1.2346201211333274,0.6935659646987915,0.16658347845077515,0.4652016758918762
1772376371280583000,6.5345830078125,1.0249001699198037,3.3181659325778483,0.7186784311980009,0.7556388974189758,0.08893821388483047,0.4946295917034149
1772376371290533000,6.544533203125,0.1499777589669451,3.3170985956072805,0.011567158473934977,0.8714257478713989,0.130303755402565,0.4550917148590088
1772376371300483000,6.554483154296875,-0.5622227083886042,2.7539550095140934,-0.3519177968939766,1.048269510269165,0.29613080620765686,0.39837679266929626
1772376371310432000,6.564431884765625,-1.0825020987346767,1.7845733862638473,-0.20308858690764753,1.2244830131530762,0.5031484365463257,0.3554930090904236
1772376371320382200,6.57438232421875,-1.517040639963746,0.5132289238452911,0.33302382092960175,1.311768651008606,0.6438272595405579,0.2942490875720978
1772376371330332200,6.584332275390625,-1.9117538051523266,-0.9748416422218084,0.9920704979855567,1.318550705909729,0.7199310064315796,0.2831735908985138
1772376371340281900,6.59428173828125,-1.5635291271552443,-1.6127829874068498,1.2354174089908598,1.2982174158096313,0.859029233455658,0.3710762858390808
1772376371350232000,6.604232177734375,-1.0487214096859097,-1.2988824576854705,1.130721355241537,1.2845966815948486,0.9557304978370667,0.41993287205696106
1772376371360181000,6.614180908203125,-1.1949069002304225,-1.2832798148840665,0.8616536544591188,1.3001843690872192,0.9705379009246826,0.39860787987709045
1772376371370131000,6.624130859375,-1.390962483228743,-0.8993331045120954,-0.1577392232812941,1.4395153522491455,0.8812393546104431,0.40944287180900574
1772376371380081000,6.634080810546875,-1.3155442541509865,0.1802116057217121,-1.3468734583944082,1.527138352394104,0.8000989556312561,0.43554210662841797
1772376371390031000,6.644031005859375,-1.0192044424962252,0.598124298581481,-1.035527873852849,1.5311692953109741,0.7015616297721863,0.46703094244003296
1772376371399980000,6.65397998046875,-0.41886663258373735,1.0857359660893677,-0.6904005773492157,1.4660634994506836,0.6570740938186646,0.4976152181625366
1772376371409930000,6.663929931640625,-0.18691022657752035,1.4415683426111936,-0.2847755575239658,1.3848782777786255,0.515273928642273,0.5118408203125
1772376371419880000,6.6738798828125,-0.3572021670376882,1.6930121238976716,-0.4187602495998144,1.2762902975082397,0.24117633700370789,0.3924321234226227
1772376371429830100,6.683830078125,-0.6828751502804458,1.6464432649463414,-0.3308339827351272,1.1947312355041504,-0.07627089321613312,0.2780228555202484
1772376371439780000,6.693780029296875,-0.2647412889506668,1.5935475410610436,0.12126856449618935,1.174131989479065,-0.17362567782402039,0.22477614879608154
1772376371449729000,6.70372900390625,0.039750812966935334,1.1652063931673764,0.38469913617447016,1.1631174087524414,-0.25406643748283386,0.222146674990654
1772376371459679200,6.71367919921875,0.1530473391380161,0.6507020425587892,0.6689239279478788,1.0796868801116943,-0.27080944180488586,0.2179705798625946
1772376371469629000,6.72362890625,-0.15869268808122725,0.06410860729515552,1.0192749504491687,0.9303821325302124,-0.23961976170539856,0.20936709642410278
1772376371479579000,6.733578857421875,-0.633440307438746,-0.5980535714328289,1.1980576924115418,0.7722499966621399,-0.21766066551208496,0.20407487452030182
1772376371489528000,6.743528076171875,-0.9473851877585053,-1.0827017129600047,1.0960206287384033,0.6208935976028442,-0.21118824183940887,0.17832323908805847
1772376371499478000,6.75347802734375,-1.1725429466005415,-1.421518657273054,1.037965330132842,0.48093119263648987,-0.20265254378318787,0.13508522510528564
1772376371509428000,6.763427978515625,-1.4641232887685298,-1.7291805848658084,1.0168599982619284,0.3899536430835724,-0.18343783915042877,0.06572151929140091
1772376371519378000,6.7733779296875,-1.6310498809814453,-1.8092355338335036,0.8614569628432392,0.32410699129104614,-0.1974756270647049,0.013823436573147774
1772376371529328000,6.783328125,-1.4757149423629046,-1.5936048242062328,0.8173536172226071,0.2561044692993164,-0.21688313782215118,-0.03816912695765495
1772376371539277000,6.793277099609375,-1.2867964447028934,-1.2311574134588241,0.8575161162629723,0.18475386500358582,-0.20608508586883545,-0.063946932554245
1772376371549227000,6.80322705078125,-1.0817412704300136,-0.915169556069374,0.7119584752932191,0.14904890954494476,-0.15505698323249817,-0.06255955994129181
1772376371559177000,6.813177001953125,-0.7992936443969607,-0.6262257729500532,0.5724041663914918,0.12674333155155182,-0.08046317100524902,-0.042245760560035706
1772376371569127200,6.823127197265625,-0.4998750463513657,-0.45513037061989303,0.5323787377342581,0.09802237898111343,0.009061581455171108,-0.012597784399986267
1772376371579077000,6.8330771484375,-0.42657939891815183,-0.39276480759978294,0.4622279276654124,0.07992726564407349,0.08683627098798752,-0.0009403296280652285
1772376371589026000,6.843026123046875,-0.591196362481825,-0.3049240270614624,0.40348289323002096,0.06963781267404556,0.1317630410194397,-0.0008848048746585846
1772376371598976000,6.85297607421875,-0.7932454502739011,-0.2026905640333891,0.45407530860900874,0.06928574293851852,0.15314236283302307,-0.008746722713112831
1772376371608925700,6.86292578125,-1.0056420733507723,-0.09204816910028457,0.6046463938266039,0.056069791316986084,0.15615002810955048,-0.03070414997637272
1772376371618876000,6.8728759765625,-1.3125459491178393,-0.058222471866011614,0.7144593521982431,0.04473032057285309,0.13807275891304016,-0.07179486751556396
1772376371628824800,6.882824951171875,-1.5092574387416242,-0.10996376501917839,0.7245929159387946,0.020966149866580963,0.1269882619380951,-0.12534791231155396
1772376371638774800,6.89277490234375,-1.5579254619292915,-0.20867022296488283,0.6836147166013717,-0.008363509550690651,0.11813830584287643,-0.18266765773296356
1772376371648724700,6.902724853515625,-1.4646478971645236,-0.2977759088724851,0.5574360221013427,-0.046516723930835724,0.12691205739974976,-0.22911031544208527
1772376371658675000,6.912675048828125,-1.2483613539770244,-0.3597299684822559,0.34770430738478897,-0.08507237583398819,0.1722443848848343,-0.26880258321762085
1772376371668625000,6.922625,-0.9130908500991761,-0.4338999510645866,0.1650052687615156,-0.12079748511314392,0.22099441289901733,-0.2972935140132904
1772376371678573800,6.93257373046875,-0.4995735061215236,-0.39749125159978865,0.04707973108291626,-0.13671573996543884,0.26386091113090515,-0.31418168544769287
1772376371688524000,6.94252392578125,-0.2028926259441301,-0.41427988931536674,-0.019014204810559748,-0.14357276260852814,0.31660622358322144,-0.2974920868873596
1772376371698474000,6.952473876953125,-0.09900416225064546,-0.561549594900012,-0.042759822057187556,-0.15153135359287262,0.352093905210495,-0.25908851623535156
1772376371708424000,6.962423828125,0.02093888926282525,-0.5998737725973129,-0.10304974784702062,-0.15641739964485168,0.3697497546672821,-0.2335977405309677
1772376371718374000,6.972373779296875,0.0753932042343542,-0.5483300478428602,-0.15007453387230635,-0.15474678575992584,0.36871138215065,-0.1954929679632187
1772376371728323000,6.982322998046875,0.3533205398313701,-0.5650070418775082,-0.23597382495403288,-0.13847647607326508,0.3539143204689026,-0.1648157387971878
1772376371738273000,6.99227294921875,0.5801908382123336,-0.4798877952575683,-0.3398597313642502,-0.11193514615297318,0.3164505660533905,-0.1455746740102768
1772376371748222700,7.00222265625,0.7212223435271531,-0.32107144426405426,-0.469332498973608,-0.0821080207824707,0.26144176721572876,-0.1218981146812439
1772376371758173000,7.0121728515625,0.8690273980975151,-0.1548836877197027,-0.5413692689195275,-0.037965863943099976,0.20639368891716003,-0.09198309481143951
1772376371768121900,7.022121826171875,1.0044072708588092,-0.08044190245866775,-0.7099941894829273,0.0034422967582941055,0.15843741595745087,-0.06193963438272476
1772376371778071800,7.03207177734375,1.0106804328441619,-0.1533943259447813,-0.8239832644954324,0.02405836060643196,0.12942573428153992,-0.050455283373594284
1772376371788021800,7.042021728515625,0.8613649006456137,-0.272837282449007,-0.7533741892650723,0.027652109041810036,0.07934577018022537,-0.035370878875255585
1772376371797972000,7.051971923828125,0.7202971184410154,-0.26252748535871506,-0.7009583578512072,0.009608394466340542,0.044403769075870514,-0.03369974344968796
1772376371807922000,7.061921875,0.5689227174839004,-0.257320564365387,-0.5851522965446114,-0.016060201451182365,0.036339275538921356,-0.016834542155265808
1772376371817870800,7.071870849609375,0.3954153586411848,-0.43944180310070513,-0.5145145797416567,-0.047585371881723404,0.07197875529527664,0.012882072478532791
1772376371827820800,7.08182080078125,0.18649024759978056,-0.6461585539102553,-0.575939939302206,-0.07871252298355103,0.0887124165892601,0.056983087211847305
1772376371837771000,7.09177099609375,-0.09133454093821346,-0.6916998233795165,-0.6528782175540924,-0.13232408463954926,0.09329917281866074,0.0811733826994896
1772376371847721000,7.101720947265625,-0.30109489722736177,-0.6746347068101167,-0.6520835600450634,-0.19587591290473938,0.15676507353782654,0.08815618604421616
1772376371857670000,7.111669921875,-0.3154837437922135,-0.5315040007263422,-0.6827262433290481,-0.20533253252506256,0.18452320992946625,0.11698783934116364
1772376371867620000,7.1216201171875,-0.18665610568597912,-0.2584370011746883,-0.7052619002640247,-0.1942080557346344,0.20127788186073303,0.14356598258018494
1772376371877569800,7.13156982421875,-0.0681914196293801,-0.12579378683567047,-0.771543759945035,-0.15250617265701294,0.21608266234397888,0.1251600831747055
1772376371887519700,7.141519775390625,0.10323379917703568,-0.08857143290042876,-0.8736050812765955,-0.09296447783708572,0.19030076265335083,0.09993947297334671
1772376371897470000,7.151469970703125,0.6578244417846203,-0.3107832744836807,-0.8578528008714318,-0.05600273236632347,0.16358418762683868,0.12547732889652252
1772376371907419000,7.1614189453125,1.1782415966335684,-0.5867921727061272,-0.7356503165259957,-0.013075550086796284,0.08980869501829147,0.17238052189350128
1772376371917368800,7.171368896484375,1.3717774518959223,-0.666277212831378,-0.7120639814943075,-0.017744868993759155,-0.036419015377759933,0.2055235654115677
1772376371927318800,7.18131884765625,1.5325436217829584,-0.6486269898504018,-0.8528528006270527,-0.05807304009795189,-0.10699139535427094,0.2269303798675537
1772376371937269000,7.19126904296875,1.7199813793659209,-0.5526672002643347,-1.0447741333648561,-0.07066313177347183,-0.15232080221176147,0.2436385303735733
1772376371947219000,7.201218994140625,1.7781177803836763,-0.4313905985921621,-1.023655065229535,-0.052164915949106216,-0.2265307754278183,0.24895545840263367
1772376371957167900,7.21116796875,1.6624109416678547,-0.3805634976744652,-0.951001916950941,-0.02433834597468376,-0.3274720311164856,0.2473793923854828
1772376371967117800,7.221117919921875,1.5168866184458136,-0.3275456087142229,-0.9551336099281906,-0.016144875437021255,-0.432876855134964,0.2415412813425064
1772376371977068000,7.231068115234375,1.511791487263888,-0.3268786692380905,-0.9598287820070981,-0.024619853124022484,-0.5287581086158752,0.2369433343410492
1772376371987018000,7.24101806640625,1.4997721097767351,-0.3798725928008556,-0.9239110809296369,-0.056401561945676804,-0.6011268496513367,0.23043642938137054
1772376371996967000,7.250966796875,1.4518684950903058,-0.4401888220757246,-0.8366969078570604,-0.09213612228631973,-0.6567152738571167,0.22363604605197906
1772376372006917000,7.260917236328125,1.2742295163355768,-0.5334878680199384,-0.7623989149808883,-0.13531026244163513,-0.6964778304100037,0.2142796367406845
1772376372016866800,7.27086669921875,0.8920176669321954,-0.6833160259157419,-0.7634715126484632,-0.16590945422649384,-0.7543259263038635,0.20215080678462982
1772376372026816800,7.280816650390625,0.42344986872076984,-0.647966480115056,-0.7323565356776118,-0.21199986338615417,-0.7819586992263794,0.18831880390644073
1772376372036767000,7.29076708984375,0.09119381729327142,-0.6459083785414695,-0.6687775052145123,-0.2536618411540985,-0.80424964427948,0.17821477353572845
1772376372046716000,7.3007158203125,-0.30633327280487865,-0.5100882877320051,-0.7103481174871326,-0.29008975625038147,-0.8012682199478149,0.16506056487560272
1772376372056665900,7.310665771484375,-0.6289513985216617,-0.20279285536408423,-0.5783709658414126,-0.29506775736808777,-0.780052661895752,0.15101104974746704
1772376372066615800,7.32061572265625,-0.7604307567130774,0.12237725639045238,-0.46360418445467944,-0.2746374011039734,-0.7559083700180054,0.1438535451889038
1772376372076566000,7.33056591796875,-0.9844766087904572,0.48169572146236894,-0.5330073910266161,-0.2290147989988327,-0.6973726153373718,0.11465863138437271
1772376372086515000,7.340514892578125,-1.256063014395535,1.018473863199353,-0.6817033300220966,-0.14746983349323273,-0.5899185538291931,0.0642947256565094
1772376372096465000,7.35046484375,-1.403649384713918,1.83205117675364,-0.6349285732351243,-0.05617320537567139,-0.4245072603225708,0.024453042075037956
1772376372106414800,7.360414794921875,-1.4930504003062843,3.1235160516589877,-0.37998306743800636,-0.013779770582914352,-0.24829749763011932,0.06805697828531265
1772376372116365000,7.370364990234375,-1.6402610691800712,4.058108101078868,-0.15115443806350232,-0.005920249968767166,-0.03621746599674225,0.16739368438720703
1772376372126314800,7.380314697265625,-1.5615912909604608,3.780943603080511,-0.29787469307184217,-0.03413303941488266,0.20645447075366974,0.305997371673584
1772376372136264000,7.390263916015625,-1.272251348130405,1.5982114412188528,-0.08093874606490135,-0.10662828385829926,0.35812869668006897,0.29058220982551575
1772376372146214000,7.4002138671875,-1.081283589790389,-1.1435171239286661,0.6053209320873022,-0.22412362694740295,0.286659836769104,0.14117573201656342
1772376372156163800,7.410163818359375,-1.4031570711523293,-2.756995107862353,0.9376981987416744,-0.29148295521736145,0.045326557010412216,-0.05949532613158226
1772376372166113800,7.42011376953125,-1.5396327032610773,-2.9415871206253765,0.49269233177304267,-0.2935253977775574,-0.1486685425043106,-0.17960429191589355
1772376372176064000,7.43006396484375,-0.9697320441231131,-2.1680963182657957,-0.005491437023133039,-0.2886478006839752,-0.268425852060318,-0.21379926800727844
1772376372186013000,7.440012939453125,-0.30650537796877325,-0.9614859015643596,-0.008531535371392965,-0.35426247119903564,-0.2672019600868225,-0.18370555341243744
1772376372195963000,7.449962890625,0.334101387033239,0.21396014606654642,0.5301762592539191,-0.4739374816417694,-0.2362363338470459,-0.10104476660490036
1772376372205912800,7.459912841796875,0.5217603130862116,0.9279536343187094,1.0646715507507323,-0.5699005126953125,-0.2077847123146057,-0.030303478240966797
1772376372215863000,7.469863037109375,0.18732246064022182,0.9643670099586248,1.1955438098944724,-0.5896978974342346,-0.22149041295051575,-0.011435517109930515
1772376372225812000,7.47981201171875,-0.535847875149548,0.5992050795555114,1.1612491799741982,-0.5361707806587219,-0.28981131315231323,-0.04156365990638733
1772376372235762000,7.489761962890625,-1.0393899561084807,0.20721359441578388,1.0047463666200638,-0.4685051739215851,-0.36043938994407654,-0.07408831268548965
1772376372245712000,7.4997119140625,-1.0664779425855726,-0.07600947296917437,0.8627373580425978,-0.43185943365097046,-0.37478935718536377,-0.09795689582824707
1772376372255662000,7.509662109375,-0.7108004643645137,-0.2693511938989162,0.8757225118219852,-0.4196765422821045,-0.39083969593048096,-0.10967666655778885
1772376372265611800,7.51961181640625,-0.24509759059753267,-0.29722938090562817,0.9177151488989591,-0.40557631850242615,-0.38684695959091187,-0.1228061243891716
1772376372275561000,7.52956103515625,-0.1314633934373036,-0.24077684132158755,0.9175440301157534,-0.4101521670818329,-0.38877934217453003,-0.122124083340168
1772376372285510700,7.5395107421875,-0.22515582261327652,-0.14555705644786357,0.9269362739697098,-0.4280666708946228,-0.3911200761795044,-0.1107826754450798
1772376372295460900,7.5494609375,-0.2865763233356178,-0.024923428854346275,0.9606102877736091,-0.44709014892578125,-0.3826083540916443,-0.09489744901657104
1772376372305410800,7.559410888671875,-0.27699410986751316,0.05286006805002689,0.8185159390002489,-0.47435304522514343,-0.3585294485092163,-0.06658685207366943
1772376372315359700,7.56935986328125,-0.36222799584306775,-0.013726327535510062,0.8051105139821767,-0.523353099822998,-0.37364766001701355,-0.04683445394039154
1772376372325310000,7.57931005859375,-0.5222346525996923,-0.22578853102624416,0.7988860865093768,-0.5168687105178833,-0.3551369607448578,-0.04256533831357956
1772376372335260000,7.589260009765625,-0.5253507387936115,-0.26882220158874987,0.4303460579752922,-0.48724642395973206,-0.3049589991569519,-0.034905556589365005
1772376372345209900,7.5992099609375,-0.2874631526401266,-0.16637831068038939,0.4078771826662123,-0.47809404134750366,-0.2224903404712677,-0.01653261110186577
