time,seconds_elapsed,accel_x,accel_y,accel_z,gyro_x,gyro_y,gyro_z
1772376435205013500,0.059013427734375,0.9963695834189653,-0.8046326673373579,0.9629583122044801,0.034198254346847534,-0.10584306716918945,0.25581926107406616
1772376435214963700,0.068963623046875,0.6799031487323344,-0.8246867365896702,0.8616063081860542,-0.05053554102778435,-0.06238587573170662,0.2068306803703308
1772376435224912600,0.07891259765625,0.5012164875555783,-0.8011658680096269,0.7461094589591026,-0.13173846900463104,-0.03489018976688385,0.1602681577205658
1772376435234862600,0.088862548828125,0.48283217814639207,-0.7416752759039401,0.5892524253398179,-0.21531832218170166,-0.02014080435037613,0.1330549120903015
1772376435244811500,0.0988115234375,0.5598614226173609,-0.7017661671027541,0.4146171584457159,-0.27913859486579895,-0.0005130423232913017,0.11109980940818787
1772376435254761700,0.10876171875,0.6529586623791604,-0.5575996882304549,0.14129764543771742,-0.32588106393814087,0.03695790097117424,0.1119895726442337
1772376435264710700,0.118710693359375,0.713768593455106,-0.39655893918573853,-0.13214344812333584,-0.3390086889266968,0.07692228257656097,0.1190473809838295
1772376435274660600,0.12866064453125,0.8362276098448783,-0.26979659957885743,-0.42920448672473427,-0.3029758632183075,0.12002447992563248,0.1452566236257553
1772376435284609500,0.138609619140625,1.031099755212292,-0.12678192109018563,-0.6556985356718301,-0.22442445158958435,0.17846713960170746,0.19405271112918854
1772376435294559700,0.148559814453125,1.1705525765009224,0.06273293502777814,-0.7478261997491121,-0.10456276684999466,0.23826096951961517,0.264690637588501
1772376435304509700,0.158509765625,1.3124474571794271,0.2563257081091404,-0.6317886677742004,0.026207953691482544,0.2773658335208893,0.35962268710136414
1772376435314458600,0.168458740234375,1.496483735755831,0.3032607700243592,-0.4191133008211851,0.1475631445646286,0.2957879900932312,0.45834288001060486
1772376435324408600,0.17840869140625,1.6640196920387447,0.25624445956647396,-0.13490414500832557,0.2557518482208252,0.33211085200309753,0.5572767853736877
1772376435334357800,0.188357666015625,1.7293154632918535,0.18852905995100736,0.24186639012396335,0.33611515164375305,0.3671441972255707,0.6407397389411926
1772376435344307700,0.1983076171875,1.7742329017743468,0.07200958967804909,0.6348486398667097,0.36781373620033264,0.368175208568573,0.7086934447288513
1772376435354256600,0.208256591796875,1.8400643873393534,-0.10114216066002846,0.9793664261698722,0.3692001700401306,0.3539206385612488,0.7668417096138
1772376435364206600,0.21820654296875,1.810074030484259,-0.2539946348130703,1.2311924847722053,0.32753637433052063,0.3108060359954834,0.8137192130088806
1772376435374155500,0.228155517578125,1.592233828113973,-0.32189971178174015,1.3900322166413068,0.2431597113609314,0.2535211741924286,0.8357073068618774
1772376435384105700,0.238105712890625,1.3466579159475862,-0.4686486083626747,1.422837338656187,0.12838463485240936,0.17821145057678223,0.826080322265625
1772376435394054700,0.2480546875,1.1305720829639583,-0.6899202464863657,1.280408643361926,0.006208125501871109,0.09649128466844559,0.774895191192627
1772376435404004600,0.258004638671875,0.8427305619981139,-0.8968909720569849,0.975653543126583,-0.10715170204639435,0.01301668118685484,0.6860504746437073
1772376435413954800,0.267954833984375,0.561837252734974,-0.9687333884745836,0.5331546905428171,-0.19608716666698456,-0.0567389614880085,0.5765783190727234
1772376435423903700,0.27790380859375,0.34477249171659347,-0.9150698950871825,0.02243395012617111,-0.2459276169538498,-0.10960357636213303,0.4750634729862213
1772376435433853700,0.287853759765625,0.2556768522789702,-0.8243243330180644,-0.48367315901517866,-0.26599961519241333,-0.13231101632118225,0.3988344967365265
1772376435443802600,0.297802734375,0.28747688890453427,-0.7355617614597082,-0.9545651623904704,-0.25012362003326416,-0.10857028514146805,0.3507483899593353
1772376435453752600,0.307752685546875,0.3452126732321456,-0.6368985581338406,-1.351376030510664,-0.19757598638534546,-0.02728794515132904,0.32216495275497437
1772376435463701800,0.31770166015625,0.42311435315608975,-0.5291133061975241,-1.6026783574998378,-0.11112339049577713,0.09545101970434189,0.3199000954627991
1772376435473651700,0.327651611328125,0.5306777425026521,-0.40988136209547515,-1.6274030489116906,-0.011027155444025993,0.24239200353622437,0.34032440185546875
1772376435483600600,0.3376005859375,0.6418192095316946,-0.34433161608129736,-1.4113234264731407,0.08570203930139542,0.3554401993751526,0.37454137206077576
1772376435493550600,0.347550537109375,0.7242524319380521,-0.3739607384085655,-0.9645230773031711,0.16028866171836853,0.43128517270088196,0.4044734239578247
1772376435503500800,0.357500732421875,0.6905309257306158,-0.42441696018725633,-0.4127554562270641,0.21398404240608215,0.4648948311805725,0.4326383173465729
1772376435513449700,0.36744970703125,0.6194619779035448,-0.4074064964145422,0.09090893593728541,0.23282882571220398,0.4529430866241455,0.45137977600097656
1772376435523399700,0.377399658203125,0.5260504114955663,-0.43182080670297146,0.5956365734189748,0.22440564632415771,0.39727067947387695,0.46433329582214355
1772376435533348600,0.3873486328125,0.4243770665682852,-0.48586950001567597,0.9478834926694631,0.20720669627189636,0.32652753591537476,0.46449121832847595
1772376435543298800,0.397298828125,0.3028754239685833,-0.5276651532158255,1.107714573663473,0.18562933802604675,0.2502427101135254,0.4592008590698242
1772376435553247700,0.407247802734375,0.1592878409627825,-0.5533233260855078,1.1615946324110031,0.1763617992401123,0.18012407422065735,0.4438309371471405
1772376435563197700,0.41719775390625,0.041690804586187,-0.5623129804879426,1.1395394524693487,0.18297584354877472,0.14451433718204498,0.42312681674957275
1772376435573146600,0.427146728515625,-0.04938282039351761,-0.5846437625005841,1.1016232710510492,0.20762047171592712,0.13592325150966644,0.41042324900627136
1772376435583096600,0.4370966796875,-0.1285132749274373,-0.5864303536564112,1.1289958466231822,0.22062106430530548,0.13132192194461823,0.3978224992752075
1772376435593045800,0.447045654296875,-0.2359638880819082,-0.573103254571557,1.1726403425604104,0.2255958616733551,0.14706839621067047,0.37699154019355774
1772376435602995700,0.45699560546875,-0.27851247854121025,-0.5920598839759826,1.278590195763111,0.22096504271030426,0.1813216656446457,0.3490169942378998
1772376435612945700,0.466945556640625,-0.3262709126032889,-0.5854878121092916,1.4139695570677517,0.20263956487178802,0.2053859829902649,0.3229800760746002
1772376435622894600,0.47689453125,-0.30022848965637383,-0.5683575213491916,1.6219336775898932,0.1578802913427353,0.1992352306842804,0.2951820194721222
1772376435632844800,0.4868447265625,-0.22509105028137563,-0.5695981690600515,1.80995098862648,0.10293315351009369,0.17735256254673004,0.2708849608898163
1772376435642793700,0.496793701171875,-0.13421623580940067,-0.5713201705470681,1.931857120373845,0.038615789264440536,0.13744379580020905,0.24831916391849518
1772376435652743700,0.50674365234375,-0.08773330157585442,-0.5705132380783557,1.9686469281107186,-0.026375992223620415,0.07270953804254532,0.21924038231372833
1772376435662692900,0.51669287109375,-0.08212218369580805,-0.6287240195065736,1.931702222073078,-0.08851554244756699,0.008749466389417648,0.18037676811218262
1772376435672642800,0.526642822265625,-0.05877192244231701,-0.6975520565390586,1.812418255522847,-0.12788397073745728,-0.059079915285110474,0.1347363144159317
1772376435682591700,0.536591796875,-0.06309658070839941,-0.7172565817013382,1.6280238111585377,-0.1491931825876236,-0.1264166235923767,0.08890030533075333
1772376435692542000,0.5465419921875,0.03473521329462528,-0.7711644052386284,1.4276865322530268,-0.15180468559265137,-0.18233075737953186,0.05010124668478966
1772376435702491600,0.55649169921875,0.13564349213354288,-0.7719152236059308,1.2341998498946427,-0.13392576575279236,-0.2188286930322647,0.021630581468343735
1772376435712440800,0.56644091796875,0.19636358950156718,-0.727257166711986,1.1111807884693146,-0.11068381369113922,-0.24958820641040802,0.00216473825275898
1772376435722390800,0.576390869140625,0.22076788985263554,-0.7068836562469601,1.0884060620814562,-0.11151172965765,-0.29349154233932495,-0.008094049990177155
1772376435732340000,0.586340087890625,0.2946268702570349,-0.6995303708747029,1.0759563303530215,-0.13493981957435608,-0.35039183497428894,-0.010578513145446777
1772376435742289700,0.59628955078125,0.351194304925017,-0.739088766542077,0.9957698639601469,-0.15989483892917633,-0.40064045786857605,-0.013894515112042427
1772376435752238800,0.60623876953125,0.3832221224244684,-0.763667619742453,0.8457342007935047,-0.19673247635364532,-0.4397793412208557,-0.01770816184580326
1772376435762188800,0.616188720703125,0.36220125396661457,-0.7997592160820961,0.6554974601417779,-0.23599731922149658,-0.4776867628097534,-0.03489300608634949
1772376435772138000,0.626137939453125,0.3121976713262498,-0.8190531146168708,0.4057926314771175,-0.27240750193595886,-0.503032386302948,-0.06059330701828003
1772376435782087700,0.636087646484375,0.253037297555618,-0.8331853926047682,0.1051835450053215,-0.29453709721565247,-0.5147748589515686,-0.08882102370262146
1772376435792036900,0.646036865234375,0.22714781841440124,-0.7950771957457066,-0.16213292819559574,-0.309181272983551,-0.5264389514923096,-0.11890967935323715
1772376435801986800,0.65598681640625,0.23460840008603406,-0.7583321039333939,-0.46158699941337106,-0.3132176399230957,-0.5322015285491943,-0.14441949129104614
1772376435811936800,0.665936767578125,0.31354199860729276,-0.7452282922104001,-0.7101964340567588,-0.3059653341770172,-0.5152819156646729,-0.16465552151203156
1772376435821886000,0.675885986328125,0.42033210202641785,-0.7578168478876351,-0.9251590351641178,-0.29794809222221375,-0.4928305149078369,-0.17678779363632202
1772376435831835600,0.685835693359375,0.4849611895317211,-0.6893953458294272,-1.0414169318914412,-0.291952520608902,-0.46344518661499023,-0.18430137634277344
1772376435841784800,0.695784912109375,0.5371604921180755,-0.6546966651529074,-1.0509154125988482,-0.2981298863887787,-0.45025426149368286,-0.18814337253570557
1772376435851734800,0.70573486328125,0.5059628052998334,-0.6323349034801126,-1.0262655399888754,-0.32680946588516235,-0.47343921661376953,-0.19700877368450165
1772376435861684000,0.71568408203125,0.3824580792494118,-0.5923194116950035,-1.019082350486517,-0.3746984601020813,-0.5203447341918945,-0.21848733723163605
1772376435871633700,0.725633544921875,0.1532719964730553,-0.5419929537758231,-1.20593178678751,-0.4287521243095398,-0.5515130758285522,-0.2594054639339447
1772376435881582800,0.735582763671875,-0.0683964863479603,-0.5050657833948731,-1.5122966603070496,-0.4683956503868103,-0.54574054479599,-0.31482061743736267
1772376435891532800,0.74553271484375,-0.19539863519323988,-0.44923488284051416,-1.8981477429956197,-0.4774426519870758,-0.5028735399246216,-0.36527130007743835
1772376435901482000,0.75548193359375,-0.22649266070760785,-0.33748540344834327,-2.3061820159196853,-0.4427057206630707,-0.39328712224960327,-0.4014415442943573
1772376435911431700,0.765431640625,-0.152104980253987,-0.16230390084832905,-2.58911340688169,-0.36115598678588867,-0.27456018328666687,-0.4116419851779938
1772376435921381600,0.775381591796875,0.010805608650064096,-0.008047112855315208,-2.679310395157337,-0.24064284563064575,-0.1407652199268341,-0.3813282549381256
1772376435931330600,0.78533056640625,0.20352325199786572,0.19929332281053064,-2.5423680223196743,-0.09943832457065582,-0.03916749358177185,-0.3122818171977997
1772376435941280800,0.79528076171875,0.35417839876972135,0.3819672269925475,-2.1368477780431507,0.04005057364702225,0.0028901631012558937,-0.21759946644306183
1772376435951229700,0.805229736328125,0.40171668727509674,0.4755772385820746,-1.6216940236151218,0.17168982326984406,0.017019031569361687,-0.12183165550231934
1772376435961179600,0.8151796875,0.32866142446901647,0.4787710661873221,-1.1374515402793883,0.27886533737182617,0.017689237371087074,-0.03529302030801773
1772376435971128600,0.825128662109375,0.16295684833172708,0.4654299385771155,-0.6757008747369051,0.35789090394973755,0.0137562807649374,0.025051280856132507
1772376435981078800,0.835078857421875,-0.07946533077778294,0.3884913680642843,-0.22785832303762435,0.4071934223175049,0.00115218386054039,0.05213960260152817
1772376435991027700,0.84502783203125,-0.31619791994355617,0.2844949870169163,0.15692717624604702,0.42938822507858276,-0.0002917814999818802,0.05787445604801178
1772376436000977700,0.854977783203125,-0.47365394236929714,0.23523235893696545,0.51431262742877,0.4245144724845886,-0.015533236786723137,0.04174778237938881
1772376436010927600,0.864927734375,-0.6441593429170549,0.20000877760350702,0.7897334966301918,0.3960050940513611,-0.06597910076379776,0.013216272927820683
1772376436020876800,0.874876708984375,-0.8741601578760891,0.19550328287780283,0.9464677806526421,0.3526124954223633,-0.1022484079003334,-0.025135569274425507
1772376436030826800,0.88482666015625,-1.0421981453970075,0.15636048227399588,1.0356289961397647,0.2896884083747864,-0.11973099410533905,-0.08526681363582611
1772376436040775700,0.894775634765625,-1.1374303513608872,0.13505115226358175,1.0866238548398017,0.2021016925573349,-0.1296471357345581,-0.1544845551252365
1772376436050725600,0.9047255859375,-1.234360447283834,0.20375907004773616,1.1125789648294448,0.10760767757892609,-0.1411038041114807,-0.23642735183238983
1772376436060674800,0.9146748046875,-1.2583052403643726,0.3325347953036427,1.0438204859018325,0.01941043883562088,-0.15198840200901031,-0.31560179591178894
1772376436070624800,0.924624755859375,-1.1735261124189942,0.4061062274709344,0.8764788831472397,-0.0620758943259716,-0.14335604012012482,-0.3665326237678528
1772376436080573700,0.93457373046875,-1.0119881544418632,0.5161334131151437,0.6637134998232126,-0.11979056894779205,-0.12060911953449249,-0.386412113904953
1772376436090523600,0.944523681640625,-0.8655293999139219,0.6268208162337541,0.4252870210200548,-0.1368531733751297,-0.0917375311255455,-0.38090601563453674
1772376436100472600,0.95447265625,-0.747012764474377,0.741244775532186,0.2246317622065544,-0.12871932983398438,-0.05330619961023331,-0.3480593264102936
1772376436110422800,0.9644228515625,-0.651293578711152,0.7786918781340122,0.10201835897266864,-0.094154953956604,-0.019454490393400192,-0.30715692043304443
1772376436120372700,0.974372802734375,-0.5677350786019116,0.7377496268928051,0.1141501107931137,-0.04705081507563591,0.006804914213716984,-0.26568832993507385
1772376436130321700,0.98432177734375,-0.5515400959305465,0.6655275635078549,0.20715631127059458,0.006335977930575609,0.013262546621263027,-0.2330116182565689
1772376436140271900,0.99427197265625,-0.5815853978432715,0.5455550301715731,0.3794979142695665,0.0477650947868824,0.005821635946631432,-0.2122805416584015
1772376436150220800,1.004220703125,-0.5899318589713424,0.4190373129755258,0.5851853220313787,0.08339019864797592,0.03895615041255951,-0.20127129554748535
1772376436160170800,1.014170654296875,-0.6486783547114581,0.33103841926604505,0.7803834844827652,0.10245342552661896,0.06914243847131729,-0.19717177748680115
1772376436170119700,1.02411962890625,-0.6788979902777821,0.2336509349644184,1.037898110115528,0.09127666801214218,0.07919081300497055,-0.20384939014911652
1772376436180069600,1.034069580078125,-0.6638933133695274,0.12002426352351903,1.2953531145155428,0.056242551654577255,0.09083664417266846,-0.22159288823604584
1772376436190018800,1.044018798828125,-0.6312972309954464,0.062252458034455775,1.4545266083836554,0.012848736718297005,0.10994801670312881,-0.22704625129699707
1772376436199968800,1.05396875,-0.5847670600866899,0.014454349549114703,1.6203765112757682,-0.04342019185423851,0.08729470521211624,-0.2369033843278885
1772376436209917700,1.063917724609375,-0.5527870272517204,-0.039114743553102016,1.695616753438115,-0.09318295121192932,0.05586807802319527,-0.2492987960577011
1772376436219867600,1.07386767578125,-0.525525218577683,-0.1179609012529254,1.684430758035183,-0.14022913575172424,0.03399097919464111,-0.2664024233818054
1772376436229817900,1.08381787109375,-0.493347142419964,-0.18349808004647492,1.612957759451866,-0.1811416894197464,0.015100911259651184,-0.282797634601593
1772376436239766800,1.093766845703125,-0.5385598740546033,-0.23179595474749803,1.5569629005074501,-0.22176210582256317,-0.0012688473798334599,-0.3123379945755005
1772376436249716700,1.103716796875,-0.5392424494912847,-0.3001455606132746,1.497536313548684,-0.27572283148765564,-0.021733907982707024,-0.34961453080177307
1772376436259665700,1.113665771484375,-0.5364607098182663,-0.346354061819613,1.4187322414249182,-0.3291996419429779,-0.0334947444498539,-0.3953525722026825
1772376436269615900,1.123615966796875,-0.5309375259499997,-0.34572482400536536,1.2732336371660231,-0.3756827116012573,-0.05650924891233444,-0.4416090250015259
1772376436279564800,1.133564697265625,-0.5429933264574036,-0.3280363148406148,1.0903642104119062,-0.4134644567966461,-0.06718191504478455,-0.48333069682121277
1772376436289514800,1.1435146484375,-0.4736673498401418,-0.3105336836367845,0.8431482759535313,-0.43825051188468933,-0.055083438754081726,-0.517719566822052
1772376436299463700,1.153463623046875,-0.38861649228129536,-0.27275603390634057,0.60209846290946,-0.44282129406929016,-0.03856038674712181,-0.5374160408973694
1772376436309413600,1.16341357421875,-0.22833182230088858,-0.18532500321269035,0.3854237971872091,-0.4321169853210449,-0.015586363151669502,-0.5300049781799316
1772376436319363800,1.17336376953125,-0.11263398887543007,-0.12091712071001529,0.22789222530722616,-0.40670299530029297,0.013560449704527855,-0.4970870018005371
1772376436329312800,1.183312744140625,0.00284030145984143,-0.0879316736921668,0.15758008719682692,-0.3821457326412201,0.03557653725147247,-0.4494883120059967
1772376436339262700,1.1932626953125,0.15091304878937079,-0.08620002759397029,0.17396657385230063,-0.35471010208129883,0.0550631508231163,-0.39482641220092773
1772376436349211600,1.203211669921875,0.24511350055271758,-0.13145838846862315,0.17232757447361946,-0.321818470954895,0.07524804770946503,-0.33972135186195374
1772376436359161900,1.213161865234375,0.25752808790253473,-0.16739625555127857,0.23056290582120417,-0.29252001643180847,0.08378977328538895,-0.2774951756000519
1772376436369110800,1.22311083984375,0.2660472204500809,-0.2495040453955531,0.3283937499761581,-0.2779621183872223,0.08250506967306137,-0.22427640855312347
1772376436379060700,1.233060791015625,0.2141257666907273,-0.3522241228967905,0.38169571657478807,-0.27127134799957275,0.06397268921136856,-0.17369753122329712
1772376436389009700,1.243009765625,0.1290493545655161,-0.48499096361547706,0.3992652755349874,-0.27295979857444763,0.0460813082754612,-0.1398538053035736
1772376436398959900,1.2529599609375,0.04384241139581427,-0.642751960337162,0.34829087510108947,-0.27116936445236206,0.02757016196846962,-0.12522713840007782
1772376436408908800,1.26290869140625,-0.04702478602528572,-0.763233027717471,0.23794833989739417,-0.2676936984062195,0.03254521265625954,-0.12410622090101242
1772376436418858800,1.272858642578125,-0.11475750210173427,-0.865017577934265,0.13086568327248096,-0.25801753997802734,0.04620694741606712,-0.13357089459896088
1772376436428808700,1.28280859375,-0.16186963761691003,-0.9355696622803806,0.04171323561370373,-0.24537791311740875,0.046871937811374664,-0.1357365846633911
1772376436438758000,1.2927578125,-0.1295879549542442,-0.985523195233941,-0.03890226984620094,-0.22371818125247955,0.05234202370047569,-0.1387919783592224
1772376436448707800,1.302707763671875,-0.1391163558758795,-1.0083002597093582,-0.11478490156531333,-0.20126426219940186,0.049459684640169144,-0.1439393311738968
1772376436458656800,1.31265673828125,-0.12395005866512655,-1.0497557211697102,-0.2414367665350437,-0.1752013862133026,0.05317594110965729,-0.14359915256500244
1772376436468606700,1.322606689453125,-0.06611359044201671,-1.0717150395214556,-0.36223289121389385,-0.151300847530365,0.07027636468410492,-0.13149161636829376
1772376436478555600,1.3325556640625,-0.03595280892346054,-1.1115221492528915,-0.4251707011640072,-0.13497136533260345,0.08430551737546921,-0.12169170379638672
1772376436488505900,1.342505859375,-0.010977430686168372,-1.1272513410434126,-0.5032330150097608,-0.11337234079837799,0.08740942925214767,-0.10412736237049103
1772376436498454800,1.352454833984375,-0.0056933162707835435,-1.1306778083607554,-0.5952922900259494,-0.10035213828086853,0.07746007293462753,-0.09488151222467422
1772376436508404700,1.36240478515625,-0.007729717469215393,-1.1182660705551504,-0.7508791575789451,-0.07635226845741272,0.06982985138893127,-0.08645287156105042
1772376436518353700,1.372353759765625,-0.06782306124102323,-1.087106377659738,-0.9392962815880775,-0.044946037232875824,0.08344215154647827,-0.0803755447268486
1772376436528303900,1.382303955078125,-0.10912731419503688,-1.0336375300616025,-1.0985767429620026,-0.001955959014594555,0.09234057366847992,-0.07194743305444717
1772376436538253800,1.39225390625,-0.08775529421195387,-1.03137630713135,-1.233957273310423,0.054402634501457214,0.1457538902759552,-0.06209753453731537
1772376436548202800,1.40220263671875,-0.048666634948179126,-0.980388754954934,-1.3456892170459032,0.1341632455587387,0.24669621884822845,-0.03934295475482941
1772376436558152700,1.412152587890625,-0.016966149706952274,-0.857248112976551,-1.312826227363944,0.21346719563007355,0.3568682372570038,-0.0011583587620407343
1772376436568102000,1.422101806640625,0.09222823837492615,-0.7812251960039138,-1.0605530095160007,0.28668200969696045,0.4639472961425781,0.05166544020175934
1772376436578051800,1.4320517578125,0.26680413976460693,-0.745481974710524,-0.6539157439082861,0.3315548598766327,0.5532081723213196,0.11499739438295364
1772376436588000800,1.442000732421875,0.47640535996928807,-0.7538517436489462,-0.12462825018763542,0.35853028297424316,0.5959089994430542,0.18842953443527222
1772376436597950700,1.45195068359375,0.6332391588434577,-0.7853156801879405,0.3503934003382921,0.36313575506210327,0.6255376935005188,0.2544434070587158
1772376436607900000,1.46189990234375,0.8517687317173928,-0.8493415776357054,0.7712158431649208,0.32248765230178833,0.6404958963394165,0.32423076033592224
1772376436617849900,1.471849853515625,1.1413258974947034,-0.9955994758293032,1.1415846945613621,0.2461850494146347,0.6320567727088928,0.40229877829551697
1772376436627799800,1.4817998046875,1.408608468426019,-1.2051932433798909,1.436796890425682,0.11591067910194397,0.5585516691207886,0.4727146029472351
1772376436637748700,1.491748779296875,1.4440996146544813,-1.3695996694654224,1.55215111631155,-0.04489570111036301,0.3969215154647827,0.509276807308197
1772376436647699000,1.501698974609375,1.175621769523993,-1.4123741045698524,1.3734212735801934,-0.20978690683841705,0.13596607744693756,0.4803745746612549
1772376436657647900,1.51164794921875,0.6095096890140325,-1.3638181634545326,0.8724638022869825,-0.3472036123275757,-0.19569090008735657,0.37386712431907654
1772376436667597800,1.521597900390625,-0.0348068902913481,-1.333792735286057,-0.084870824816823,-0.43887627124786377,-0.461230993270874,0.18097062408924103
1772376436677546800,1.531546630859375,-0.5154651584647596,-1.1515452398225665,-1.2854215030878782,-0.45833519101142883,-0.6185755133628845,-0.023877738043665886
1772376436687496700,1.54149658203125,-0.5706170637790113,-0.9067124011084436,-2.3769103336155415,-0.3891819417476654,-0.5836310982704163,-0.20815198123455048
1772376436697445600,1.551445556640625,-0.3352729880958795,-0.5933510928303003,-3.3404128356993197,-0.23587872087955475,-0.35630497336387634,-0.31981056928634644
1772376436707395800,1.561395751953125,0.09101809540018439,-0.11665011091530322,-3.7857489575356245,-0.021239396184682846,0.02011820115149021,-0.350065141916275
1772376436717344800,1.5713447265625,0.6409339511297643,0.47714843342155216,-3.5616304055482146,0.19509507715702057,0.41802099347114563,-0.26801764965057373
1772376436727294700,1.581294677734375,1.3670184208005667,1.0850693188741802,-2.6040432649880647,0.34714481234550476,0.7153461575508118,-0.04864136129617691
1772376436737245000,1.591244873046875,2.069427269721031,1.4861328760027885,-1.3648977753847837,0.4073973000049591,0.8449003100395203,0.26028671860694885
1772376436747193900,1.60119384765625,2.5330501588761805,1.5858327289000154,-0.20160627592802047,0.38931336998939514,0.8147653341293335,0.5911943912506104
1772376436757143800,1.611143798828125,2.7072470343530175,1.452462953852117,0.6523550704628229,0.34206634759902954,0.6810214519500732,0.8557978868484497
1772376436767092700,1.6210927734375,2.4439264989204705,1.1846022907719016,1.0545891326755286,0.295554518699646,0.49766257405281067,1.0210453271865845
1772376436777043000,1.63104296875,1.8822553234674035,0.9213532131403684,1.0769418342590331,0.2670159935951233,0.31471675634384155,1.0960309505462646
1772376436786991900,1.640991943359375,1.3207676878876984,0.6865627527520061,0.9367226317077875,0.252688467502594,0.16582663357257843,1.0830376148223877
1772376436796941800,1.65094189453125,0.8164190397862344,0.4500757175788283,0.6842565216362476,0.2312576323747635,0.056086793541908264,1.0124104022979736
1772376436806890800,1.660890869140625,0.4373123898565769,0.2871428711771965,0.4190513415008783,0.2163548469543457,-0.027746591717004776,0.9100465178489685
1772376436816840700,1.6708408203125,0.19609087350741028,0.22237609223425386,0.2160182476401329,0.1933293342590332,-0.0710991621017456,0.788985013961792
1772376436826790000,1.680789794921875,0.13796696664504707,0.2382821018964052,0.11896306403279304,0.15071982145309448,-0.10207651555538177,0.6778872609138489
1772376436836739800,1.69073974609375,0.22212949706204235,0.3626420565366745,0.04239361909329891,0.0922965481877327,-0.12034665793180466,0.5947883129119873
1772376436846689800,1.700689697265625,0.29126017030291257,0.5697112740457058,-0.08309563183784484,0.01644626259803772,-0.1387893259525299,0.5486743450164795
1772376436856638700,1.710638671875,0.3272755596011877,0.7875470925018191,-0.3037853784203529,-0.05138494446873665,-0.1487620770931244,0.5327724814414978
1772376436866589000,1.7205888671875,0.31860446962863204,0.9168298904970288,-0.562097876432538,-0.11220648884773254,-0.1389549821615219,0.522826611995697
1772376436876537900,1.730537841796875,0.2937785463320091,0.9720347681075334,-0.8570324243992566,-0.15073198080062866,-0.13119299709796906,0.5005381107330322
1772376436886487800,1.74048779296875,0.28988690918833016,0.9961547716245055,-1.1938099718391895,-0.16145652532577515,-0.08233064413070679,0.4691263735294342
1772376436896436700,1.750436767578125,0.2855381393942982,1.0441007641479372,-1.5308300958633423,-0.11940177530050278,0.022044863551855087,0.445464551448822
1772376436906387000,1.760386962890625,0.2688212882732972,1.151721180911362,-1.7764052773773669,-0.03947072476148605,0.18492166697978973,0.45455098152160645
1772376436916335900,1.7703359375,0.2963651652917266,1.3018030213072895,-1.7499632606536148,0.05708208307623863,0.36872267723083496,0.4984795153141022
1772376436926285800,1.780285888671875,0.36200116481725125,1.4324825343579053,-1.3058037813812493,0.1464977115392685,0.49914222955703735,0.5702274441719055
1772376436936234800,1.79023486328125,0.4545187049949541,1.443139829711616,-0.6138613814175129,0.20507605373859406,0.5542783737182617,0.6581658720970154
1772376436946184700,1.800184814453125,0.5168706413485109,1.3498200332403183,0.05983458323776722,0.24038290977478027,0.5876318216323853,0.7434688210487366
1772376436956135000,1.810135009765625,0.45918023053258655,1.1879138995379208,0.621367811524868,0.25090959668159485,0.5694764852523804,0.8060728907585144
1772376436966083800,1.820083740234375,0.3521647939249873,0.9692015905082225,1.1580658737629652,0.24661660194396973,0.5172649621963501,0.8347431421279907
1772376436976033800,1.83003369140625,0.1941001380816102,0.7691299768015741,1.541889834538102,0.21145665645599365,0.4497082829475403,0.8279820084571838
1772376436985982700,1.839982666015625,0.09201536280922591,0.5617576846927405,1.7987731765300035,0.1669597625732422,0.35172340273857117,0.794867992401123
1772376436995933000,1.849932861328125,-0.02243833404034376,0.40679216390848155,1.9315970081329346,0.10279734432697296,0.24544942378997803,0.7402240037918091
1772376437005881900,1.8598818359375,-0.1387738991137594,0.2805141006872058,1.8968495198786257,0.04060295224189758,0.14615720510482788,0.6650679707527161
1772376437015831800,1.869831787109375,-0.27164259277172387,0.14889058478474615,1.7318606177300213,-0.016675516963005066,0.07860665023326874,0.5720621347427368
1772376437025780700,1.87978076171875,-0.3792176360234618,0.07329319974780082,1.5241250452667474,-0.06890303641557693,0.02621481567621231,0.4774552285671234
1772376437035731000,1.88973095703125,-0.41325997168309986,0.05372457592487335,1.318027887660265,-0.10383497923612595,-0.011053929105401039,0.3861469030380249
1772376437045679900,1.899679931640625,-0.3792736039943993,0.057850423683226106,1.087094979482889,-0.12907774746418,-0.02436600625514984,0.3169814348220825
1772376437055629800,1.9096298828125,-0.30911059203110636,0.11620412071347236,0.8859943149894476,-0.14657503366470337,-0.019033711403608322,0.26688656210899353
1772376437065579800,1.919579833984375,-0.19729224865380673,0.1638414856791496,0.7516133170723914,-0.1615196317434311,-0.023271601647138596,0.24228666722774506
1772376437075529000,1.929529052734375,-0.07819342941213399,0.20632015270739792,0.6553583439320325,-0.17055946588516235,-0.040475353598594666,0.23207344114780426
1772376437085478700,1.939478759765625,0.02398625760208815,0.19141776712983846,0.5115852482914924,-0.16995705664157867,-0.05465961992740631,0.23754997551441193
1772376437095427800,1.949427734375,0.05226707059293985,0.13165654138922692,0.340824192482233,-0.15952669084072113,-0.056948356330394745,0.2380995750427246
1772376437105377800,1.959377685546875,0.05737549964785576,0.07379355048537253,0.18390110788941383,-0.13520564138889313,-0.06639085710048676,0.22881445288658142
1772376437115326700,1.96932666015625,0.025693317248299718,0.03396598248779774,0.05964928979873657,-0.09484579414129257,-0.06595775485038757,0.22124460339546204
1772376437125277000,1.97927685546875,0.015372560372576116,-0.0015615502282977103,0.02158522434234619,-0.057240620255470276,-0.06596893817186356,0.21230252087116241
1772376437135225900,1.989225830078125,-0.0252071411665529,-0.013949907158315181,0.06750877112746238,-0.03324767202138901,-0.06610321998596191,0.2037789523601532
1772376437145175800,1.99917578125,-0.05345854539982974,-0.07400748549699783,0.1661690518438816,-0.03177361190319061,-0.058462612330913544,0.19122055172920227
1772376437155124700,2.009124755859375,-0.09159841603878885,-0.13708704200536012,0.330346637609601,-0.04300064221024513,-0.05181350186467171,0.17672717571258545
1772376437165075000,2.019074951171875,-0.11619049404691904,-0.2244116897150874,0.4384112910091877,-0.07145092636346817,-0.0407685711979866,0.1516503244638443
1772376437175024600,2.029024658203125,-0.14759696477763354,-0.29181700046807524,0.5100859496444463,-0.10327225178480148,-0.030755996704101562,0.12364871799945831
1772376437184973800,2.038973876953125,-0.19035375462751836,-0.35963965985029933,0.5074351428747177,-0.12471948564052582,-0.01846044696867466,0.0893208384513855
1772376437194923500,2.048923583984375,-0.21194113439433276,-0.4022562740445137,0.5267711269855498,-0.13752122223377228,-0.022334828972816467,0.058387886732816696
1772376437204873000,2.058873046875,-0.18713413499388842,-0.4135600506082177,0.5388140314787626,-0.137804314494133,-0.05135476216673851,0.024424858391284943
1772376437214822700,2.06882275390625,-0.17239304092526433,-0.42990445168763397,0.5157283394455909,-0.1416686624288559,-0.0931803286075592,-0.008593272417783737
1772376437224771800,2.078771728515625,-0.1174182092109695,-0.4599658279523253,0.49742403647005556,-0.13767366111278534,-0.13130268454551697,-0.03905344381928444
1772376437234721500,2.088721435546875,-0.06079867902956903,-0.46085313218086954,0.4408014010161161,-0.1381799578666687,-0.15867474675178528,-0.07070128619670868
1772376437244670700,2.098670654296875,-0.07183521949183196,-0.4449143892928958,0.3891039470046758,-0.1457662433385849,-0.177693173289299,-0.1039026528596878
1772376437254620700,2.10862060546875,-0.04533675987310707,-0.41564094853550193,0.2879647089540958,-0.16072483360767365,-0.16445639729499817,-0.12791787087917328
1772376437264569900,2.11856982421875,-0.009156644999794662,-0.3680129359200597,0.1548357569247484,-0.16784453392028809,-0.1172177717089653,-0.14206191897392273
1772376437274519800,2.128519775390625,0.05099131503608077,-0.2977729862630367,0.07716507274508476,-0.16263364255428314,-0.061529554426670074,-0.13997037708759308
1772376437284469800,2.1384697265625,0.18173421217910946,-0.2736176191717386,0.11916647765040397,-0.15226994454860687,-0.027305273339152336,-0.12659358978271484
1772376437294418700,2.148418701171875,0.29778339805919674,-0.2978206247970462,0.28014672867953777,-0.14206784963607788,-0.04242250695824623,-0.10906574875116348
1772376437304368600,2.15836865234375,0.39682003780733793,-0.35274230155199765,0.4594838896542787,-0.1396915167570114,-0.11252649128437042,-0.1008664146065712
1772376437314317800,2.16831787109375,0.4090393583133817,-0.4467164702787995,0.5366197363048791,-0.13951709866523743,-0.20540082454681396,-0.1013001874089241
1772376437324267800,2.178267822265625,0.3080921722361818,-0.5336424740597605,0.4629612103760242,-0.14621149003505707,-0.29772087931632996,-0.1215793639421463
1772376437334217000,2.188217041015625,0.15548735270127653,-0.6008984394699335,0.21504268060624598,-0.14458626508712769,-0.3589577078819275,-0.1592918485403061
1772376437344166700,2.198166748046875,0.04440013661012053,-0.6027075347185135,-0.17893208730518817,-0.1355847716331482,-0.37174326181411743,-0.20418982207775116
1772376437354115800,2.20811572265625,-0.007706628854572773,-0.5381254646927118,-0.5783733039289712,-0.09728474915027618,-0.34857043623924255,-0.22604741156101227
1772376437364065500,2.2180654296875,0.014929054388776421,-0.43873453161418435,-0.9118611621737479,-0.05009859800338745,-0.3166772127151489,-0.2271992415189743
1772376437374015000,2.228014892578125,0.09517041104035451,-0.3853507319509983,-1.1707114203244446,0.02197270654141903,-0.2756129801273346,-0.19500666856765747
1772376437383964700,2.237964599609375,0.15323120780494062,-0.37971155702024695,-1.3141940085858106,0.11613994836807251,-0.22810004651546478,-0.14409315586090088
1772376437393914600,2.24791455078125,0.149499108604528,-0.39498482173681254,-1.311878717380762,0.22235725820064545,-0.21542751789093018,-0.08396017551422119
1772376437403863600,2.257863525390625,0.05513731053331866,-0.46166327951997516,-1.1253320634186268,0.31201818585395813,-0.23340332508087158,-0.034767068922519684
1772376437413813800,2.267813720703125,-0.07237349108699709,-0.6607882600262761,-0.9452005371958017,0.38462764024734497,-0.20883998274803162,-0.007168413605540991
1772376437423762700,2.2777626953125,-0.17457966424934565,-0.9314452758267522,-0.709886637455225,0.4150087237358093,-0.1573011577129364,0.012945909053087234
1772376437433712600,2.287712646484375,-0.21779331275494768,-1.1867372569739818,-0.33818799875974653,0.3810155689716339,-0.17548510432243347,0.021498896181583405
1772376437443661600,2.29766162109375,-0.3005343590014614,-1.2841612738937138,0.06946341232657433,0.28357475996017456,-0.3038710355758667,0.0014104061992838979
1772376437453611800,2.30761181640625,-0.6060894322417676,-1.398519474479556,0.3352040145128965,0.10538148134946823,-0.5638355612754822,-0.10420192033052444
1772376437463560700,2.317560791015625,-1.0504988676872105,-1.5600851241812108,0.2056044056534767,-0.10653875768184662,-0.8581846356391907,-0.2843106985092163
1772376437473510700,2.3275107421875,-1.4104587724678217,-1.712051170888543,-0.4855015434861183,-0.2933157682418823,-1.052800178527832,-0.5401034951210022
1772376437483459600,2.33745947265625,-1.8320548300154507,-1.620126920428872,-1.5918524275809525,-0.4131273925304413,-1.0791373252868652,-0.8217729926109314
1772376437493409500,2.347409423828125,-2.103456380572915,-1.2025468205243348,-2.840390599429607,-0.4162878394126892,-0.9397270679473877,-1.0659810304641724
1772376437503359700,2.35735986328125,-1.8930634254686534,-0.6826964327126741,-3.914263693767786,-0.2938165068626404,-0.6208042502403259,-1.2204673290252686
1772376437513308700,2.36730859375,-1.345636171684414,-0.16760083821266888,-4.383347770938277,-0.08064424991607666,-0.22420187294483185,-1.265208125114441
1772376437523258600,2.377258544921875,-0.655547729024291,0.33806817177236076,-4.144228633695841,0.17314034700393677,0.16701914370059967,-1.1934263706207275
1772376437533207600,2.38720751953125,0.13212850628253073,0.8810308473631739,-3.3016958592921495,0.4022299647331238,0.4738865792751312,-1.0112196207046509
1772376437543157800,2.39715771484375,0.8461711309060453,1.2961693993344903,-2.0245020863234995,0.5585066080093384,0.6248814463615417,-0.7610886693000793
1772376437553106700,2.407106689453125,1.4034925867170094,1.527795842733979,-0.7104319963783026,0.6435390114784241,0.6411585211753845,-0.47899797558784485
1772376437563056600,2.417056640625,1.6828914196386933,1.5143293351784348,0.3548684999257326,0.6691130995750427,0.5267469882965088,-0.2106621265411377
1772376437573005600,2.427005615234375,1.6467312881074845,1.309358843514323,1.0766484042704105,0.6575969457626343,0.35752996802330017,-0.004088275600224733
1772376437582955800,2.436955810546875,1.2941628818176687,1.1144368676558136,1.4637643923282622,0.621821403503418,0.1864282339811325,0.1255035400390625
1772376437592904700,2.44690478515625,0.7378617089651525,0.9300921076521277,1.6019833609730005,0.567835807800293,0.030924318358302116,0.17768754065036774
1772376437602854700,2.456854736328125,0.21150570211913436,0.6973293536990881,1.6922253574341535,0.4851587116718292,-0.09213076531887054,0.16888925433158875
1772376437612804600,2.4668046875,-0.20493050671359522,0.40927959681004283,1.5982511887073516,0.37534967064857483,-0.14082826673984528,0.10992767661809921
1772376437622753800,2.47675390625,-0.6496130052130669,0.1941109517365694,1.4093173473477363,0.25479796528816223,-0.1366226077079773,0.00607637781649828
1772376437632703700,2.486703857421875,-1.0132690610978752,0.1092813357129693,1.2425795557051897,0.14274051785469055,-0.0884844958782196,-0.1392419934272766
1772376437642652700,2.496652587890625,-1.1994902824979274,0.1250870998710394,1.0717506953567266,0.0471372976899147,-0.017305120825767517,-0.2880365252494812
1772376437652602600,2.5066025390625,-1.1173431835565715,0.24221067351698874,0.9165987120896577,-0.022438576444983482,0.03982814401388168,-0.4080860912799835
1772376437662552000,2.516552001953125,-0.7385454534456133,0.4065063327044248,0.7620715827226638,-0.053991708904504776,0.09955538809299469,-0.4783077836036682
1772376437672502300,2.526502197265625,-0.25823128600213674,0.6542082971140742,0.6420195544093847,-0.050409186631441116,0.12434691190719604,-0.4837262034416199
1772376437682451200,2.536451171875,0.16917946743993087,0.8759399539649486,0.583041880261898,-0.020436106249690056,0.1331009864807129,-0.4331943392753601
1772376437692401200,2.546401123046875,0.5311313314890489,1.0199860213279723,0.5985521686047315,0.028986390680074692,0.12881189584732056,-0.3348085880279541
1772376437702350000,2.55635009765625,0.7907409201070665,1.094749293628335,0.6047206281065941,0.09200610220432281,0.11846178025007248,-0.21991421282291412
1772376437712300000,2.566300048828125,0.7868632018908858,1.0869225455254317,0.6517161880373954,0.15920406579971313,0.08954235911369324,-0.09803644567728043
1772376437722249200,2.576249267578125,0.6251904385529459,0.9786328511983156,0.7735247046291828,0.20778252184391022,0.0642995834350586,-0.010248000733554363
1772376437732199200,2.58619921875,0.36662834969386454,0.7454471956580877,0.9507143321812153,0.21679553389549255,0.052545174956321716,0.04228837043046951
1772376437742149000,2.596149169921875,0.01924914607759565,0.46468496542870996,1.1068500657886267,0.19942373037338257,0.062833771109581,0.053015053272247314
1772376437752098000,2.60609814453125,-0.3128086793640628,0.24706980398595332,1.2662006697893142,0.14514042437076569,0.05984539911150932,0.019739771261811256
1772376437762048300,2.61604833984375,-0.5736788259698078,0.07211421909630299,1.3413947347223758,0.07554509490728378,0.059615034610033035,-0.04570288583636284
1772376437771997200,2.6259970703125,-0.8162899335138499,-0.04251607642918825,1.3323930976212024,0.003149260301142931,0.0486924909055233,-0.12575072050094604
1772376437781947100,2.635947021484375,-0.972249141510576,-0.1050681019321084,1.2698492554247378,-0.07668724656105042,0.03989420458674431,-0.21674054861068726
1772376437791896000,2.64589599609375,-1.073740846260637,-0.1395773975163698,1.096824930858612,-0.14328491687774658,0.04858942702412605,-0.30205225944519043
1772376437801846300,2.65584619140625,-1.0657267588920891,-0.11841945867538452,0.8656149593055248,-0.19603946805000305,0.07209155708551407,-0.37891775369644165
1772376437811795200,2.665795166015625,-0.9612731355965137,-0.07698065608888864,0.6024456689119339,-0.22683221101760864,0.0958736315369606,-0.43564221262931824
1772376437821745200,2.6757451171875,-0.7770926262438297,0.0018777765706181526,0.3604500994503498,-0.2428809404373169,0.12066072970628738,-0.467337042093277
1772376437831694000,2.685694091796875,-0.5411461276881396,0.08954320054203271,0.17694295931458473,-0.2385697364807129,0.14425605535507202,-0.4626835286617279
1772376437841644000,2.69564404296875,-0.3952452993039042,0.17218699695914982,0.06489595828056335,-0.22375136613845825,0.15951383113861084,-0.4276443123817444
1772376437851594200,2.70559423828125,-0.3284792363025248,0.21992460742890835,-0.012753098589181899,-0.2013111412525177,0.17223221063613892,-0.3820560574531555
1772376437861543200,2.715543212890625,-0.2753154725981876,0.2011488875493407,-0.024620061993598938,-0.1776774525642395,0.17856600880622864,-0.3310849964618683
1772376437871493000,2.7254931640625,-0.3046574485471472,0.12249386850744486,0.0235281751036644,-0.149820014834404,0.1727924942970276,-0.28698939085006714
1772376437881442000,2.735442138671875,-0.35818156999647616,0.03094078944772482,0.09360007471740245,-0.12928543984889984,0.15781567990779877,-0.2540207803249359
1772376437891392300,2.745392333984375,-0.4677297399520874,-0.07038783369511366,0.16972528302073478,-0.10444441437721252,0.14971594512462616,-0.23326492309570312
1772376437901341200,2.755341064453125,-0.5700503698069602,-0.1584609616845846,0.22592297106087206,-0.08287973701953888,0.14884722232818604,-0.21973419189453125
1772376437911291100,2.765291015625,-0.6228515472766012,-0.24079174662977457,0.3133785516738891,-0.05596296116709709,0.16521912813186646,-0.2078571617603302
1772376437921240000,2.775239990234375,-0.6636201955165714,-0.3077864307552576,0.44084465563595293,-0.03875840827822685,0.17325228452682495,-0.19631077349185944
1772376437931190300,2.785190185546875,-0.6778834064077586,-0.36369361141622064,0.6637509092241525,-0.03421296551823616,0.16637511551380157,-0.1840723752975464
1772376437941139200,2.79513916015625,-0.6397999055985361,-0.45552521515637634,0.8614280290096997,-0.045905306935310364,0.14849278330802917,-0.16769419610500336
1772376437951089200,2.805089111328125,-0.5758533569972962,-0.5840019574657083,0.9842331554234027,-0.061219241470098495,0.10880646109580994,-0.1599532961845398
1772376437961038000,2.8150380859375,-0.5462546298082918,-0.6857911838576197,1.0370581521600484,-0.0716489776968956,0.049886684864759445,-0.15611913800239563
1772376437970988300,2.82498828125,-0.5599375565934926,-0.7831801294639706,0.9657388828337192,-0.08643876016139984,-0.0003139181062579155,-0.1612204909324646
1772376437980938200,2.834938232421875,-0.5768144571144134,-0.8099486016631126,0.8075742737472057,-0.08468799293041229,-0.046069689095020294,-0.16414622962474823
1772376437990887200,2.84488720703125,-0.5702805983662605,-0.8413143385246395,0.6222445943593978,-0.08083135634660721,-0.0823332816362381,-0.16907580196857452
1772376438000837000,2.854837158203125,-0.5877614561296999,-0.8792132765471935,0.42699733206927776,-0.0752355232834816,-0.09840758889913559,-0.1785031259059906
1772376438010786000,2.8647861328125,-0.5779664036285131,-0.8923840160265565,0.2694388721823692,-0.08223575353622437,-0.09722155332565308,-0.18325175344944
1772376438020736300,2.874736328125,-0.5690871507979929,-0.9207853501245379,0.06276186886131763,-0.09176135063171387,-0.08983447402715683,-0.19379201531410217
1772376438030685200,2.884685302734375,-0.5522081313852221,-0.9405655708715319,-0.14147007939517497,-0.09710544347763062,-0.07567893713712692,-0.20878317952156067
1772376438040635100,2.89463525390625,-0.5053657892547547,-0.9102014122679829,-0.34356092396974564,-0.08649753779172897,-0.04786940664052963,-0.22100254893302917
1772376438050584000,2.904583984375,-0.49905901726074514,-0.8590408416122197,-0.5282429531037807,-0.06926892697811127,-0.017324624583125114,-0.22868701815605164
1772376438060534300,2.9145341796875,-0.4498698197431862,-0.7524585357248783,-0.6551303803950548,-0.04530687257647514,0.01140023022890091,-0.22295376658439636
1772376438070483200,2.924483154296875,-0.3560062717840075,-0.665216013340652,-0.700790892329812,-0.017569873481988907,0.0512947253882885,-0.20546726882457733
1772376438080433200,2.93443310546875,-0.2532582102973014,-0.6128416829809546,-0.7359802791327238,0.01622244343161583,0.11049067229032516,-0.17646384239196777
1772376438090383000,2.944383056640625,-0.1385639826901257,-0.5737710708305239,-0.7007458841443062,0.059365395456552505,0.17837537825107574,-0.14292916655540466
1772376438100332300,2.954332275390625,0.001711114766821265,-0.5428428486034274,-0.512835540613532,0.09984145313501358,0.23566903173923492,-0.10854403674602509
1772376438110282200,2.9642822265625,0.1423668821044266,-0.5634916688784957,-0.20108955857753752,0.11879231035709381,0.27498602867126465,-0.07603421807289124
1772376438120231200,2.974231201171875,0.2903216473437846,-0.6094686994165182,0.15823299814760683,0.11623168736696243,0.2781674265861511,-0.04653198644518852
1772376438130181000,2.98418115234375,0.43582755812630053,-0.6724930186063051,0.497249848946929,0.08549904823303223,0.26244252920150757,-0.025084057822823524
1772376438140130300,2.99413037109375,0.5022509451698511,-0.6884945975974202,0.714231973183155,0.03979415073990822,0.23324017226696014,-0.01151631772518158
1772376438150080300,3.004080322265625,0.5551395086620002,-0.7039046404361724,0.7953846542596816,-0.012095190584659576,0.23060327768325806,-0.0029650814831256866
1772376438160029200,3.014029296875,0.6258779093604534,-0.7749895164847374,0.744133774971962,-0.06683779507875443,0.25807058811187744,0.004940512590110302
1772376438169979100,3.023979248046875,0.7466076908048241,-0.8380331248968839,0.7040133615076541,-0.12563614547252655,0.2941628098487854,0.012834121473133564
1772376438179928000,3.033927978515625,1.0141018586602062,-0.919638225916028,0.7807055560439825,-0.19611430168151855,0.2805516719818115,0.027725454419851303
1772376438189878300,3.043878173828125,1.2771877816192805,-0.9983251014009118,0.8196510805100202,-0.27766162157058716,0.21617119014263153,0.05116639286279678
1772376438199828200,3.053828125,1.380399295899272,-0.9796426127627491,0.8040817554563283,-0.37209969758987427,0.0911826491355896,0.06803858280181885
1772376438209777200,3.063777099609375,1.153053379363194,-0.8475397889107465,0.568405452144146,-0.4746294319629669,-0.06553061306476593,0.07126934826374054
1772376438219727400,3.073727294921875,0.7593689727004617,-0.680531363633275,0.055009939560294145,-0.5739885568618774,-0.21289609372615814,0.03421226143836975
1772376438229676300,3.08367626953125,0.3809700326487422,-0.5641211989536881,-0.6805471457242965,-0.6390093564987183,-0.2792012393474579,-0.02354399859905243
1772376438239626200,3.093626220703125,0.20704649422056973,-0.41258682166188954,-1.4778548770010471,-0.6597830653190613,-0.26011142134666443,-0.07770363986492157
1772376438249575200,3.1035751953125,0.2867858744330704,-0.2651853063911199,-2.2751889117628337,-0.6101862192153931,-0.1428905427455902,-0.1131838709115982
1772376438259525000,3.113525146484375,0.5415653029482811,-0.0951248000666499,-2.8507407285302877,-0.4953120946884155,0.04588763415813446,-0.09388714283704758
1772376438269474300,3.123474365234375,0.8771343513812869,0.16941519415825604,-2.9865730942994353,-0.3410555124282837,0.24865567684173584,-0.023649120703339577
1772376438279424300,3.13342431640625,1.2876577377073466,0.37428105640411374,-2.7366642674952746,-0.17295892536640167,0.4155213534832001,0.10388859361410141
1772376438289373200,3.143373291015625,1.559848392815888,0.6214733177259564,-2.174247826632857,-0.033968184143304825,0.4848882555961609,0.2594190537929535
1772376438299323100,3.1533232421875,1.7486860803246498,0.7258277184307574,-1.4388210897296667,0.0506066232919693,0.47762396931648254,0.4361365735530853
1772376438309272000,3.16327197265625,1.7615899855613708,0.7246227265551686,-0.7968956433445215,0.0901375412940979,0.4173268675804138,0.5931394696235657
1772376438319222300,3.17322216796875,1.6419585207477212,0.6647349518254398,-0.38209669859111306,0.12014204263687134,0.36615580320358276,0.7086756229400635
1772376438329172200,3.183172119140625,1.3969862735629082,0.6068287063017487,-0.17985387832522393,0.14544501900672913,0.3080610930919647,0.7762304544448853
1772376438339121200,3.19312109375,1.1791356959290802,0.5339426260501146,-0.07289046416580676,0.19129826128482819,0.28461354970932007,0.8122201561927795
1772376438349071400,3.2030712890625,0.9874898191317916,0.483394634334743,0.020666940453648565,0.2361404150724411,0.2760276198387146,0.8366539478302002
1772376438359020300,3.213020263671875,0.8633752175547182,0.5018342541277409,0.17723463573753834,0.2644018828868866,0.2544882297515869,0.8593477606773376
1772376438368970200,3.22297021484375,0.8142483446836472,0.5172586177527905,0.3873270004600286,0.2781055271625519,0.2280387431383133,0.8884494304656982
1772376438378919200,3.232919189453125,0.8049046892117708,0.5158657020896673,0.5564408735841513,0.2826233208179474,0.18652673065662384,0.919552743434906
1772376438388869000,3.242869140625,0.7482203136332333,0.5128358328744769,0.7034393610119819,0.2625087797641754,0.10906197130680084,0.9415504336357117
1772376438398818300,3.252818359375,0.6982471991963685,0.47403176270574326,0.7805740386188029,0.22542160749435425,0.01871848851442337,0.9483462572097778
1772376438408768300,3.262768310546875,0.5928736845768988,0.39886253995299337,0.7063701537668705,0.18223921954631805,-0.07567091286182404,0.9389499425888062
1772376438418717200,3.27271728515625,0.4322472154214978,0.33989334137290717,0.5340250436365604,0.13145433366298676,-0.16730469465255737,0.9083760380744934
1772376438428667100,3.282667236328125,0.17859364913105963,0.3293608414426446,0.20203706856071948,0.08039859682321548,-0.23884236812591553,0.8488782644271851
1772376438438617300,3.292617431640625,-0.12464198645204305,0.3700850660189986,-0.23028525792360305,0.02998015657067299,-0.2936360836029053,0.7731379866600037
1772376438448566300,3.302566162109375,-0.3590755231615156,0.4152557486101985,-0.7701584430664777,-0.0058669596910476685,-0.29499635100364685,0.6963773965835571
1772376438458516200,3.31251611328125,-0.48238494583554564,0.48120443081408737,-1.2622855421721935,-0.027683574706315994,-0.26687923073768616,0.6063934564590454
1772376438468465200,3.322465087890625,-0.5483349432136864,0.5375327594965696,-1.7489187200367449,-0.017615091055631638,-0.165962815284729,0.5207769870758057
1772376438478415400,3.332415283203125,-0.5327182718869299,0.6268517958939075,-2.1119769561588764,0.03533574193716049,-0.011339685879647732,0.4490841329097748
1772376438488364300,3.3423642578125,-0.4206228286013007,0.810730984212458,-2.240728423756361,0.11580181121826172,0.1573123335838318,0.4043121039867401
1772376438498314200,3.352314208984375,-0.21349355146810411,1.0619263436958193,-2.0275416001498696,0.2043151706457138,0.286603718996048,0.41264113783836365
1772376438508263200,3.36226318359375,0.06397592082619667,1.2609805970534682,-1.5289870983451603,0.28119584918022156,0.3524710237979889,0.46960538625717163
1772376438518213400,3.37221337890625,0.27468656357750293,1.3346376616775988,-0.8867799124091863,0.3342345654964447,0.3710060715675354,0.5409882068634033
1772376438528162300,3.382162353515625,0.2824139429591596,1.3362626325309275,-0.2751023047715425,0.37718895077705383,0.3687775433063507,0.6047430038452148
1772376438538112300,3.3921123046875,0.21455372804552317,1.2579957360237837,0.20419161624610424,0.4039206802845001,0.3450964391231537,0.6421084403991699
1772376438548061200,3.402061279296875,0.07094926697015762,1.1173714598029851,0.73121291860044,0.398062139749527,0.29171767830848694,0.6391621828079224
1772376438558011100,3.41201123046875,-0.013198942660540341,0.9376096436753869,1.162404195228219,0.3688749670982361,0.22006691992282867,0.6043053865432739
1772376438567961000,3.421961181640625,-0.17253778315819798,0.7832543637439608,1.4567752640932798,0.3136512041091919,0.1749313771724701,0.5425450205802917
1772376438577910300,3.43191015625,-0.2863713022828102,0.6768781018227339,1.6625252156972885,0.2312479466199875,0.11285443603992462,0.4658103287220001
1772376438587860200,3.441860107421875,-0.40956104409992694,0.599517214244604,1.7700842576622962,0.13503555953502655,0.07040398567914963,0.37996190786361694
1772376438597809200,3.45180908203125,-0.4365707046438008,0.5032373989239335,1.7906646888762712,0.042645446956157684,0.03381774574518204,0.29630085825920105
1772376438607759400,3.46175927734375,-0.4627835887867957,0.4524816096767783,1.6731038928568363,-0.03510959446430206,0.00016371067613363266,0.22133368253707886
1772376438617708300,3.471708251953125,-0.4434874982949346,0.42105537479966876,1.4643980140566826,-0.08727852255105972,-0.027814127504825592,0.1602865755558014
1772376438627658200,3.481658203125,-0.36320918890014287,0.41284488807618613,1.1985539514958858,-0.10738763958215714,-0.04474019259214401,0.11330164968967438
1772376438637607200,3.491607177734375,-0.35002807415723797,0.41528789731413124,0.9601017537295817,-0.10839910805225372,-0.050474513322114944,0.0781460627913475
1772376438647557400,3.501557373046875,-0.32547757026851176,0.3953483943521976,0.7767647094637155,-0.10412318259477615,-0.042674534022808075,0.04472789913415909
1772376438657506300,3.51150634765625,-0.29269466008543965,0.3530316398873925,0.7023802073478699,-0.1025061085820198,-0.03174998238682747,0.021057989448308945
1772376438667455700,3.521455810546875,-0.2758499813336879,0.3034922406926751,0.7015484326988458,-0.10901790857315063,-0.03250528499484062,-0.00459239212796092
1772376438677404700,3.53140478515625,-0.22781448389589784,0.2530333885654807,0.7293260819405317,-0.12898121774196625,-0.03688778355717659,-0.034727923572063446
1772376438687355000,3.54135498046875,-0.20356413199752568,0.16795009004175662,0.7166647532880306,-0.15126605331897736,-0.03321613371372223,-0.06311318278312683
1772376438697304800,3.551304931640625,-0.19467172742448746,0.10599281556159257,0.6864040550589561,-0.17782947421073914,-0.035052914172410965,-0.09752868115901947
1772376438707253800,3.561253662109375,-0.19074680906571448,0.06745324154794216,0.6333119318187237,-0.20002706348896027,-0.035766828805208206,-0.13058985769748688
1772376438717204000,3.571203857421875,-0.14825396738164126,0.006520633940398693,0.5524783996939658,-0.21462811529636383,-0.027816226705908775,-0.1534578949213028
1772376438727153000,3.58115283203125,-0.11497815911509096,-0.024721184280514716,0.4475292479664087,-0.21856176853179932,-0.030135009437799454,-0.17528527975082397
1772376438737102800,3.591102783203125,-0.06135631291233003,-0.0344774391412735,0.3773427820622921,-0.2103152871131897,-0.04287450760602951,-0.18832996487617493
1772376438747051800,3.6010517578125,0.005051292040199041,-0.087746672514081,0.2998778495877981,-0.19450844824314117,-0.04543645307421684,-0.19140371680259705
1772376438757001700,3.611001708984375,0.0559898174431175,-0.1299187578111887,0.2319043835580349,-0.1691082864999771,-0.04597840830683708,-0.19431614875793457
1772376438766951000,3.620950927734375,0.028259003017842767,-0.17064678177982567,0.2181178502678871,-0.1561390608549118,-0.04136284813284874,-0.19690611958503723
1772376438776900900,3.63090087890625,0.06965842344202101,-0.2474909520074725,0.29791151795089243,-0.15024176239967346,-0.02896769717335701,-0.2015562653541565
1772376438786849800,3.640849853515625,0.09859247617721557,-0.3165320472687483,0.4126899897754192,-0.15706442296504974,-0.03141069412231445,-0.2066286951303482
1772376438796799700,3.6507998046875,0.10516593628339468,-0.3588935176581144,0.5299345594525336,-0.17360344529151917,-0.05526116490364075,-0.22064518928527832
1772376438806749700,3.660749755859375,0.1114558302078396,-0.42019057466387744,0.5966892973423004,-0.19845233857631683,-0.08507472276687622,-0.23839356005191803
1772376438816699000,3.670698974609375,0.12098207570500671,-0.4509411022365093,0.5903472348392009,-0.2223166525363922,-0.11634529381990433,-0.2549746334552765
1772376438826648800,3.68064892578125,0.1380232268769294,-0.4491799377828836,0.44325288582146166,-0.23527014255523682,-0.14267310500144958,-0.2712429463863373
1772376438836597800,3.69059765625,0.18780111100263894,-0.43851036746948957,0.21956395742297172,-0.2225780487060547,-0.1381651759147644,-0.28025349974632263
1772376438846548000,3.7005478515625,0.2487574648119509,-0.398719624350965,0.018718144473433493,-0.1938924342393875,-0.11498825997114182,-0.2742229104042053
1772376438856497000,3.710496826171875,0.3324422216493636,-0.335809286929667,-0.04799976853728294,-0.15677356719970703,-0.10718892514705658,-0.2565680146217346
1772376438866446800,3.72044677734375,0.45131183524504304,-0.3365729647785425,0.007470774272084236,-0.12073878943920135,-0.12002990394830704,-0.23257139325141907
1772376438876395800,3.730395751953125,0.5546998020704835,-0.35610710180997845,0.12472761890888213,-0.09828461706638336,-0.1539900004863739,-0.20274852216243744
1772376438886346000,3.740345947265625,0.5524122756551951,-0.3755275493338704,0.22110358808040617,-0.08900136500597,-0.2118660807609558,-0.18261556327342987
1772376438896295000,3.750294921875,0.500923203697428,-0.4505719766631722,0.2594067229896784,-0.09589416533708572,-0.2733272910118103,-0.17647723853588104
1772376438906244900,3.760244873046875,0.46189957249388097,-0.5337511951312423,0.14745324545800684,-0.1019725352525711,-0.31526461243629456,-0.18252958357334137
1772376438916193800,3.77019384765625,0.3779255503863096,-0.5522311469346285,-0.11696575273573398,-0.09019789844751358,-0.34310343861579895,-0.19442857801914215
1772376438926143700,3.780143798828125,0.29160489208735524,-0.5287973721161484,-0.36100539524555203,-0.06607344001531601,-0.3621709644794464,-0.21272282302379608
1772376438936093700,3.79009375,0.2854030417725444,-0.5126940863162279,-0.5525882898092269,-0.03436664119362831,-0.3692626953125,-0.22144946455955505
1772376438946043000,3.80004296875,0.31948019301723685,-0.4675266185954213,-0.6980155823975801,-0.020120788365602493,-0.37929946184158325,-0.2208613157272339
1772376438955992600,3.80999267578125,0.3314457944905385,-0.391587872774899,-0.8079495368003845,0.004260451067239046,-0.4115743041038513,-0.20877216756343842
1772376438965941800,3.819941650390625,0.3011817352605983,-0.3223898333862424,-1.0393050543040037,0.04479312524199486,-0.4240373969078064,-0.19092833995819092
1772376438975891700,3.8298916015625,0.2661105680098757,-0.30581016224622726,-1.154703703853488,0.100795678794384,-0.391825407743454,-0.17107713222503662
1772376438985841000,3.8398408203125,0.19540756741836665,-0.2753478039652109,-1.2436673509418963,0.16466668248176575,-0.3672066926956177,-0.14687255024909973
1772376438995790600,3.84979052734375,0.08564316089618951,-0.24277035322636364,-1.1747270857065915,0.21810327470302582,-0.3486814796924591,-0.1290741115808487
1772376439005739800,3.85973974609375,0.018875198198668657,-0.24507366173267364,-0.9306845205873251,0.24894042313098907,-0.33247068524360657,-0.12044808268547058
1772376439015689700,3.869689697265625,-0.038764030419290066,-0.32149551489502187,-0.5960147590816021,0.2579123377799988,-0.2910715937614441,-0.12433390319347382
1772376439025639000,3.879638916015625,-0.03303779825959354,-0.4515446210876107,-0.16732991231679917,0.22761009633541107,-0.26353025436401367,-0.14144551753997803
1772376439035588900,3.8895888671875,0.007441767373308539,-0.5892962644815445,0.3432365143209696,0.14869584143161774,-0.29899823665618896,-0.17353394627571106
1772376439045537800,3.899537841796875,-0.039602782798372205,-0.6666755644991994,0.703224841478467,0.03150486573576927,-0.38029003143310547,-0.2203022539615631
1772376439055487700,3.90948779296875,-0.15509546730685977,-0.68210723464787,0.886038154131174,-0.10967995226383209,-0.5084813237190247,-0.29613709449768066
1772376439065437700,3.919437744140625,-0.3503837557271123,-0.6971887761846184,0.7547878554552793,-0.24100914597511292,-0.6155975461006165,-0.4030400812625885
1772376439075387000,3.929386962890625,-0.6533557719379663,-0.6108297586366533,0.19596271708309648,-0.3523806631565094,-0.639468789100647,-0.5286363959312439
1772376439085336600,3.939336669921875,-0.830035331076011,-0.411241252271831,-0.5405909780234098,-0.4244818687438965,-0.5881545543670654,-0.6546644568443298
1772376439095285800,3.94928564453125,-0.7965266639016568,-0.14973960282951593,-1.0994704769313335,-0.4576840400695801,-0.4870111644268036,-0.7555156946182251
1772376439105235700,3.959235595703125,-0.47298510319702325,0.09963058705329894,-1.5497592527389525,-0.4270296096801758,-0.31853780150413513,-0.7891533374786377
1772376439115185000,3.969184814453125,-0.06349237509295344,0.46319560365378853,-1.8385703493893146,-0.34946396946907043,-0.15576167404651642,-0.7574495077133179
1772376439125132800,3.9791328125,-0.08031113395215943,0.43559301871806383,-1.8284008375525473,-0.22704429924488068,-0.0249316468834877,-0.6746139526367188
1772376439135082800,3.989082763671875,0.3760460202500224,0.7091004555135965,-1.8620026629030704,-0.09269048273563385,0.06250099837779999,-0.5610863566398621
1772376439145031700,3.99903173828125,0.7120085980452596,0.9261109290614724,-1.5815426304906606,0.0589635968208313,0.1214466318488121,-0.4238814413547516
1772376439154982000,4.00898193359375,0.9195057586427777,1.114521915590763,-1.1584423058599234,0.19132429361343384,0.15055978298187256,-0.27764245867729187
1772376439164931800,4.018931884765625,1.0831109513480215,1.1665820654347538,-0.6639426324039698,0.29518958926200867,0.15357333421707153,-0.1468166559934616
1772376439174880800,4.028880859375,1.052747669527307,1.101963170529902,-0.08088497005105018,0.3616165518760681,0.16068796813488007,-0.05597942695021629
1772376439184830700,4.038830810546875,0.8977218699231744,0.9727332717657089,0.45140930427014825,0.3776291608810425,0.15171661972999573,-0.008760900236666203
1772376439194779600,4.048779541015625,0.663337944509089,0.8161074165537953,0.9884230083286761,0.342883437871933,0.1204923763871193,0.002941828453913331
1772376439204729900,4.058729736328125,0.4675924138406291,0.6238520295560359,1.485871010196209,0.2751781642436981,0.06828376650810242,-0.006781105883419514
1772376439214678800,4.0686787109375,0.3042143809547648,0.44232378827780483,1.8670897569090126,0.17177027463912964,0.00016011018306016922,-0.04730323329567909
1772376439224628700,4.078628662109375,0.07375018626768141,0.26498013920783997,2.089698488855362,0.039794862270355225,-0.0796016976237297,-0.12299678474664688
1772376439234577700,4.08857763671875,-0.20302867341395467,0.10740677401274443,2.1932798593610525,-0.11502720415592194,-0.16817177832126617,-0.22870191931724548
1772376439244527900,4.09852783203125,-0.419872265962325,-0.050473465174436564,2.1194681886970996,-0.2626926004886627,-0.23223279416561127,-0.3496984541416168
1772376439254476800,4.108476806640625,-0.6123264634678139,-0.1131806812390685,1.8119611594051122,-0.3760830760002136,-0.25040701031684875,-0.46468815207481384
1772376439264426800,4.1184267578125,-0.7066314350515603,-0.05114449630379676,1.2132558460652827,-0.45984411239624023,-0.20802564918994904,-0.5471152067184448
1772376439274375700,4.128375732421875,-0.6105950000327081,0.09810878431349992,0.5087947407901287,-0.5130037665367126,-0.1653439700603485,-0.5971863865852356
1772376439284326000,4.138325927734375,-0.4336261025592684,0.2822811103597283,-0.01823825200200081,-0.5237979888916016,-0.06957580149173737,-0.598711371421814
1772376439294275800,4.14827587890625,-0.1008164358370006,0.41642070073634385,-0.5125228214025497,-0.48240742087364197,0.05641569197177887,-0.5524072647094727
1772376439304224800,4.158224853515625,0.2506605950195342,0.5375812748134136,-0.9309832112729549,-0.39734965562820435,0.1801527738571167,-0.4659271240234375
1772376439314174700,4.1681748046875,0.5549292634448036,0.6744225253641605,-1.1675976722180843,-0.273311048746109,0.2906862199306488,-0.3357827067375183
1772376439324124000,4.1781240234375,0.8335223694741726,0.8280892385095358,-1.1584756236076355,-0.13984890282154083,0.3637687861919403,-0.17929324507713318
1772376439334073900,4.188073974609375,1.0987187817811965,0.889292772012949,-0.9418804528623819,-0.02986299991607666,0.3727708160877228,-0.021366726607084274
1772376439344022800,4.198022705078125,1.1916577622413635,0.8469196111857891,-0.4756073414593935,0.03566679731011391,0.3406069576740265,0.10949379205703735
1772376439353972700,4.20797265625,1.0963479609966278,0.6347928180262447,0.10060615408718586,0.07161680608987808,0.2962197959423065,0.19170691072940826
1772376439363921700,4.217921630859375,0.8376546469733118,0.35538784762471914,0.5315981087505817,0.06722794473171234,0.24212463200092316,0.2186865508556366
1772376439373871900,4.227871826171875,0.5188490652820095,0.03813011642992496,0.8699526962488889,0.03723995015025139,0.16397017240524292,0.19886863231658936
1772376439383820800,4.23782080078125,0.24790957927834242,-0.23816110586524009,1.1359364595413208,-0.01804954558610916,0.09684421122074127,0.1425202339887619
1772376439393770800,4.247770751953125,-0.00809613962881267,-0.5083882058158516,1.24009826028347,-0.0831499844789505,0.04552030563354492,0.06983351707458496
1772376439403719700,4.2577197265625,-0.21770711404252796,-0.7328954648599029,1.212574878063798,-0.16568566858768463,0.013722553849220276,-0.02478898875415325
1772376439413670000,4.267669921875,-0.41868455401509996,-0.8717088922664522,1.0905150170594453,-0.2432270646095276,0.01482696644961834,-0.11423391103744507
1772376439423619800,4.277619873046875,-0.5772292849930003,-0.9028642012476921,0.8720312560886144,-0.30429503321647644,0.03335965424776077,-0.18253779411315918
1772376439433568800,4.28756884765625,-0.6376040760546923,-0.8503063310146332,0.5576064102321863,-0.34959807991981506,0.0551736056804657,-0.234049990773201
1772376439443518700,4.297518798828125,-0.5582032436141744,-0.7436030290961265,0.25248481477200985,-0.37044984102249146,0.07502423226833344,-0.2510872781276703
1772376439453468000,4.307468017578125,-0.4377811764121055,-0.6012894846141338,-0.054261167019605636,-0.37424299120903015,0.08903485536575317,-0.24779905378818512
1772376439463417900,4.31741796875,-0.2774902958866209,-0.4570964099958539,-0.3387023780226707,-0.35637253522872925,0.07218384742736816,-0.22027453780174255
1772376439473366800,4.32736669921875,-0.14245010340847075,-0.3208271141141653,-0.48919864443838595,-0.3178237974643707,0.07007462531328201,-0.17804986238479614
1772376439483316700,4.337316650390625,-0.04556326210536062,-0.19171733459830284,-0.6874737301170826,-0.24839872121810913,0.08099338412284851,-0.11946853995323181
1772376439493265700,4.347265625,0.008617533154413104,-0.12031857029497622,-0.8866396271556616,-0.16228486597537994,0.1034635379910469,-0.05375183746218681
1772376439503216600,4.357216552734375,0.04098309470824897,0.02640197697430849,-0.9259200826644897,-0.07799257338047028,0.14218583703041077,0.020824098959565163
1772376439513165800,4.367165771484375,-0.005842807744070888,0.04905220019966364,-0.7212047348052263,-0.0032695974223315716,0.18366482853889465,0.09530925750732422
1772376439523115500,4.377115478515625,-0.0833762023448944,-0.01281622695326805,-0.3599970949858427,0.042685095220804214,0.21337349712848663,0.17004141211509705
1772376439533065000,4.38706494140625,-0.17933095042966304,-0.1120087148502469,0.13070026357769965,0.0657547265291214,0.21991795301437378,0.2257172018289566
1772376439543014700,4.3970146484375,-0.27942886273376644,-0.2579945181041956,0.580272415548563,0.06268609315156937,0.20053528249263763,0.25830185413360596
1772376439552963800,4.4069638671875,-0.4122431227907538,-0.3943482773989439,0.8533768245011567,0.05469074845314026,0.18423113226890564,0.2800135612487793
1772376439562913500,4.41691357421875,-0.4868401716787368,-0.5508391080543399,1.1089029066652059,0.030682595446705818,0.154104083776474,0.28326159715652466
1772376439572863000,4.426863037109375,-0.5583596397522836,-0.6974091409370303,1.285992580974102,0.005091482773423195,0.1113656759262085,0.2692320644855499
1772376439582812700,4.436812744140625,-0.6273617181774228,-0.8306491521254181,1.410239138367772,-0.02435597963631153,0.06193935126066208,0.23505191504955292
1772376439592761900,4.446761962890625,-0.6926463104493915,-0.9160951464816928,1.4449176530390977,-0.0604545921087265,0.023325115442276,0.19346611201763153
1772376439602711600,4.456711669921875,-0.7289505996916442,-0.9800111538141966,1.405035724505782,-0.0950760617852211,-0.010425422340631485,0.14766386151313782
1772376439612660700,4.46666064453125,-0.7021955714959651,-1.033069667045772,1.3093529982954264,-0.1260204017162323,-0.026712782680988312,0.10259012877941132
1772376439622610700,4.476610595703125,-0.6486438679199665,-1.0244918083146213,1.1823843224614858,-0.14986002445220947,-0.02456667833030224,0.06652573496103287
1772376439632560600,4.486560546875,-0.6076171532656998,-1.001541725359857,1.025382327413559,-0.16809016466140747,-0.014518038369715214,0.03969092667102814
1772376439642509800,4.496509765625,-0.5009852360829711,-0.9521437804624437,0.8875164099901914,-0.18682430684566498,0.0026201633736491203,0.015254062600433826
1772376439652459800,4.506459716796875,-0.4135881076589226,-0.9267585793152451,0.7637211034953594,-0.20338250696659088,0.003953341394662857,-0.002067669527605176
1772376439662408700,4.51640869140625,-0.225869925699383,-0.913504253205657,0.6029764147877693,-0.21801121532917023,-0.011241761967539787,-0.009682537987828255
1772376439672359200,4.526359130859375,-0.059631242685392494,-0.8509694710984825,0.37351357916295524,-0.21369875967502594,-0.03387463837862015,-0.007372778840363026
1772376439682308000,4.53630810546875,0.04072692799009382,-0.8019996884852647,0.1416688168376684,-0.20066018402576447,-0.05874296650290489,0.0003157674800604582
1772376439692258000,4.546258056640625,0.13070019051246345,-0.7648574140489101,-0.08835282171368598,-0.1724541187286377,-0.07857419550418854,0.008661847561597824
1772376439702207000,4.55620703125,0.19112937864251434,-0.7105383793622255,-0.3206839062511921,-0.14438875019550323,-0.07219690829515457,0.02726341411471367
1772376439712157000,4.566156982421875,0.2225174734663218,-0.6750149382993579,-0.5490864191681146,-0.12242166697978973,-0.053501784801483154,0.048123955726623535
1772376439722106000,4.576106201171875,0.2404633914582431,-0.6775462103426456,-0.7502589798539876,-0.0803537666797638,-0.005977538414299488,0.08309139311313629
1772376439732056000,4.58605615234375,0.28992928702533244,-0.6758955205261707,-0.8986725947767495,-0.043839700520038605,0.053089775145053864,0.11868267506361008
1772376439742005000,4.5960048828125,0.29212592028677464,-0.6512500318303703,-0.9840683202505112,0.002986992709338665,0.10843617469072342,0.1529165804386139
1772376439751955000,4.605954833984375,0.332097865191102,-0.6314519831657409,-0.9218857125818729,0.06002338230609894,0.15985621511936188,0.20042629539966583
1772376439761905200,4.6159052734375,0.413578170786798,-0.7081906471922993,-0.7969424050956964,0.10850755870342255,0.22808320820331573,0.25825950503349304
1772376439771854000,4.62585400390625,0.45946927660703657,-0.8160030793964862,-0.48003918642699717,0.13421744108200073,0.2641858458518982,0.30987104773521423
1772376439781804000,4.635803955078125,0.4592395595043897,-0.9437214045539498,-0.03138064216971397,0.11402682960033417,0.26453569531440735,0.33831536769866943
1772376439791753000,4.6457529296875,0.466983086303249,-1.104299504522979,0.282483062672615,0.0709717720746994,0.25985783338546753,0.3575415313243866
1772376439801703200,4.655703125,0.43045448678582904,-1.2186895615518092,0.4168956247717142,0.022315513342618942,0.2713669538497925,0.359891414642334
1772376439811652000,4.665652099609375,0.44852067015655334,-1.3226631462454794,0.5002046070992946,-0.03529877960681915,0.301029235124588,0.35757046937942505
1772376439821602000,4.67560205078125,0.549944278106466,-1.4484820675224066,0.6372475177019834,-0.11447793245315552,0.2816804051399231,0.34751570224761963
1772376439831551000,4.685551025390625,0.6421691920131445,-1.5497534075200556,0.7809083851397037,-0.22500470280647278,0.22086073458194733,0.327090322971344
1772376439841501200,4.695501220703125,0.6403266328863799,-1.5713362937748432,0.7463385915398597,-0.34983164072036743,0.09540437906980515,0.29193949699401855
1772376439851450000,4.7054501953125,0.4012076417744159,-1.4165733098253608,0.47290685032904145,-0.47151970863342285,-0.07277850061655045,0.23142848908901215
1772376439861400000,4.715400146484375,0.06524046086929738,-1.1715379342764616,-0.20376842239797113,-0.5514049530029297,-0.21617534756660461,0.15725332498550415
1772376439871349000,4.725348876953125,-0.153554338812083,-0.9142191234767436,-1.0915759242892265,-0.575456976890564,-0.3379923105239868,0.08729127794504166
1772376439881299000,4.735298828125,-0.10174231851026415,-0.7395888250187039,-1.9381641115635633,-0.5258737206459045,-0.33122363686561584,0.03281020000576973
1772376439891248000,4.745248046875,0.1746609127920121,-0.5383768091052771,-2.764067238205671,-0.4093857705593109,-0.2241097092628479,0.018163878470659256
1772376439901198000,4.755197998046875,0.5415641339045018,-0.2642781284183264,-3.2696003468513486,-0.22568917274475098,-0.02866099402308464,0.06285817921161652
1772376439911148000,4.76514794921875,0.8666984436932951,0.07030658515244723,-3.342066448125243,-0.012833354994654655,0.21009965240955353,0.18000157177448273
1772376439921097000,4.775096923828125,1.2225764129225163,0.49620297024250026,-2.890971616631746,0.18652032315731049,0.37009164690971375,0.3382647931575775
1772376439931047200,4.785047119140625,1.556409066016972,0.7256959087446332,-2.0396587389230727,0.3214541971683502,0.43842223286628723,0.5294355154037476
1772376439940996000,4.79499609375,1.7704849474176763,0.803295281253755,-1.0690005198657513,0.39164456725120544,0.41169437766075134,0.725107729434967
1772376439950946000,4.804946044921875,1.7377978988245129,0.7783394114345311,-0.3177548670619726,0.4168980121612549,0.3516142666339874,0.8821186423301697
1772376439960895000,4.81489501953125,1.5405718838073312,0.6453095358654857,0.17431962507367132,0.41877782344818115,0.25430670380592346,0.9737658500671387
1772376439970845200,4.82484521484375,1.3707994006440043,0.47652357952147717,0.4274631960153579,0.4320068061351776,0.15265493094921112,1.0146442651748657
1772376439980794000,4.834794189453125,1.1644468069717286,0.3649740066155791,0.5061240602761506,0.44913429021835327,0.05829552561044693,1.012230396270752
1772376439990744000,4.844744140625,0.978448945998773,0.33523616321682925,0.5301268671542406,0.4621710181236267,-0.03391243517398834,0.9915639162063599
1772376440000693000,4.85469287109375,0.9034021805819124,0.3149702047795057,0.547796963879466,0.4615156054496765,-0.12061163783073425,0.9689475297927856
1772376440010643000,4.864642822265625,0.9348799995157867,0.2957949641883373,0.530187657430768,0.4430537819862366,-0.20047159492969513,0.9541190266609192
1772376440020592000,4.874592041015625,0.9898232305154204,0.3370002502799034,0.48353462732732294,0.4017285108566284,-0.29327642917633057,0.9348470568656921
1772376440030542000,4.8845419921875,0.9655199793860316,0.4190753068983555,0.3034498628556728,0.34923094511032104,-0.37953221797943115,0.9149585962295532
1772376440040492000,4.894491943359375,0.9073603436231613,0.48858372741043565,-0.05489361970424652,0.28140467405319214,-0.4439700245857239,0.8875808715820312
1772376440050441000,4.90444091796875,0.7156018002316356,0.6017416122958064,-0.5559007753580808,0.21443068981170654,-0.531229555606842,0.8569808602333069
1772376440060391200,4.91439111328125,0.4472106470039114,0.7039741985410451,-1.15686351223588,0.16169047355651855,-0.6169762015342712,0.8058478236198425
1772376440070340000,4.924340087890625,0.195542153583467,0.7650424152269959,-1.8330214830905198,0.12526455521583557,-0.6617258191108704,0.7256307601928711
1772376440080290000,4.9342900390625,0.013172182517778127,0.7702621957018971,-2.5830291185319423,0.13295133411884308,-0.6249884963035583,0.6357432007789612
1772376440090239000,4.944239013671875,-0.1611154582487419,0.8698889833629131,-3.306472572174668,0.1938365250825882,-0.45870575308799744,0.5339787602424622
1772376440100189200,4.954189208984375,-0.25407657747548074,1.0754305529132484,-3.758574534884095,0.28949734568595886,-0.20024986565113068,0.4541829526424408
1772376440110138000,4.96413818359375,-0.19399243992343543,1.3563728158846498,-3.779040984329581,0.39117950201034546,0.1332854926586151,0.4256030023097992
1772376440120088000,4.974088134765625,0.040816044745384715,1.65629304330945,-3.250536165419221,0.4791131019592285,0.4374291002750397,0.45533329248428345
1772376440130037000,4.984037109375,0.4022302628204226,1.910695089879632,-2.2556401616841555,0.5383325219154358,0.6289958953857422,0.539198637008667
1772376440139987200,4.9939873046875,0.6932561129108071,2.040053583459556,-1.1740741747558117,0.5792239904403687,0.7591227889060974,0.6424773931503296
1772376440149936000,5.00393603515625,0.771345899285376,2.076180543373525,-0.15840309401750563,0.5958519577980042,0.795604407787323,0.7560755610466003
1772376440159886000,5.013885986328125,0.8183264808427542,1.9947887928441166,0.7184060439974069,0.6066295504570007,0.7561309337615967,0.8434993624687195
1772376440169836000,5.0238359375,0.7856180972006171,1.829554099240899,1.4193892440289257,0.6153391599655151,0.6778073906898499,0.895687460899353
1772376440179785000,5.033784912109375,0.6430130224261432,1.6665309442073106,1.937791771119833,0.6151663661003113,0.5805701017379761,0.9117678999900818
1772376440189735200,5.043735107421875,0.413670013788715,1.4692346404328942,2.3708728070169687,0.5924943089485168,0.4803857207298279,0.8885650634765625
1772376440199684000,5.05368408203125,0.19824443481210619,1.263334466703236,2.7075293584257363,0.5387554168701172,0.37614667415618896,0.837364673614502
1772376440209634000,5.063634033203125,-0.009457235381565987,1.030054118616879,2.9724124669998884,0.4487735629081726,0.27864059805870056,0.7509778141975403
1772376440219583000,5.0735830078125,-0.18535724324816838,0.824992733798921,3.1273002463728186,0.3335281014442444,0.18957354128360748,0.6479820609092712
1772376440229533200,5.083533203125,-0.3209994384737685,0.6335428179651499,3.1589836708813905,0.19287486374378204,0.11099112033843994,0.5190454125404358
1772376440239482000,5.093482177734375,-0.36467429301664234,0.5219841849699616,3.0707535987645387,0.050174131989479065,0.03656439483165741,0.3922903537750244
1772376440249432000,5.10343212890625,-0.3887324468111619,0.4577811773896217,2.835411641973257,-0.07319760322570801,-0.010524021461606026,0.2624676525592804
1772376440259381000,5.113381103515625,-0.3549609639821574,0.41988603875935077,2.4551310528934,-0.18334577977657318,-0.0186176635324955,0.1539924144744873
1772376440269331200,5.123331298828125,-0.3238948311217129,0.45576837626248595,2.029609054073691,-0.253831684589386,-0.011366408318281174,0.06120522692799568
1772376440279280000,5.133280029296875,-0.208657801874727,0.5685597659230232,1.6301432875305413,-0.31537169218063354,-0.007728285621851683,-0.0030032102949917316
1772376440289230000,5.14322998046875,-0.03852247674837708,0.639902123863995,1.3185808453679084,-0.36721545457839966,-0.029199223965406418,-0.044514965265989304
1772376440299179000,5.153178955078125,0.10426398247499018,0.6720575497984885,1.0004080451548099,-0.3962649405002594,-0.058749545365571976,-0.07040455937385559
1772376440309129200,5.163129150390625,0.21477999281575902,0.6881108589768409,0.6439180815070867,-0.40836846828460693,-0.08778732270002365,-0.08527857810258865
1772376440319079200,5.1730791015625,0.27923474666746334,0.6851964328348636,0.21449556811749934,-0.3918587863445282,-0.10357984900474548,-0.09647949039936066
1772376440329028000,5.183028076171875,0.3206511730253696,0.6932286403819918,-0.1717629263281822,-0.3464689552783966,-0.08718889206647873,-0.09751732647418976
1772376440338978000,5.19297802734375,0.3465277744187042,0.6807733556956053,-0.486833668872714,-0.28716841340065,-0.05112062394618988,-0.08633996546268463
1772376440348927000,5.202927001953125,0.4268894147153944,0.6874743146389722,-0.6724176152825355,-0.2281181514263153,0.008765345439314842,-0.06658090651035309
1772376440358877200,5.212877197265625,0.473183256117627,0.6608695085689426,-0.7405816354483366,-0.17120479047298431,0.07255221158266068,-0.03182903677225113
1772376440368826000,5.222826171875,0.49126763273216784,0.6461661526948214,-0.6559019492894411,-0.12638698518276215,0.1405099481344223,0.008372178301215172
1772376440378776000,5.232776123046875,0.5119998569743708,0.59845250762254,-0.44583822613954543,-0.09602648764848709,0.17907840013504028,0.05379033461213112
1772376440388725000,5.24272509765625,0.501535928768292,0.48119770881235596,-0.11821253792643546,-0.09475483000278473,0.18319803476333618,0.0839700698852539
1772376440398675200,5.25267529296875,0.4425950064346194,0.3457502507075667,0.20126900679767132,-0.11410423368215561,0.1628333181142807,0.09891064465045929
1772376440408624000,5.2626240234375,0.3247079741355032,0.16275632079094648,0.40765667178332804,-0.135097935795784,0.1449057161808014,0.09441496431827545
1772376440418574000,5.272573974609375,0.17878957356195896,0.009573884031176566,0.5111427652209997,-0.15284566581249237,0.13688819110393524,0.07755031436681747
1772376440428523000,5.28252294921875,0.051430802431888877,-0.08270078730136156,0.5711117884933948,-0.16687627136707306,0.13388735055923462,0.04966329038143158
1772376440438473200,5.29247314453125,0.0403784068133682,-0.1546405266135931,0.6128600954204797,-0.18179991841316223,0.11569137871265411,0.018375588580965996
1772376440448423200,5.302423095703125,0.0500510750439018,-0.2611228792577982,0.7320172207206487,-0.19813655316829681,0.09125421196222305,-0.011337032541632652
1772376440458372000,5.3123720703125,0.027563860360533,-0.277154853387177,0.7963806795597076,-0.22158797085285187,0.07435588538646698,-0.04153777286410332
1772376440468322000,5.322322021484375,0.052536717847175896,-0.2719520240470767,0.8272767530828714,-0.24480168521404266,0.06900292634963989,-0.06064862012863159
1772376440478271000,5.33227099609375,0.10330653561968356,-0.2764364759847522,0.833066442400217,-0.26742875576019287,0.05505049228668213,-0.06732768565416336
1772376440488221200,5.34222119140625,0.17400179129615426,-0.30516017390489575,0.8301169449448585,-0.2847459614276886,0.029438870027661324,-0.07181591540575027
1772376440498170000,5.352170166015625,0.2375657703205943,-0.3639958092331886,0.7849690587073564,-0.29586559534072876,-0.00891578383743763,-0.07067511230707169
1772376440508120000,5.3621201171875,0.2774452511684969,-0.4041223601773381,0.7075584867686033,-0.2892441749572754,-0.06971974670886993,-0.07105807960033417
1772376440518069000,5.372069091796875,0.32626992622260004,-0.4411658504143357,0.5042816472798586,-0.2757278382778168,-0.13212986290454865,-0.07520595192909241
1772376440528019200,5.382019287109375,0.2787253906395286,-0.44258243921399115,0.2452759063065052,-0.2449377030134201,-0.17266717553138733,-0.0761505737900734
1772376440537968000,5.391968017578125,0.2594089514793828,-0.4496949015676975,-0.0385685078471899,-0.21121691167354584,-0.19261369109153748,-0.07194556295871735
1772376440547918000,5.40191796875,0.27959939699508246,-0.4579804993540048,-0.2794780356377363,-0.17348258197307587,-0.19801616668701172,-0.06320054829120636
1772376440557867000,5.411866943359375,0.29183013394428414,-0.4548147287994623,-0.4252338295280933,-0.1390586793422699,-0.20986470580101013,-0.054835230112075806
1772376440567817200,5.421817138671875,0.31969737943187354,-0.45858752533644437,-0.5470505294263363,-0.10924752056598663,-0.2135273516178131,-0.03903309628367424
1772376440577766100,5.43176611328125,0.2898439102968201,-0.4546715209364891,-0.6460650304079055,-0.08138682693243027,-0.2180684357881546,-0.024811534211039543
1772376440587716000,5.441716064453125,0.23844001413816585,-0.46838177412003273,-0.7296171738415956,-0.056453246623277664,-0.23682720959186554,-0.013531716540455818
1772376440597666000,5.451666015625,0.13343602695083245,-0.46882601075619457,-0.8233663016408681,-0.03217794746160507,-0.25324708223342896,-0.01231846958398819
1772376440607615200,5.461615234375,0.04739535463703796,-0.5063613761633634,-0.898440539586544,-0.0009590440895408392,-0.2552516460418701,-0.019344156607985497
1772376440617565200,5.471565185546875,-0.029352113750483837,-0.5801403136014938,-0.9204033650696277,0.016650527715682983,-0.23419775068759918,-0.03654962033033371
1772376440627514000,5.48151416015625,-0.08156745415618642,-0.6796624718442559,-0.851740747731924,0.013227300718426704,-0.21175529062747955,-0.05970074608922005
1772376440637464000,5.491464111328125,-0.08314327950500883,-0.7836117988795042,-0.6490121897757053,-0.02301853336393833,-0.21836969256401062,-0.0904555544257164
1772376440647413000,5.5014130859375,-0.13538249397664331,-0.8419280865088105,-0.4331517630457878,-0.08765638619661331,-0.28125038743019104,-0.13748511672019958
1772376440657363200,5.51136328125,-0.2770054532454349,-0.8574582485958934,-0.35664427742660043,-0.16445285081863403,-0.3757590651512146,-0.2031407207250595
1772376440667311600,5.5213115234375,-0.44541492269355804,-0.8381593816250562,-0.5359224016904831,-0.23359331488609314,-0.44651898741722107,-0.2875860929489136
1772376440677261600,5.531261474609375,-0.6499341999914496,-0.7849240505218505,-0.9579501286536455,-0.2719939649105072,-0.4593263268470764,-0.37896889448165894
1772376440687210500,5.54121044921875,-0.6978714977517724,-0.6735355133965611,-1.4166384840160609,-0.28494492173194885,-0.4351770579814911,-0.4615654945373535
1772376440697160700,5.55116064453125,-0.6134546272475272,-0.5454045157849788,-1.7161147670656443,-0.27701273560523987,-0.38141748309135437,-0.5306302905082703
1772376440707109600,5.561109619140625,-0.497061340637505,-0.3625964638292789,-1.9476281054794786,-0.21738827228546143,-0.29916226863861084,-0.5627267360687256
1772376440717059600,5.5710595703125,-0.29330153993740676,-0.16371873608231544,-2.075684576550126,-0.13096553087234497,-0.20256799459457397,-0.552467405796051
1772376440727009500,5.581009521484375,-0.0645158911881037,0.02298866139948368,-2.02800746409595,-0.037082452327013016,-0.08782115578651428,-0.508986234664917
1772376440736958500,5.59095849609375,0.07895159083567559,0.1962146460175514,-1.7611486715346574,0.05796302482485771,0.008894061669707298,-0.4383572041988373
1772376440746908700,5.60090869140625,0.14097831382285803,0.2843061864465475,-1.367131233525276,0.13711775839328766,0.10274945199489594,-0.35875293612480164
1772376440756857600,5.610857666015625,0.0835016918880865,0.26167817505300045,-0.8901099336147308,0.20063593983650208,0.17947353422641754,-0.28501179814338684
1772376440766807600,5.6208076171875,-0.04462352900325786,0.19104396538138388,-0.35375498572587966,0.25138646364212036,0.23811154067516327,-0.23984219133853912
1772376440776756500,5.630756591796875,-0.22261322545837608,0.08152998995631933,0.10110007508397102,0.293467253446579,0.29259786009788513,-0.22448958456516266
1772376440786706700,5.640706787109375,-0.35663024890124795,0.013322422909736632,0.5353004703998565,0.32017451524734497,0.3116474449634552,-0.22914451360702515
1772376440796655600,5.650655517578125,-0.3838903405422345,-0.0946197731539607,0.9788508778631687,0.3186870217323303,0.2947053015232086,-0.2459840327501297
1772376440806605600,5.66060546875,-0.4133515954893082,-0.12540771012753246,1.4087076910167933,0.28074735403060913,0.217603862285614,-0.28012388944625854
1772376440816554500,5.670554443359375,-0.4546057256912812,-0.14582856686562298,1.7366478520065545,0.20694731175899506,0.11228177696466446,-0.33007484674453735
1772376440826504700,5.680504638671875,-0.5277563020979985,-0.16653730063438416,1.8735118989109991,0.10009489953517914,-0.01943124458193779,-0.39246633648872375
1772376440836453600,5.69045361328125,-0.6210949859328567,-0.16499533188939094,1.8170277951449154,-0.03207600116729736,-0.13660073280334473,-0.4687759280204773
1772376440846403600,5.700403564453125,-0.6682276162467896,-0.14424042089134453,1.469020413160324,-0.1573375165462494,-0.21791929006576538,-0.5472827553749084
1772376440856352500,5.7103525390625,-0.6696088414721191,-0.021997604535520077,0.8246294534444808,-0.2465513050556183,-0.230634868144989,-0.6143500804901123
1772376440866302700,5.720302734375,-0.6981047219857573,0.2034711930170655,0.16890870594084262,-0.3095763325691223,-0.2126888930797577,-0.6602283716201782
1772376440876252700,5.730252685546875,-0.6319657779067754,0.3908294556230306,-0.25326398245096204,-0.3524578809738159,-0.18108603358268738,-0.6900644302368164
1772376440886201600,5.74020166015625,-0.4736151447288692,0.5718783889517187,-0.7264052260577678,-0.3607858419418335,-0.1083497703075409,-0.682159423828125
1772376440896151600,5.750151611328125,-0.27435453687785194,0.7393544317409396,-1.1103712256520986,-0.328591525554657,-0.0014022658579051495,-0.6302134990692139
1772376440906100500,5.7601005859375,-0.0733169642158784,0.874075913658738,-1.3838643416613339,-0.24870628118515015,0.13226205110549927,-0.5391456484794617
1772376440916050700,5.77005078125,0.10946206257473677,1.0209344080939888,-1.4257552719295024,-0.12221063673496246,0.2602347135543823,-0.41619768738746643
1772376440925999600,5.77999951171875,0.26546463478915394,1.1184081093743443,-1.2395242597877978,0.018843961879611015,0.36295071244239807,-0.268401563167572
1772376440935949600,5.789949462890625,0.4019531629120931,1.0620827033013105,-0.6543582269787788,0.13075485825538635,0.4056352972984314,-0.12666663527488708
1772376440945898500,5.7998984375,0.4517066797815263,0.8518529759347439,0.06589198358058929,0.2137157917022705,0.4043860137462616,0.0020881551317870617
1772376440955848700,5.8098486328125,0.37086120149064805,0.6510287902951241,0.5973772796064615,0.2721729874610901,0.37247511744499207,0.10160517692565918
1772376440965797600,5.819797607421875,0.12155147309079765,0.49847792943716046,1.1185089394003151,0.28664353489875793,0.3164006471633911,0.16493913531303406
1772376440975747600,5.82974755859375,-0.08750026000496,0.254123814150691,1.573124930757284,0.26765701174736023,0.24232499301433563,0.18855074048042297
1772376440985696500,5.839696533203125,-0.3032558746535331,-0.025773031421005725,1.8907704922258852,0.2159906029701233,0.16620519757270813,0.1744394451379776
1772376440995646700,5.849646728515625,-0.5883580337833613,-0.24700842918753624,2.076618642529845,0.14057819545269012,0.08475848287343979,0.11773965507745743
1772376441005595600,5.859595703125,-0.8336911501698195,-0.42895694170445203,2.150541956874728,0.03959698975086212,0.003172275610268116,0.03502799570560455
1772376441015545600,5.869545654296875,-1.036582497472316,-0.5552300364896655,2.0952952859491107,-0.07485222816467285,-0.05285564437508583,-0.06808970868587494
1772376441025495600,5.87949560546875,-1.1561154703475534,-0.6348588689997792,1.9208710314571857,-0.19162172079086304,-0.10367754846811295,-0.18234649300575256
1772376441035444700,5.88944482421875,-1.2197106482278555,-0.6048886781498789,1.6235253306955097,-0.2852701246738434,-0.12283943593502045,-0.2865917682647705
1772376441045394700,5.899394775390625,-1.1912203937374055,-0.49765170774608847,1.1518003836274147,-0.3519604802131653,-0.11422011256217957,-0.36983686685562134
1772376441055343600,5.909343505859375,-1.0522577671185136,-0.3457090419143438,0.7376075880736113,-0.3935171961784363,-0.10665030032396317,-0.422829806804657
1772376441065293600,5.91929345703125,-0.8263612456731497,-0.20017302825450897,0.4525368469953537,-0.4270322918891907,-0.12585222721099854,-0.4493176341056824
1772376441075242500,5.929242431640625,-0.5836271693365648,-0.09214812234342097,0.12661854722201824,-0.42899107933044434,-0.13230949640274048,-0.4395097494125366
1772376441085192700,5.939192626953125,-0.46202637721132483,0.0336754751086235,-0.21775778478384017,-0.4022468030452728,-0.12599167227745056,-0.40805384516716003
1772376441095141600,5.9491416015625,-0.3066242916407063,0.11730652899742126,-0.5277104536622762,-0.3521011173725128,-0.1133696585893631,-0.359515517950058
1772376441105091600,5.959091552734375,-0.17078553266339003,0.16423545343279838,-0.7459703427493571,-0.282562255859375,-0.07690432667732239,-0.2886253893375397
1772376441115040500,5.96904052734375,-0.022622129642032085,0.14809300466626882,-0.8919248740822077,-0.19093848764896393,-0.03051416389644146,-0.19974462687969208
1772376441124990700,5.97899072265625,0.02002367411404848,0.13695289423167706,-0.9303338074535131,-0.09305906295776367,0.026868700981140137,-0.1020905077457428
1772376441134939600,5.988939697265625,-0.04191727028582245,0.11342588817179203,-0.800156690967083,-0.013807859271764755,0.07257366180419922,-0.012168839573860168
1772376441144889600,5.9988896484375,-0.17513503310978412,-0.06488631366938352,-0.4724976850062608,0.03973552957177162,0.09253458678722382,0.05757135897874832
1772376441154838500,6.008838623046875,-0.2950327111115679,-0.29284195960164067,-0.06990180374383927,0.0665682852268219,0.0789460614323616,0.09684757888317108
1772376441164788700,6.018788818359375,-0.46769401105158026,-0.5369654810026288,0.2738151875704527,0.0761660486459732,0.060056522488594055,0.10281626135110855
1772376441174738700,6.02873876953125,-0.6150339323282241,-0.7174936053276062,0.48785015243887897,0.08276994526386261,0.04706011712551117,0.08953046053647995
1772376441184687600,6.0386875,-0.7911173522040248,-0.8259361521288752,0.5957581539720297,0.08198004961013794,0.03623676300048828,0.058814361691474915
1772376441194637600,6.048637451171875,-0.8859420002803206,-0.9499468549400567,0.7369120070248841,0.06828980892896652,0.014050770550966263,0.021674180403351784
1772376441204586500,6.05858642578125,-0.9225314631395042,-1.0646700894460082,0.8394295476913451,0.05135076865553856,0.0005163196474313736,-0.019470859318971634
1772376441214536700,6.06853662109375,-0.9307860812656581,-1.1375666910916566,0.9069283819466829,0.028616642579436302,-0.038157928735017776,-0.07129321992397308
1772376441224485600,6.078485595703125,-0.8814002651974558,-1.2134767953395842,0.9193886350691318,0.011098369024693966,-0.06991399079561234,-0.11953958123922348
1772376441234435600,6.088435546875,-0.8480863168776035,-1.2429215010106562,0.8639923265397548,-0.0074497004970908165,-0.08625597506761551,-0.16925375163555145
1772376441244384500,6.098384521484375,-0.8182045349635183,-1.1993261049121617,0.7695242368161678,-0.009679565206170082,-0.08814122527837753,-0.20636117458343506
1772376441254334700,6.108334716796875,-0.8000750040329992,-1.1667606368720531,0.6924801601022481,-0.026288604363799095,-0.07222574949264526,-0.23615847527980804
1772376441264283600,6.11828369140625,-0.7203210838384926,-1.130451013867557,0.6481757389515638,-0.0357164591550827,-0.06468314677476883,-0.2501896023750305
1772376441274233600,6.128233642578125,-0.6375920202907175,-1.1288409483224153,0.6147089381575584,-0.05132189765572548,-0.06246833875775337,-0.2570628821849823
1772376441284182500,6.1381826171875,-0.5910397471480071,-1.1438485478401184,0.5329138675242662,-0.06474795937538147,-0.06649477034807205,-0.27159178256988525
1772376441294132700,6.1481328125,-0.5714654242366553,-1.15471831690073,0.40229368344545363,-0.06497733294963837,-0.07729364186525345,-0.2857382893562317
1772376441304081700,6.15808154296875,-0.5332742252692579,-1.138602756141126,0.24590777446925638,-0.05807068571448326,-0.07470611482858658,-0.301593154668808
1772376441314031600,6.168031494140625,-0.5107831746609881,-1.1354898848176003,0.04744271917641162,-0.04794275015592575,-0.06774824857711792,-0.3114200532436371
1772376441323981600,6.177981689453125,-0.47000524713601916,-1.0963421157777309,-0.09179565564393996,-0.030529141426086426,-0.05847405269742012,-0.3215584456920624
1772376441333930800,6.1879306640625,-0.43670108955781906,-1.0757555470839142,-0.15941665497422217,-0.02571471780538559,-0.0539138987660408,-0.3246035873889923
1772376441343880700,6.197880615234375,-0.3454324169300496,-1.0614110876500606,-0.2288315519839525,-0.011676397174596786,-0.026311565190553665,-0.318121999502182
1772376441353829600,6.20782958984375,-0.21949257268719374,-1.0144976530447603,-0.2934767503738403,-0.0016420884057879448,-0.00534627353772521,-0.2990802228450775
1772376441363779600,6.217779541015625,-0.029042664208821952,-1.0229437020897865,-0.3094073099553585,0.008043828420341015,0.05384301394224167,-0.2650814950466156
1772376441373728500,6.227728515625,0.057649859609827395,-1.030628411373496,-0.27402912258207796,0.009493282064795494,0.12943106889724731,-0.2236369550228119
1772376441383678700,6.2376787109375,0.10877886608354746,-1.0573878234833478,-0.12535481089651584,0.00477735698223114,0.1879361867904663,-0.1906672865152359
1772376441393627600,6.247627685546875,0.17371690994016825,-1.137191135777533,0.13031331008672714,-0.031694211065769196,0.21224164962768555,-0.1630087047815323
1772376441403577600,6.25757763671875,0.35562107185870406,-1.3184206863701342,0.3972288012713194,-0.07892537117004395,0.2127380520105362,-0.15131449699401855
1772376441413526500,6.267526611328125,0.5185991456415504,-1.4924270077109336,0.591727291020751,-0.1486320048570633,0.17023427784442902,-0.1587657630443573
1772376441423476700,6.277476806640625,0.5983765197768807,-1.531117680633068,0.7296849783807993,-0.23861436545848846,0.07489631325006485,-0.18196454644203186
1772376441433425700,6.28742578125,0.5735213338531553,-1.4946461450651287,0.7057680962204933,-0.33805203437805176,-0.034299999475479126,-0.2148313820362091
1772376441443375600,6.297375732421875,0.43830520028620956,-1.410638366818428,0.4398305101573467,-0.44248896837234497,-0.14092418551445007,-0.258209228515625
1772376441453324500,6.307324462890625,0.287154488549754,-1.2171043381869793,-0.05487082335054874,-0.5286704301834106,-0.24377413094043732,-0.3057495653629303
1772376441463274800,6.317274658203125,0.22850261229053137,-1.0858873572587966,-0.7130126605212688,-0.5681272745132446,-0.3032155930995941,-0.3573211431503296
1772376441473223700,6.3272236328125,0.29857590014375746,-0.9463383090540766,-1.459456466001272,-0.5445815920829773,-0.2760099470615387,-0.3919334411621094
1772376441483173600,6.337173583984375,0.44950887747630475,-0.7491466346979141,-2.0996400371551514,-0.46854329109191895,-0.2110660970211029,-0.4049230217933655
1772376441493123600,6.34712353515625,0.7036587028510868,-0.48079877262264487,-2.5833564507901667,-0.33513352274894714,-0.08095280826091766,-0.37078920006752014
1772376441503072800,6.35707275390625,1.072072474656999,-0.10795213293582201,-2.825082555660605,-0.1554359346628189,0.07857080549001694,-0.2771415412425995
1772376441513022700,6.367022705078125,1.4959307780481874,0.20929741495251655,-2.792607103991508,0.0280142892152071,0.22795532643795013,-0.1151323989033699
1772376441522971600,6.3769716796875,1.8951187505632638,0.4688394547596574,-2.376013677036762,0.21044082939624786,0.3118464946746826,0.08085174858570099
1772376441532921600,6.386921630859375,2.1875521293640134,0.5670879398047923,-1.8191712369143962,0.33481526374816895,0.3301428556442261,0.29912710189819336
1772376441542870500,6.39687060546875,2.326161850892007,0.5380190817087889,-1.270538991254568,0.4229920208454132,0.30298155546188354,0.5035297870635986
1772376441552820700,6.40682080078125,2.2691820725634693,0.4699971003621816,-0.8346768002063035,0.4731560945510864,0.2521180510520935,0.6629613041877747
1772376441562769700,6.416769775390625,2.0383923722490667,0.3815738437607884,-0.5223287606239319,0.49963510036468506,0.13098523020744324,0.7706549763679504
1772376441572719600,6.4267197265625,1.8081085756301878,0.24452216532975435,-0.42356911118626595,0.5217537879943848,-0.007822421379387379,0.8325230479240417
1772376441582668500,6.43666845703125,1.566713310149312,0.11592705733776092,-0.4838075990498066,0.5374630093574524,-0.1406470537185669,0.8545111417770386
1772376441592618800,6.44661865234375,1.30299603048414,0.030391338871419427,-0.6505909833997487,0.5458310842514038,-0.2730022668838501,0.8462783098220825
1772376441602567700,6.456567626953125,1.0378765558708458,0.011873977667093276,-0.9329378524720668,0.5392589569091797,-0.4013708829879761,0.8081487417221069
1772376441612517600,6.466517578125,0.8038638749219477,0.025481354998052118,-1.347431092277169,0.5347875356674194,-0.5119516253471375,0.7560321092605591
1772376441622466600,6.476466552734375,0.5999651406751946,0.12495996636003255,-1.881669486403465,0.5217832922935486,-0.597251296043396,0.703437864780426
1772376441632416800,6.486416748046875,0.4415337704112753,0.2582882403537631,-2.463572133502364,0.5157737731933594,-0.6524087190628052,0.657245397567749
1772376441642366700,6.49636669921875,0.24291012702323495,0.41861937982439995,-2.9767069493234155,0.5091736316680908,-0.6654661893844604,0.6070280075073242
1772376441652315600,6.506315673828125,0.0701308997919783,0.5454954089388251,-3.5613995194017884,0.532977819442749,-0.5821966528892517,0.5514180064201355
1772376441662265600,6.516265625,-0.15466816353918983,0.7196215572670102,-4.047303213948011,0.5942342281341553,-0.4082232713699341,0.49099138379096985
1772376441672215300,6.52621533203125,-0.31520291755683716,0.9833692320704459,-4.2633360746353866,0.6769496202468872,-0.1724724918603897,0.4377202093601227
1772376441682165200,6.536165283203125,-0.33245924584940073,1.2641042820319532,-4.133512593892217,0.7656086087226868,0.09038577228784561,0.4224669337272644
1772376441692114400,6.546114501953125,-0.17184486899059265,1.5546698211342096,-3.5824575049996374,0.849513053894043,0.3283452093601227,0.4463074207305908
1772376441702064400,6.556064453125,0.08719616249185055,1.7631152954325078,-2.702657952997088,0.9183501601219177,0.5084409713745117,0.4971325397491455
1772376441712013300,6.566013427734375,0.27844171485994007,1.9696692568957805,-1.726574201759696,0.9914331436157227,0.6405230164527893,0.5690855979919434
1772376441721963300,6.57596337890625,0.2706146196971647,2.161027402792871,-0.7758084316521883,1.0419554710388184,0.7148923277854919,0.6525232195854187
1772376441731912200,6.585912109375,0.2904353003187105,2.20522105704546,0.21073124714791774,1.0732430219650269,0.7366406917572021,0.728717565536499
1772376441741862400,6.5958623046875,0.29686394512671976,2.169902783165872,1.0747001928120852,1.0927817821502686,0.7065054178237915,0.7971032857894897
1772376441751811300,6.605811279296875,0.2398644391844049,2.093172010184824,1.8076368664652107,1.0947256088256836,0.6486769318580627,0.8391060829162598
1772376441761761300,6.61576123046875,0.13309910488035528,1.9672160185247658,2.462346975621581,1.069867730140686,0.5625825524330139,0.84447181224823
1772376441771710200,6.625710205078125,-0.04036697210390121,1.83865335149765,3.0539234599947926,1.0094205141067505,0.46019527316093445,0.8188501596450806
1772376441781660400,6.635660400390625,-0.21483685583584008,1.6338348355248569,3.5049756213903427,0.9077961444854736,0.3733285665512085,0.7575679421424866
1772376441791609300,6.645609375,-0.3678064535625279,1.4352441080257297,3.8593712431073186,0.7664438486099243,0.2903374433517456,0.6674207448959351
1772376441801559300,6.655559326171875,-0.5186555154712871,1.3090019929006695,4.074741840493679,0.5908320546150208,0.18293242156505585,0.5595763325691223
1772376441811509200,6.66550927734375,-0.6441830891188234,1.2072563133895395,4.182400251179933,0.40041854977607727,0.08715079724788666,0.43365979194641113
1772376441821458400,6.67545849609375,-0.7225240737754851,1.1013330559328198,4.048447707808018,0.20968084037303925,0.014395102858543396,0.3100457191467285
1772376441831408400,6.685408447265625,-0.7401146024584769,0.974665116611123,3.7698213205635547,0.043490659445524216,-0.04938249662518501,0.180986225605011
1772376441841357300,6.695357421875,-0.7423972335029393,0.8793123530074953,3.3199913944393393,-0.07959878444671631,-0.06977378576993942,0.04574931040406227
1772376441851307300,6.705307373046875,-0.7307066495787352,0.8569076289758085,2.8766479077249762,-0.1675877720117569,-0.06383004784584045,-0.07241729646921158
1772376441861256400,6.71525634765625,-0.6617015754789114,0.9159282654821872,2.475965751129389,-0.23648029565811157,-0.04951608553528786,-0.16852357983589172
1772376441871206400,6.725206298828125,-0.4859618910068646,0.9701151982218027,2.165865198212862,-0.2971560060977936,-0.05208112299442291,-0.23293475806713104
1772376441881155300,6.7351552734375,-0.2915552807919681,1.0325853906601667,1.914014589691162,-0.350210964679718,-0.06412474066019058,-0.27107495069503784
1772376441891105300,6.745105224609375,-0.13058668366800993,1.0619292663052677,1.7246914567530154,-0.4052433669567108,-0.09609900414943695,-0.2861691117286682
1772376441901054200,6.75505419921875,0.03429612775761634,1.0259729867830871,1.4569097041279078,-0.4454198181629181,-0.11176425218582153,-0.2937389016151428
1772376441911004400,6.76500439453125,0.16325890001822263,0.962098772765696,1.128731642729044,-0.46764013171195984,-0.12421874701976776,-0.29946577548980713
1772376441920953300,6.774953369140625,0.23511023039463907,0.8931690289244055,0.8409078035503625,-0.4687613248825073,-0.12029378116130829,-0.299212247133255
1772376441930903300,6.7849033203125,0.29313064034990965,0.8279752567410469,0.5628747060239314,-0.45545563101768494,-0.11239404231309891,-0.2908131778240204
1772376441940853200,6.794853271484375,0.39386893291678277,0.7387208100125193,0.3396089714735746,-0.43699541687965393,-0.09666860848665237,-0.27278783917427063
1772376441950802400,6.804802490234375,0.473169410255365,0.6656435911029577,0.20745383291244507,-0.4122620224952698,-0.07490820437669754,-0.236167311668396
1772376441960752000,6.814752197265625,0.5360102991696447,0.5915048804417252,0.10169511836767196,-0.3855625092983246,-0.05081591755151749,-0.19014868140220642
1772376441970701300,6.824701416015625,0.5709482319621368,0.5189589919298887,0.014296820899844168,-0.3600015640258789,-0.02235426940023899,-0.13841617107391357
1772376441980651300,6.8346513671875,0.5608130242537707,0.4048082966148853,0.024310849913954734,-0.3359726369380951,-0.013488340191543102,-0.08744113147258759
1772376441990600400,6.844600341796875,0.5426678208300844,0.23007044612914324,0.06204056884944439,-0.33030399680137634,-0.027960194274783134,-0.053452394902706146
1772376442000550100,6.854550048828125,0.5262414405556395,0.02301788749396801,0.07654547954201697,-0.3183852732181549,-0.053843189030885696,-0.030516983941197395
1772376442010499300,6.864499267578125,0.4787755962319672,-0.15224427912682295,0.023782442125678063,-0.30221179127693176,-0.0852157324552536,-0.021423472091555595
1772376442020449300,6.87444921875,0.3803051755318418,-0.2629889653906226,-0.053992286950349806,-0.27857303619384766,-0.11306280642747879,-0.01729237660765648
1772376442030398200,6.884398193359375,0.3038300943449139,-0.3846019594103098,-0.14218611871004103,-0.24611496925354004,-0.13085432350635529,-0.015344275161623955
1772376442040348400,6.894348388671875,0.21846048969309775,-0.4533019861489534,-0.24095044432282448,-0.21600234508514404,-0.1357279121875763,-0.014381010085344315
1772376442050297300,6.90429736328125,0.16183789077177643,-0.47716246194690465,-0.2838876687735319,-0.18654747307300568,-0.12849828600883484,-0.014657474122941494
1772376442060247300,6.914247314453125,0.13722564675845206,-0.48831572412401436,-0.2744675139993429,-0.15780822932720184,-0.11440403759479523,-0.008626746013760567
1772376442070196200,6.9241962890625,0.13235864351028576,-0.5429048079237342,-0.2082230637192726,-0.1327739953994751,-0.08507224917411804,-0.003053015796467662
1772376442080146400,6.934146484375,0.14143257866268977,-0.6019815585315227,-0.08611176478862761,-0.12570755183696747,-0.08050145953893661,0.0036466983146965504
1772376442090095400,6.944095458984375,0.14161887674871831,-0.6663052698820829,0.07211889527142047,-0.12036507576704025,-0.09929072111845016,0.0069139981642365456
1772376442100045300,6.95404541015625,0.11487734735542908,-0.743094787313044,0.16616612923443316,-0.12377499043941498,-0.139283686876297,0.0028082027565687895
1772376442109995300,6.963995361328125,0.046014129411708564,-0.8438388885661959,0.17813479944765567,-0.12529438734054565,-0.19794178009033203,-0.010772572830319405
1772376442119944400,6.9739443359375,-0.017878971969243138,-0.9195771433785557,0.08647884453535079,-0.12185784429311752,-0.262088805437088,-0.03802070766687393
1772376442129894100,6.98389404296875,-0.1118697082383558,-0.9458771212831139,-0.15596797582507133,-0.09989794343709946,-0.31778907775878906,-0.07327350229024887
1772376442139843300,6.99384326171875,-0.18713950528874992,-0.9573986322507262,-0.42917584515213963,-0.06472957134246826,-0.35171374678611755,-0.10968423634767532
1772376442149793000,7.00379296875,-0.23693273311406374,-0.8877779835358262,-0.6648094783663749,-0.027182603254914284,-0.37484419345855713,-0.14291712641716003
1772376442159742500,7.013742431640625,-0.27680238668769597,-0.8146604326158762,-0.822178553161025,-0.0005890766624361277,-0.4026683568954468,-0.16511830687522888
1772376442169692200,7.023692138671875,-0.2707511238247156,-0.7906161246836185,-0.9431804295450449,0.016723470762372017,-0.38249483704566956,-0.18489350378513336
1772376442179641300,7.033641357421875,-0.3035089543654583,-0.7546832260370254,-1.0957722069352864,0.0488305389881134,-0.34031596779823303,-0.20078697800636292
1772376442189591300,7.04359130859375,-0.3206515748841688,-0.6737298669248819,-1.1273854888170958,0.06684266775846481,-0.30732855200767517,-0.21951518952846527
1772376442199540200,7.053540283203125,-0.4016465081157162,-0.6026072892144322,-1.101246838954091,0.08437692373991013,-0.2886052131652832,-0.23752668499946594
1772376442209490200,7.063490234375,-0.3860426232052967,-0.6161348793074488,-1.009738183557987,0.09552218019962311,-0.24887841939926147,-0.2497982382774353
1772376442219439400,7.073439453125,-0.35389066786952317,-0.6877692059323192,-0.8375327741593122,0.0830463320016861,-0.20068852603435516,-0.2651532292366028
1772376442229389300,7.083389404296875,-0.30366409012824297,-0.7716168251812457,-0.5369201805561781,0.03450614586472511,-0.226204514503479,-0.289247065782547
1772376442239338200,7.093338134765625,-0.3418847709184512,-0.8173144542559981,-0.2109334917217493,-0.03970177099108696,-0.31654930114746094,-0.3279030919075012
1772376442249288400,7.103288330078125,-0.5827327777801081,-0.8330003914266825,-0.11906418631970882,-0.13453008234500885,-0.4504290521144867,-0.394273966550827
1772376442259237400,7.1132373046875,-0.945990518529713,-0.841656576091051,-0.34404607713818547,-0.2299516797065735,-0.5769954919815063,-0.4922332763671875
1772376442269187300,7.123187255859375,-1.2697322049163282,-0.8883107752382755,-0.8800865522503852,-0.2986668050289154,-0.6319094896316528,-0.6192368268966675
1772376442279136300,7.13313623046875,-1.4723713310234248,-0.8530801796421408,-1.5513760402858257,-0.34156715869903564,-0.6128883957862854,-0.7687195539474487
1772376442289086500,7.14308642578125,-1.5377856140896677,-0.7459685891836881,-2.067866596275568,-0.359117716550827,-0.500592827796936,-0.9157406687736511
1772376442299036200,7.1530361328125,-1.485217076332122,-0.5175231139078736,-2.559603819280863,-0.32632195949554443,-0.3030547499656677,-1.0270330905914307
1772376442308985300,7.1629853515625,-1.174830838342011,-0.21102818426787853,-2.8093746989190578,-0.2283298671245575,-0.08483530580997467,-1.0722566843032837
1772376442318935000,7.17293505859375,-0.7530968336284161,0.15091449182778596,-2.7937615347236395,-0.08374524116516113,0.1265680193901062,-1.0468809604644775
1772376442328884500,7.182884521484375,-0.27889893884183836,0.48446898556798695,-2.329039744415879,0.0770324319601059,0.2874208986759186,-0.9621448516845703
1772376442338834200,7.192834228515625,0.12876040895576588,0.7309253338307142,-1.6062345886766909,0.21642839908599854,0.36510398983955383,-0.8210330009460449
1772376442348783400,7.202783447265625,0.37399741715714335,0.7986249513551592,-0.7321142513543367,0.31513798236846924,0.3697311580181122,-0.664918065071106
1772376442358733000,7.212733154296875,0.47091728394702076,0.7314099024772643,-0.015379355439543723,0.3826368451118469,0.34838220477104187,-0.5308756232261658
1772376442368682200,7.22268212890625,0.38830753592997785,0.6215984054103494,0.5846358714550733,0.42344704270362854,0.2970638871192932,-0.4339156746864319
1772376442378632200,7.232632080078125,0.17200044314479454,0.4916036597535014,1.0718681842565536,0.43176037073135376,0.22374732792377472,-0.38721874356269836
1772376442388581400,7.242581298828125,-0.06463401940874755,0.3221457954972982,1.4358604863584041,0.4021313786506653,0.15087111294269562,-0.37302669882774353
1772376442398531000,7.252531005859375,-0.3158295980878174,0.20032734203338623,1.7442776162326334,0.33028727769851685,0.07351134717464447,-0.4069119691848755
1772376442408480300,7.262480224609375,-0.547366171246767,0.059741351996362206,1.946485949707031,0.22655938565731049,-0.017359409481287003,-0.47409191727638245
1772376442418430200,7.27243017578125,-0.7617517761837691,0.004082008616626262,1.9586954429388046,0.0882534459233284,-0.10666345059871674,-0.5631752014160156
1772376442428379400,7.28237939453125,-0.8795175932560115,0.005223287606239318,1.8570728052854537,-0.06536561995744705,-0.17686162889003754,-0.6628933548927307
1772376442438329300,7.292329345703125,-0.8584038588829338,0.028694471825659273,1.5108184044480324,-0.1990528404712677,-0.19338734447956085,-0.7530466914176941
1772376442448278300,7.3022783203125,-0.7045828319586813,0.20026596723496912,0.9634995794743298,-0.29331281781196594,-0.17221437394618988,-0.8144044280052185
1772376442458228200,7.312228271484375,-0.4923995593715459,0.48469110388606784,0.4420061006307602,-0.33323708176612854,-0.13923539221286774,-0.8317373394966125
1772376442468178200,7.32217822265625,-0.21902345733810216,0.6661579703658819,0.0929360578507185,-0.3300287425518036,-0.08866804838180542,-0.8079769015312195
1772376442478127400,7.33212744140625,0.1527847426790744,0.8089134133964776,-0.20423077921271324,-0.2890288531780243,-0.014446811750531197,-0.7283918261528015
1772376442488077000,7.3420771484375,0.49880632114131,0.9565157119363545,-0.38545945302247997,-0.20871618390083313,0.04119750112295151,-0.6066355109214783
1772376442498026200,7.352026123046875,0.7880653442222625,1.0611731872409582,-0.4418775058150291,-0.10140863060951233,0.10305687040090561,-0.45528995990753174
1772376442507976200,7.36197607421875,0.9775761817522346,1.0826090662404895,-0.3883867386460304,0.01960087940096855,0.13994379341602325,-0.28540903329849243
1772376442517925400,7.37192529296875,0.9637807345032692,1.0121765166208148,-0.17249708582162857,0.13272662460803986,0.17012593150138855,-0.11959423124790192
1772376442527875000,7.381875,0.8078609817340969,0.8043874604046344,0.2516448568165302,0.18834641575813293,0.1623091697692871,0.0037359721027314663
1772376442537824300,7.39182421875,0.48586599288433785,0.5240086765348911,0.7213368367522954,0.1938660889863968,0.12681694328784943,0.07368522882461548
1772376442547774200,7.401774169921875,0.13656082617416976,0.26758739909678697,0.9729711721748113,0.1865517795085907,0.0813174843788147,0.10356428474187851
1772376442557723400,7.411723388671875,-0.160901998161152,0.06212444774061441,1.1097428646206855,0.17157575488090515,0.023676298558712006,0.08668197691440582
1772376442567673000,7.421673095703125,-0.37806510498747226,-0.13726093726754188,1.1740110463917255,0.1498294323682785,-0.019338833168148994,0.03491164371371269
1772376442577622300,7.431622314453125,-0.5980690247302874,-0.2679711377173662,1.186261456155777,0.12348198145627975,-0.051896512508392334,-0.04578426852822304
1772376442587572200,7.441572265625,-0.7214904198788106,-0.3450561309635639,1.1867080308794975,0.07007180899381638,-0.07607609033584595,-0.12845860421657562
1772376442597521400,7.451521484375,-0.7648669855948537,-0.36218612946271894,1.2031161448448895,0.010584244504570961,-0.07779941707849503,-0.21173618733882904
1772376442607471000,7.46147119140625,-0.7870667616389692,-0.319684373819828,1.1887152790486812,-0.0667656734585762,-0.06896411627531052,-0.28085988759994507
1772376442617421000,7.471421142578125,-0.7388630680274217,-0.253952256976068,1.105253151986003,-0.15361268818378448,-0.05464563146233559,-0.33470261096954346
1772376442627370200,7.481370361328125,-0.6386943555094301,-0.19278642513453959,0.9683949503004551,-0.23413905501365662,-0.038090504705905914,-0.36936864256858826
1772376442637320200,7.4913203125,-0.47700675992853936,-0.11779781964570284,0.6961439433068036,-0.278490275144577,-0.022439640015363693,-0.3873732089996338
1772376442647269400,7.501269287109375,-0.31991142404135314,-0.03197539319247007,0.343875396746397,-0.2966362237930298,0.0044837817549705505,-0.3862990140914917
1772376442657219000,7.511218994140625,-0.23512451464831827,0.06133768127709627,0.04271919778585434,-0.2810567319393158,0.01772928051650524,-0.37342768907546997
1772376442667167500,7.52116748046875,-0.16381934691257774,0.10986001238375902,-0.1626315253674984,-0.24020233750343323,0.02067939192056656,-0.3418877124786377
1772376442677117400,7.531117431640625,-0.07369440095983446,0.12612228813767432,-0.295355403727293,-0.18671327829360962,0.029481403529644012,-0.29961323738098145
1772376442687066400,7.54106640625,-0.04408909789957106,0.12059738723635673,-0.43502749378979205,-0.11275188624858856,0.06228940933942795,-0.24497775733470917
1772376442697016600,7.5510166015625,-0.07468385038860141,0.1309288116365671,-0.40777649877071376,-0.04984695464372635,0.10268290340900421,-0.1931755393743515
1772376442706965500,7.560965576171875,-0.1235919659424573,0.09903291342109441,-0.24731764126718042,-0.0017688570078462362,0.1482216864824295,-0.1470937728881836
1772376442716915500,7.57091552734375,-0.19379472539424894,0.019039923773705957,0.028153496816754338,0.018417904153466225,0.1783905178308487,-0.10493806004524231
1772376442726864400,7.580864501953125,-0.2608239693764597,-0.0883475610166788,0.36481004822552204,0.0190281979739666,0.181010901927948,-0.07730583846569061
1772376442736814300,7.590814453125,-0.3722898095216602,-0.22224428254812956,0.6571084024697542,0.014977796003222466,0.179946169257164,-0.06668222695589066
1772376442746763500,7.600763427734375,-0.47482137871347363,-0.32772476467341183,0.8616524854153395,0.00345712061971426,0.1676764190196991,-0.07466359436511993
1772376442756713500,7.61071337890625,-0.5535191409185528,-0.4197542290732264,0.9956360084474086,-0.01174047403037548,0.14785799384117126,-0.08998582512140274
