time,seconds_elapsed,accel_x,accel_y,accel_z,gyro_x,gyro_y,gyro_z
1772376447263880200,0.064880126953125,0.32855463962629433,-0.5972913548886776,-0.1638771415144205,-0.25903329253196716,0.07290053367614746,0.30977413058280945
1772376447273830100,0.074830078125,0.3839733791831881,-0.5683192351654172,-0.2610866389006376,-0.18957911431789398,0.07581616193056107,0.30612853169441223
1772376447283779300,0.084779296875,0.4917630515662953,-0.5690978183224797,-0.17726795348525046,-0.13080628216266632,0.07495999336242676,0.3092721104621887
1772376447293729300,0.094729248046875,0.5356124589584768,-0.5558978527486323,-0.047431028738617896,-0.10584022104740143,0.0787866860628128,0.31174778938293457
1772376447303678200,0.10467822265625,0.5657681259104982,-0.5194245636150241,0.16351882959604264,-0.11074595153331757,0.0428590327501297,0.3217953145503998
1772376447313628200,0.114628173828125,0.5885657947825268,-0.5437964960664511,0.30477205137014385,-0.12950445711612701,0.023771094158291817,0.3436462879180908
1772376447323577300,0.124577392578125,0.5714714155860244,-0.6276423617497087,0.30997838784158227,-0.1393582820892334,0.01434462983161211,0.3562511205673218
1772376447333527300,0.13452734375,0.5188139209033921,-0.6767983145847917,0.27470073823332786,-0.14005549252033234,0.013307861052453518,0.35632967948913574
1772376447343476200,0.144476318359375,0.43131051909327506,-0.7197472294732928,0.2624362999439239,-0.1394168734550476,0.011748936958611012,0.3419342339038849
1772376447353426200,0.15442626953125,0.3599481047449633,-0.7680275685176253,0.2321697564959526,-0.12323549389839172,0.00860960129648447,0.3208499848842621
1772376447363375000,0.164375,0.3435452514765784,-0.7862038611993193,0.19301380414962768,-0.09886281192302704,0.008590920828282833,0.3061616122722626
1772376447373325300,0.1743251953125,0.33972773901503533,-0.774822343224287,0.17459668844938278,-0.07471513748168945,0.010762994177639484,0.29260504245758057
1772376447383274200,0.184274169921875,0.27357549706306306,-0.7164949496790767,0.18620646222233772,-0.06251675635576248,0.022869229316711426,0.2826631963253021
1772376447393224200,0.19422412109375,0.2245615830471739,-0.7033224566340446,0.2614244925528765,-0.058149710297584534,0.036042824387550354,0.2648215889930725
1772376447403173000,0.204173095703125,0.30569870122838766,-0.7047256014302372,0.29213235002756116,-0.05585227161645889,0.048126570880413055,0.24702325463294983
1772376447413123300,0.214123291015625,0.3341844987394288,-0.6550754353374243,0.2763321388274431,-0.05365516245365143,0.06752237677574158,0.23114734888076782
1772376447423072300,0.224072265625,0.3196436034180224,-0.5545759564951062,0.3393582115828991,-0.05444350466132164,0.06659280508756638,0.23156549036502838
1772376447433022200,0.234022216796875,0.3604665025958791,-0.4442606015592813,0.4131348109334707,-0.05950910225510597,0.04454982280731201,0.2416737824678421
1772376447442971100,0.24397119140625,0.435833257214725,-0.43456864410638807,0.44522272458970547,-0.06502720713615417,0.024979721754789352,0.26011940836906433
1772376447452921300,0.25392138671875,0.47643089626934376,-0.4331336428672075,0.43332828865647316,-0.07079508155584335,-0.0004577264189720154,0.2663157880306244
1772376447462870300,0.263870361328125,0.4530001171255484,-0.4726438154786825,0.36600656453371044,-0.08046966791152954,-0.02736668288707733,0.26020312309265137
1772376447472820200,0.2738203125,0.39238742565475404,-0.4551140040069818,0.34092706833481784,-0.09797968715429306,-0.05095589905977249,0.23963101208209991
1772376447482769200,0.28376904296875,0.32544048966113476,-0.41614539092630143,0.3669797934800386,-0.137208491563797,-0.10090421140193939,0.22029082477092743
1772376447492719400,0.29371923828125,0.24724749864041803,-0.41402883716374633,0.39974867513775825,-0.202847421169281,-0.1650128960609436,0.19270206987857819
1772376447502668300,0.303668212890625,0.10894227648433297,-0.3914326822131872,0.31148353170752524,-0.28966331481933594,-0.24668408930301666,0.15962831676006317
1772376447512618200,0.3136181640625,-0.04934197692647576,-0.43078678748011584,0.16660218256413936,-0.3771790564060211,-0.32291361689567566,0.10204464197158813
1772376447522567200,0.323567138671875,-0.2285765360432677,-0.43324820915758605,-0.21891747621297836,-0.4466986358165741,-0.339367151260376,0.03669827803969383
1772376447532517000,0.33351708984375,-0.33269955741129814,-0.3341588893741369,-0.7104378415971994,-0.47031527757644653,-0.3507803678512573,-0.022997543215751648
1772376447542466300,0.34346630859375,-0.3261595611833036,-0.19452976167052982,-1.26328039842844,-0.43356573581695557,-0.3156183362007141,-0.06032818183302879
1772376447552416300,0.353416259765625,-0.27866063657393675,-0.06577887859493493,-1.7428414459496735,-0.3412911891937256,-0.24073532223701477,-0.08414855599403381
1772376447562365200,0.363365234375,-0.1698120662550442,0.10216156683564186,-1.9530068759083747,-0.22144469618797302,-0.178522989153862,-0.07313959300518036
1772376447572315100,0.373315185546875,-0.10779311558236368,0.2457277417272329,-1.9599293686479329,-0.10855809599161148,-0.11392322927713394,-0.030524753034114838
1772376447582264000,0.38326416015625,-0.050079725749650965,0.3217655640080571,-1.766899197885394,-0.02242397703230381,-0.046264246106147766,0.028339050710201263
1772376447592214300,0.39321435546875,0.01075861857002601,0.3759700324043631,-1.4699223304361104,0.04451910778880119,0.00011896342039108276,0.10208410769701004
1772376447602163200,0.4031630859375,0.06342142874859273,0.35577217076718803,-1.1708750864535569,0.09600242227315903,0.01844121888279915,0.16170601546764374
1772376447612113200,0.413113037109375,-0.029701995767233893,0.2833908251672983,-0.9062871614336967,0.1443539708852768,0.025106310844421387,0.20083770155906677
1772376447622062000,0.42306201171875,-0.18830169920222833,0.2124631855070591,-0.7180266892910003,0.20036722719669342,0.03897725045681,0.21948008239269257
1772376447632012300,0.43301220703125,-0.3336230289317667,0.17802724741995335,-0.5035989257127046,0.25570690631866455,0.02243315801024437,0.22144310176372528
1772376447641961200,0.442961181640625,-0.4718647573975846,0.1444116858050227,-0.25813129622638226,0.3145509660243988,0.0013604266569018364,0.21697495877742767
1772376447651911200,0.4529111328125,-0.564988629437983,0.07528495808690785,-0.012487141129374503,0.3599586486816406,-0.015048639848828316,0.2025267630815506
1772376447661860400,0.4628603515625,-0.631009061703831,0.03436813354790211,0.22702479482293128,0.3835100531578064,-0.01068558357656002,0.17374812066555023
1772376447671810000,0.47281005859375,-0.7265516487911343,0.0063005614489316936,0.5351625232338905,0.3736158609390259,-0.007706305477768183,0.1318691074848175
1772376447681759200,0.48275927734375,-0.7520423561394214,-0.004289221626520156,0.8133248000979423,0.3271511197090149,0.015539058484137058,0.08114072680473328
1772376447691709000,0.492708984375,-0.7505775442838668,-0.036063539288938046,1.0123387214452029,0.24206843972206116,0.06991841644048691,0.020118119195103645
1772376447701658000,0.502658203125,-0.7732327359452843,-0.04182809416502714,1.2625637745916842,0.11543190479278564,0.09285183250904083,-0.04760947450995445
1772376447711607800,0.51260791015625,-0.725006172914803,-0.04692833991348743,1.3677046494990586,-0.017858240753412247,0.0919727236032486,-0.11440448462963104
1772376447721558000,0.52255810546875,-0.6338487421091645,-0.03259703222215175,1.2901397637814283,-0.1429603546857834,0.06649600714445114,-0.18449319899082184
1772376447731507000,0.5325068359375,-0.5049215891512111,0.015790566588938234,0.9700053081065416,-0.23090405762195587,0.021927740424871445,-0.24580368399620056
1772376447741457000,0.542456787109375,-0.3625765535524115,0.13522475526481867,0.458299063783884,-0.26926934719085693,-0.01579219475388527,-0.2874391973018646
1772376447751406000,0.552406005859375,-0.20464067518785595,0.30475626927912236,-0.14305296467244624,-0.25977012515068054,-0.017100606113672256,-0.2966175377368927
1772376447761356000,0.56235595703125,-0.06665878496831283,0.4350464907512068,-0.5319213493555784,-0.23024499416351318,-0.014425283297896385,-0.29111623764038086
1772376447771305000,0.572304931640625,0.11966142156049608,0.4705582413762808,-0.7847738283962011,-0.1718440055847168,0.051830969750881195,-0.25583121180534363
1772376447781255000,0.5822548828125,0.24429745319578794,0.541286266811192,-0.9881400997340679,-0.08243590593338013,0.16462641954421997,-0.19995133578777313
1772376447791204000,0.5922041015625,0.3286217135131359,0.607257160846889,-0.9855021524459123,0.01142827421426773,0.2899518609046936,-0.1322716325521469
1772376447801154000,0.602154052734375,0.39745420752502975,0.6366708868578076,-0.6986649862170219,0.10260383784770966,0.39284107089042664,-0.05497803911566734
1772376447811103200,0.612103271484375,0.46672282793186604,0.5559440299779176,-0.15341770682036876,0.1609821915626526,0.4292507469654083,0.017415467649698257
1772376447821053000,0.622052978515625,0.49931770472954956,0.4005260892510414,0.510144401833415,0.18119987845420837,0.4036481976509094,0.06905066221952438
1772376447831002000,0.632002197265625,0.49376463717967267,0.20064912133365867,1.0261907211869954,0.18464255332946777,0.350033164024353,0.0966535285115242
1772376447840952000,0.6419521484375,0.4169220378546044,0.07506517785638571,1.2939508465021847,0.1777929663658142,0.30237457156181335,0.1020125299692154
1772376447850901200,0.6519013671875,0.26616021583788096,-0.06836947961002587,1.5349778631925581,0.140393927693367,0.24201135337352753,0.0864037424325943
1772376447860851000,0.661850830078125,0.16786317894328384,-0.19719898087978363,1.6712532965540885,0.08594169467687607,0.1979716271162033,0.05110853537917137
1772376447870800100,0.671800048828125,0.07231248161476105,-0.30873861691355703,1.7246563854396342,0.015590300783514977,0.1509830802679062,0.0040033417753875256
1772376447880749800,0.681749755859375,-0.031535686600953336,-0.36791093685030934,1.6892548171907662,-0.06567446142435074,0.10841156542301178,-0.05206497758626938
1772376447890699300,0.69169921875,-0.10411368728410451,-0.3972781933709979,1.4982611206918954,-0.13856998085975647,0.08823679387569427,-0.11338692903518677
1772376447900649000,0.70164892578125,-0.17924630435351283,-0.3874415667504072,1.251797465905547,-0.2029411345720291,0.0877973884344101,-0.1732080578804016
1772376447910598100,0.71159814453125,-0.24276224298514423,-0.32510347625911235,0.9553986906051635,-0.2561854422092438,0.09970731288194656,-0.22335085272789001
1772376447920547800,0.7215478515625,-0.17155669969897716,-0.25286913791447874,0.6818868698954582,-0.29621297121047974,0.11810126900672913,-0.2589261531829834
1772376447930497000,0.7314970703125,-0.06025536593310535,-0.15151947198361157,0.41791503094732757,-0.3163664638996124,0.1318565011024475,-0.2801414430141449
1772376447940447000,0.741447021484375,0.034737551382184026,-0.03617576749175787,0.1744698471993208,-0.3141476511955261,0.14406320452690125,-0.27879855036735535
1772376447950396200,0.751396240234375,0.16121376752406358,0.07176350596249104,-0.0370960972070694,-0.2890966534614563,0.1577150970697403,-0.2557685971260071
1772376447960345900,0.761345947265625,0.26723617450632153,0.1875944094493985,-0.158521751961112,-0.25889432430267334,0.18212182819843292,-0.21791300177574158
1772376447970295000,0.771294921875,0.35949930153153836,0.2540191847324371,-0.11893734506964683,-0.22857344150543213,0.1935715675354004,-0.16683329641819
1772376447980245000,0.781244873046875,0.3892769654840231,0.2642892343342304,-0.0160948102325201,-0.21076731383800507,0.20453132688999176,-0.1162089854478836
1772376447990194200,0.791194091796875,0.37199053431414064,0.2284858072862029,0.15638064827919004,-0.2050420492887497,0.20037786662578583,-0.06541876494884491
1772376448000144100,0.80114404296875,0.3269664936520159,0.1766194264486432,0.30270693553388117,-0.21326513588428497,0.1891014575958252,-0.025290748104453087
1772376448010093000,0.811093017578125,0.26825769957378504,0.09231383429914712,0.3955582377105951,-0.21841596066951752,0.18261080980300903,0.003914807923138142
1772376448020043000,0.82104296875,0.14132475264035166,-0.0001841243952512741,0.44699557948112484,-0.21714463829994202,0.18212834000587463,0.020808899775147438
1772376448029992200,0.8309921875,0.0643508916184306,-0.07320552146434783,0.47315994830727576,-0.21209955215454102,0.1733953058719635,0.03015446476638317
1772376448039942100,0.840942138671875,0.044415334179252385,-0.14294862751513718,0.5721002150088549,-0.20447441935539246,0.1584865301847458,0.03761829435825348
1772376448049891000,0.85089111328125,0.0078154960565269,-0.20392039808928966,0.6714069769352674,-0.20107436180114746,0.1273491233587265,0.04705946519970894
1772376448059841300,0.86084130859375,0.00601348813585937,-0.23804010983407495,0.7578840679049491,-0.21096278727054596,0.08451437205076218,0.05490577593445778
1772376448069790200,0.870790283203125,-0.011170870899036525,-0.2906470799058676,0.7800280951738358,-0.20742665231227875,0.040818288922309875,0.06828203797340393
1772376448079740200,0.880740234375,-0.006106792442500591,-0.32133652494102716,0.7415367442160844,-0.19953547418117523,-0.00951495859771967,0.09050562232732773
1772376448089689000,0.890689208984375,-0.04881963355280459,-0.34662264962792394,0.6967863328635692,-0.1918479949235916,-0.054171375930309296,0.11159732192754745
1772376448099639000,0.90063916015625,-0.09060717651173472,-0.3930672976776957,0.6158832426339388,-0.18606992065906525,-0.07185530662536621,0.12315457314252853
1772376448109588200,0.910588134765625,-0.09983948056362568,-0.4801496610641479,0.5690367357850075,-0.19248467683792114,-0.07614991813898087,0.1385364681482315
1772376448119538200,0.9205380859375,-0.17908325927890836,-0.5583429078131914,0.5218108742296695,-0.21200434863567352,-0.07129386812448502,0.1444055736064911
1772376448129487000,0.930487060546875,-0.17893793252408505,-0.640112844005227,0.4553980816453695,-0.2330760806798935,-0.051113761961460114,0.15163205564022064
1772376448139437000,0.94043701171875,-0.16064787726961074,-0.6716007459416985,0.3743751644283533,-0.2481842339038849,-0.05528537929058075,0.16251404583454132
1772376448149386000,0.950385986328125,-0.19969145528264343,-0.6930205505892634,0.2653203309476375,-0.25805631279945374,-0.049781158566474915,0.17418082058429718
1772376448159336200,0.960336181640625,-0.3721427292011678,-0.7490066417053342,0.05335106643736362,-0.25456076860427856,-0.023752689361572266,0.17120909690856934
1772376448169285000,0.97028515625,-0.4127271069154143,-0.8032426742836832,-0.09708616326749324,-0.24533584713935852,-0.0024692374281585217,0.15465275943279266
1772376448179235000,0.980235107421875,-0.42986265837252136,-0.8471727091640233,-0.17941490238606927,-0.2279171347618103,0.004740243777632713,0.12219304591417313
1772376448189184000,0.99018408203125,-0.36921661262139677,-0.8799056427255272,-0.29218495699763297,-0.20333854854106903,0.030444009229540825,0.08875945955514908
1772376448199134200,1.00013427734375,-0.2681998319067061,-0.8177452468886971,-0.33727146843671796,-0.17954853177070618,0.06202741712331772,0.06507144868373871
1772376448209083100,1.010083251953125,-0.11777728831432759,-0.6740367409169673,-0.3160176680058241,-0.1680109202861786,0.0869082659482956,0.05976962670683861
1772376448219033000,1.020033203125,0.04721680146604776,-0.5460384297743439,-0.23217618623673913,-0.16376198828220367,0.10653596371412277,0.06558559089899063
1772376448228982000,1.02998193359375,0.24600538962483404,-0.43838791013360023,-0.18387772701382635,-0.1656179428100586,0.12943488359451294,0.1003694087266922
1772376448238932200,1.03993212890625,0.38081462289132173,-0.2923682046100497,-0.21272271322607994,-0.1632319986820221,0.1337360143661499,0.14782395958900452
1772376448248881200,1.049881103515625,0.44448768831342456,-0.21468232286125422,-0.24044717097580431,-0.1522453874349594,0.12290547788143158,0.18609225749969482
1772376448258831000,1.0598310546875,0.49577531941495834,-0.20396102236062288,-0.31318507492840286,-0.12278968095779419,0.15100136399269104,0.22491440176963806
1772376448268780000,1.069780029296875,0.5767636767752469,-0.13810644818097353,-0.4653542429924011,-0.08030853420495987,0.20335431396961212,0.27210402488708496
1772376448278730200,1.079730224609375,0.6368438322719187,-0.04317015642374754,-0.48877077441513533,-0.031681306660175323,0.25726887583732605,0.3323625326156616
1772376448288679200,1.08967919921875,0.7421284995641559,-0.03590513385683298,-0.2944207532256842,-0.002612370764836669,0.2998794615268707,0.3979918658733368
1772376448298629000,1.099629150390625,0.8280353894304484,-0.045541853991150856,-0.015928221493959425,0.00506042642518878,0.30792510509490967,0.4705372154712677
1772376448308578000,1.109578125,0.8434130643695592,-0.08293021214306354,0.32758827881217,-0.0152296656742692,0.28756284713745117,0.5305065512657166
1772376448318528000,1.119528076171875,0.8487466074172407,-0.2114566388130188,0.6062246029287577,-0.0634814202785492,0.26036888360977173,0.5778784155845642
1772376448328477200,1.129477294921875,0.8795704194217919,-0.44503158593177794,0.8220528809547424,-0.14415709674358368,0.24731329083442688,0.6094843149185181
1772376448338427100,1.13942724609375,0.960849722552672,-0.7055971235677599,0.9425473923385143,-0.2504267394542694,0.20302683115005493,0.6309809684753418
1772376448348376000,1.1493759765625,0.9693235363874584,-0.858734552142024,0.9732406367659568,-0.3667996823787689,0.09960964322090149,0.6370207071304321
1772376448358326000,1.159325927734375,0.7984114547349512,-0.9282257292583584,0.8308440901756287,-0.47717228531837463,-0.0843801200389862,0.6217435598373413
1772376448368275000,1.16927490234375,0.43183045131415126,-0.8675503112822771,0.47120881423950195,-0.5695618987083435,-0.3483598232269287,0.5742066502571106
1772376448378225200,1.17922509765625,0.013516045785695313,-0.7812596827954054,-0.35216333262026306,-0.6160521507263184,-0.6055704355239868,0.5021347999572754
1772376448388174000,1.189174072265625,-0.280806325099431,-0.6950964800804853,-1.4370827216297388,-0.6089785099029541,-0.7539803981781006,0.4162984788417816
1772376448398124000,1.1991240234375,-0.42359899486787617,-0.6023185354009271,-2.3704940368324516,-0.5552639365196228,-0.7832384705543518,0.3224642276763916
1772376448408073000,1.209072998046875,-0.3158160079538822,-0.5222682626083492,-3.2665088105767963,-0.4434064030647278,-0.6560876965522766,0.25486573576927185
1772376448418023200,1.219023193359375,-0.09551007305718957,-0.41057255923002955,-3.84165087749958,-0.29742711782455444,-0.3708154857158661,0.2268085926771164
1772376448427972000,1.22897216796875,0.16893928374219686,-0.14643500832617282,-3.9367379759043453,-0.13231831789016724,-0.0001274487003684044,0.25780031085014343
1772376448437922000,1.238922119140625,0.5249320019248873,0.22925503809303044,-3.4818343997776506,0.0027359789237380028,0.3694034516811371,0.36156389117240906
1772376448447871000,1.24887109375,0.8575568135995417,0.5215227049380541,-2.419883798423409,0.08413682878017426,0.6256424188613892,0.49162787199020386
1772376448457821200,1.2588212890625,1.120402498061955,0.5183046196743846,-1.162697040694952,0.08906131982803345,0.7098022699356079,0.6494864225387573
1772376448467770000,1.26877001953125,1.217918650244549,0.40227760909348725,-0.24754385123848913,0.08152297884225845,0.7505462169647217,0.8198723196983337
1772376448477720000,1.278719970703125,1.1254611696910113,0.30256840384602546,0.39648938108086584,0.08187900483608246,0.7230724096298218,0.9347206950187683
1772376448487669000,1.2886689453125,0.8556897776186466,0.18177724760323763,0.8268634961068629,0.09916984289884567,0.6131696105003357,0.9887234568595886
1772376448497619200,1.298619140625,0.6521792755044996,0.004016542164981365,1.048491400322318,0.15001186728477478,0.478294312953949,1.0050990581512451
1772376448507568000,1.308568115234375,0.5357423324158415,-0.19486936888843773,1.158450489166379,0.2203768491744995,0.3506236970424652,0.988213300704956
1772376448517518000,1.31851806640625,0.3757280403420329,-0.35232378387898206,1.2355068408399819,0.290188729763031,0.2175607532262802,0.9492101669311523
1772376448527467000,1.328467041015625,0.20563830792307852,-0.40857554019391534,1.3187871815949677,0.33017048239707947,0.09640450030565262,0.8876602649688721
1772376448537417000,1.3384169921875,0.09818411457203328,-0.44594051747024055,1.489380479621887,0.3259686827659607,-0.02546287514269352,0.818723201751709
1772376448547366100,1.3483662109375,0.08057268923148513,-0.4887763273730874,1.5910037017971277,0.276939332485199,-0.1504860371351242,0.7434684038162231
1772376448557316000,1.358316162109375,0.07772190291024744,-0.4898410339951515,1.5749948162823915,0.18099375069141388,-0.2594427764415741,0.6715080142021179
1772376448567265000,1.36826513671875,0.11466964115519077,-0.49221974582523104,1.350831256109476,0.06651777774095535,-0.3510770797729492,0.5994935035705566
1772376448577215000,1.378215087890625,0.15593144320696592,-0.4344894413903355,0.8141945686697959,-0.037534743547439575,-0.4117957055568695,0.5308365821838379
1772376448587164000,1.388163818359375,0.11990450960136949,-0.3192003896951675,0.07124561956822872,-0.10789093375205994,-0.4631936550140381,0.46913087368011475
1772376448597114000,1.398114013671875,0.021482184092979875,-0.1927282652065158,-0.6181622934818267,-0.16460447013378143,-0.5523960590362549,0.4017666280269623
1772376448607063000,1.40806298828125,-0.06050532210618257,-0.14233867892324922,-1.3006173186540604,-0.19648809731006622,-0.6372041702270508,0.3199061155319214
1772376448617013000,1.418012939453125,-0.10818236149512231,-0.13176117080748082,-2.161753086718917,-0.1752910017967224,-0.677821695804596,0.229272723197937
1772376448626962000,1.4279619140625,-0.14323915316062047,-0.03893295724540949,-3.05801277513504,-0.10467569530010223,-0.6357658505439758,0.1304372251033783
1772376448636912000,1.437912109375,-0.18749969863696023,0.2142024303898215,-3.791622818005085,0.01743290014564991,-0.5114160180091858,0.05138981714844704
1772376448646861000,1.447861083984375,-0.132133803512156,0.5481111443951726,-4.245270256590843,0.16151736676692963,-0.2995932698249817,0.016947420313954353
1772376448656811000,1.45781103515625,0.03857014268185012,0.9038774699434637,-4.312009212389588,0.3199954628944397,-0.04682568833231926,0.04470764100551605
1772376448666760000,1.467760009765625,0.33728049199339,1.2002607554137705,-3.9038089352488514,0.46816521883010864,0.22129471600055695,0.11662230640649796
1772376448676709600,1.477709716796875,0.5951974878819659,1.4845005986258386,-3.1152485740512605,0.5821676850318909,0.4618353843688965,0.23961113393306732
1772376448686658600,1.487658447265625,0.8252777612853794,1.7411124301999807,-1.9973118815809487,0.6403555870056152,0.5928594470024109,0.39683058857917786
1772376448696608800,1.49760888671875,0.9323535497780888,1.7599895646274089,-0.887367941430211,0.6637908816337585,0.6787872910499573,0.5485095381736755
1772376448706557700,1.5075576171875,0.871743817449361,1.6439102393373846,0.03368658102452755,0.6565539836883545,0.7195011377334595,0.6581007242202759
1772376448716507600,1.517507568359375,0.717907008434087,1.512292276392877,0.7722621373474597,0.636886715888977,0.7152454853057861,0.725447416305542
1772376448726456600,1.52745654296875,0.5115294629836454,1.3656030010446905,1.376626207101345,0.6204131841659546,0.6847219467163086,0.7545762658119202
1772376448736406500,1.537406494140625,0.3231083203865215,1.218769933311641,1.8999907405138015,0.5930014252662659,0.6269817352294922,0.750433087348938
1772376448746355700,1.547355712890625,0.14775348877990618,1.0622042838543653,2.34914262124598,0.544867753982544,0.5556897521018982,0.7195521593093872
1772376448756305700,1.5573056640625,0.04259626552592963,0.9096136755079031,2.764142641529441,0.4765779972076416,0.4662308096885681,0.6658616065979004
1772376448766254600,1.567254638671875,-0.027093795163370668,0.7407336111396551,3.0994454402416944,0.397312730550766,0.3710166811943054,0.5890941023826599
1772376448776204500,1.57720458984375,-0.07246712418720126,0.5599339763969182,3.316444515612721,0.2996493875980377,0.2792353630065918,0.4995284676551819
1772376448786153500,1.587153564453125,-0.12503014551941305,0.48610272424966094,3.4540982515901324,0.19886070489883423,0.18437540531158447,0.40068551898002625
1772376448796103700,1.597103759765625,-0.12929967606477438,0.42412499150335786,3.5568788271069525,0.07630316913127899,0.09053467214107513,0.29980358481407166
1772376448806052600,1.607052490234375,-0.0807736916963011,0.3706237029403448,3.5722552599370476,-0.05140499398112297,-0.0043247295543551445,0.20775675773620605
1772376448816002600,1.61700244140625,0.012667740126978605,0.35093934378325936,3.4822669459760185,-0.17542001605033875,-0.10633977502584457,0.1320488154888153
1772376448825951500,1.626951416015625,0.10952657917831092,0.3659305766880512,3.220460760629177,-0.2787642478942871,-0.18676644563674927,0.07545024156570435
1772376448835901700,1.636901611328125,0.1882106051189825,0.3797197403267026,2.826464949929714,-0.36346015334129333,-0.25565406680107117,0.044785987585783005
1772376448845850600,1.6468505859375,0.19452188889132813,0.3911880598023534,2.3324837473899125,-0.41572895646095276,-0.2983892858028412,0.03403667360544205
1772376448855800600,1.656800537109375,0.22313651868011802,0.3743187580659985,1.8568179537415503,-0.4494142532348633,-0.3384375274181366,0.029774069786071777
1772376448865749500,1.66674951171875,0.19256328390315175,0.2567570852637291,1.4949007043480873,-0.47873273491859436,-0.3895118832588196,0.012958071194589138
1772376448875699700,1.67669970703125,0.18129483438115565,0.09592442601174116,1.052335216268897,-0.49917516112327576,-0.41660088300704956,-0.005926086567342281
1772376448885648600,1.686648681640625,0.1345543269236572,-0.01596066245883703,0.5907756893843412,-0.5073380470275879,-0.41997990012168884,-0.03484908118844032
1772376448895598600,1.6965986328125,0.09481011722744442,-0.093684830391407,0.18900690659582614,-0.5075802206993103,-0.43610236048698425,-0.0662819966673851
1772376448905547500,1.706547607421875,0.06791357536895666,-0.1819768618285656,-0.21445874323844907,-0.5071861147880554,-0.4021957814693451,-0.10331085324287415
1772376448915497700,1.716497802734375,0.07881502277604303,-0.30025515846759077,-0.5687707783252001,-0.5040181875228882,-0.330808162689209,-0.14132913947105408
1772376448925446700,1.72644677734375,0.11574477783972396,-0.32135143024921414,-0.8428846565812825,-0.5015012621879578,-0.24666105210781097,-0.17660458385944366
1772376448935396600,1.736396728515625,0.20384835576638577,-0.3102031365081668,-0.9873474880516528,-0.4980524778366089,-0.15105226635932922,-0.19693350791931152
1772376448945346600,1.7463466796875,0.35379290658347307,-0.270953660659492,-1.0925772102862596,-0.48416969180107117,-0.05899345129728317,-0.19103167951107025
1772376448955295500,1.75629541015625,0.5502145829478279,-0.205182380849123,-1.115029280591011,-0.4504092037677765,0.021390441805124283,-0.15539072453975677
1772376448965244700,1.76624462890625,0.7309683692548423,-0.16368600285649298,-1.046335099071264,-0.4141976833343506,0.05694949999451637,-0.09758522361516953
1772376448975194600,1.776194580078125,0.8414264936622232,-0.16675620408207179,-0.9264899915069341,-0.37811675667762756,0.04676741734147072,-0.030533896759152412
1772376448985143600,1.7861435546875,0.9165477856200188,-0.24690321524739264,-0.8423264381766319,-0.32527217268943787,0.019140582531690598,0.02802715264260769
1772376448995093500,1.796093505859375,0.8927116405457257,-0.3425859414577484,-0.7824655514538288,-0.2696322202682495,-0.00949188694357872,0.07242322713136673
1772376449005042400,1.80604248046875,0.7463834535948932,-0.44118572415858504,-0.7131517767310143,-0.21466001868247986,-0.0359642393887043,0.09445715695619583
1772376449014992600,1.81599267578125,0.6157688224740326,-0.5672536517605186,-0.6337006388753652,-0.16920986771583557,-0.042471565306186676,0.09997536242008209
1772376449024941600,1.825941650390625,0.5376632540084422,-0.6678098292261362,-0.49362464418709273,-0.13443191349506378,-0.02250904217362404,0.10014954209327698
1772376449034891500,1.8358916015625,0.4958277437219396,-0.7136249472007155,-0.3022124300152063,-0.10924960672855377,-0.0004393281415104866,0.0983162373304367
1772376449044840400,1.84584033203125,0.47798345947358756,-0.7396656896471977,-0.07098141567409039,-0.10495445877313614,-0.005323832388967276,0.10323749482631683
1772376449054790700,1.855790771484375,0.521463412498869,-0.7672720739752054,0.13814941053986549,-0.1118074506521225,-0.0260637067258358,0.11405859887599945
1772376449064739600,1.865739501953125,0.5713451953904702,-0.8390911095172167,0.23996727850437163,-0.11308444291353226,-0.059079449623823166,0.126493439078331
1772376449074689500,1.875689453125,0.5904143087260425,-0.8873755402147769,0.24041969844698904,-0.10736650973558426,-0.10490301996469498,0.13960352540016174
1772376449084638700,1.885638671875,0.5917524985272437,-0.9199714033931493,0.14263327795565128,-0.08363614976406097,-0.17515109479427338,0.14536979794502258
1772376449094588700,1.895588623046875,0.5567569537959992,-0.9599541619524359,-0.019005144721269608,-0.043059468269348145,-0.24192029237747192,0.1498255729675293
1772376449104537600,1.90553759765625,0.5463522814964875,-1.0018258029982448,-0.23514789552390575,0.009793093428015709,-0.3095643222332001,0.15178298950195312
1772376449114487600,1.915487548828125,0.49047173311412334,-1.0053685901716352,-0.4502542890161276,0.0628887265920639,-0.36054176092147827,0.15202754735946655
1772376449124436700,1.925436767578125,0.437121105068177,-1.0482590528711675,-0.6720248165726661,0.10195383429527283,-0.38035592436790466,0.14696142077445984
1772376449134386700,1.93538671875,0.3460661847889423,-1.0545651672780514,-0.8436030339837074,0.1303175985813141,-0.3860304653644562,0.14151710271835327
1772376449144336000,1.9453359375,0.2725829606280662,-1.0611971526384354,-1.0380033240556716,0.15257389843463898,-0.3885814845561981,0.14396506547927856
1772376449154285600,1.95528564453125,0.2458161871956661,-1.0842451430097222,-1.288101535952091,0.1829344779253006,-0.3788217306137085,0.14398716390132904
1772376449164234800,1.96523486328125,0.22400219559874385,-1.1552104843318463,-1.5243284588843584,0.21907037496566772,-0.37519341707229614,0.147147536277771
1772376449174184400,1.975184326171875,0.20159206473957747,-1.2489569817826152,-1.7443571112096308,0.2691003978252411,-0.3754763901233673,0.14802543818950653
1772376449184134000,1.9851337890625,0.13321111388746648,-1.3292892863869665,-1.9189017772108314,0.3191715478897095,-0.36769407987594604,0.1365320235490799
1772376449194083600,1.99508349609375,0.012362930227816104,-1.4121104851976036,-1.9800871905356645,0.3485046923160553,-0.3513091802597046,0.11859776079654694
1772376449204032800,2.00503271484375,-0.1443752627847716,-1.527341084703803,-1.9469564898282288,0.34052640199661255,-0.36328035593032837,0.07734273374080658
1772376449213982500,2.014982421875,-0.3551893293779343,-1.627764283439517,-1.946018332195282,0.3179203271865845,-0.38785403966903687,0.016403552144765854
1772376449223931600,2.024931640625,-0.6585403349690139,-1.6839581720873713,-2.1142969235390425,0.2816198468208313,-0.42945367097854614,-0.07952537387609482
1772376449233881600,2.034881591796875,-0.9338659271024167,-1.6202373950660227,-2.3055448870599267,0.2479730099439621,-0.4527130126953125,-0.2048865556716919
1772376449243830800,2.044830810546875,-1.112709386276081,-1.509464944012463,-2.6738264107882976,0.23700052499771118,-0.40506720542907715,-0.33945128321647644
1772376449253780500,2.054780517578125,-1.150353253559023,-1.324719201992452,-3.047016749346256,0.2682766020298004,-0.27737465500831604,-0.45871502161026
1772376449263729700,2.064729736328125,-1.0675297166608273,-1.0329510091021656,-3.291989288792014,0.3297801911830902,-0.10119110345840454,-0.5556056499481201
1772376449273679600,2.0746796875,-0.817842277522385,-0.6738833039209247,-3.354313935279846,0.43091461062431335,0.10026504844427109,-0.5985773801803589
1772376449283628800,2.08462890625,-0.4833790714394301,-0.26590309927165506,-3.071565499669313,0.5497954487800598,0.24947504699230194,-0.5847656726837158
1772376449293578800,2.094578857421875,-0.12728629041574896,0.11815174764990806,-2.4711878692030904,0.6510567665100098,0.30156657099723816,-0.5273449420928955
1772376449303527700,2.104527587890625,0.09067487145308405,0.37347967689335343,-1.7596037801802158,0.7320429682731628,0.3024451434612274,-0.45998960733413696
1772376449313477600,2.1144775390625,0.09980481110904366,0.5631491390511393,-1.2440800233960152,0.8218950629234314,0.3029358685016632,-0.388223260641098
1772376449323426800,2.1244267578125,-0.04035856960173696,0.7238651861861348,-0.8489771282374858,0.9120683670043945,0.31955772638320923,-0.3382892608642578
1772376449333376800,2.134376708984375,-0.26193952940292653,0.8640414263784885,-0.4211509441286325,0.9827894568443298,0.3583106994628906,-0.3166770339012146
1772376449343325700,2.14432568359375,-0.4395350343421101,0.959366425192356,0.1060065518260002,1.0308105945587158,0.3909602463245392,-0.3161425292491913
1772376449353275600,2.154275634765625,-0.5604337060799822,1.0170490910932422,0.6437427249401807,1.0500177145004272,0.4290931224822998,-0.32943451404571533
1772376449363224800,2.164224853515625,-0.6201132814191281,1.112394255912304,1.1801228072702883,1.0450509786605835,0.45980387926101685,-0.3450339734554291
1772376449373174800,2.1741748046875,-0.6322784971177577,1.2342878204390406,1.716331624686718,1.0068682432174683,0.4655541479587555,-0.36642324924468994
1772376449383123700,2.184123779296875,-0.6214309398889541,1.3307806939885019,2.1956448349267244,0.9415773153305054,0.46269071102142334,-0.37616801261901855
1772376449393073700,2.19407373046875,-0.6088485947567969,1.376562786476314,2.645117033654451,0.8410549163818359,0.43023332953453064,-0.3909458816051483
1772376449403022800,2.20402294921875,-0.6678413934081793,1.421760941596329,2.9944582945913076,0.7066105604171753,0.3608268201351166,-0.4157697260379791
1772376449412972800,2.213972900390625,-0.7206503888580947,1.4133064169839025,3.211724496465921,0.539414644241333,0.239422008395195,-0.4554463028907776
1772376449422921700,2.223921630859375,-0.7521352220546453,1.399767136453092,3.216329944434762,0.3724813461303711,0.12647894024848938,-0.5160605907440186
1772376449432871700,2.23387158203125,-0.8043261586714535,1.3307932612091302,3.0498750613868233,0.21176491677761078,0.028883755207061768,-0.5946971774101257
1772376449442820600,2.243820556640625,-0.8508126731015742,1.348471833501756,2.727632819777727,0.06759068369865417,-0.04368605092167854,-0.685916006565094
1772376449452770800,2.253770751953125,-0.8386163316123187,1.4601552619203924,2.262443996480107,-0.03673605993390083,-0.06027441844344139,-0.7623233199119568
1772376449462719700,2.2637197265625,-0.721089583992958,1.647945486202836,1.7487316730320452,-0.10956765711307526,-0.019866544753313065,-0.7983367443084717
1772376449472669700,2.273669677734375,-0.5526067387813702,1.8190487795785069,1.3543027316123246,-0.1612093150615692,0.0414557158946991,-0.8033064007759094
1772376449482618600,2.28361865234375,-0.2858753537257202,1.8931252386584876,1.2404103949725627,-0.20044194161891937,0.09024908393621445,-0.7758345603942871
1772376449492568800,2.29356884765625,0.05446982306791469,1.9824512893185018,1.1561708537966011,-0.20910288393497467,0.16949084401130676,-0.7090474963188171
1772376449502517800,2.303517822265625,0.37070513414610173,2.058396172618866,1.1251689818114041,-0.20072191953659058,0.23144929111003876,-0.6126232147216797
1772376449512467700,2.3134677734375,0.6424167370334267,2.0550836870700118,1.260952832263708,-0.18525245785713196,0.2721177637577057,-0.48848792910575867
1772376449522416600,2.323416748046875,0.870610867896676,1.931900082732737,1.5019161360681057,-0.18394750356674194,0.27228260040283203,-0.35326167941093445
1772376449532366800,2.333366943359375,1.0616728073261679,1.7325769493058323,1.7922604336351156,-0.18977932631969452,0.2128184288740158,-0.22711005806922913
1772376449542315800,2.343315673828125,1.1012369020819663,1.4918041996374725,1.9996943928033113,-0.20109961926937103,0.1239924281835556,-0.11289402097463608
1772376449552265700,2.353265625,0.9540552401069551,1.2508975944563745,2.059300427982211,-0.21026407182216644,0.03342876583337784,-0.026922930032014847
1772376449562214700,2.363214599609375,0.7029037928305566,1.0071823615953326,2.0420278061419723,-0.22707314789295197,-0.05390135198831558,0.029229553416371346
1772376449572164900,2.373164794921875,0.48162210823688656,0.774689949016273,2.020418616402149,-0.26288414001464844,-0.11517927050590515,0.053571105003356934
1772376449582113800,2.38311376953125,0.26923184183556587,0.56452802618891,1.9802531947523354,-0.3221522569656372,-0.1746729612350464,0.052377209067344666
1772376449592063700,2.393063720703125,0.1254268166868016,0.3500114152833819,1.8770640384346247,-0.4098472595214844,-0.20350144803524017,0.03078567236661911
1772376449602012700,2.4030126953125,0.005561287388950586,0.174862938170135,1.6737708323329685,-0.4993608593940735,-0.20887038111686707,0.0014147339388728142
1772376449611962600,2.412962646484375,-0.07845810823030769,0.10363982269465923,1.3736872310400008,-0.5901392102241516,-0.18895576894283295,-0.0212450809776783
1772376449621911800,2.422911865234375,-0.10159374035242945,0.10581219829767942,0.9988958870261907,-0.662649393081665,-0.1852497160434723,-0.04452163726091385
1772376449631861800,2.43286181640625,-0.04702741637378931,0.0843476777255535,0.6361790116876364,-0.730133593082428,-0.17602230608463287,-0.06836972385644913
1772376449641810700,2.442810791015625,-0.031273784261755644,0.05423486353456974,0.2482207275867462,-0.7612446546554565,-0.17394396662712097,-0.0814754068851471
1772376449651760600,2.4527607421875,0.03176270028986036,0.08040800018906592,-0.14010405173897741,-0.7713222503662109,-0.17706245183944702,-0.0811939686536789
1772376449661709800,2.462709716796875,0.10286642716936767,0.06763590463846922,-0.5083142637968063,-0.74897700548172,-0.20013447105884552,-0.07502901554107666
1772376449671659800,2.47265966796875,0.20151719113877042,0.03412701826840639,-0.8887287083894014,-0.6931673884391785,-0.19132006168365479,-0.06060470640659332
1772376449681608400,2.4826083984375,0.29278966315882277,0.06110445704311132,-1.218904665607214,-0.6021674275398254,-0.17134208977222443,-0.03012748807668686
1772376449691558700,2.49255859375,0.33739604466445744,0.104322836522758,-1.4457412443816662,-0.48733511567115784,-0.1387380063533783,0.018449893221259117
1772376449701507600,2.502507568359375,0.3362325903756544,0.11999036125391721,-1.5154606772959232,-0.3712194263935089,-0.07499682903289795,0.0855943039059639
1772376449711457500,2.51245751953125,0.27746614782605317,0.1407689453884959,-1.4214415003836154,-0.27101677656173706,-0.0011790958233177662,0.15872296690940857
1772376449721406500,2.522406494140625,0.22545113403173161,0.10157499911934137,-1.107714573663473,-0.20089201629161835,0.05664212256669998,0.22416269779205322
1772376449731356400,2.5323564453125,0.14227147717224434,-0.07591624172776937,-0.6344207698434591,-0.1669655293226242,0.09308390319347382,0.2727135121822357
1772376449741305600,2.5423056640625,0.03155886654714122,-0.27075901487022636,-0.16214578767716883,-0.15675097703933716,0.09929759055376053,0.29168426990509033
1772376449751255600,2.552255615234375,-0.06434939378108828,-0.42465223024785514,0.20469079793989658,-0.15838845074176788,0.08158212900161743,0.2869453430175781
1772376449761204500,2.56220458984375,-0.25056011205343526,-0.5297361142709851,0.416420408475399,-0.1595432013273239,0.05125724896788597,0.26575642824172974
1772376449771154400,2.572154541015625,-0.4091388000998646,-0.6037275254160166,0.5323661705136299,-0.15560169517993927,0.018423089757561684,0.23379553854465485
1772376449781103600,2.582103515625,-0.5428014206144959,-0.6631900604709983,0.5660562586694956,-0.15392762422561646,-0.014968689531087875,0.18362398445606232
1772376449791053600,2.592053466796875,-0.6379334541395306,-0.7376791920050978,0.579022707748413,-0.15576811134815216,-0.039749979972839355,0.12479738146066666
1772376449801002500,2.60200244140625,-0.6670438132897019,-0.7642915968596935,0.5698147344201803,-0.15847040712833405,-0.04981060326099396,0.056720856577157974
1772376449810952400,2.611952392578125,-0.7038985760215669,-0.7713771712064743,0.5582762723177671,-0.1821495145559311,-0.03204481676220894,-0.010488398373126984
1772376449820901400,2.6219013671875,-0.7042284655630588,-0.7274515202403068,0.5471797087639569,-0.21655648946762085,-0.0026946524158120155,-0.07500534504652023
1772376449830851600,2.6318515625,-0.5987555091571063,-0.6723837130129336,0.5419646044641733,-0.26362499594688416,0.04681730270385742,-0.1261017620563507
1772376449840800500,2.641800537109375,-0.45278366136327386,-0.6363207582458853,0.5438134472012519,-0.318439781665802,0.09116559475660324,-0.1606711894273758
1772376449850750500,2.65175048828125,-0.27454907306926324,-0.6018535482376813,0.4848562313199043,-0.3647543489933014,0.11618457734584808,-0.17446576058864594
1772376449860699400,2.661699462890625,-0.11630102348299697,-0.5680114843904972,0.3333656931698322,-0.3940501809120178,0.12676584720611572,-0.17691826820373535
1772376449870649600,2.671649658203125,-0.007144227465149015,-0.544177019816637,0.13370529061257838,-0.4029010534286499,0.12509097158908844,-0.16744183003902435
1772376449880598500,2.6815986328125,0.05583579592518508,-0.5496227180019021,-0.08314297811090945,-0.3961818814277649,0.10673005878925323,-0.16008085012435913
1772376449890548500,2.691548583984375,0.072287511570286,-0.6174851248726249,-0.26912498392760753,-0.37164026498794556,0.091506727039814,-0.15819326043128967
1772376449900497400,2.701497314453125,0.07016045468002557,-0.6473533166527747,-0.4724421554267406,-0.3430746793746948,0.12172268331050873,-0.1537921279668808
1772376449910447600,2.711447509765625,0.08813629288617521,-0.6527917083144188,-0.5688128639012575,-0.3155018389225006,0.156808003783226,-0.14745011925697327
1772376449920396500,2.721396484375,0.16131558393072337,-0.6550467937648295,-0.5623743552863597,-0.2956591546535492,0.22675831615924835,-0.12996806204319
1772376449930346500,2.731346435546875,0.237348364710249,-0.6460317126601934,-0.46731180680096146,-0.3001810312271118,0.3059910833835602,-0.10355128347873688
1772376449940295400,2.74129541015625,0.3663066434588283,-0.7307239660397171,-0.22446692703366278,-0.3437093198299408,0.3638940751552582,-0.07616253942251205
1772376449950245600,2.75124560546875,0.532070913894102,-0.844523071438074,0.07528700391352176,-0.41102835536003113,0.39358046650886536,-0.05051586776971817
1772376449960194600,2.761194580078125,0.6766665048986673,-0.9682181324288248,0.25031916117072106,-0.4853028655052185,0.39305129647254944,-0.027437448501586914
1772376449970144500,2.77114453125,0.8333952359631657,-1.1065160115286707,0.31341420750916005,-0.557894766330719,0.3662952780723572,-0.0030543245375156403
1772376449980093400,2.781093505859375,0.9801392371732741,-1.2455287608996033,0.3071948946028948,-0.6303396821022034,0.30533072352409363,0.022070469334721565
1772376449990043400,2.79104345703125,1.0641983072157948,-1.3643714134231208,0.21340075861811636,-0.7096340656280518,0.17042921483516693,0.0440075509250164
1772376449999992600,2.80099267578125,0.997281656762585,-1.410119603641331,-0.10833119538128376,-0.7704827785491943,-0.017269056290388107,0.06052554398775101
1772376450009942500,2.810942626953125,0.6910149829205126,-1.3451754223048686,-0.7236334232568741,-0.8001226186752319,-0.22073014080524445,0.04748562350869179
1772376450019891500,2.820891357421875,0.24291104033868757,-1.1758216029450297,-1.4609750538706778,-0.8099616765975952,-0.44101059436798096,-0.0042116595432162285
1772376450029841400,2.83084130859375,0.03214428348597139,-1.1986012977689504,-2.1549784780174495,-0.7806482315063477,-0.5664586424827576,-0.09025496244430542
1772376450039790300,2.840790283203125,0.05388678074926138,-1.1456440529547631,-3.09163856588304,-0.6801376342773438,-0.5416728854179382,-0.15314896404743195
1772376450049740500,2.850740478515625,0.16629808505102991,-0.9107005939617753,-3.9340421609491107,-0.512466549873352,-0.32115912437438965,-0.17085987329483032
1772376450059689500,2.860689453125,0.45935197037030007,-0.5655529853224754,-4.2474680588960645,-0.2924406826496124,-0.006652609910815954,-0.10741031914949417
1772376450069639400,2.870639404296875,0.8789650739397853,-0.1375027831993997,-3.9169934109926223,-0.07708991318941116,0.2959289252758026,0.027881603688001633
1772376450079588400,2.88058837890625,1.3901752783738075,0.22400252439230678,-2.9998347269326446,0.09060560911893845,0.4991757869720459,0.2543432414531708
1772376450089538600,2.89053857421875,1.8266309052705765,0.4365951814979315,-1.797708762168884,0.1994805485010147,0.5709720849990845,0.5328290462493896
1772376450099487500,2.900487548828125,1.9987933523103594,0.46669732816442844,-0.7317103467285633,0.2600855529308319,0.5703622102737427,0.7924968600273132
1772376450109437400,2.9104375,1.8347158659182488,0.3849713772445917,0.050664603832364076,0.30103805661201477,0.5103806853294373,0.9854442477226257
1772376450119386400,2.920386474609375,1.62828100079,0.15385916697755456,0.6170809279859065,0.34377193450927734,0.3977321982383728,1.1119235754013062
1772376450129335300,2.930335205078125,1.3915250855475663,-0.08536693777069448,0.890430251610279,0.40351927280426025,0.2903328537940979,1.185288429260254
1772376450139285500,2.940285400390625,1.062164024909213,-0.20816402700841424,1.067387823972106,0.46564817428588867,0.1941583901643753,1.2160745859146118
1772376450149234400,2.950234375,0.8150581266965716,-0.25266777012348174,1.2689374012768269,0.5169965624809265,0.08266554027795792,1.2187846899032593
1772376450159184400,2.960184326171875,0.730557231170684,-0.32155747421532865,1.4947691869229078,0.5459698438644409,-0.0370776392519474,1.209376573562622
1772376450169133300,2.97013330078125,0.7131970771774649,-0.41849604570567606,1.6761299626797437,0.5449036359786987,-0.17795684933662415,1.1930088996887207
1772376450179083500,2.98008349609375,0.7150425589136779,-0.47214521830677986,1.8043267190039156,0.5040236115455627,-0.32867231965065,1.1682132482528687
1772376450189032400,2.990032470703125,0.6618630496509372,-0.5485922059103846,1.7887638236910104,0.4298694133758545,-0.4861131012439728,1.125493049621582
1772376450198982400,2.999982421875,0.5626151052396744,-0.5922849249035119,1.5988351260751485,0.32579681277275085,-0.6393053531646729,1.055546760559082
1772376450208931300,3.009931396484375,0.402925624673441,-0.6112105746477842,1.1871744793474674,0.20541276037693024,-0.7956619262695312,0.9739491939544678
1772376450218881500,3.019881591796875,0.1708651007056236,-0.5127697819009422,0.4563251333624124,0.10448455810546875,-0.981433093547821,0.8875871300697327
1772376450228830500,3.02983056640625,-0.02174996590040391,-0.3588070084184408,-0.4172866699159145,0.013946848921477795,-1.1720856428146362,0.7958314418792725
1772376450238780400,3.039780517578125,-0.15825380347361787,-0.350399245557189,-1.4380582886636257,-0.021945372223854065,-1.3276084661483765,0.6850426197052002
1772376450248729300,3.049729248046875,-0.31790044954512264,-0.2939882070273161,-2.663439456808567,0.016658255830407143,-1.378238320350647,0.558631956577301
1772376450258679300,3.05967919921875,-0.4385601248953491,-0.06315759018063545,-3.729679864311218,0.14814570546150208,-1.3086634874343872,0.4385678470134735
1772376450268628500,3.06962841796875,-0.4613692284768447,0.3041404754683375,-4.396951933398842,0.32824599742889404,-1.1395349502563477,0.358703076839447
1772376450278578400,3.079578369140625,-0.279214197069779,0.6868328018650413,-4.555670669236779,0.5202972292900085,-0.8914202451705933,0.32508811354637146
1772376450288527600,3.089527587890625,0.13898688427731393,0.9578943068131804,-4.302115010362863,0.6783090829849243,-0.5928090810775757,0.361733078956604
1772376450298477300,3.099477294921875,0.5534506057269871,1.2340350147217511,-3.7452965356379746,0.8130136132240295,-0.2553729712963104,0.46118536591529846
1772376450308426500,3.109426513671875,0.9029453767251223,1.5598887248262763,-2.869433154040575,0.8984954953193665,0.05825032293796539,0.5866913795471191
1772376450318376400,3.11937646484375,1.13693993749544,1.8031223116502164,-1.6550263843744992,0.9177964925765991,0.2961827218532562,0.7189798951148987
1772376450328325600,3.12932568359375,1.2529323151543736,1.8891095732763408,-0.4256348115444183,0.8749141693115234,0.477957546710968,0.8410321474075317
1772376450338275300,3.139275390625,1.2830240865573286,1.8146382696598766,0.6541968989372253,0.7740695476531982,0.585099458694458,0.9424874186515808
1772376450348224500,3.149224609375,1.1847860498409717,1.6646712878152727,1.4443646953314542,0.652694046497345,0.6136417984962463,1.0077115297317505
1772376450358174500,3.159174560546875,1.0446410815697162,1.477465000900626,1.9489689986944196,0.548898458480835,0.5942507982254028,1.0318282842636108
1772376450368123600,3.16912353515625,0.8062772196739911,1.3272937286555766,2.213969011646509,0.4691283404827118,0.5431047677993774,1.0215693712234497
1772376450378073300,3.1790732421875,0.5815133555203675,1.1665811886519193,2.397149404045939,0.40819576382637024,0.45328888297080994,0.9671948552131653
1772376450388022500,3.1890224609375,0.4770856703836471,0.9771168936774134,2.53599731824398,0.35282284021377563,0.33175739645957947,0.884832501411438
1772376450397972500,3.198972412109375,0.40888730955682695,0.8014929080069064,2.6205659452438352,0.30019664764404297,0.19495004415512085,0.7872942090034485
1772376450407921700,3.208921630859375,0.3383103099651634,0.6872007583945989,2.6290882743954658,0.24051882326602936,0.059355780482292175,0.6771036982536316
1772376450417871400,3.218871337890625,0.25551746046617624,0.6177694947719573,2.582348735052347,0.17650894820690155,-0.058950088918209076,0.5674951672554016
1772376450427820500,3.228820556640625,0.23596841812655328,0.6014277240410447,2.457102645227313,0.10888981819152832,-0.13605065643787384,0.46095019578933716
1772376450437770500,3.2387705078125,0.18928915760330856,0.6188473531365394,2.2679057690173385,0.0369810089468956,-0.16710470616817474,0.3769453167915344
1772376450447719700,3.2487197265625,0.21574140346013007,0.6787474028259516,2.01435537084043,-0.038369301706552505,-0.17957951128482819,0.3204808533191681
1772376450457669400,3.25866943359375,0.2579467334397137,0.726845078779757,1.7021154678076504,-0.10230035334825516,-0.1630237102508545,0.289399117231369
1772376450467618600,3.26861865234375,0.31854177965596314,0.7343234518364071,1.3315607384502888,-0.1512293964624405,-0.11261018365621567,0.27292147278785706
1772376450477568500,3.278568603515625,0.3597772416900843,0.7189233458697796,1.0667729069441556,-0.1893051415681839,-0.07041025906801224,0.2603646516799927
1772376450487517700,3.288517578125,0.4023251014970243,0.6699900958746672,0.8341027997106313,-0.20772536098957062,-0.04830222576856613,0.25014734268188477
1772376450497467400,3.29846728515625,0.42954109826795756,0.5843365962475537,0.6147960319191217,-0.21053898334503174,-0.031295545399188995,0.243480384349823
1772376450507416600,3.30841650390625,0.4266237495165318,0.5120376682341099,0.4214040421068668,-0.19939132034778595,-0.03194579854607582,0.23334474861621857
1772376450517366500,3.318366455078125,0.37568062100373206,0.4675727958247065,0.24079613054394722,-0.18243923783302307,-0.032211847603321075,0.21833276748657227
1772376450527315700,3.328315673828125,0.31975195916332305,0.40990561975389717,0.14115794470608234,-0.15755721926689148,-0.031283341348171234,0.19887827336788177
1772376450537265700,3.338265625,0.29635639746338127,0.33420389755964275,0.11646715556383132,-0.1491064727306366,-0.034791260957717896,0.17658814787864685
1772376450547214600,3.348214599609375,0.26524609666764737,0.2714335531309247,0.1017541550785303,-0.14044363796710968,-0.03506900370121002,0.1610759049654007
1772376450557164500,3.35816455078125,0.232765311236307,0.21401772147268056,0.09953297189772128,-0.14705680310726166,-0.01863117516040802,0.13635805249214172
1772376450567113500,3.368113525390625,0.1670846323188394,0.15865443843007088,0.10438742619156836,-0.16164585947990417,0.004200292751193047,0.11573667079210281
1772376450577063700,3.378063720703125,0.16659750638902188,0.09169190300852059,0.11639233676195145,-0.18425236642360687,0.02852480672299862,0.08756788074970245
1772376450587012600,3.3880126953125,0.1527037863973528,0.011340016920864582,0.08446282853782176,-0.19817696511745453,0.057452742010354996,0.06972680985927582
1772376450596962600,3.397962646484375,0.11367642886675894,-0.03832154734879732,0.052370238706469535,-0.2149287760257721,0.08238951861858368,0.04593066871166229
1772376450606911500,3.407911376953125,0.09238295401260256,-0.1057932013362646,0.05796002153754234,-0.23164929449558258,0.09822956472635269,0.020886976271867752
1772376450616861700,3.41786181640625,0.08944624297358095,-0.1627978218451142,0.06376373938024044,-0.23581500351428986,0.11152779310941696,-0.0068517099134624004
1772376450626810600,3.427810546875,0.10387962279990315,-0.21579379123449324,0.07673077298104762,-0.2256208062171936,0.10734421014785767,-0.026291871443390846
1772376450636760600,3.437760498046875,0.1279233462102711,-0.22010902408510447,0.0944037923157215,-0.2217688113451004,0.10521794110536575,-0.04081115871667862
1772376450646709500,3.44770947265625,0.203955177141726,-0.22966303437203167,0.1294651688247919,-0.20450638234615326,0.10951369255781174,-0.05141168832778931
1772376450656659700,3.45765966796875,0.24497714255563913,-0.2627706464648247,0.19109423426389693,-0.18901531398296356,0.10749554634094238,-0.05054349824786186
1772376450666608600,3.467608642578125,0.3474813853491098,-0.2968257685407996,0.3069984952479601,-0.18284374475479126,0.08913841843605042,-0.040351010859012604
1772376450676559000,3.47755908203125,0.41186522938907144,-0.3524757595703006,0.411832496163249,-0.18102028965950012,0.044867631047964096,-0.03022620640695095
1772376450686508300,3.48750830078125,0.4085758324548602,-0.4090960569366813,0.4476917450517416,-0.18458662927150726,-0.017051953822374344,-0.02319774404168129
1772376450696458000,3.4974580078125,0.3780900202330202,-0.49574382829815145,0.3849935890763998,-0.1843583881855011,-0.08215852081775665,-0.017571549862623215
1772376450706407200,3.5074072265625,0.31417700857520103,-0.5467071228161454,0.2190460710287094,-0.1749281883239746,-0.14381012320518494,-0.02136678621172905
1772376450716357000,3.517357177734375,0.2487891751244664,-0.5993833587318659,-0.011826046872138977,-0.1559172123670578,-0.19566906988620758,-0.02275189757347107
1772376450726306300,3.527306396484375,0.17914609538204967,-0.6487158371776341,-0.2488917587161064,-0.12909863889217377,-0.23968718945980072,-0.028409507125616074
1772376450736256000,3.537256103515625,0.09241239930279552,-0.6404559583544731,-0.43242870946824546,-0.11123709380626678,-0.2979174554347992,-0.029853206127882004
1772376450746205200,3.547205078125,0.03497318676896393,-0.689123543150723,-0.582456189328432,-0.1033044084906578,-0.3681674003601074,-0.025990217924118042
1772376450756154000,3.557154052734375,-0.049837870684638616,-0.7446653976306319,-0.7568219916313886,-0.084945909678936,-0.48092108964920044,-0.02092808112502098
1772376450766104300,3.567104248046875,-0.1327440443649888,-0.7499485987305641,-1.0310463445246218,-0.041532400995492935,-0.6244394779205322,-0.01583823934197426
1772376450776053200,3.57705322265625,-0.3156695852205157,-0.8396911212369799,-1.4760545495808124,0.024535831063985825,-0.7156980037689209,-0.019203143194317818
1772376450786003200,3.587003173828125,-0.47712256832793354,-0.8327072536990046,-1.7101836234509944,0.08248758316040039,-0.7790771722793579,-0.05161387845873833
1772376450795952000,3.5969521484375,-0.6437932860836386,-0.874113323059678,-1.9317647659152746,0.13147084414958954,-0.8074012398719788,-0.09001586586236954
1772376450805902300,3.60690234375,-0.7532827115893364,-0.9031512014955282,-2.058748054796457,0.15455502271652222,-0.7770684361457825,-0.12527517974376678
1772376450815851300,3.616851318359375,-0.8357057048626244,-0.816745714457333,-2.0728619203448293,0.16740477085113525,-0.7457515001296997,-0.1598999947309494
1772376450825801200,3.62680126953125,-0.9633603171341121,-0.8081506123304366,-2.024094674566388,0.13443724811077118,-0.6786127090454102,-0.20707206428050995
1772376450835750100,3.636750244140625,-0.9501200195498763,-0.8135536404177546,-1.9167004677742718,0.0934986099600792,-0.5789644122123718,-0.24745623767375946
1772376450845700000,3.6467001953125,-0.8710502822272479,-0.8712386444061994,-1.8802157804638147,0.0470331609249115,-0.4606323540210724,-0.296728253364563
1772376450855649300,3.656649169921875,-0.8211210069321095,-0.8580936238899827,-1.858871963661909,-0.0008808327838778496,-0.3012016713619232,-0.3508676290512085
1772376450865599200,3.66659912109375,-0.694370650023967,-0.7979735017091035,-1.7898469427525996,-0.046019308269023895,-0.13688264787197113,-0.3965147137641907
1772376450875548200,3.676548095703125,-0.5153562912628055,-0.688049191917479,-1.6325070940524338,-0.08866291493177414,-0.01947505958378315,-0.4251655340194702
1772376450885498000,3.686498046875,-0.3164497758127749,-0.5674667099893093,-1.4075941768169402,-0.1214601993560791,0.016544166952371597,-0.430012583732605
1772376450895447000,3.696447021484375,-0.17851693063303828,-0.42485301351696253,-1.3012298975944518,-0.12350817024707794,-0.0016042091883718967,-0.4152408540248871
1772376450905397200,3.706397216796875,-0.12593217239305377,-0.3195119398623705,-1.3606775273412466,-0.07450027018785477,-0.05546700209379196,-0.39913442730903625
1772376450915346200,3.71634619140625,-0.16873992524519563,-0.20627631356567144,-1.5432283896654844,0.030143586918711662,-0.0796184092760086,-0.38705113530158997
1772376450925296000,3.726296142578125,-0.25300956929847596,-0.1168666762754321,-1.716795735067129,0.17416855692863464,-0.06199096888303757,-0.3802463710308075
1772376450935245000,3.7362451171875,-0.2994593319147825,0.005877952122688293,-1.7371435265690087,0.33184394240379333,0.003377387300133705,-0.3745621144771576
1772376450945195300,3.7461953125,-0.26693375749364495,0.12313567354232072,-1.526993878701329,0.4935283064842224,0.08169259876012802,-0.3614177107810974
1772376450955144200,3.756144287109375,-0.14363573299646376,0.27523148410916326,-0.9942372475653887,0.6270602345466614,0.14855125546455383,-0.3339437246322632
1772376450965094100,3.76609423828125,-0.028051790007948874,0.4291244072258472,-0.35330256578326225,0.7261387705802917,0.2026311755180359,-0.2943674325942993
1772376450975043000,3.77604296875,-0.008806845181435347,0.5794178445458412,0.23550562292039393,0.7774363160133362,0.25759774446487427,-0.2525060176849365
1772376450984993300,3.7859931640625,-0.041361499566584824,0.6785501266881823,0.9076257165610789,0.7668243646621704,0.2742781341075897,-0.22860431671142578
1772376450994942200,3.795942138671875,-0.05670914469361305,0.700511198605597,1.4902619386315346,0.7117318511009216,0.25821420550346375,-0.22212298214435577
1772376451004892200,3.80589208984375,-0.1225245559066534,0.7359832017421722,1.8503011191934347,0.6278494000434875,0.2416219562292099,-0.24023111164569855
1772376451014841000,3.815841064453125,-0.17668167802989482,0.7669733832895755,2.1320272260189057,0.51521897315979,0.17552337050437927,-0.2817452549934387
1772376451024791300,3.825791259765625,-0.22674714692533016,0.8068234553799033,2.239310373651981,0.3899993300437927,0.08996577560901642,-0.3401106297969818
1772376451034740200,3.835740234375,-0.2879999263979494,0.852074509730935,2.1686516140609977,0.27485543489456177,0.0159530658274889,-0.40200915932655334
1772376451044690200,3.845690185546875,-0.29921456337347624,0.9245005712553859,2.0144494788646696,0.16304446756839752,-0.0534864142537117,-0.4518214166164398
1772376451054639000,3.85563916015625,-0.2815364294722676,1.0335019209831953,1.7204770539283751,0.07483017444610596,-0.10448168963193893,-0.49233847856521606
1772376451064589000,3.865589111328125,-0.32960838646292684,1.2246528538703918,1.3330401633530855,0.008858971297740936,-0.1231367364525795,-0.5136302709579468
1772376451074538200,3.875538330078125,-0.3414781263463199,1.3876061585381627,0.9436942242860793,-0.03053450770676136,-0.09905749559402466,-0.5155045986175537
1772376451084488200,3.88548828125,-0.23863296116068958,1.4673340675085782,0.6108358961164951,-0.04992977902293205,-0.02240346372127533,-0.5049822330474854
1772376451094437000,3.89543701171875,-0.076733330264315,1.5431982867881655,0.4493810133129358,-0.057514727115631104,0.06169303506612778,-0.48639440536499023
1772376451104387000,3.905386962890625,0.16703436343632638,1.562492477583885,0.4479647167742252,-0.06035268306732178,0.14435209333896637,-0.4498104751110077
1772376451114336000,3.9153359375,0.40883536017388106,1.5748171216279268,0.5371154108673334,-0.04904516786336899,0.2179940938949585,-0.39061373472213745
1772376451124286200,3.9252861328125,0.6072792996134608,1.571815601724386,0.6960451591074466,-0.03430464491248131,0.2638761103153229,-0.31466400623321533
1772376451134235100,3.935235107421875,0.7464160406902433,1.547526086859405,0.8788298301875591,-0.01844046078622341,0.28410813212394714,-0.22843539714813232
1772376451144185000,3.94518505859375,0.8326101500000804,1.4985402298942208,1.1031371827453373,-0.011841104365885258,0.27949103713035583,-0.14836536347866058
1772376451154134000,3.955134033203125,0.758966675509885,1.4349644143015146,1.2644178780257702,-0.0022438715677708387,0.27087703347206116,-0.06983060389757156
1772376451164084200,3.965084228515625,0.6093994335725903,1.301507545492053,1.438499602690339,-0.005470524542033672,0.22390258312225342,-0.008262619376182556
1772376451174033200,3.975033203125,0.4618045146215707,1.0826248483315108,1.608015626874566,-0.020568784326314926,0.1709517538547516,0.020688870921730995
1772376451183981000,3.98498095703125,0.449934555542469,1.07928839738518,1.6107120263516903,-0.04899967089295387,0.10973602533340454,0.02750314213335514
1772376451193931000,3.994930908203125,0.3099330873951316,0.8876300994977354,1.7004630244255066,-0.10408981889486313,0.043589502573013306,0.0025139034260064363
1772376451203880200,4.004880126953125,0.10295739338845014,0.7209948914468288,1.7550316499590872,-0.17440642416477203,0.02334314025938511,-0.03732101991772652
1772376451213830100,4.014830078125,-0.09890483006201684,0.5700222396910191,1.7020961785852908,-0.2772902250289917,-0.015212242491543293,-0.11138885468244553
1772376451223779300,4.024779296875,-0.23969255321621893,0.4347092216208577,1.7251403695642946,-0.3929620087146759,-0.0391019731760025,-0.19109907746315002
1772376451233729000,4.03472900390625,-0.4016217024680227,0.3255366069793701,1.6339648916453122,-0.48730048537254333,-0.027552910149097443,-0.2740994095802307
1772376451243678200,4.04467822265625,-0.5158944897927343,0.2797688352778554,1.3779752836227417,-0.5760700106620789,-0.015680992975831032,-0.35247305035591125
1772376451253628000,4.0546279296875,-0.5672825125288218,0.3118944505959749,1.0457786342322826,-0.6313329935073853,-0.007892844267189503,-0.4036124050617218
1772376451263577300,4.064577392578125,-0.5743399567596614,0.4246855479955673,0.6521364592760801,-0.6583350300788879,0.003665008582174778,-0.4271931052207947
1772376451273527000,4.074527099609375,-0.46356575214043255,0.5181213720619678,0.2563449973315,-0.665123701095581,-0.013936089351773262,-0.42622292041778564
1772376451283476200,4.084476318359375,-0.2892472230453044,0.5858429091572761,-0.015458265894651413,-0.6322274208068848,-0.023501919582486153,-0.40262025594711304
1772376451293426000,4.094426025390625,-0.14668284560739994,0.6143468268468976,-0.3103624187231064,-0.5563686490058899,0.0059592993929982185,-0.35575607419013977
1772376451303375400,4.104375244140625,0.004803089432790875,0.6611693682983517,-0.6406044269144535,-0.45288872718811035,0.063409224152565,-0.2894490957260132
1772376451313325000,4.114324951171875,0.10440554637014865,0.7038739530369639,-0.8758709803819655,-0.3421904444694519,0.1405910849571228,-0.20605193078517914
1772376451323274200,4.124274169921875,0.160433430801332,0.7299553197547793,-0.8927490499466657,-0.25360873341560364,0.20511794090270996,-0.11340124905109406
1772376451333223200,4.13422314453125,0.1674739969626069,0.6801753898024558,-0.6883592807799578,-0.2044273316860199,0.22607488930225372,-0.03009250946342945
1772376451343173000,4.144173095703125,0.1469803672492504,0.5635723328992724,-0.24801263779401778,-0.18376043438911438,0.20119449496269226,0.03297354653477669
1772376451353122300,4.154122314453125,0.09171594147123396,0.36189971373677254,0.3014730098247528,-0.1860765814781189,0.15159258246421814,0.06062701344490051
1772376451363072300,4.164072265625,-0.04990194889679551,0.1368283910691738,0.7505518253207206,-0.19487783312797546,0.1005173921585083,0.0611165426671505
1772376451373021200,4.174021240234375,-0.22132680237703023,-0.07470072845816612,1.0242185443311929,-0.200347438454628,0.06339184939861298,0.04620151221752167
1772376451382971100,4.18397119140625,-0.41182730853147803,-0.21711422618329523,1.0928291392207146,-0.20798178017139435,0.03800217807292938,0.012584572657942772
1772376451392920000,4.193920166015625,-0.5954657468967139,-0.33716596223562956,1.1615168909996747,-0.2226637899875641,0.01355249248445034,-0.02130095660686493
1772376451402870300,4.203870361328125,-0.6282440539699048,-0.4777954991534352,1.2474679122686385,-0.24549105763435364,-0.006194091867655516,-0.054082371294498444
1772376451412819200,4.213819091796875,-0.6136799604360014,-0.5865677163004874,1.3112041791200637,-0.2707759141921997,-0.02537071518599987,-0.08628105372190475
1772376451422769200,4.22376904296875,-0.5757205974631011,-0.676049834305048,1.334950965410471,-0.3020527958869934,-0.03928113728761673,-0.11431863158941269
1772376451432718000,4.233718017578125,-0.5631302151549608,-0.7116852113097906,1.354764503905177,-0.3443682789802551,-0.047083668410778046,-0.14395003020763397
1772376451442668300,4.243668212890625,-0.5396369652342051,-0.7791027970224619,1.3141758884072303,-0.3869643211364746,-0.05276447534561157,-0.1775006800889969
1772376451452617200,4.2536171875,-0.5710281287979334,-0.8470864921852945,1.2316285381019114,-0.42347681522369385,-0.060440242290496826,-0.2197410762310028
1772376451462567200,4.263567138671875,-0.5384257628135383,-0.9218336901336908,1.1227087291777134,-0.4499575197696686,-0.07016079872846603,-0.2618095874786377
1772376451472516000,4.27351611328125,-0.46394591056443746,-1.0079100913479924,0.9656938746482133,-0.4641849398612976,-0.07358455657958984,-0.2945755124092102
1772376451482466300,4.28346630859375,-0.3881862476378679,-1.0506570539236069,0.7512427301943302,-0.4775710105895996,-0.07028255611658096,-0.3220721483230591
1772376451492415200,4.293415283203125,-0.35185054034404456,-1.0832201838761568,0.5651695389628411,-0.49880921840667725,-0.08225452154874802,-0.3422698378562927
1772376451502365200,4.303365234375,-0.2517542354751378,-1.0943033034265042,0.4390642019599676,-0.5236731171607971,-0.12264890968799591,-0.35698235034942627
1772376451512314000,4.313314208984375,-0.16709040447250006,-1.1288736815482376,0.3572521801918745,-0.5389599204063416,-0.14502586424350739,-0.3784298598766327
1772376451522264300,4.323264404296875,-0.08339958322048187,-1.1741235668554901,0.18742109870910642,-0.5386875867843628,-0.16594436764717102,-0.39752092957496643
1772376451532213200,4.333213134765625,-0.037482100849971174,-1.183610941646993,-0.03971417075097561,-0.5256623029708862,-0.17511282861232758,-0.41511270403862
1772376451542163200,4.3431630859375,-0.011364932166412472,-1.123574698357284,-0.29392975483834743,-0.498102068901062,-0.1501440554857254,-0.4200427234172821
1772376451552112000,4.353112060546875,0.03972271938361227,-1.089452356263995,-0.5202887792289257,-0.4646575450897217,-0.0792965218424797,-0.414970725774765
1772376451562063000,4.36306298828125,0.2502756873551756,-1.009527463416755,-0.7251420742541551,-0.44101905822753906,-0.003598031122237444,-0.3995843231678009
1772376451572013000,4.373012939453125,0.40376682473793624,-0.9936572557203471,-0.6151449914872646,-0.4380400478839874,0.055186450481414795,-0.3788691759109497
1772376451581962000,4.3829619140625,0.6309903570033609,-1.004387762440741,-0.480084194612503,-0.43523716926574707,0.11796614527702332,-0.34115076065063477
1772376451591912000,4.392911865234375,0.8470018826417625,-1.0446654122933745,-0.3501420559257269,-0.4327894449234009,0.15531937777996063,-0.29292091727256775
1772376451601861000,4.402861083984375,1.0600327850341795,-1.123375084131956,-0.23400573975145816,-0.43362781405448914,0.17235615849494934,-0.23633989691734314
1772376451611810300,4.412810302734375,1.1940735181462019,-1.2542356528379022,-0.15582184535264967,-0.43193936347961426,0.16132347285747528,-0.18818089365959167
1772376451621760300,4.42276025390625,1.2515431988835335,-1.4214736490875481,-0.14332593639492988,-0.42470282316207886,0.13470740616321564,-0.15394723415374756
1772376451631709200,4.432709228515625,1.3031053360775113,-1.572512497947365,-0.1826958237528801,-0.4125191271305084,0.10250365734100342,-0.12779179215431213
1772376451641659100,4.4426591796875,1.3381244808800519,-1.714931840891391,-0.2820236284673214,-0.40495285391807556,0.07890717685222626,-0.1106165274977684
1772376451651608300,4.4526083984375,1.363217713343352,-1.807967559724301,-0.331540231308341,-0.4039291441440582,0.05617949366569519,-0.09261062741279602
1772376451661558300,4.462558349609375,1.4516335172906518,-1.9146866437338292,-0.32077275357842444,-0.4340731203556061,0.01859087124466896,-0.07350541651248932
1772376451671507200,4.472507080078125,1.5220298265531658,-1.96628034510985,-0.37843759156167506,-0.4981890022754669,-0.01703077182173729,-0.06002582237124443
1772376451681457000,4.482456787109375,1.4239043833658098,-1.8901713572889565,-0.6274579450935125,-0.5951887369155884,-0.051855526864528656,-0.05523035302758217
1772376451691406000,4.492406005859375,1.2281909648686646,-1.8367597928360104,-1.0734294422239063,-0.7124831080436707,-0.12613961100578308,-0.058631740510463715
1772376451701356000,4.50235595703125,0.8556222653403878,-1.7187096058644353,-1.8529712151855229,-0.8108817934989929,-0.20123684406280518,-0.08960836380720139
1772376451711305000,4.512304931640625,0.45952853251360354,-1.6951466517083347,-2.895712673678994,-0.8596791625022888,-0.22224092483520508,-0.17279300093650818
1772376451721255000,4.5222548828125,0.30601949414797125,-1.6666430262796579,-4.185396510386466,-0.7947825789451599,-0.09502837061882019,-0.2607000768184662
1772376451731204000,4.5322041015625,0.37542153167612846,-1.5104266286514698,-5.392486819559335,-0.5962825417518616,0.17121955752372742,-0.31888723373413086
1772376451741154000,4.542154052734375,0.6755398389562964,-1.170854628187418,-6.099831955838203,-0.29765987396240234,0.5335282683372498,-0.3060164749622345
1772376451751103000,4.55210302734375,1.1678666984178125,-0.703645258847624,-5.914710366243123,0.02245529554784298,0.8646422624588013,-0.20542141795158386
1772376451761053000,4.562052978515625,1.8031157357789576,-0.2679027486562729,-4.899452542480826,0.29197803139686584,1.0750080347061157,-0.04168486222624779
1772376451771001900,4.572001953125,2.3771640161156653,-0.027776772458851337,-3.4981513283282517,0.46058061718940735,1.1697622537612915,0.18684552609920502
1772376451780952000,4.5819521484375,2.6387109660044312,0.21057766402140257,-2.1057868693470954,0.5353929996490479,1.1571787595748901,0.4476337730884552
1772376451790901000,4.59190087890625,2.703104235459864,0.32040698900595305,-1.0503273835778235,0.5562860369682312,1.0507866144180298,0.6908288598060608
1772376451800851000,4.601850830078125,2.495518008339405,0.26738281643539663,-0.4419605079233646,0.5698137283325195,0.8955391049385071,0.883177638053894
1772376451810799900,4.6117998046875,2.1503497953034936,0.12991247420087457,-0.24406126981973647,0.6150856018066406,0.7198469042778015,1.0051181316375732
1772376451820750000,4.62175,1.7810498883128165,0.01537029535025358,-0.28557459894716736,0.6979885101318359,0.5593887567520142,1.0657551288604736
1772376451830699000,4.631698974609375,1.3938915224179624,-0.05689063874036073,-0.4374509215444326,0.8162145018577576,0.39253056049346924,1.082521677017212
1772376451840649000,4.64164892578125,1.0653485001642256,-0.04812646365687251,-0.5891898814976215,0.9381866455078125,0.25008758902549744,1.0682566165924072
1772376451850598000,4.651597900390625,0.8720260684568435,-0.03667407240271568,-0.6018699148505926,1.039231300354004,0.12410994619131088,1.042786717414856
1772376451860548000,4.661548095703125,0.779027320633456,0.04948021635338664,-0.4285498222082853,1.0914442539215088,-0.01073906384408474,1.009006381034851
1772376451870497000,4.6714970703125,0.7430415958210825,0.1273927464649081,-0.2721440394878387,1.0829623937606812,-0.12789365649223328,0.9916654229164124
1772376451880447000,4.681447021484375,0.7093667052343487,0.23553601805865762,-0.23198855471014976,1.021523118019104,-0.23027795553207397,0.9779637455940247
1772376451890396000,4.69139599609375,0.5291339471267535,0.3834431447640061,-0.379140771394968,0.9247827529907227,-0.304394006729126,0.9547466039657593
1772376451900345900,4.701345947265625,0.22701767096240072,0.5579676447600126,-0.7524205418020486,0.8178150057792664,-0.35612431168556213,0.9228246212005615
1772376451910295000,4.711294921875,-0.08996224793801083,0.6900529329553247,-1.2890303412348032,0.7183555364608765,-0.38097214698791504,0.8752493858337402
1772376451920245000,4.721244873046875,-0.3925741438658908,0.7386348852947354,-1.863883069822192,0.6299793720245361,-0.35224756598472595,0.8000603318214417
1772376451930194000,4.73119384765625,-0.7026338898479938,0.7669400655418634,-2.459666358235478,0.5775627493858337,-0.27261000871658325,0.7023454904556274
1772376451940143900,4.741143798828125,-0.9288145619969814,0.895191766923666,-3.116988111194968,0.5990417003631592,-0.10298461467027664,0.5977721810340881
1772376451950093000,4.751093017578125,-0.9787851191505789,1.1360288139998913,-3.568970831438899,0.6845635175704956,0.1341342031955719,0.5151241421699524
1772376451960042000,4.7610419921875,-0.8547220285650342,1.4499465871170163,-3.6036692198544737,0.8098462224006653,0.39151573181152344,0.4777753949165344
1772376451969992000,4.770991943359375,-0.5605072827728464,1.8229390650153159,-3.138275229373574,0.9244052767753601,0.6240701675415039,0.5047973990440369
1772376451979942000,4.78094189453125,-0.18922763667441903,2.1395003383785487,-2.217413599142432,0.9982538223266602,0.7657241225242615,0.5922042727470398
1772376451989890800,4.790890869140625,0.08039000787464902,2.3774881335034963,-1.1506605659425257,1.0454639196395874,0.8311247229576111,0.7080062627792358
1772376451999840000,4.800840087890625,0.18907883932087569,2.4688868987843393,-0.277160406345129,1.0677103996276855,0.8795314431190491,0.8309662938117981
1772376452009790000,4.8107900390625,0.119252612430742,2.473311144967377,0.47793841475546356,1.0702450275421143,0.9007691144943237,0.9345033168792725
1772376452019739000,4.82073876953125,-0.07961156171490438,2.426693770699203,1.122366199350357,1.0598951578140259,0.8994165062904358,1.0038220882415771
1772376452029688800,4.830688720703125,-0.2920867025212385,2.318415182287991,1.6828385204076766,1.0352391004562378,0.8742661476135254,1.0330170392990112
1772376452039637800,4.8406376953125,-0.47561070246025916,2.188089012719691,2.1578461424082516,0.9977111220359802,0.8298258185386658,1.0325733423233032
1772376452049588000,4.850587890625,-0.6294627821099013,2.0475477386072276,2.5967905173808337,0.9534104466438293,0.7721673250198364,1.0007585287094116
1772376452059537000,4.860536865234375,-0.7569153690032661,1.944303929492831,3.0099773507624863,0.8844396471977234,0.7030020952224731,0.9451979994773865
1772376452069486800,4.87048681640625,-0.7960191527709365,1.8246642813727258,3.3374183300584552,0.7925254702568054,0.6312916874885559,0.8779672980308533
1772376452079435800,4.880435791015625,-0.8435958735905588,1.7407117404446004,3.6193116101443765,0.6889305710792542,0.5388991832733154,0.816831111907959
1772376452089386000,4.890385986328125,-0.9070422906499356,1.6906395495474338,3.8346471362173555,0.5573338866233826,0.452095627784729,0.7488275170326233
1772376452099335000,4.9003349609375,-0.9804464764915406,1.5987983011960982,3.9497389117747543,0.4208436906337738,0.37809455394744873,0.6658985614776611
1772376452109284900,4.910284912109375,-1.0534143167424947,1.4988617169335483,4.001822150233387,0.27535387873649597,0.3010106682777405,0.5788816213607788
1772376452119233800,4.92023388671875,-1.148327154558897,1.4523048406809567,3.95388667910397,0.1262226700782776,0.21573631465435028,0.48971718549728394
1772376452129184000,4.93018408203125,-1.253437049806118,1.3674229099482298,3.8096097255945205,-0.02534022182226181,0.13087014853954315,0.3794037103652954
1772376452139133000,4.9401328125,-1.1979902531985194,1.2536790418684483,3.5915415596872564,-0.1548551768064499,0.034934625029563904,0.268970787525177
1772376452149083000,4.950082763671875,-1.1210355352684855,1.2059896544545887,3.1874551476061344,-0.24361459910869598,-0.04255164414644241,0.172098308801651
1772376452159031800,4.96003173828125,-1.0355273623961954,1.2692834382355211,2.7222961349248886,-0.290571928024292,-0.0936766266822815,0.09872148185968399
1772376452168982000,4.96998193359375,-0.9568751928985119,1.3526663625821471,2.352002102330327,-0.33379343152046204,-0.13297022879123688,0.05108419060707092
1772376452178931000,4.979930908203125,-0.8191681923639029,1.3839862144753337,2.086449131670594,-0.3685782253742218,-0.17209315299987793,0.022502271458506584
1772376452188881000,4.989880859375,-0.7019235496215522,1.3742474952712653,1.8589567193359136,-0.40722495317459106,-0.1969556212425232,0.01025732234120369
1772376452198829800,4.999829833984375,-0.621810732986778,1.3539189929917455,1.6307430069893598,-0.43219858407974243,-0.19691695272922516,0.010219882242381573
1772376452208779800,5.00977978515625,-0.6014342999123037,1.3461112418502568,1.456440917572379,-0.45821526646614075,-0.175467848777771,0.016534237191081047
1772376452218729000,5.01972900390625,-0.5665283696932718,1.273161156451702,1.3250076635450123,-0.48675110936164856,-0.13830140233039856,0.02309710904955864
1772376452228679000,5.029678955078125,-0.547861078624241,1.1770602048292755,1.2027397127479313,-0.5185692310333252,-0.08320380002260208,0.02834220603108406
1772376452238627800,5.0396279296875,-0.5019484185593203,1.0824421852409838,1.159785537162423,-0.5540053248405457,-0.034579724073410034,0.030400633811950684
1772376452248577800,5.049577880859375,-0.4194104206042364,0.9283063932791352,1.1316513295680284,-0.5886332988739014,-0.007836527191102505,0.03416261821985245
1772376452258526700,5.059526611328125,-0.3441758409976959,0.7545172218203544,1.1241823088616132,-0.6216633915901184,-0.00764349102973938,0.041635412722826004
1772376452268477000,5.069476806640625,-0.3246967220891267,0.6129299457862973,1.1357394756644963,-0.6482223272323608,-0.045524291694164276,0.04548021778464317
1772376452278425900,5.07942578125,-0.31212880734112114,0.43489539184272286,1.1113695890396833,-0.6701619625091553,-0.10787102580070496,0.044947851449251175
1772376452288375800,5.089375732421875,-0.3406320674436167,0.272792566524446,0.9591922376692295,-0.6872466802597046,-0.1649327129125595,0.036938127130270004
1772376452298324700,5.09932470703125,-0.3931265535842627,0.07998626764565706,0.8136813584506511,-0.7018664479255676,-0.22160392999649048,0.023920970037579536
1772376452308274000,5.10927392578125,-0.4196526683948934,-0.07851034987419843,0.5753343746244907,-0.7101613879203796,-0.27800649404525757,0.0010635927319526672
1772376452318224000,5.119223876953125,-0.4484912613989785,-0.23590631267577408,0.29190672457814215,-0.7111632823944092,-0.3192202150821686,-0.021030830219388008
1772376452328172800,5.1291728515625,-0.4426920370683074,-0.34003245758265255,0.08556289873421191,-0.7109445929527283,-0.3623943030834198,-0.04469088837504387
1772376452338122800,5.139122802734375,-0.4696943910885602,-0.4187508972495794,-0.17179449051022527,-0.7017541527748108,-0.3726198673248291,-0.060976069420576096
1772376452348072000,5.149072021484375,-0.46879978033639486,-0.46553953643143176,-0.4070657201528549,-0.6929928660392761,-0.3807947039604187,-0.07328919321298599
1772376452358022000,5.15902197265625,-0.423654743643105,-0.5519681120842695,-0.6332827057242393,-0.682808518409729,-0.3897084891796112,-0.08632202446460724
1772376452367970800,5.168970703125,-0.37311986713763323,-0.6702703741207718,-0.8465279815196991,-0.6664154529571533,-0.39258071780204773,-0.09994116425514221
1772376452377920800,5.178920654296875,-0.37611583408322186,-0.7291732294663786,-1.0940005210876464,-0.626516580581665,-0.4068118631839752,-0.11547420918941498
1772376452387870000,5.188869873046875,-0.3848390561018139,-0.7683335657268762,-1.3382903389662504,-0.5828021168708801,-0.42310962080955505,-0.13044968247413635
1772376452397820000,5.19881982421875,-0.37424733679760247,-0.8439993398249149,-1.574807184755802,-0.5268320441246033,-0.42477890849113464,-0.14403319358825684
1772376452407769000,5.20876904296875,-0.39255763112250713,-0.9492647178947925,-1.759349513158202,-0.47243884205818176,-0.432928204536438,-0.1582382172346115
1772376452417718800,5.21871875,-0.43009412904083727,-0.9860463423252105,-1.9439333426147698,-0.4142092764377594,-0.4408963918685913,-0.17288781702518463
1772376452427668000,5.22866796875,-0.4476890416380018,-1.0155392710521816,-2.0789754347890614,-0.3578866422176361,-0.44872742891311646,-0.18933096528053284
1772376452437618000,5.238617919921875,-0.47678157287053763,-1.0255001085743307,-2.201239878454804,-0.29545700550079346,-0.4330262839794159,-0.20896971225738525
1772376452447567000,5.248567138671875,-0.45873146385177965,-1.033420087918639,-2.3277099571168423,-0.23257233202457428,-0.388599693775177,-0.2257673293352127
1772376452457516800,5.258516845703125,-0.3931710868457332,-1.0138386046141385,-2.328111523655057,-0.17066024243831635,-0.35950276255607605,-0.23883889615535736
1772376452467466000,5.268466064453125,-0.34546807276532054,-0.9692740712225436,-2.2544705333828925,-0.11932862550020218,-0.34842294454574585,-0.2471572756767273
1772376452477415700,5.278415771484375,-0.25076697800345715,-0.9085054220050572,-2.100599237576127,-0.07941780239343643,-0.3525296449661255,-0.24757418036460876
1772376452487365000,5.288365234375,-0.2050918895540759,-0.8739467343211174,-1.9000275653928518,-0.049832750111818314,-0.3518633246421814,-0.24312937259674072
1772376452497314800,5.298314697265625,-0.13760960457473992,-0.920859876665473,-1.654265921396017,-0.05254194140434265,-0.3438221216201782,-0.24498723447322845
1772376452507264000,5.308263916015625,-0.11674553411379456,-1.0012073788389564,-1.3237743223577738,-0.09049224853515625,-0.37429454922676086,-0.26558172702789307
1772376452517213700,5.318213623046875,-0.21936083606630563,-1.071304120633006,-0.9897767610251903,-0.16778349876403809,-0.4664593040943146,-0.30378058552742004
1772376452527163100,5.3281630859375,-0.48392917960286136,-1.068691307786107,-0.8995347645640372,-0.25922873616218567,-0.5750294923782349,-0.3794042468070984
1772376452537112800,5.33811279296875,-0.7953093240011483,-1.0421417390346526,-1.1480313864827156,-0.329340398311615,-0.629892110824585,-0.4759686589241028
1772376452547062000,5.34806201171875,-1.0178410451885311,-1.0132178423672913,-1.7130810984581708,-0.3627856969833374,-0.5808950066566467,-0.5829630494117737
1772376452557012000,5.358011962890625,-1.0226993719398976,-0.9397180141314864,-2.2418688259631394,-0.34774109721183777,-0.4942110478878021,-0.6852647662162781
1772376452566961000,5.3679609375,-0.7625569550868123,-0.8372019347697496,-2.490095983290672,-0.29835784435272217,-0.36669009923934937,-0.7602364420890808
1772376452576910800,5.377910888671875,-0.48377230854071673,-0.6584861205637454,-2.568179924446344,-0.2200644463300705,-0.2528371810913086,-0.7808753252029419
1772376452586860000,5.387860107421875,-0.12835494256056845,-0.4762555762350559,-2.5084452944517133,-0.10804816335439682,-0.15661130845546722,-0.7501088976860046
1772376452596810000,5.39781005859375,0.1550375631071627,-0.2551972886011004,-2.273469832885265,0.02118527516722679,-0.1222369447350502,-0.6905468702316284
1772376452606759000,5.407759033203125,0.38595147432312366,-0.05656476778686046,-1.9219225863367317,0.15181413292884827,-0.11534548550844193,-0.6094581484794617
1772376452616707800,5.417707763671875,0.4929241677675396,0.034146015229821206,-1.5350953520923851,0.27143022418022156,-0.11747132241725922,-0.5140613317489624
1772376452626658000,5.427657958984375,0.4681071218971163,0.06073007077276706,-1.1276648902803659,0.37451639771461487,-0.11121901869773865,-0.4375752806663513
1772376452636607000,5.43760693359375,0.26843970507718623,0.05637187556326389,-0.7545090385138988,0.4642438590526581,-0.09647803753614426,-0.3871059715747833
1772376452646557000,5.447556884765625,0.006748232151195407,0.0457554967418313,-0.40067280424535273,0.5425117611885071,-0.05524778366088867,-0.36259371042251587
1772376452656505900,5.457505859375,-0.1571419149752706,0.04738397472649812,-0.030142624807357785,0.6071549654006958,-0.004327425733208656,-0.3621181547641754
1772376452666456000,5.4674560546875,-0.25384667770974334,0.07350275084525347,0.3706944300889969,0.6481047868728638,0.02873891219496727,-0.36480528116226196
1772376452676405200,5.4774052734375,-0.31196671211458743,0.09332827203869819,0.7866840459316968,0.6641119718551636,0.05175604671239853,-0.3711901307106018
1772376452686355500,5.48735546875,-0.38081330771706995,0.09005670302212238,1.1777028866469859,0.6488832235336304,0.06855686753988266,-0.39088261127471924
1772376452696304400,5.497304443359375,-0.5073774944033473,0.12780629570186136,1.545454249021411,0.5834625959396362,0.05856519937515259,-0.4346054792404175
1772376452706254300,5.50725439453125,-0.6607018238518386,0.15133710115402937,1.848595484319329,0.4804325997829437,0.02071555331349373,-0.5032665729522705
1772376452716203300,5.517203369140625,-0.741291537283361,0.15163023888170718,2.0387001230239865,0.3473484516143799,-0.0534680038690567,-0.5948445796966553
1772376452726153200,5.5271533203125,-0.732081445063278,0.1850716129735112,2.0094524012297392,0.21593612432479858,-0.16166450083255768,-0.692444384098053
1772376452736102400,5.537102294921875,-0.63512321902439,0.28178046736121176,1.7552888395905493,0.10941977798938751,-0.26223379373550415,-0.7914894819259644
1772376452746052400,5.54705224609375,-0.5353736087013036,0.48580432582497596,1.2411924852609633,0.04135976359248161,-0.3157196640968323,-0.8579214811325073
1772376452756001300,5.557001220703125,-0.5136263987302779,0.7840612962126732,0.6595733312785625,-0.007729996927082539,-0.33797991275787354,-0.8917601108551025
1772376452765951200,5.566951171875,-0.47036381478272377,1.0351292299240826,0.25116437982320783,-0.05728503316640854,-0.3649686276912689,-0.9096616506576538
1772376452775900400,5.576900390625,-0.32521928465850647,1.1047159763693808,-0.08194879989027977,-0.10041865706443787,-0.32353731989860535,-0.9101173281669617
1772376452785850400,5.586850341796875,-0.2138850350037217,1.2374936307430267,-0.48030397484302517,-0.10946674644947052,-0.23247316479682922,-0.8904133439064026
1772376452795799300,5.59679931640625,-0.06372311510890721,1.3785147973269223,-0.8404887013554573,-0.0747666209936142,-0.104183629155159,-0.8420960903167725
1772376452805749200,5.606749267578125,0.1455195739816874,1.4994430239528416,-1.0528402431815862,-0.0021779111120849848,0.044923558831214905,-0.756569504737854
1772376452815698200,5.6166982421875,0.401717125666514,1.6244897918134926,-1.061678798675537,0.11176398396492004,0.1842595934867859,-0.6427501440048218
1772376452825648400,5.6266484375,0.5925391188602894,1.765974191994965,-0.7945090404689311,0.23919224739074707,0.298941969871521,-0.4982965290546417
1772376452835597300,5.636597412109375,0.7018583754308522,1.8085767776638269,-0.24499124414622783,0.35026785731315613,0.35014867782592773,-0.34674641489982605
1772376452845547300,5.64654736328125,0.7393794200517236,1.6848007603913544,0.4779290624052286,0.4177006781101227,0.34273603558540344,-0.21095316112041473
1772376452855496200,5.65649609375,0.6195767633896321,1.5142401955902576,1.1252098983436822,0.45364028215408325,0.327729195356369,-0.10235657542943954
1772376452865446400,5.6664462890625,0.4003139443377033,1.3479784970268607,1.6589812594801188,0.4464268386363983,0.3035242557525635,-0.027061020955443382
1772376452875395300,5.676395263671875,0.1834282662132755,1.1592404705002903,2.176484791904688,0.4027572274208069,0.2498629242181778,0.007732530124485493
1772376452885345300,5.68634521484375,0.026587197348102925,0.9327522667720913,2.572428814062476,0.33713775873184204,0.2043609470129013,0.007950376719236374
1772376452895294200,5.696294189453125,-0.2051763164345175,0.7378861127540469,2.828331912845373,0.2577720582485199,0.16249799728393555,-0.02794639952480793
1772376452905243100,5.7062431640625,-0.4546104383990168,0.6040948974236846,3.0144553729593753,0.1581738293170929,0.1250278651714325,-0.09857688844203949
1772376452915193300,5.716193359375,-0.6068401775438338,0.4757262916639447,3.1500819870233534,0.0345429852604866,0.07726850360631943,-0.1909605860710144
1772376452925142300,5.726142333984375,-0.6883198255524039,0.3799108789846301,3.2411370534330604,-0.10851963609457016,0.014273024164140224,-0.2952720820903778
1772376452935092200,5.73609228515625,-0.7593155620127916,0.3338017464995384,3.2170892383694647,-0.2547454237937927,-0.037128549069166183,-0.4050602316856384
1772376452945041200,5.746041259765625,-0.7360172501422464,0.3522580251663923,3.099997813427448,-0.40959227085113525,-0.06420091539621353,-0.5032075643539429
1772376452954991400,5.755991455078125,-0.6275549757272004,0.39915129376649855,2.882933856126666,-0.552095353603363,-0.0924646183848381,-0.5807843208312988
1772376452964940300,5.765940185546875,-0.4938458857223391,0.4943871529921889,2.512746791037917,-0.6648075580596924,-0.09464841336011887,-0.6242979764938354
1772376452974890200,5.77589013671875,-0.30741314046345647,0.5796212581634521,2.0568267313450574,-0.7531647682189941,-0.0846184641122818,-0.6345959901809692
1772376452984839200,5.785839111328125,-0.11112038770839572,0.6122735277041792,1.6683564060688019,-0.8172484040260315,-0.10712616890668869,-0.6250985860824585
1772376452994789400,5.795789306640625,0.09803023918457329,0.5358987285539507,1.2548591915637255,-0.833491861820221,-0.10190404951572418,-0.5969319343566895
1772376453004738300,5.80573828125,0.16112247251141815,0.5232499671220779,0.8062497471451758,-0.8186607360839844,-0.08753123134374619,-0.5431579351425171
1772376453014688300,5.815688232421875,0.17521569713056087,0.48595104081928725,0.4314437900841236,-0.773699939250946,-0.062188584357500076,-0.4887087643146515
1772376453024637200,5.82563720703125,0.18125483116433022,0.42551673812270163,0.16383096428513527,-0.7226793766021729,-0.03390687704086304,-0.41551125049591064
1772376453034587100,5.835587158203125,0.19549915469195692,0.3057902885019779,0.0009276362389326095,-0.6649555563926697,0.0005418984219431877,-0.3411406874656677
1772376453044536300,5.845536376953125,0.18314864555429666,0.1349482764109969,-0.06880348711311816,-0.6196197867393494,0.02844676375389099,-0.27166682481765747
1772376453054486300,5.855486328125,0.14582224672269076,-0.05355331101119518,-0.034281039786338806,-0.5908160209655762,0.03819001466035843,-0.22239433228969574
1772376453064435200,5.865435302734375,0.052296789877768604,-0.30045068103969097,-0.006066168171167373,-0.5892743468284607,0.03660915791988373,-0.19386762380599976
1772376453074385200,5.87538525390625,-0.11983325272975488,-0.5487804219588637,-0.052964112946391105,-0.5937438607215881,0.04268036037683487,-0.1937558352947235
1772376453084334000,5.885333984375,-0.285617104648333,-0.7694546787112951,-0.149912913569808,-0.5940189957618713,0.03630475327372551,-0.2073851078748703
1772376453094284300,5.8952841796875,-0.3799469732113182,-0.9090028501331806,-0.3668172963947057,-0.5637030601501465,0.02648063376545906,-0.22293594479560852
1772376453104233200,5.905233154296875,-0.4333613141432404,-1.026251511463523,-0.601531476676464,-0.5100997686386108,0.029994145035743713,-0.24365560710430145
1772376453114183200,5.91518310546875,-0.44256965279765426,-1.110859009169042,-0.6949374901264905,-0.4424017071723938,0.011852169409394264,-0.26086968183517456
1772376453124132000,5.925132080078125,-0.39159558115731924,-1.1600992792867124,-0.8045055338263511,-0.3556455075740814,0.0011822143569588661,-0.2660500407218933
1772376453134082300,5.935082275390625,-0.3422540060896426,-1.1968753507591783,-0.8310363978773355,-0.27991750836372375,-0.010523280128836632,-0.26236605644226074
1772376453144031200,5.94503125,-0.22064419040773062,-1.2604356765218079,-0.7114116550654173,-0.22428542375564575,-0.0479942262172699,-0.25403034687042236
1772376453153980200,5.954980224609375,-0.17653647913923487,-1.3372063431218266,-0.612749620783329,-0.19979697465896606,-0.07307950407266617,-0.24380235373973846
1772376453163930000,5.96493017578125,-0.1455541155721061,-1.40186878490746,-0.5854267295718193,-0.19254173338413239,-0.09973987936973572,-0.23746003210544586
1772376453173879000,5.974879150390625,-0.1782642893125303,-1.4698068873628973,-0.6403858157277107,-0.1918550729751587,-0.11148804426193237,-0.24284374713897705
1772376453183829200,5.984829345703125,-0.24728812291175126,-1.5244498933069408,-0.8324410039782524,-0.1766556054353714,-0.08364203572273254,-0.2542966902256012
1772376453193778200,5.994778076171875,-0.3803586958173662,-1.5389198788166045,-1.0295464613556862,-0.15245476365089417,-0.022407010197639465,-0.27527397871017456
1772376453203728100,6.00472802734375,-0.4491109641999006,-1.5438956214025616,-1.149520748257637,-0.12693795561790466,0.051242973655462265,-0.3016669750213623
1772376453213677000,6.014677001953125,-0.44354532942939545,-1.5150849758513272,-1.180674011412263,-0.0859895795583725,0.1297738403081894,-0.3191012144088745
1772376453223627300,6.024627197265625,-0.2978390007039532,-1.4729497154332696,-1.1119313145756722,-0.04601527005434036,0.20038409531116486,-0.31836140155792236
1772376453233576200,6.034576171875,-0.10330438019521535,-1.4358334522210061,-0.897562003186345,-0.013947048224508762,0.25838544964790344,-0.2974686920642853
1772376453243526100,6.044526123046875,0.1040774286606349,-1.4194780913561582,-0.6108668757766484,-0.002518091583624482,0.2816372513771057,-0.25641074776649475
1772376453253475000,6.05447509765625,0.24828265037443487,-1.4476735276184975,-0.32870705370903014,-0.016242744401097298,0.27930623292922974,-0.20663219690322876
1772376453263425300,6.06442529296875,0.3326178339445963,-1.5142065855816005,-0.12082885790467261,-0.03242810443043709,0.2594633102416992,-0.16766348481178284
1772376453273374200,6.074374267578125,0.3702343748291954,-1.6333623957075178,-0.011785130339860915,-0.05663773790001869,0.23461009562015533,-0.14443577826023102
1772376453283324200,6.08432421875,0.41156219132188704,-1.780974484989047,-0.006809095492959022,-0.07341299206018448,0.21227391064167023,-0.1344481259584427
1772376453293273000,6.094273193359375,0.40577578994017094,-1.8964501452974973,-0.0345861602127552,-0.10281509160995483,0.18143168091773987,-0.1394931823015213
1772376453303223000,6.10422314453125,0.4293348716387525,-2.001939979773015,-0.034223756641149516,-0.14682410657405853,0.13076052069664001,-0.1601121723651886
1772376453313172200,6.114172119140625,0.3759867643434554,-2.0386719198428094,-0.09846972658038139,-0.20691409707069397,0.07688748091459274,-0.19169776141643524
1772376453323122200,6.1241220703125,0.24704350050091742,-2.0589073370113966,-0.282130595973134,-0.29492706060409546,0.03659145534038544,-0.24645155668258667
1772376453333071000,6.134071044921875,0.12528545372104272,-1.9523286843858658,-0.5930377890974283,-0.3905085325241089,-0.05349580943584442,-0.3177019953727722
1772376453343021000,6.14402099609375,0.017552827021107078,-1.8688094203084706,-1.0907850661724805,-0.44580721855163574,-0.12112439423799515,-0.3986751139163971
1772376453352970200,6.15397021484375,0.011515948876505717,-1.6576821595802902,-1.7737796050488948,-0.44427594542503357,-0.1508905291557312,-0.45694127678871155
1772376453362920200,6.163920166015625,0.06275237494718748,-1.3942127171963452,-2.454226213008165,-0.3917056918144226,-0.1628502458333969,-0.49546337127685547
1772376453372869400,6.173869384765625,0.29794742951449005,-1.1718816331475972,-3.0705314804464576,-0.2687356770038605,-0.1374630481004715,-0.49490660429000854
1772376453382819000,6.183819091796875,0.5606316763374954,-0.9231776520885526,-3.54964712228775,-0.09829311072826385,-0.05762600526213646,-0.4493471086025238
1772376453392768300,6.193768310546875,0.7899537152521312,-0.6499678830653428,-3.699080727908015,0.10811375081539154,0.005647024139761925,-0.391753226518631
1772376453402718200,6.20371826171875,0.8910051288887858,-0.3492323937349021,-3.52644627944231,0.2837154269218445,0.0716036707162857,-0.3157961666584015
1772376453412667400,6.21366748046875,0.9773019679207354,-0.044741205132752655,-3.1697207534730434,0.41498661041259766,0.1360580176115036,-0.19117939472198486
1772376453422616300,6.2236162109375,1.0550102076318115,0.21744389652907847,-2.6813608979463575,0.5041900277137756,0.2204543948173523,-0.0407579243183136
1772376453432566300,6.233566162109375,1.0746760812841356,0.37767332919090985,-2.1726889067530633,0.5524824261665344,0.3142421841621399,0.10572715103626251
1772376453442515200,6.24351513671875,1.0157427577350289,0.47458720463141796,-1.7125819167643785,0.5969846248626709,0.3833725154399872,0.23314450681209564
1772376453452465400,6.25346533203125,0.9920496013280004,0.4893102881193161,-1.3031705102682112,0.6572641730308533,0.4376305639743805,0.337412565946579
1772376453462414300,6.263414306640625,0.949667599607259,0.49565717292800543,-0.971759458297491,0.7327144742012024,0.44714632630348206,0.41499602794647217
1772376453472364300,6.2733642578125,0.8775340912885964,0.5257920528203248,-0.6007885493546724,0.8153365254402161,0.40631210803985596,0.4779610335826874
1772376453482313200,6.283313232421875,0.8377997545324265,0.5599013893015682,-0.22229718177914617,0.8831413984298706,0.3434479236602783,0.5367151498794556
1772376453492263400,6.293263427734375,0.850695111136511,0.583467119936645,0.15189444277584552,0.9342700242996216,0.21705181896686554,0.5888920426368713
1772376453502212400,6.30321240234375,0.8915076715834438,0.5998395780667662,0.4935743753045797,0.9613773226737976,0.049637265503406525,0.6358587741851807
1772376453512162300,6.313162353515625,0.8933493539273738,0.6052957976460457,0.7152864506721496,0.9521299004554749,-0.13527318835258484,0.6686461567878723
1772376453522111200,6.323111328125,0.7678544039078057,0.5981728138983249,0.7800415391772985,0.9055464267730713,-0.3074715733528137,0.6746990084648132
1772376453532061400,6.3330615234375,0.5978293342228979,0.5414107699736952,0.6708610334903001,0.8193067312240601,-0.44985634088516235,0.6532084941864014
1772376453542010400,6.34301025390625,0.3489492659445852,0.5216498384490609,0.351935953605175,0.7313510179519653,-0.5318273901939392,0.6084908246994019
1772376453551960300,6.352960205078125,0.029892764532403086,0.5814654247254133,-0.18495616990029812,0.6542361378669739,-0.5596590638160706,0.5434850454330444
1772376453561909200,6.3629091796875,-0.2557871442530304,0.7202849896118044,-0.7832797904461621,0.58406001329422,-0.5524792075157166,0.4691740870475769
1772376453571859500,6.372859375,-0.37190943190194664,0.8668947699829935,-1.2682669546693564,0.5174102783203125,-0.5100225806236267,0.391622394323349
1772376453581808400,6.382808349609375,-0.43339119782485064,0.993699487426877,-1.6737725858986376,0.47356852889060974,-0.4322252869606018,0.3236188292503357
1772376453591758300,6.39275830078125,-0.4470576118666678,1.1512667151421307,-2.1006378160208463,0.4727189838886261,-0.29884475469589233,0.2659180164337158
1772376453601707300,6.402707275390625,-0.3370081413254142,1.3580536085784434,-2.4114812962591645,0.5330625176429749,-0.09979076683521271,0.22600974142551422
1772376453611657200,6.4126572265625,-0.10965091794403269,1.6295122961506248,-2.4436755928993223,0.6349681615829468,0.13360965251922607,0.2273857295513153
1772376453621606400,6.4226064453125,0.2282594329181127,1.957814276190102,-1.9873060358732937,0.7332177758216858,0.3316684067249298,0.2761971950531006
1772376453631556400,6.432556396484375,0.5856058855310082,2.20900583628118,-1.0556097078949211,0.7795211672782898,0.4470757246017456,0.3624459505081177
1772376453641505300,6.44250537109375,0.7975786571726202,2.306969366905093,-0.00997018987238407,0.7992503643035889,0.500485360622406,0.4635342061519623
1772376453651454200,6.4524541015625,0.8748764163866639,2.334480181904137,0.7983055101424456,0.7893040180206299,0.5482078790664673,0.5543544292449951
1772376453661404200,6.462404052734375,0.84272157497406,2.3239903520718217,1.5714695647656918,0.7479882836341858,0.5653048753738403,0.61748868227005
1772376453671353300,6.472353271484375,0.785422574628517,2.2821119890242816,2.2657962295174596,0.6885313987731934,0.555176854133606,0.6549658179283142
1772376453681303600,6.482303466796875,0.7453591520484536,2.1845608385935424,2.8256378514558076,0.6047872304916382,0.5242533087730408,0.6690566539764404
1772376453691252500,6.49225244140625,0.6329599765758961,2.0701409709483385,3.205421012407541,0.5072499513626099,0.5020653605461121,0.6632157564163208
1772376453701202400,6.502202392578125,0.4992639287156984,1.9837588647857307,3.5585669263243673,0.3866364359855652,0.42745450139045715,0.6355465650558472
1772376453711151400,6.5121513671875,0.3973058120302856,1.9068515661939978,3.797280989897251,0.25868991017341614,0.31513482332229614,0.5855558514595032
1772376453721101600,6.5221015625,0.37393922069650143,1.7694976899459958,3.867914030525088,0.1321580559015274,0.19016729295253754,0.5457394123077393
1772376453731050500,6.532050537109375,0.4008639063706621,1.6465817966341971,3.7945880975514648,0.025141160935163498,0.06224764138460159,0.4978088140487671
1772376453741000400,6.54200048828125,0.35826782350782305,1.532132118372619,3.594710837373137,-0.06569047272205353,-0.047860488295555115,0.4474356472492218
1772376453750949400,6.551949462890625,0.29589809576924886,1.3977338770598173,3.3647342070072885,-0.14364850521087646,-0.13128989934921265,0.3916800916194916
1772376453760899300,6.5618994140625,0.24992106523122637,1.3122805761799214,3.115746002179384,-0.2239800989627838,-0.19016730785369873,0.3372360169887543
1772376453770848500,6.5718486328125,0.1899962829593569,1.294349782691896,2.8641262798041103,-0.3018249273300171,-0.22397983074188232,0.294257253408432
1772376453780798500,6.581798583984375,0.11967549575162119,1.2805083043441177,2.5689965015262364,-0.3856993317604065,-0.23678776621818542,0.25602811574935913
1772376453790747400,6.591747314453125,0.10886699189157224,1.2244991246134043,2.2951684544742106,-0.46640467643737793,-0.23083467781543732,0.22489449381828308
1772376453800697300,6.601697265625,0.15328845441751182,1.1478355716496704,1.985893830987811,-0.54395592212677,-0.21361947059631348,0.19869351387023926
1772376453810646500,6.611646484375,0.2220563222279772,1.0450520735234021,1.6912831081479787,-0.6145805716514587,-0.20482726395130157,0.17729905247688293
1772376453820596500,6.621596435546875,0.26168542677769435,0.9682318686932325,1.4218839834541082,-0.6744047403335571,-0.21066704392433167,0.15434713661670685
1772376453830545400,6.63154541015625,0.27536086437618357,0.8459829148575663,1.0896961018919944,-0.724081814289093,-0.22823567688465118,0.13123811781406403
1772376453840495400,6.641495361328125,0.28301620143493633,0.742492437505722,0.7363625564485788,-0.7495447993278503,-0.23806221783161163,0.11191848665475845
1772376453850444300,6.6514443359375,0.280278154773172,0.6492939293265342,0.35447745478153225,-0.7609848976135254,-0.25023573637008667,0.09120061248540878
1772376453860394500,6.66139453125,0.24798863586392253,0.5623331464931368,-0.034918753167986864,-0.7453537583351135,-0.23715294897556305,0.08080603182315826
1772376453870343400,6.671343505859375,0.2375361058346927,0.4578755776748061,-0.40860184367895125,-0.7064832448959351,-0.19954486191272736,0.06972985714673996
1772376453880292400,6.681292236328125,0.2523042340407148,0.33576837039738894,-0.7063105325341225,-0.6553409695625305,-0.14849339425563812,0.06706270575523376
1772376453890242300,6.6912421875,0.29773970504794267,0.24896044003814458,-0.8760673797369003,-0.5907357335090637,-0.08639158308506012,0.07949475944042206
1772376453900191200,6.701191162109375,0.3747608758103102,0.152231127384305,-0.9585580314189195,-0.5291314721107483,-0.017832498997449875,0.0996738001704216
1772376453910141400,6.711141357421875,0.40578938007410614,0.04495557853579521,-0.9000392069548367,-0.4762030839920044,0.02259555459022522,0.13377325236797333
1772376453920090400,6.72109033203125,0.4575754987496882,-0.09066811291873454,-0.690214553257823,-0.44542306661605835,0.015486246906220913,0.15984027087688446
1772376453930040300,6.731040283203125,0.44192561927307394,-0.29454993256330486,-0.4857259998917579,-0.4301622211933136,-0.016769487410783768,0.1790851652622223
1772376453939989200,6.7409892578125,0.31848172003179787,-0.49145343762785193,-0.4166764290630817,-0.42457595467567444,-0.04777560383081436,0.18150198459625244
1772376453949939500,6.750939453125,0.14956749766562133,-0.6679448537826538,-0.4365408209621906,-0.4168037176132202,-0.06037651747465134,0.15801231563091278
1772376453959888400,6.760888427734375,-0.04070003998316824,-0.7985206141978501,-0.507063386952877,-0.40049558877944946,-0.05251273512840271,0.12134058773517609
1772376453969838300,6.77083837890625,-0.12447795499674975,-0.9253001972004771,-0.5898503912329673,-0.3794027864933014,-0.02287505939602852,0.08055052161216736
1772376453979787300,6.780787353515625,-0.09559066401273011,-1.0214663230136036,-0.5787357075005769,-0.35883814096450806,-0.014875989407300949,0.044244442135095596
1772376453989737500,6.790737548828125,-0.03371493033617735,-1.095900217229128,-0.5113748204112053,-0.3461228609085083,-0.033389151096343994,0.021170277148485184
1772376453999686400,6.800686279296875,0.06192344527579843,-1.1844798334360123,-0.47342356767952437,-0.3367045819759369,-0.07922188937664032,0.009211353026330471
1772376454009636400,6.81063623046875,0.0594624985223636,-1.2838885944321752,-0.5430015462964772,-0.326215922832489,-0.14615656435489655,-0.0024768365547060966
1772376454019585300,6.820585205078125,0.02092025762759149,-1.3459689107701183,-0.7415595405697822,-0.31225350499153137,-0.23279505968093872,-0.020671021193265915
1772376454029535500,6.830535400390625,-0.02684584828428924,-1.395082193507254,-1.1212170293152333,-0.2787267565727234,-0.2961674928665161,-0.043803393840789795
1772376454039484400,6.840484375,-0.10444891058783978,-1.419347742974758,-1.576124112573266,-0.22697916626930237,-0.32364439964294434,-0.06457152217626572
1772376454049434400,6.850434326171875,-0.13509659884050487,-1.4311249822691081,-1.9160358663856982,-0.1693667322397232,-0.3497809171676636,-0.07326807826757431
1772376454059383300,6.86038330078125,-0.213502173165977,-1.419006674452126,-2.1961685665398836,-0.11173539608716965,-0.36071720719337463,-0.07929880172014236
1772376454069333200,6.870333251953125,-0.3443844422470778,-1.3995187146499752,-2.4924206268459557,-0.05477388948202133,-0.33450818061828613,-0.08215337246656418
1772376454079282400,6.880282470703125,-0.5326287669725716,-1.414368200996518,-2.807624640381336,0.007969118654727936,-0.2587718665599823,-0.0944710299372673
1772376454089231600,6.890231689453125,-0.8146121364947408,-1.3883914636969565,-3.041650838398933,0.07175636291503906,-0.14896850287914276,-0.10997412353754044
1772376454099181300,6.900181396484375,-1.0567222722467033,-1.37098440182209,-3.1250796477138993,0.1327587217092514,-0.07697367668151855,-0.13886675238609314
1772376454109130500,6.910130615234375,-1.216213892153278,-1.3170990823775528,-3.0938276003599166,0.19937333464622498,-0.022462181746959686,-0.17194470763206482
1772376454119080200,6.920080078125,-1.2742013131543992,-1.3354606684982775,-2.9758588080614805,0.283049613237381,0.026942387223243713,-0.20396921038627625
1772376454129029600,6.930029541015625,-1.2389033514104784,-1.3356041686221956,-2.714548297277093,0.35800108313560486,0.046033214777708054,-0.23781323432922363
1772376454138979300,6.939979248046875,-1.17234282091856,-1.334956226107478,-2.258591412705183,0.41479164361953735,0.0030298233032226562,-0.27384501695632935
1772376454148928500,6.949928466796875,-1.1569992674447596,-1.3121832532852888,-1.7144196535855531,0.4431908428668976,-0.08974713832139969,-0.3146829605102539
1772376454158878200,6.959878173828125,-1.2384868795640767,-1.2530740617126226,-1.2868822232902049,0.4410232901573181,-0.20689719915390015,-0.37275823950767517
1772376454168827600,6.96982763671875,-1.455014391900599,-1.1648299610704183,-1.0752788694828748,0.4346213936805725,-0.2903355360031128,-0.455292671918869
1772376454178777300,6.97977734375,-1.667067243041098,-1.103488772661984,-1.019641737934947,0.40754052996635437,-0.30720213055610657,-0.566654622554779
1772376454188726500,6.9897265625,-1.7450044692024587,-1.0218836716428399,-1.0237415744692087,0.3790333867073059,-0.2640039622783661,-0.6948848366737366
1772376454198676200,6.99967626953125,-1.6959820796191691,-0.8091931071206927,-1.0491671076267957,0.3601782023906708,-0.18568891286849976,-0.8196382522583008
1772376454208625400,7.00962548828125,-1.4710133405432104,-0.5331219573169946,-1.0282213502317668,0.3660549819469452,-0.09290685504674911,-0.9091185927391052
1772376454218575400,7.019575439453125,-1.106297765668109,-0.20496318514049053,-0.9788047006338835,0.4028249680995941,0.0006222957745194435,-0.9549196362495422
1772376454228524500,7.029524658203125,-0.7502955855373292,0.13248977734297512,-0.8255547515958547,0.45674166083335876,0.05932343751192093,-0.9528601765632629
1772376454238474500,7.039474609375,-0.4321721774239093,0.4411123666614294,-0.5856301431894302,0.5188000202178955,0.08739874511957169,-0.9243339896202087
1772376454248423400,7.04942333984375,-0.1687215493382886,0.6619727936357259,-0.39549627839028834,0.5924729704856873,0.13533833622932434,-0.8598549365997314
1772376454258373400,7.059373291015625,-0.03285192029867321,0.9130971337094902,-0.171532040181756,0.6731364130973816,0.15298177301883698,-0.7792500853538513
1772376454268322600,7.069322509765625,-0.0026965456075966356,1.082354214696586,0.09610533553659915,0.7511325478553772,0.17913737893104553,-0.7106622457504272
1772376454278272500,7.0792724609375,-0.031781478055566546,1.1629770266801118,0.4360416392683983,0.8100789785385132,0.18310974538326263,-0.6495496034622192
1772376454288221400,7.089221435546875,-0.11136062620505689,1.1893784191325307,0.7825251726865768,0.8405137062072754,0.19162416458129883,-0.609338641166687
1772376454298171600,7.099171630859375,-0.17470066028051076,1.1887675937578082,1.206795125618577,0.8249635100364685,0.17079609632492065,-0.5879499912261963
1772376454308120600,7.10912060546875,-0.29042191111417487,1.1634420138433574,1.532398952615261,0.7782702445983887,0.1530590057373047,-0.5930227041244507
1772376454318069500,7.119069580078125,-0.3796019591659307,1.1526008863553403,1.8230957168817519,0.6984134912490845,0.1429389864206314,-0.6145327687263489
1772376454328019500,7.12901953125,-0.45239093571864064,1.1369213789254426,2.0336293956309555,0.5907465815544128,0.1229453980922699,-0.6552345752716064
1772376454337968400,7.138968505859375,-0.5072468902936205,1.1408201399296523,2.182763141521811,0.4566841125488281,0.10142412781715393,-0.7129649519920349
1772376454347918600,7.148918701171875,-0.47158385809697206,1.1180021589219569,2.295018232348561,0.2959131598472595,0.06321898847818375,-0.7770652770996094
1772376454357867500,7.158867431640625,-0.3284397080097347,1.087003501807153,2.281587088367343,0.13340255618095398,0.004359403625130653,-0.8373624086380005
1772376454367817500,7.1688173828125,-0.15555241729412228,1.159453528729081,2.0808681166678666,-0.007376520894467831,-0.04641234502196312,-0.8850898742675781
1772376454377766400,7.178766357421875,0.005406224691402167,1.2750889096438884,1.69081432159245,-0.11902022361755371,-0.07342425733804703,-0.9063293933868408
1772376454387716600,7.188716552734375,0.18451533079762011,1.4166089656606315,1.177491874244809,-0.18748697638511658,-0.07189532369375229,-0.897160530090332
1772376454397665500,7.19866552734375,0.4062333244493231,1.5262150032833217,0.6685229459315538,-0.21435055136680603,-0.03129144012928009,-0.8621969223022461
1772376454407615500,7.208615478515625,0.6404623150300234,1.5792194482401012,0.31900048320889474,-0.20857998728752136,0.013270506635308266,-0.7951620221138
1772376454417564400,7.218564453125,0.928144480715692,1.5498580369383095,-0.025035657057166098,-0.16651242971420288,0.0741751417517662,-0.7017844319343567
1772376454427514400,7.228514404296875,1.2094794693317263,1.5230170840248465,-0.22811901980042457,-0.09053626656532288,0.1271381676197052,-0.581788957118988
1772376454437463600,7.238463623046875,1.4128753320902585,1.521577991132438,-0.32991350688934323,0.018740423023700714,0.18020057678222656,-0.4375137686729431
1772376454447413500,7.24841357421875,1.4918234888598323,1.5077689537495373,-0.3122217828541994,0.14373821020126343,0.20402789115905762,-0.27577489614486694
1772376454457362400,7.258362548828125,1.404988232102245,1.4126511679455638,-0.07292962713241577,0.24797619879245758,0.19782432913780212,-0.13260705769062042
1772376454467312400,7.2683125,1.2554432750619948,1.2112938983425496,0.3562386192351579,0.3181336522102356,0.16937048733234406,-0.01627083122730255
1772376454477261300,7.27826123046875,1.028245023368299,0.957865080718696,0.7896481564342975,0.3479469418525696,0.15002155303955078,0.06094858795404434
1772376454487211500,7.28821142578125,0.7655892354547977,0.7288380061626434,1.095692711958289,0.3226737380027771,0.12467339634895325,0.10871192067861557
1772376454497160400,7.298160400390625,0.5264502975333482,0.4674161439582705,1.3668594308465718,0.25135883688926697,0.12222860753536224,0.11248589307069778
1772376454507109400,7.308109375,0.2807520376289263,0.25772651481777425,1.5315432125687598,0.16813339293003082,0.12510862946510315,0.08933137357234955
1772376454517059300,7.318059326171875,0.09608800080930814,0.08899345770478248,1.5707704765856265,0.06681183725595474,0.1270657777786255,0.029542075470089912
1772376454527008500,7.328008544921875,-0.04733609873047098,-0.040787060679495335,1.5921739146202802,-0.0431380532681942,0.1096544936299324,-0.051193855702877045
1772376454536958500,7.33795849609375,-0.1722479150998406,-0.15143763891905546,1.4962854367047547,-0.14583992958068848,0.08859102427959442,-0.14208167791366577
1772376454546907400,7.347907470703125,-0.213689676828403,-0.16675152790695427,1.3255489308148622,-0.22249414026737213,0.07148879021406174,-0.22793461382389069
1772376454556857300,7.357857421875,-0.2194941618560813,-0.09492577036321162,1.0608739120334387,-0.27848494052886963,0.06230781599879265,-0.2925114929676056
1772376454566806300,7.36780615234375,-0.13843878540787846,0.038654140304028986,0.7478349675774574,-0.30779677629470825,0.0696224495768547,-0.3277014493942261
1772376454576756500,7.377756591796875,0.09723017484806477,0.1708183389544487,0.4957499657779932,-0.3209652900695801,0.09425642341375351,-0.3277355134487152
1772376454586705400,7.387705322265625,0.2939675660980865,0.28402912307083605,0.2997206131994724,-0.33647456765174866,0.11236315965652466,-0.3025321066379547
1772376454596655400,7.3976552734375,0.49726004154738035,0.31046295648813244,0.13702595946788787,-0.34071671962738037,0.13804668188095093,-0.2517128884792328
1772376454606604300,7.407604248046875,0.5874071993319318,0.30317426078468557,-0.08258125257492065,-0.3117435574531555,0.20061638951301575,-0.1869262307882309
1772376454616554500,7.417554443359375,0.6107594333468005,0.2961757801994681,-0.2729132702946663,-0.27230748534202576,0.2815706133842468,-0.11751414090394974
1772376454626503400,7.42750341796875,0.5770741309639066,0.27527590777277944,-0.3412614148557186,-0.2223125696182251,0.3678673505783081,-0.04949932172894478
1772376454636453400,7.437453369140625,0.4938906747121364,0.21760200970023869,-0.27572014440894127,-0.17879252135753632,0.4298551082611084,0.024069171398878098
1772376454646402300,7.44740234375,0.38140751075055446,0.07647416787147522,-0.13363339442014693,-0.1405237466096878,0.4926948845386505,0.0891081690788269
1772376454656352500,7.4573525390625,0.2511728188579902,-0.11590075385272502,0.023987024787068364,-0.1182064637541771,0.5141833424568176,0.117353655397892
1772376454666301400,7.467301513671875,0.10637151268087326,-0.30158406898379325,0.15717676709294318,-0.107603520154953,0.5475298762321472,0.12452144175767899
1772376454676251400,7.47725146484375,-0.08594115746207535,-0.472004933053255,0.19407354233562946,-0.09210179001092911,0.5913300514221191,0.11637856066226959
1772376454686200000,7.487199951171875,-0.21774894389025864,-0.5007300922781228,0.25882804631888867,-0.07387252897024155,0.6312013268470764,0.10894335061311722
1772376454696150300,7.497150390625,-0.26359577217735347,-0.5010287829637528,0.30050679514110085,-0.06363773345947266,0.6523899435997009,0.11245047301054001
1772376454706099200,7.50709912109375,-0.28570830832943317,-0.5622895996123553,0.4743944585382938,-0.06445486843585968,0.6411036252975464,0.12331593781709671
1772376454716048100,7.517048095703125,-0.26588563668020065,-0.6584928425654769,0.5194628497987985,-0.06748101860284805,0.6139013171195984,0.13630950450897217
1772376454725998000,7.526998046875,-0.31908304692581296,-0.7528639016553759,0.5396048895955086,-0.06333042681217194,0.5917409658432007,0.1305653303861618
1772376454735947000,7.536947021484375,-0.34689532908946275,-0.8509592419654131,0.5476338822722435,-0.057973481714725494,0.5714290738105774,0.10216165333986282
1772376454745897200,7.546897216796875,-0.43413624403849244,-0.8838041114687919,0.5633423235356807,-0.047446299344301224,0.5235506892204285,0.07096938043832779
1772376454755846100,7.55684619140625,-0.42693544581420717,-0.9368491806969046,0.5682330181866884,-0.04134766012430191,0.47607481479644775,0.04345306381583214
1772376454765796000,7.566796142578125,-0.4280274788346141,-0.943284766702354,0.5750748469054698,-0.04032738134264946,0.40211957693099976,0.022878246381878853
1772376454775745300,7.576745361328125,-0.40002500786110756,-0.9413350939393043,0.5338257216721772,-0.039570245891809464,0.32802003622055054,0.004958633333444595
1772376454785695200,7.5866953125,-0.35514344440959394,-0.9564216039121151,0.39735564252138134,-0.033603839576244354,0.2828090488910675,-0.007408902049064636
1772376454795644200,7.59664404296875,-0.424720107852295,-0.8936696719229221,0.16847674426436424,-0.01738598570227623,0.266783207654953,-0.02831231988966465
1772376454805594000,7.606593994140625,-0.514657130017504,-0.878311359271407,0.026559505623579022,-0.011885663494467735,0.284134179353714,-0.05135250464081764
1772376454815543300,7.616543212890625,-0.5023870657049119,-0.8959387858986854,-0.05669336260259151,-0.016518231481313705,0.31605029106140137,-0.06883589178323746
1772376454825493200,7.6264931640625,-0.5073970028214156,-0.8953542640089989,-0.11479425391554832,-0.029328912496566772,0.36767372488975525,-0.08642043173313141
1772376454835442400,7.6364423828125,-0.4415009275875985,-0.928006533549726,-0.15899229208230972,-0.04077012091875076,0.4317919909954071,-0.10072613507509232
