time,seconds_elapsed,accel_x,accel_y,accel_z,gyro_x,gyro_y,gyro_z
1772376671700083200,0.064083251953125,-0.5346359420765191,-0.3736199621468782,0.37554771533906456,0.6710802316665649,-0.1950889527797699,0.24487505853176117
1772376671710032100,0.0740322265625,-0.7258374361071736,-0.42939182599037884,0.7114543251633644,0.5758016705513,-0.14243586361408234,0.1495053917169571
1772376671719981300,0.083981201171875,-0.8051794875651598,-0.43661125584989785,0.9204442816019057,0.47248804569244385,-0.09924878180027008,0.04629235342144966
1772376671729930500,0.093930419921875,-0.7492597396835684,-0.40973669292777776,1.020152610066533,0.38677313923835754,-0.08071824163198471,-0.05511043593287468
1772376671739880400,0.10388037109375,-0.6568128535892814,-0.3123354723617434,0.9957371307343243,0.3348409831523895,-0.07715901732444763,-0.14172504842281342
1772376671749829400,0.113829345703125,-0.4940247128879651,-0.20075988823175428,1.0051292284578084,0.3039509952068329,-0.10882800072431564,-0.1996149718761444
1772376671759778300,0.1237783203125,-0.3207644606741145,-0.09779080440551043,1.024516650494933,0.2831152677536011,-0.1729944348335266,-0.24175353348255157
1772376671769727200,0.133727294921875,-0.17069968101084232,-0.05413140316009521,0.9901233825057745,0.27265089750289917,-0.23487724363803864,-0.26205509901046753
1772376671779676400,0.143676513671875,-0.0964000441668555,-0.04012070572525263,0.9252730169326067,0.2570962905883789,-0.2906601130962372,-0.2865781784057617
1772376671789625300,0.153625244140625,-0.07527067383322865,-0.026550445534288883,0.7681956185609102,0.24919869005680084,-0.3261909484863281,-0.3015744388103485
1772376671799574300,0.16357421875,-0.08609791892636567,-0.03516659044921398,0.5814776996850967,0.23604993522167206,-0.3251006603240967,-0.3172381818294525
1772376671809523500,0.1735234375,-0.05479574882034212,-0.048107320564985276,0.45725510768890376,0.21828904747962952,-0.2956831157207489,-0.3247280716896057
1772376671819472400,0.183472412109375,-0.011771686336398125,-0.0604603139206767,0.3919955767929554,0.1846333146095276,-0.24373765289783478,-0.3275573253631592
1772376671829422300,0.19342236328125,0.07569521938823164,-0.09331132090389728,0.38804888499379153,0.1440374255180359,-0.196986123919487,-0.31403377652168274
1772376671839371500,0.20337158203125,0.14057137698978184,-0.11658756707310676,0.45870589101910586,0.08602350205183029,-0.13885387778282166,-0.29058799147605896
1772376671849320400,0.213320556640625,0.20421426646932958,-0.15031418784707784,0.49654082389473914,0.03268464282155037,-0.08727803081274033,-0.25347843766212463
1772376671859269400,0.223269287109375,0.32738603423833845,-0.18673399322777987,0.5206061746150255,-0.014759981073439121,-0.036635346710681915,-0.2008485496044159
1772376671869218300,0.23321826171875,0.4114680832976475,-0.2786652579501271,0.5713894363909959,-0.04576902836561203,-0.01380113884806633,-0.13547326624393463
1772376671879167200,0.243167236328125,0.4719331099260598,-0.3589645370677113,0.5995137071132659,-0.05126366391777992,-0.011621342040598392,-0.056839972734451294
1772376671889116200,0.2531162109375,0.4330694185245782,-0.4816080431789159,0.6258551860719919,-0.029384195804595947,-0.016543129459023476,0.023466315120458603
1772376671899064800,0.26306494140625,0.3616651743285358,-0.6221142459779977,0.658688365137577,0.008195612579584122,-0.015599872916936874,0.10114078223705292
1772376671909013800,0.273013671875,0.3047722705658525,-0.8185802364081144,0.7851976067662239,0.044610876590013504,-0.028073851019144058,0.1694178432226181
1772376671918962700,0.282962646484375,0.20414079937431961,-1.0062290063932537,0.9349620517760515,0.06883466243743896,-0.04699505493044853,0.22047153115272522
1772376671928911600,0.29291162109375,0.09460161644276231,-1.168021450588107,1.069288104635477,0.07522810995578766,-0.06500255316495895,0.2471361607313156
1772376671938861600,0.302861572265625,-0.0011585223853588103,-1.2961863504692912,1.2146049225866793,0.07235128432512283,-0.08138349652290344,0.2531624436378479
1772376671948810800,0.312810791015625,-0.17231281529590486,-1.402896666650474,1.2887626302093267,0.04437345266342163,-0.08956712484359741,0.23807483911514282
1772376671958759700,0.322759765625,-0.2892849429734982,-1.5042138916164636,1.3507237040817737,0.008642281405627728,-0.09403232485055923,0.20268772542476654
1772376671968708900,0.332708984375,-0.3627758755167946,-1.5710107150822876,1.3750117576420307,-0.03615368530154228,-0.1112067848443985,0.15494124591350555
1772376671978657800,0.34265771484375,-0.43819311821386214,-1.582127152380347,1.3859580990701914,-0.09285730123519897,-0.17809458076953888,0.0968371257185936
1772376671988606700,0.352606689453125,-0.4379970111198723,-1.5638088208794594,1.2721604549765586,-0.13643300533294678,-0.2694346010684967,0.03601931408047676
1772376671998555600,0.3625556640625,-0.3898263429950922,-1.506725289915502,0.9941466466724872,-0.15062037110328674,-0.3564754128456116,-0.019325533881783485
1772376672008504600,0.372504638671875,-0.3721117495410144,-1.4083274595275521,0.6285328808486461,-0.1304224282503128,-0.42137107253074646,-0.05890863016247749
1772376672018453500,0.38245361328125,-0.3719273694174364,-1.254865621304512,0.23189736929535865,-0.08273333311080933,-0.4507658779621124,-0.08339603990316391
1772376672028403700,0.39240380859375,-0.32673706881031395,-1.0900684423357248,-0.006027589726448059,-0.029115373268723488,-0.4639993906021118,-0.08644988387823105
1772376672038352600,0.4023525390625,-0.22950687569594008,-0.9736956870570779,-0.13791151013076305,0.020395565778017044,-0.45352649688720703,-0.08020585030317307
1772376672048301800,0.4123017578125,-0.14848168432344683,-0.9203907978489995,-0.2326093169569969,0.06671646237373352,-0.40278956294059753,-0.06139727681875229
1772376672058250800,0.422250732421875,-0.0999631800085306,-0.8413914954140782,-0.20935411357581615,0.09759653359651566,-0.3250895142555237,-0.04217127710580826
1772376672068199700,0.43219970703125,-0.059632288431585766,-0.7694432805344462,-0.09066694387495518,0.10929633677005768,-0.23625579476356506,-0.01583021506667137
1772376672078148600,0.442148681640625,-0.023282854006509295,-0.73039224986732,0.11837035883665084,0.09881340712308884,-0.15072663128376007,0.006841626483947039
1772376672088097800,0.452097900390625,0.025718643485801294,-0.7566913509890437,0.3375093688458204,0.07929722964763641,-0.07589314132928848,0.03488098457455635
1772376672098046700,0.462046630859375,0.10215620567393488,-0.7935171068221331,0.5231570281416178,0.06287045776844025,-0.005350973457098007,0.06120269373059273
1772376672107995600,0.47199560546875,0.12751767888567409,-0.8254387240007519,0.6263888545572758,0.048353031277656555,0.058512695133686066,0.0907219648361206
1772376672117944800,0.48194482421875,0.11769429533914662,-0.8632005916401744,0.7458581145465374,0.03274974972009659,0.11745195090770721,0.10726960003376007
1772376672127894500,0.49189453125,0.12251357785491272,-0.9301812472403049,0.8588625624358653,0.012550736777484417,0.15641427040100098,0.11803223192691803
1772376672137843700,0.50184375,0.15831503214156253,-0.9786670457288622,0.935557679581642,-0.011745382100343704,0.1757851392030716,0.13050302863121033
1772376672147793000,0.51179296875,0.13717008064631372,-1.020370636731386,0.9823241069316864,-0.02808600664138794,0.17285700142383575,0.14412882924079895
1772376672157741800,0.521741943359375,0.11183835411886683,-1.0638333463609217,0.9570137245863676,-0.048180144280195236,0.16179338097572327,0.146734356880188
1772376672167690800,0.531690673828125,0.07953034057170152,-1.0902411685541271,0.9156506175845861,-0.06805265694856644,0.14098823070526123,0.14177608489990234
1772376672177639700,0.5416396484375,0.04364422650916967,-1.1064905848264694,0.8282172488033771,-0.08145828545093536,0.11187255382537842,0.12781518697738647
1772376672187588600,0.551588623046875,0.06960106723159551,-1.125145308674872,0.6951151847809552,-0.09807773679494858,0.09689679741859436,0.11177550256252289
1772376672197537500,0.56153759765625,0.09698221883582882,-1.1741539619937538,0.5421732787787914,-0.107245534658432,0.09721353650093079,0.08883565664291382
1772376672207486700,0.57148681640625,0.11467444519447162,-1.1912860063195228,0.3501367952287197,-0.1233251690864563,0.1328735202550888,0.06625684350728989
1772376672217436700,0.581436767578125,0.12346939900871366,-1.1788996952161193,0.23389175798296927,-0.14856873452663422,0.18827898800373077,0.04563172534108162
1772376672227385900,0.5913857421875,0.13654398463722317,-1.1545742322549224,0.18647241968214512,-0.18667058646678925,0.23502811789512634,0.03151217848062515
1772376672237334800,0.601334716796875,0.16129399315342305,-1.0801119887277484,0.19139409399330615,-0.23607857525348663,0.25912782549858093,0.017969993874430656
1772376672247283700,0.61128369140625,0.17209270627181977,-1.0055340098664165,0.19440438172519206,-0.2902747094631195,0.24292968213558197,0.00686088390648365
1772376672257232600,0.621232666015625,0.16918741328436881,-0.9511290504619478,0.10240472794175147,-0.3357972204685211,0.19343143701553345,-0.0035377726890146732
1772376672267181600,0.631181640625,0.199840325701423,-0.9275614201307296,-0.12846388282775878,-0.3647226095199585,0.1436534821987152,-0.01805786043405533
1772376672277130500,0.641130615234375,0.1587586294569075,-0.8914291995197534,-0.43593876341581345,-0.36569744348526,0.0981690064072609,-0.041614141315221786
1772376672287080000,0.651079833984375,0.10885233317855746,-0.7633475940078497,-0.782317667415738,-0.3504907786846161,0.05520157143473625,-0.07160480320453644
1772376672297028900,0.66102880859375,0.061296134557155886,-0.6278416837140918,-1.075799093964696,-0.32138657569885254,0.012322991155087948,-0.09888231754302979
1772376672306977800,0.670977783203125,0.0715545119874645,-0.5018219791680574,-1.3418734581500291,-0.2792167663574219,0.01976359635591507,-0.11985097825527191
1772376672316927700,0.680927734375,0.123577298096288,-0.3672925126910209,-1.5724451317995787,-0.22279846668243408,0.08070515096187592,-0.12595877051353455
1772376672326876700,0.690876708984375,0.20944893398610873,-0.215732708697021,-1.6616151151150464,-0.15736912190914154,0.18826091289520264,-0.10500207543373108
1772376672336825600,0.70082568359375,0.3256298382207751,-0.09574293196499348,-1.5663719493657349,-0.10390787571668625,0.33479347825050354,-0.07128112763166428
1772376672346774800,0.71077490234375,0.4673639023143798,0.0025485154390335082,-1.3166466624349356,-0.059419501572847366,0.4813655912876129,-0.008573542349040508
1772376672356723700,0.7207236328125,0.5305453482946381,0.08470715868771075,-0.9440256481975317,-0.047661829739809036,0.6038649678230286,0.06553299725055695
1772376672366672600,0.730672607421875,0.608334288559109,0.0785053814381361,-0.44950727004110813,-0.06349006295204163,0.6665656566619873,0.13710597157478333
1772376672376621800,0.740621826171875,0.6610884120166302,0.03823416132628917,0.004258241966366767,-0.08337996900081635,0.6717497110366821,0.20525573194026947
1772376672386570800,0.75057080078125,0.7007470531880855,-0.059707449726760384,0.39835342138707636,-0.11561060696840286,0.6062452793121338,0.25244030356407166
1772376672396519700,0.760519775390625,0.6865835763443261,-0.1780816079556942,0.6276543444484471,-0.15114372968673706,0.4924011528491974,0.28450846672058105
1772376672406468600,0.770468505859375,0.5901836417753249,-0.29344927784502506,0.724208008274436,-0.1787061095237732,0.3579227328300476,0.29074427485466003
1772376672416418800,0.780418701171875,0.46938225639946757,-0.33200317264497275,0.6241887141644954,-0.1969873309135437,0.22720442712306976,0.27584129571914673
1772376672426367700,0.79036767578125,0.336849699360691,-0.3358896586894989,0.3935580038040876,-0.20674994587898254,0.13180014491081238,0.2502440810203552
1772376672436316700,0.800316650390625,0.2139498073356226,-0.27216829714626073,0.06217851601541042,-0.2004595845937729,0.07121242582798004,0.2266078144311905
1772376672446265600,0.810265625,0.15695516023151576,-0.14572861362248657,-0.27869652987122534,-0.18296900391578674,0.045780032873153687,0.21320891380310059
1772376672456214800,0.82021484375,0.14800010221842674,0.003583703705668449,-0.5439093087911605,-0.14898565411567688,0.053432680666446686,0.2163786143064499
1772376672466163700,0.830163818359375,0.24928298652339725,0.1430856978982687,-0.7414777075052261,-0.10823636502027512,0.08015217632055283,0.2400679588317871
1772376672476112600,0.840112548828125,0.41658699721395964,0.24846388869285582,-0.8157213398456573,-0.06055990234017372,0.11501386761665344,0.27327144145965576
1772376672486061800,0.850061767578125,0.5677286488611251,0.3221814513325691,-0.8280342934519052,-0.012648304924368858,0.1441272646188736,0.31926584243774414
1772376672496010800,0.8600107421875,0.7130921554982662,0.3663520169705152,-0.7425999895334243,0.0317496620118618,0.16322746872901917,0.3756801187992096
1772376672505959700,0.869959716796875,0.7824915626779199,0.39953269429951904,-0.5791811131805181,0.05383152887225151,0.14841362833976746,0.43284115195274353
1772376672515909600,0.87990966796875,0.8254666349209845,0.3994441392332315,-0.400983769890666,0.06522076576948166,0.10364819318056107,0.4851381480693817
1772376672525858600,0.889858642578125,0.8308891714263706,0.3453621281728148,-0.3099479927033186,0.07555516064167023,0.03603106364607811,0.5344367027282715
1772376672535807500,0.899807373046875,0.6976566859573126,0.3006362667396664,-0.3044008799701929,0.08209903538227081,-0.03659649193286896,0.5646873116493225
1772376672545757000,0.9097568359375,0.5244933182466774,0.26082243500649926,-0.33065701873302455,0.08266762644052505,-0.11781331896781921,0.5726554989814758
1772376672555705900,0.919705810546875,0.3354961658598855,0.20212007066905496,-0.40664486439228054,0.07079767435789108,-0.18876230716705322,0.5559325814247131
1772376672565654800,0.92965478515625,0.11563085087016224,0.14641893397420644,-0.5723690950781106,0.05248577892780304,-0.2360565960407257,0.5284298658370972
1772376672575603700,0.939603759765625,-0.12456800790037958,0.16520283716022968,-0.7498240955680608,0.03094557300209999,-0.23178702592849731,0.4741979241371155
1772376672585552600,0.949552734375,-0.2911414758266881,0.20329788227677345,-0.9150824623078108,0.020807716995477676,-0.18646854162216187,0.4249459505081177
1772376672595501600,0.95950146484375,-0.361269453009218,0.2847814027428627,-1.0074252304404974,0.024557264521718025,-0.11449257284402847,0.37954145669937134
1772376672605451800,0.96945166015625,-0.30156938287131485,0.31589521066993476,-1.0184820465058089,0.04866180196404457,-0.0016355286352336407,0.3473968207836151
1772376672615400700,0.979400634765625,-0.2017604435764253,0.32861440698951483,-0.8912830690473318,0.07789662480354309,0.12596341967582703,0.3253776431083679
1772376672625350000,0.989349853515625,-0.0510144401833415,0.37987756123691796,-0.6105009650737047,0.11631405353546143,0.24836017191410065,0.3162829279899597
1772376672635298800,0.999298828125,0.10848244042024016,0.4469885652184486,-0.25027123037576676,0.15179042518138885,0.3511735498905182,0.332833856344223
1772376672645247700,1.009247802734375,0.2497458182621747,0.473265746769309,0.16695874091684818,0.17630667984485626,0.4054301381111145,0.35981860756874084
1772376672655196700,1.01919677734375,0.34479254812393334,0.47461394650787114,0.5712094036489724,0.1930398792028427,0.4116692543029785,0.38924145698547363
1772376672665145600,1.0291455078125,0.3762040238233283,0.4331541011333465,0.9173083216637372,0.1996021717786789,0.3927757143974304,0.41694366931915283
1772376672675094500,1.039094482421875,0.30991383470539,0.3463806575655937,1.178406066480279,0.20747099816799164,0.3350917100906372,0.4284124970436096
1772376672685043700,1.049043701171875,0.2461832669423893,0.2568172910183668,1.3476783450365066,0.1977483183145523,0.2500588297843933,0.4194442927837372
1772376672694993000,1.058992919921875,0.12353643636293708,0.1802911006987095,1.4652104994833468,0.18810801208019257,0.1578081250190735,0.3889850974082947
1772376672704942600,1.068942626953125,0.030704642604291437,0.11321253768205643,1.4842618214339016,0.1577327847480774,0.05548388510942459,0.34615853428840637
1772376672714891800,1.078891845703125,0.0032750030826777217,0.030732699654996393,1.4257622861921786,0.12596651911735535,-0.02607574313879013,0.2922295033931732
1772376672724840700,1.0888408203125,-0.03088894966263324,-0.044010406640172,1.2780910140693187,0.0838044136762619,-0.07992938905954361,0.24122466146945953
1772376672734789600,1.09878955078125,-0.058631052666902536,-0.010984335350990295,1.1423726300686596,0.040379635989665985,-0.10987651348114014,0.19282987713813782
1772376672744738800,1.10873876953125,-0.034384682823903855,0.03574409807622433,1.0089671991854905,-0.006585742346942425,-0.1257212609052658,0.15752434730529785
1772376672754687700,1.118687744140625,-0.0028058146683499216,0.08773439755439758,0.8795289183676243,-0.04776548594236374,-0.13793057203292847,0.13365976512432098
1772376672764636700,1.12863671875,0.07402728617601097,0.15294219826310873,0.7133049214661121,-0.08195141702890396,-0.13756491243839264,0.12835954129695892
1772376672774585600,1.138585693359375,0.10947839265502989,0.17365560820698736,0.5308370612502098,-0.09918731451034546,-0.10742533951997757,0.12365799397230148
1772376672784534800,1.14853466796875,0.1223119360692799,0.17235241665393114,0.34825463474392887,-0.11247248947620392,-0.057035669684410095,0.12330059707164764
1772376672794483700,1.158483642578125,0.1338856521481648,0.15018150137811898,0.2473410221427679,-0.10315955430269241,-0.00035303737968206406,0.11866820603609085
1772376672804434000,1.168433837890625,0.173345994268544,0.09850158302336931,0.23581074334681032,-0.09062911570072174,0.051010552793741226,0.11707057058811188
1772376672814382800,1.1783828125,0.2156178866783157,0.04635492393970489,0.28769056818783284,-0.07692763209342957,0.09166081249713898,0.11189774423837662
1772376672824331800,1.188331787109375,0.2378379748580977,-0.02343348255753517,0.39812545785009856,-0.05776139348745346,0.11911800503730774,0.11214195936918259
1772376672834280700,1.19828076171875,0.2842441540610045,-0.07579816830605268,0.5211521180599927,-0.0391792394220829,0.12501899898052216,0.11658694595098495
1772376672844229600,1.208229736328125,0.3126451228328049,-0.1321364338606596,0.6691741033166646,-0.023995760828256607,0.09466321766376495,0.12317267805337906
1772376672854178600,1.218178466796875,0.2974394434597343,-0.22665420794486998,0.8190309027850627,-0.01911155879497528,0.04533383622765541,0.12240825593471527
1772376672864127700,1.228127685546875,0.2924606686664745,-0.3630316403761506,0.9072370095044374,-0.02760065160691738,-0.00858292542397976,0.11146026849746704
1772376672874076700,1.23807666015625,0.2526567007401958,-0.46917467806339264,0.9282149156033992,-0.04433991014957428,-0.059349335730075836,0.09296249598264694
1772376672884025900,1.24802587890625,0.22578995579835026,-0.5568941703096032,0.8966045563310384,-0.0608789399266243,-0.10582256317138672,0.05952330678701401
1772376672893975800,1.257975830078125,0.1859836132518947,-0.6434767674803733,0.8361807750284671,-0.09156718850135803,-0.1574421525001526,0.02683149464428425
1772376672903925200,1.26792529296875,0.2128932840200141,-0.6781672648504377,0.727798141720891,-0.13018354773521423,-0.19975897669792175,-0.006660950370132923
1772376672913874200,1.277874267578125,0.206200617980957,-0.696971334041655,0.5540472564458847,-0.16458828747272491,-0.22772572934627533,-0.033660076558589935
1772376672923823000,1.287822998046875,0.15353114059958606,-0.7016665061205625,0.32559622821211814,-0.1899903267621994,-0.23948146402835846,-0.06221901997923851
1772376672933772300,1.297772216796875,0.09852160289809107,-0.6644342153131961,0.05035130009949207,-0.2066241055727005,-0.23711928725242615,-0.08812251687049866
1772376672943721200,1.30772119140625,0.0493827473282814,-0.666066492690146,-0.20803718575835226,-0.20664063096046448,-0.22249561548233032,-0.11790172010660172
1772376672953670100,1.317670166015625,0.04857351330462843,-0.6470914508461952,-0.45335167050957675,-0.19671961665153503,-0.21630257368087769,-0.14582239091396332
1772376672963619300,1.327619384765625,0.13658548569139092,-0.6107765671446919,-0.640838235670328,-0.17325450479984283,-0.20214414596557617,-0.16858789324760437
1772376672973568300,1.337568359375,0.24029119496280327,-0.5383651186674833,-0.7994085029482841,-0.13572481274604797,-0.18191803991794586,-0.17873923480510712
1772376672983517200,1.34751708984375,0.34090467383991924,-0.4193617226243019,-0.9291606720209121,-0.08359929919242859,-0.15172338485717773,-0.16833560168743134
1772376672993467400,1.35746728515625,0.4412549169372767,-0.30367811865359545,-0.9598644378423691,-0.031003093346953392,-0.11397984623908997,-0.13882936537265778
1772376673003416300,1.367416259765625,0.5195630953028798,-0.25319647017270325,-0.8596943370848894,0.018262989819049835,-0.08952643722295761,-0.097893126308918
1772376673013365200,1.377365234375,0.5959556858381256,-0.2488020346060395,-0.6675520550727844,0.054529301822185516,-0.08457033336162567,-0.058335330337285995
1772376673023314200,1.387314208984375,0.5752968921583146,-0.25835487584918737,-0.4441261615246534,0.07695925235748291,-0.09530767798423767,-0.029831785708665848
1772376673033263000,1.39726318359375,0.5426657019382343,-0.33641894326061006,-0.28875615159273144,0.08426801860332489,-0.11145095527172089,-0.015589996241033077
1772376673043212300,1.40721240234375,0.48197599970847366,-0.39121436328738923,-0.20918051057457923,0.08643850684165955,-0.12775109708309174,-0.014991051517426968
1772376673053161200,1.4171611328125,0.46051549772433936,-0.42235418243855233,-0.21063480103611945,0.08978257328271866,-0.13953270018100739,-0.01480498630553484
1772376673063110100,1.427110107421875,0.5294115950243548,-0.4585059845328331,-0.20531448279619216,0.10009566694498062,-0.1488921195268631,-0.02102932706475258
1772376673073059300,1.437059326171875,0.5771288202932104,-0.466109737534821,-0.2096522197395563,0.1021028608083725,-0.1817847341299057,-0.018301811069250107
1772376673083008300,1.44700830078125,0.5978725888427346,-0.43145080434679983,-0.1995879218429327,0.11656489223241806,-0.22439371049404144,-0.013323565013706684
1772376673092957200,1.456957275390625,0.577198707191646,-0.38443244806230065,-0.2241436864286661,0.1284673810005188,-0.2531367540359497,-0.00421492662280798
1772376673102907100,1.4669072265625,0.49920270004775374,-0.35630203986018893,-0.2807563850104809,0.13524140417575836,-0.24847036600112915,0.005730648525059223
1772376673112856000,1.47685595703125,0.47721484972126776,-0.3734127491369843,-0.2983469867587089,0.12242965400218964,-0.22216451168060303,0.020194275304675102
1772376673122805000,1.486804931640625,0.5169107906958088,-0.45332770511209963,-0.2212204924583435,0.0939900204539299,-0.18377983570098877,0.04051712527871132
1772376673132754400,1.49675439453125,0.5060245454244315,-0.49735944680124516,-0.08898059822320938,0.035490069538354874,-0.19181595742702484,0.0578908808529377
1772376673142703400,1.506703369140625,0.3543526228254661,-0.5110960034698248,0.04114215772747993,-0.04009416699409485,-0.2521650493144989,0.053173087537288666
1772376673152652300,1.51665234375,0.08049190647969953,-0.5046484347656369,0.02609305715560913,-0.12124358117580414,-0.35395628213882446,0.017021741718053818
1772376673162601200,1.526601318359375,-0.2777167433199473,-0.5199173155680299,-0.21617606855034827,-0.20197118818759918,-0.44569656252861023,-0.06184617429971695
1772376673172550100,1.536550048828125,-0.582044101396203,-0.5211047717869282,-0.7219879941374063,-0.24513661861419678,-0.4644276201725006,-0.1676107943058014
1772376673182499000,1.5464990234375,-0.7505699454993009,-0.4119222202733159,-1.2405465885728597,-0.24856384098529816,-0.4183807671070099,-0.26527291536331177
1772376673192449300,1.55644921875,-0.6864619957912713,-0.26370442018359896,-1.7004039877146482,-0.19717083871364594,-0.31326618790626526,-0.3313829302787781
1772376673202398200,1.566398193359375,-0.4673340551653877,-0.09187310479432344,-1.9869746119618414,-0.1072542741894722,-0.14651528000831604,-0.34840452671051025
1772376673212347400,1.576347412109375,-0.10500269027939066,0.08269786469191312,-1.969547091820836,0.007157385349273682,0.02259873040020466,-0.3134925365447998
1772376673222296300,1.58629638671875,0.2642409016804769,0.27539398119449615,-1.6546102047890423,0.11289287358522415,0.13746698200702667,-0.24045321345329285
1772376673232245200,1.596245361328125,0.5049501211259514,0.42612580993175503,-1.0868214232385158,0.18943537771701813,0.17511869966983795,-0.14563855528831482
1772376673242194200,1.606194091796875,0.5580460072258487,0.47100247801244255,-0.512844892963767,0.2354486733675003,0.16044893860816956,-0.04999431222677231
1772376673252143000,1.61614306640625,0.4395610455662012,0.398943496234715,-0.079050155839324,0.25979939103126526,0.12513737380504608,0.021586045622825623
1772376673262092000,1.626092041015625,0.16518373060096053,0.2725558351591229,0.17912556405067442,0.26977959275245667,0.07694746553897858,0.05179028958082199
1772376673272041200,1.636041259765625,-0.20673372021066025,0.18474369619339703,0.33950609562098977,0.2694115936756134,0.03348773345351219,0.03898971155285835
1772376673281990400,1.645990478515625,-0.47641383553668853,0.13722031299620865,0.3810170866608619,0.2679939866065979,0.023383434861898422,0.006294082850217819
1772376673291940000,1.655940185546875,-0.6553178657911718,0.0702726828828454,0.33989830980896946,0.26753610372543335,0.041933272033929825,-0.037272121757268906
1772376673301889300,1.66588916015625,-0.7471430397905409,0.040183834089338774,0.3775935419529676,0.25572553277015686,0.06342817842960358,-0.0773034319281578
1772376673311838200,1.675838134765625,-0.829499178372696,0.06657733549624681,0.4334387632936239,0.22674931585788727,0.07971610128879547,-0.1260913759469986
1772376673321787100,1.685787109375,-0.8838391827821731,0.09666589202880858,0.48359366403818127,0.18460319936275482,0.10775066912174225,-0.18254239857196808
1772376673331736300,1.695736328125,-0.9294747794713825,0.1111284248843789,0.5506061760812998,0.12194708734750748,0.12215495854616165,-0.23717369139194489
1772376673341685200,1.705685302734375,-0.9300026027377695,0.17747896588742731,0.5715805750489235,0.05535688251256943,0.11316785961389542,-0.30090048909187317
1772376673351634200,1.71563427734375,-0.8963585456807166,0.28351357476413247,0.5375754295945168,-0.011342068202793598,0.09281326085329056,-0.35883113741874695
1772376673361583400,1.725583251953125,-0.7532784007403999,0.37222996909320355,0.4217313743650913,-0.06680718809366226,0.08547678589820862,-0.399361252784729
1772376673371532300,1.7355322265625,-0.5625734215224162,0.4788482230767607,0.26457448101639747,-0.09881044924259186,0.08960865437984467,-0.40636521577835083
1772376673381481200,1.745481201171875,-0.3963718191158026,0.594047258400917,0.1160410391062498,-0.11647360026836395,0.100979283452034,-0.38452887535095215
1772376673391430100,1.75543017578125,-0.2717395503401756,0.7126452885136008,-0.008839140015840529,-0.12423389405012131,0.11734797060489655,-0.34365707635879517
1772376673401380400,1.76538037109375,-0.2249422894604504,0.7856985420256852,-0.11081950506567954,-0.11122674494981766,0.15450040996074677,-0.2932591438293457
1772376673411329300,1.775329345703125,-0.16870518272537738,0.7839940761953592,-0.17788403955698012,-0.07640477269887924,0.20723362267017365,-0.23879067599773407
1772376673421278200,1.7852783203125,-0.1899914058548398,0.7818196547657251,-0.13537877678275106,-0.028189044445753098,0.2529350519180298,-0.18104562163352966
1772376673431227100,1.79522705078125,-0.22032400027634574,0.7430342892974615,0.02931201920211315,0.014412829652428627,0.2803208529949188,-0.1297854483127594
1772376673441176000,1.805176025390625,-0.1921274863017723,0.6521127861395478,0.3123784347206354,0.04971303045749664,0.2882107198238373,-0.08487071096897125
1772376673451125200,1.815125244140625,-0.19778121948083863,0.537673629271984,0.6179904440462589,0.07450833916664124,0.28703758120536804,-0.05054478719830513
1772376673461074200,1.82507421875,-0.2612303399539552,0.4516992271274328,0.8873591736018657,0.08898662030696869,0.27590101957321167,-0.02328360453248024
1772376673471023400,1.8350234375,-0.3149806531082839,0.3563844574466348,1.1380296324282884,0.08262184262275696,0.2623986601829529,-0.002194916130974889
1772376673480972300,1.84497216796875,-0.37030323881432414,0.26990648969411846,1.3571324020802973,0.06865915656089783,0.24600183963775635,0.01333584077656269
1772376673490921200,1.854921142578125,-0.4466711332997307,0.17584844207614658,1.490520297306776,0.03980553522706032,0.22587695717811584,0.0267310980707407
1772376673500871200,1.86487109375,-0.5045326628988609,0.0700917733579874,1.5658762748032808,0.008387425914406776,0.21774525940418243,0.024055153131484985
1772376673510820000,1.874820068359375,-0.5924340145180002,-0.031822248457372186,1.5395710362017154,-0.021043648943305016,0.2137095332145691,0.012293125502765179
1772376673520769000,1.88476904296875,-0.6668819007262587,-0.14104600876420736,1.4971920301556587,-0.04326586425304413,0.22123083472251892,-0.011612473987042904
1772376673530718200,1.89471826171875,-0.7384360017217695,-0.19289280811846254,1.41285370478034,-0.06123865768313408,0.22414402663707733,-0.032943956553936005
1772376673540667400,1.90466748046875,-0.7439381062693894,-0.2606201904326677,1.3376947111606596,-0.06366532295942307,0.2154456228017807,-0.05982217565178871
1772376673550616300,1.9146162109375,-0.7343376995574683,-0.3267152953699231,1.2998632854163645,-0.06768973916769028,0.19887739419937134,-0.08526601642370224
1772376673560565200,1.924565185546875,-0.6971458138257265,-0.38177199668139217,1.231797464928031,-0.06847243756055832,0.17725758254528046,-0.11212532967329025
1772376673570514200,1.93451416015625,-0.653536243071407,-0.4154299361333251,1.0981728383362293,-0.0778910294175148,0.16816845536231995,-0.1403764933347702
1772376673580463000,1.944463134765625,-0.6727108991406857,-0.38901071576327084,0.9635521864444017,-0.08133156597614288,0.17841815948486328,-0.15920662879943848
1772376673590412000,1.954412109375,-0.6866844794355332,-0.36567981679737566,0.863029618987441,-0.0956277921795845,0.1933026760816574,-0.17399463057518005
1772376673600362200,1.9643623046875,-0.6210961549766362,-0.33750498493164777,0.8080787161380052,-0.10825224220752716,0.18993617594242096,-0.1676885336637497
1772376673610311200,1.974311279296875,-0.492870245623216,-0.30456746870875356,0.7723030538797379,-0.12360876798629761,0.1713242530822754,-0.15115413069725037
1772376673620260400,1.98426025390625,-0.38711518434025344,-0.3296668386518955,0.6858487592637539,-0.13698449730873108,0.1554688811302185,-0.12223006784915924
1772376673630209300,1.994209228515625,-0.3233643044415861,-0.32070056512504813,0.6147878486126661,-0.13732920587062836,0.14422965049743652,-0.08893708884716034
1772376673640158200,2.004158203125,-0.2920846384283155,-0.329339506393671,0.5137321971923112,-0.14115750789642334,0.14194251596927643,-0.05735759064555168
1772376673650107100,2.014107177734375,-0.25360497790835795,-0.4088236697360873,0.4232347646653652,-0.137922465801239,0.1489180326461792,-0.020993728190660477
1772376673660056000,2.02405615234375,-0.24502543867677448,-0.5115002003565431,0.3918149595290422,-0.13469497859477997,0.16029691696166992,0.00853273831307888
1772376673670005200,2.034005126953125,-0.21925606051757932,-0.6215010825157166,0.30031507196128365,-0.13913142681121826,0.1569746881723404,0.026019232347607613
1772376673679954200,2.0439541015625,-0.2643015092939138,-0.7053595154196024,0.19261106856763363,-0.1355273723602295,0.13156414031982422,0.029344456270337105
1772376673689903400,2.0539033203125,-0.3153316585030407,-0.7741852143645286,-0.0029389760613441466,-0.12015584856271744,0.09121913462877274,0.03152310103178024
1772376673699853000,2.06385302734375,-0.3076250296484679,-0.8090309022963047,-0.20742694490551947,-0.09560629725456238,0.04488891363143921,0.03149726614356041
1772376673709802200,2.07380224609375,-0.32385325700230894,-0.8088090762391686,-0.4089917197793722,-0.05942767858505249,0.0024102376773953438,0.03013710118830204
1772376673719751200,2.083751220703125,-0.3734295541413128,-0.803006235179305,-0.6439332790762186,-0.022081371396780014,-0.03488706797361374,0.029454000294208527
1772376673729700400,2.093700439453125,-0.4375815621867776,-0.7714668953165411,-0.8535989428192376,0.012182165868580341,-0.05066800117492676,0.026317328214645386
1772376673739649300,2.103649169921875,-0.45859768140427765,-0.7614476056054235,-1.0249790073096752,0.04945337027311325,-0.03852877765893936,0.024936744943261147
1772376673749598200,2.11359814453125,-0.49658707418926057,-0.7077943413510919,-1.1840507943689822,0.09662102162837982,0.009152635000646114,0.02823418192565441
1772376673759547100,2.123547119140625,-0.5134966348707676,-0.6391542281061411,-1.2883213161826133,0.1528688371181488,0.079092837870121,0.035344820469617844
1772376673769496300,2.133496337890625,-0.4971495303776115,-0.587184094633162,-1.2918126654297113,0.21663452684879303,0.1577012836933136,0.045986104756593704
1772376673779445200,2.1434453125,-0.4071764870509505,-0.5612108644649386,-1.1475731213212013,0.26604974269866943,0.2508094012737274,0.057910941541194916
1772376673789394200,2.153394287109375,-0.24238011179976163,-0.556430059929192,-0.8673065656542778,0.29360297322273254,0.3220885694026947,0.07934841513633728
1772376673799343000,2.163343017578125,-0.07666969044357538,-0.5438955725267529,-0.47443595959246154,0.2815884053707123,0.35250160098075867,0.1017431989312172
1772376673809293300,2.173293212890625,0.0208332369312644,-0.5446250558450818,-0.08780570922493934,0.23732902109622955,0.3499000370502472,0.1210038885474205
1772376673819242200,2.1832421875,0.0933256416901946,-0.5466135993137955,0.15323650503456593,0.18004974722862244,0.3456490933895111,0.13856476545333862
1772376673829191200,2.193191162109375,0.15829926831685007,-0.6128218092367053,0.2690723769575357,0.10921409726142883,0.34367552399635315,0.14670392870903015
1772376673839140000,2.20314013671875,0.2641149737458676,-0.7307330261290073,0.3399064931154251,0.031188001856207848,0.33309584856033325,0.15054365992546082
1772376673849089000,2.213089111328125,0.4208146248463541,-0.845735369837284,0.3763923494696617,-0.04935599863529205,0.2887122333049774,0.1436912715435028
1772376673859038200,2.2230380859375,0.4936599346961826,-0.9078574794903397,0.34136312166452404,-0.1400984227657318,0.17596621811389923,0.12429440021514893
1772376673868987400,2.2329873046875,0.37213944126553833,-0.846994137726724,0.19331950909793374,-0.23516638576984406,0.0006844028830528259,0.09081961959600449
1772376673878936300,2.242936279296875,0.18731595783419905,-0.7195613515123724,-0.1779033287793398,-0.30394837260246277,-0.20607836544513702,0.029401268810033798
1772376673888885200,2.25288525390625,-0.005326236524060368,-0.5738163712769746,-0.8129974678397178,-0.3531947731971741,-0.38636472821235657,-0.03536582738161087
1772376673898834000,2.262833984375,-0.08117788858301937,-0.4653407989889383,-1.5915648428112268,-0.35158249735832214,-0.49464166164398193,-0.1069239005446434
1772376673908783900,2.272783935546875,-0.03990998558402061,-0.3427536992400884,-2.4132108965307473,-0.2960883378982544,-0.4808819890022278,-0.16233105957508087
1772376673918732800,2.28273291015625,0.07803549890406429,-0.15142565622031687,-3.018413755196333,-0.1746029108762741,-0.39081868529319763,-0.1957678347826004
1772376673928681700,2.292681640625,0.23921266074478625,0.07503215236961841,-3.3869939696103333,0.0048547424376010895,-0.19437412917613983,-0.19257275760173798
1772376673938631200,2.302631103515625,0.3863648774296045,0.35786359008848667,-3.305562471592426,0.19310800731182098,0.04116116464138031,-0.13741044700145721
1772376673948580000,2.312580078125,0.5131195451866835,0.7043933007359504,-2.663293326336145,0.3226510286331177,0.24904990196228027,-0.03509294241666794
1772376673958529000,2.322529052734375,0.6215576350085437,0.9870061272680759,-1.7019208220183848,0.3625694215297699,0.3944784700870514,0.1076572835445404
1772376673968478000,2.33247802734375,0.7682385078545659,1.0947314657106995,-0.7214625089585781,0.3398129642009735,0.48108330368995667,0.2659466862678528
1772376673978427000,2.342427001953125,0.8524346482802182,1.042568147753179,0.09303367300629616,0.29763540625572205,0.5222392678260803,0.4041908383369446
1772376673988375800,2.352375732421875,0.7788597089815884,0.8977589870631695,0.6591945610940456,0.2709142863750458,0.5333966612815857,0.4971979260444641
1772376673998325000,2.362324951171875,0.642082755838707,0.7519444487228989,1.0822393561452626,0.2614302337169647,0.5199365019798279,0.5279569625854492
1772376674008275000,2.37227490234375,0.5123100554347038,0.5996840952441096,1.4512754976332187,0.2617097496986389,0.47559264302253723,0.5316237211227417
1772376674018224000,2.38222412109375,0.4907702776692807,0.4951973003312945,1.7832102812170982,0.26128870248794556,0.39012300968170166,0.5243911147117615
1772376674028173000,2.392173095703125,0.5287139316163957,0.3880167362898588,2.073157103899121,0.23655039072036743,0.25996822118759155,0.5122509002685547
1772376674038122000,2.4021220703125,0.6050022215269506,0.31268121705949303,2.272916875177622,0.1891820728778839,0.08005918562412262,0.4992437958717346
1772376674048071000,2.41207080078125,0.6156362821355462,0.23863573763966558,2.320321015909314,0.12297411262989044,-0.10085541009902954,0.4698358178138733
1772376674058019800,2.422019775390625,0.5902223663505166,0.17937603168040514,2.201848365741968,0.03756334260106087,-0.27166762948036194,0.4218190312385559
1772376674067969000,2.431968994140625,0.5372638063620776,0.15408990699350833,1.936965257167816,-0.057802964001894,-0.4356372058391571,0.3695226311683655
1772376674077918000,2.44191796875,0.4210352818597108,0.1793137800991535,1.4531354462862014,-0.15086792409420013,-0.5628103613853455,0.31484365463256836
1772376674087867100,2.4518671875,0.3124643594384193,0.2608773800641298,0.9343640858829021,-0.2334536463022232,-0.6627492308616638,0.26137974858283997
1772376674097816000,2.461816162109375,0.2505765699978918,0.34516719012260433,0.389224943035841,-0.30088356137275696,-0.7494420409202576,0.20054887235164642
1772376674107765000,2.471764892578125,0.22264036919362842,0.3765273740261793,-0.27151217132508754,-0.3448925018310547,-0.8072279691696167,0.12154611200094223
1772376674117715000,2.48171484375,0.22680866785421966,0.3873205707192421,-1.091097785383463,-0.32912471890449524,-0.753799319267273,0.04151492193341255
1772376674127663900,2.491663818359375,0.09723130735922604,0.4856631637886166,-1.9818805036932228,-0.24343013763427734,-0.5445501208305359,-0.03159745782613754
1772376674137613000,2.501613037109375,0.06792031107041985,0.698407504324615,-2.4656132839411495,-0.11625301092863083,-0.2737516462802887,-0.08810228109359741
1772376674147562000,2.51156201171875,0.23736710594333707,0.9270897109657525,-2.4003122519910334,-0.0031899206805974245,-0.0062476638704538345,-0.08663816004991531
1772376674157511000,2.521510986328125,0.5799124596623704,1.1137079688593745,-1.8609464318484066,0.06929413229227066,0.20722681283950806,-0.02475162409245968
1772376674167459800,2.5314599609375,0.9527190961323678,1.2432348047435282,-1.0471247881442307,0.09070594608783722,0.32370635867118835,0.08566977828741074
1772376674177409000,2.541408935546875,1.275111998258531,1.293890933008492,-0.18581775516569612,0.07824341952800751,0.3570973575115204,0.2102639079093933
1772376674187358000,2.55135791015625,1.450599790328741,1.223546353933215,0.49938043123483655,0.052665408700704575,0.3249433636665344,0.3234005868434906
1772376674197307000,2.561306884765625,1.4794631889805197,1.0743930265590549,0.9429057042568921,0.017572667449712753,0.23824360966682434,0.4001384973526001
1772376674207256000,2.571256103515625,1.3777600334368645,0.8449620473772287,1.177637420195341,-0.007835857570171356,0.1280861347913742,0.4364420175552368
1772376674217206000,2.5812060546875,1.2031839493840932,0.6334931336045265,1.274630644482374,-0.029361389577388763,0.027463125064969063,0.43512481451034546
1772376674227155000,2.591155029296875,0.9883700360324233,0.5020666015788913,1.2664181119322777,-0.05065416544675827,-0.06467754393815994,0.40643900632858276
1772376674237103900,2.601103759765625,0.813618960738927,0.4135518673017621,1.2263988207548857,-0.07150059193372726,-0.14533936977386475,0.37242111563682556
1772376674247052800,2.611052734375,0.7294935474619269,0.34874943252354856,1.1175140831440686,-0.09756094962358475,-0.19730260968208313,0.3341585099697113
1772376674257002000,2.621001953125,0.7076681576881557,0.29160803389251233,0.9948638550311326,-0.12725599110126495,-0.2169889658689499,0.30383390188217163
1772376674266951200,2.630951171875,0.6977829426854848,0.2854246690824628,0.8710527664452791,-0.16415230929851532,-0.22227521240711212,0.28684309124946594
1772376674276900000,2.640900146484375,0.6926854734160006,0.29943887364864347,0.7083966911584139,-0.19599679112434387,-0.2193063199520111,0.28275060653686523
1772376674286849000,2.65084912109375,0.6803665284603834,0.27741993406414983,0.49823827546238897,-0.22409231960773468,-0.19057682156562805,0.2829700708389282
1772376674296798000,2.6607978515625,0.6277073167447,0.24804332519322633,0.29569208833575245,-0.23797297477722168,-0.15650780498981476,0.2918652892112732
1772376674306747000,2.670746826171875,0.6045067661602049,0.2174082406938076,0.11556056211292744,-0.23861287534236908,-0.1268904060125351,0.2918391227722168
1772376674316695800,2.68069580078125,0.5890120407126843,0.14180267235040664,0.015025135174393653,-0.22547124326229095,-0.10284098982810974,0.29479894042015076
1772376674326645800,2.690645751953125,0.5985054068535566,0.06750526399612426,-0.05119651875197887,-0.20355848968029022,-0.08992216736078262,0.29041945934295654
1772376674336595000,2.700594970703125,0.5968852217731997,0.06658961045593023,-0.03093991266489029,-0.1779804229736328,-0.09686636179685593,0.28776586055755615
1772376674346544000,2.710544189453125,0.5704094854429363,0.03566664892584085,-0.02223521268367767,-0.1585836559534073,-0.12002360075712204,0.29056984186172485
1772376674356493000,2.7204931640625,0.5396390841260552,-0.05426993484795093,-0.003994038072228432,-0.1399332731962204,-0.13353756070137024,0.28906676173210144
1772376674366442000,2.73044189453125,0.4860621730435639,-0.11506430302858352,-0.0009171148449182509,-0.12347149103879929,-0.13314269483089447,0.28058716654777527
1772376674376391000,2.740390869140625,0.38271084843408315,-0.1786272591397166,-0.000737082102894783,-0.11758030951023102,-0.11730460077524185,0.2669919729232788
1772376674386339800,2.75033984375,0.2716225180980749,-0.23089842138588426,0.02899871546924114,-0.11452001333236694,-0.0907229334115982,0.24861182272434235
1772376674396288800,2.760288818359375,0.1899708562571555,-0.32321400925070043,0.03248421949744224,-0.11634241044521332,-0.052809376269578934,0.22649960219860077
1772376674406238000,2.770238037109375,0.12488021565470844,-0.3897288009047508,0.06455635106265545,-0.11622326821088791,-0.018386617302894592,0.2044392228126526
1772376674416187100,2.780187255859375,0.0689424389260821,-0.4370280199572444,0.1315823071092367,-0.1271858960390091,0.005620180629193783,0.178632915019989
1772376674426137000,2.79013720703125,0.0295094780029729,-0.473709691144526,0.2300426813393831,-0.1421373337507248,0.00872024241834879,0.15057608485221863
1772376674436086000,2.8000859375,0.037504769339505584,-0.5356798251062631,0.30577041475772854,-0.1623198390007019,-0.010301118716597557,0.12326481938362122
1772376674446035000,2.810034912109375,0.062183356587309384,-0.5838818382173776,0.34515433064103124,-0.17913389205932617,-0.04734945297241211,0.0933755487203598
1772376674455983900,2.81998388671875,0.053567777927964924,-0.6051429451718926,0.27438451189100743,-0.18883472681045532,-0.08949743956327438,0.05334051698446274
1772376674465933000,2.82993310546875,0.01327845590384677,-0.6011781331941485,0.11419921063184738,-0.1841665506362915,-0.11912941932678223,0.016262922435998917
1772376674475882000,2.839882080078125,0.025827044896874575,-0.5967921731948852,-0.05627367588579654,-0.16451720893383026,-0.126095712184906,-0.01885378733277321
1772376674485831000,2.849830810546875,0.0552600418638438,-0.579489156216383,-0.18248247326314448,-0.14151541888713837,-0.11511829495429993,-0.04835513234138489
1772376674495780000,2.859780029296875,0.0806855932877399,-0.5262143698856234,-0.25308979492783545,-0.1137482300400734,-0.10205389559268951,-0.06479961425065994
1772376674505729000,2.86972900390625,0.12641290511470288,-0.4615034127831459,-0.26565233938097954,-0.08477257937192917,-0.08929083496332169,-0.07550081610679626
1772376674515678000,2.879677978515625,0.19782237347513437,-0.42268706765472885,-0.20573007785975933,-0.05926349759101868,-0.08164676278829575,-0.07509814947843552
1772376674525628000,2.8896279296875,0.29779753618240357,-0.38495077284798024,-0.11485796680152416,-0.03655823692679405,-0.08392779529094696,-0.06376196444034576
1772376674535577000,2.8995771484375,0.36804457316733896,-0.3410309671007097,0.0009469254612922668,-0.013016159646213055,-0.09513677656650543,-0.052983880043029785
1772376674545526000,2.909526123046875,0.38492114489469675,-0.34500966147333384,0.08518471307158469,-0.003401879919692874,-0.11319904029369354,-0.04205524921417236
1772376674555475000,2.919474853515625,0.38763836796414103,-0.3882366626508534,0.14318331305384635,0.0036142179742455482,-0.13493549823760986,-0.039883971214294434
1772376674565423900,2.929423828125,0.3587198415916413,-0.44106019808277486,0.17995558513402937,-0.000612644711509347,-0.1721072793006897,-0.05409122258424759
1772376674575373000,2.939373046875,0.36501265812553463,-0.46900545897632834,0.17520634478032587,-0.007575212977826595,-0.20467615127563477,-0.07304121553897858
1772376674585322000,2.949322021484375,0.3435311133533716,-0.48027416422665115,0.09747954649925232,-0.011407026089727879,-0.2209673672914505,-0.09500927478075027
1772376674595271000,2.95927099609375,0.3453956285836175,-0.4352871676392853,0.014227262794971465,-0.013724775053560734,-0.23915010690689087,-0.11308947205543518
1772376674605220000,2.96922021484375,0.35365601886343206,-0.3721668407291174,-0.08055237709581851,-0.014132160693407059,-0.25338998436927795,-0.12552830576896667
1772376674615169000,2.9791689453125,0.3705980935750529,-0.34299759099856014,-0.17537877873778343,-0.013002181425690651,-0.2551327347755432,-0.13005781173706055
1772376674625118000,2.989117919921875,0.37165107322670515,-0.3535163546644151,-0.24109832836091516,-0.022159775719046593,-0.27101126313209534,-0.13502353429794312
1772376674635067000,2.99906689453125,0.3510125186173245,-0.33173429257571696,-0.30230010829865933,-0.0330909825861454,-0.2942175269126892,-0.13937221467494965
1772376674645016800,3.009016845703125,0.31830672879107297,-0.32397695644721386,-0.44105216090679167,-0.027170224115252495,-0.29440319538116455,-0.14369390904903412
1772376674654965800,3.0189658203125,0.29834875859068705,-0.32633900940343735,-0.5307224949598313,-0.026876477524638176,-0.28826460242271423,-0.15375745296478271
1772376674664915000,3.0289150390625,0.26525146696250884,-0.3453577442586422,-0.5344242720872163,-0.040445346385240555,-0.2826891243457794,-0.16451279819011688
1772376674674864000,3.038864013671875,0.2176280757232569,-0.3626949557676911,-0.47771688095927234,-0.07826223224401474,-0.28489983081817627,-0.17593802511692047
1772376674684813000,3.04881298828125,0.11130533408755436,-0.390155501884222,-0.41209845362305636,-0.15629367530345917,-0.3167342245578766,-0.20427371561527252
1772376674694762000,3.058761962890625,-0.09971249318309128,-0.39929669358655806,-0.45441023965179916,-0.26076680421829224,-0.35568028688430786,-0.2609686851501465
1772376674704711000,3.0687109375,-0.3520965144617483,-0.3968449165202677,-0.7009750167250632,-0.36133575439453125,-0.3553329110145569,-0.3501102030277252
1772376674714659800,3.078659912109375,-0.552102077194862,-0.3553188740417361,-1.1655892550051212,-0.4265824258327484,-0.27278396487236023,-0.44901174306869507
1772376674724609000,3.088609130859375,-0.6457144634045661,-0.2375759994536638,-1.634634753730893,-0.44977298378944397,-0.12086371332406998,-0.54066401720047
1772376674734558000,3.098557861328125,-0.5935860706299543,-0.10782266133725643,-1.8949884021818637,-0.43252235651016235,0.06038757786154747,-0.6044188141822815
1772376674744508000,3.1085078125,-0.337968437724933,0.0688105013757944,-1.8824930777460336,-0.3804533779621124,0.23092961311340332,-0.6187384724617004
1772376674754457000,3.11845703125,0.025668602932151407,0.2516112468078732,-1.592103187471628,-0.29945918917655945,0.3404252231121063,-0.5872125029563904
1772376674764406000,3.128406005859375,0.4539572717199102,0.40910146376416084,-1.094767998328805,-0.21693313121795654,0.36244451999664307,-0.5103278756141663
1772376674774355000,3.13835498046875,0.7919087948426604,0.5180284330815077,-0.6142892514407634,-0.1187162846326828,0.32722365856170654,-0.39757126569747925
1772376674784303900,3.148303955078125,0.9246037393689155,0.581944294283539,-0.27713468738198277,-0.029188230633735657,0.2606879770755768,-0.2705107033252716
1772376674794252800,3.158252685546875,0.8898371080227195,0.5793615843139589,-0.05666472102999687,0.06796708703041077,0.18050740659236908,-0.1591373085975647
1772376674804202000,3.168201904296875,0.722590928466618,0.5358195258378983,0.08883622131645678,0.15017162263393402,0.12202851474285126,-0.0746750608086586
1772376674814151200,3.178151123046875,0.45215924585461614,0.44248263210132716,0.20399580141305923,0.22599607706069946,0.06734316051006317,-0.02239614725112915
1772376674824100000,3.18810009765625,0.2176752758658491,0.3510778754711151,0.2806459103733301,0.27695149183273315,0.024520402774214745,0.004987186752259731
1772376674834049000,3.198049072265625,-0.01928505535790464,0.28680370235070585,0.3893962079495191,0.3028552830219269,-0.0016081356443464756,0.012495170347392559
1772376674843998000,3.207998046875,-0.27014881055001166,0.26541151636242866,0.5150760130167007,0.29578524827957153,-0.014624157920479774,0.008654003031551838
1772376674853948000,3.217947998046875,-0.4813428529040888,0.2528714760020375,0.6384592315793037,0.24831493198871613,-0.03175600618124008,-0.007926837541162968
1772376674863896800,3.227896728515625,-0.6485839544262737,0.24629589700400828,0.6365840853571891,0.1739528775215149,-0.05032512918114662,-0.03038252331316471
1772376674873846000,3.237845947265625,-0.7671671522960066,0.24458310173675415,0.5344423922657966,0.09596966207027435,-0.06395891308784485,-0.06504382938146591
1772376674883795000,3.247794921875,-0.8739137818995862,0.33516455928534267,0.35233576657772064,0.033060044050216675,-0.08637697994709015,-0.10885017365217209
1772376674893743900,3.257743896484375,-0.9612961511459202,0.47821474747881293,0.11329963144361972,-0.017710192129015923,-0.11360540241003036,-0.1465221792459488
1772376674903693000,3.267693115234375,-0.9448989969659596,0.6168287067905068,-0.16218436612188816,-0.04922207444906235,-0.12813305854797363,-0.16654649376869202
1772376674913642000,3.27764208984375,-0.8327187980063259,0.7310619658224284,-0.45400984215736384,-0.06743437051773071,-0.13601893186569214,-0.16552117466926575
1772376674923591000,3.2875908203125,-0.7027638729032128,0.7845777213022113,-0.7430535785198211,-0.057589091360569,-0.12647542357444763,-0.14780324697494507
1772376674933539800,3.297539794921875,-0.610833083104901,0.871264509499818,-1.0170634118795394,-0.005694467108696699,-0.0801505446434021,-0.11792364716529846
1772376674943489000,3.307489013671875,-0.5707954160206019,0.925937179929763,-1.21400695669353,0.08473334461450577,0.01571672409772873,-0.07286836951971054
1772376674953438000,3.31743798828125,-0.5439289268070832,0.9680410222962498,-1.2283633988261222,0.19973130524158478,0.1328425407409668,-0.014419445767998695
1772376674963388000,3.327387939453125,-0.46716257105600084,0.9697245914690196,-0.9054682462662458,0.29726335406303406,0.2286340594291687,0.04546030983328819
1772376674973336800,3.3373369140625,-0.38655046312958,0.848779998230189,-0.28812019177675247,0.3640815317630768,0.2775701880455017,0.10315609723329544
1772376674983286000,3.3472861328125,-0.3550893761347979,0.7224003743305802,0.32074878818094726,0.3920484185218811,0.3015577793121338,0.1489352136850357
1772376674993235000,3.35723486328125,-0.4148502730818465,0.5766913421913981,0.8757967461019754,0.4014083743095398,0.2839886248111725,0.17365893721580505
1772376675003184000,3.36718408203125,-0.4907819315744564,0.4339107647195458,1.3387573719561099,0.3861236572265625,0.24610640108585358,0.1727265566587448
1772376675013133000,3.377133056640625,-0.5736623497590422,0.30284049878567454,1.6410440362513063,0.362709641456604,0.21480493247509003,0.15288467705249786
1772376675023082000,3.38708203125,-0.6379545699927955,0.1711708056539297,1.8868015885949134,0.3107684552669525,0.17450740933418274,0.11782559007406235
1772376675033031000,3.397031005859375,-0.7534025385767221,0.09263181420713662,2.0613620366871355,0.2371450811624527,0.1370609551668167,0.07083171606063843
1772376675042979800,3.406979736328125,-0.8416984424713998,-0.017404723787307737,2.168019161376357,0.14132165908813477,0.10955710709095001,0.005984274670481682
1772376675052929000,3.416928955078125,-0.9062133655451238,-0.10183335779458284,2.1983803973704577,0.028925614431500435,0.09427136182785034,-0.07141038030385971
1772376675062878700,3.426878662109375,-0.9299203312817961,-0.17425269731730222,2.1045541126817464,-0.09014521539211273,0.07990788668394089,-0.1644011288881302
1772376675072828200,3.436828125,-0.9589761107005178,-0.2155295873403549,1.9737410363793373,-0.2045852392911911,0.06231105327606201,-0.266160249710083
1772376675082777000,3.446777099609375,-0.9511354071374982,-0.17879677048772571,1.7159908484250306,-0.2964312434196472,0.04478738084435463,-0.35329878330230713
1772376675092726000,3.45672607421875,-0.892556084657833,-0.058258712223172186,1.3665163164973257,-0.3632904291152954,0.03251500055193901,-0.4167957603931427
1772376675102675000,3.466675048828125,-0.8380993220008909,0.12353197938352822,1.002063995668292,-0.40096011757850647,0.02287610061466694,-0.45881688594818115
1772376675112623900,3.476623779296875,-0.7466049873910844,0.281887288736552,0.7108107665628194,-0.427409827709198,0.01818467490375042,-0.48169371485710144
1772376675122572800,3.48657275390625,-0.5839989617910236,0.38709479913935063,0.42295419415831564,-0.44451937079429626,-0.0008044112473726273,-0.48041456937789917
1772376675132522000,3.49652197265625,-0.44243309387117624,0.3976321213752031,0.19641338346004486,-0.4486081004142761,-0.0052561513148248196,-0.4665786623954773
1772376675142471200,3.50647119140625,-0.3440894778884947,0.4392831054076552,-0.0842085615158081,-0.43282049894332886,0.009541773237287998,-0.43910691142082214
1772376675152420000,3.516420166015625,-0.25343040679274126,0.4756935584381222,-0.33325872566401954,-0.3933636546134949,0.0429932102560997,-0.39148586988449097
1772376675162369000,3.526369140625,-0.17809580087782814,0.5232483596868813,-0.4832008653283119,-0.3383333086967468,0.09109371900558472,-0.3237903416156769
1772376675172319000,3.536319091796875,-0.12424851188873871,0.5586097420558334,-0.5308399838596582,-0.267226904630661,0.14343363046646118,-0.2263900190591812
1772376675182268000,3.546267822265625,-0.12422164214812219,0.5292233424432575,-0.47761225154101844,-0.20067977905273438,0.18013529479503632,-0.11927004903554916
1772376675192216800,3.556216796875,-0.13309932407606392,0.38083486196175215,-0.25747312457859517,-0.13836605846881866,0.18390420079231262,-0.030479196459054947
1772376675202166000,3.566166015625,-0.1990027058335021,0.15859671689346433,0.046179567372798914,-0.1067391112446785,0.1615224927663803,0.03411027044057846
1772376675212115000,3.576114990234375,-0.30231574425920843,-0.11023644448071718,0.33711657013595103,-0.08761575073003769,0.1241018995642662,0.06561680138111115
1772376675222064000,3.586064208984375,-0.4407411952614784,-0.3247374194256961,0.5043605577349662,-0.07750207930803299,0.10491198301315308,0.06956049799919128
1772376675232013000,3.596012939453125,-0.5541967479191721,-0.4968040048755705,0.6472293980121612,-0.08290456980466843,0.07935389131307602,0.05304650217294693
1772376675241962000,3.6059619140625,-0.5636942787785083,-0.6010419395938515,0.7568652462512254,-0.09514269232749939,0.05795000493526459,0.03195568919181824
1772376675251911000,3.615910888671875,-0.5357447801012546,-0.7049696393191814,0.8520061206698417,-0.12232557684183121,0.02756679244339466,0.01114707812666893
1772376675261859800,3.62585986328125,-0.46662857377715405,-0.7778539660051464,0.8832645977646112,-0.15309585630893707,0.0005054567009210587,-0.007120874710381031
1772376675271808800,3.635808837890625,-0.35510431797560305,-0.8443541446119547,0.8078881620019673,-0.19132021069526672,-0.008769800886511803,-0.030111413449048996
1772376675281759000,3.645759033203125,-0.2744105961803347,-0.8684969444826245,0.630541882583499,-0.202982097864151,-0.010792417451739311,-0.04059521108865738
1772376675291708000,3.6557080078125,-0.1640892498951405,-0.8536291918270289,0.39786476108729835,-0.20100097358226776,0.002637104131281376,-0.041649024933576584
1772376675301657000,3.665656982421875,-0.042007505852542815,-0.8314360647194087,0.19976269388794898,-0.18397818505764008,0.0051566315814852715,-0.02674340084195137
1772376675311606000,3.67560595703125,0.04614548244010657,-0.8010520323716104,0.05857026239037513,-0.153254896402359,0.00028331298381090164,-0.008220849558711052
1772376675321555000,3.685554931640625,0.06511062394455075,-0.8051002848491072,-0.035109307304024694,-0.13171634078025818,-0.00016891025006771088,0.008831992745399475
1772376675331503900,3.69550390625,0.024910350177064538,-0.7777223024494946,-0.12049451138377189,-0.11389605700969696,-0.015185942873358727,0.026986228302121162
1772376675341453000,3.705453125,-0.017749080245569347,-0.7401071498043835,-0.2101104849010706,-0.10516908764839172,-0.01980549283325672,0.04131155088543892
1772376675351402000,3.715402099609375,-0.05170739088356495,-0.7354302440345287,-0.3580032908201217,-0.09331748634576797,-0.009828225709497929,0.05676534026861191
1772376675361351000,3.725350830078125,-0.07715677984077483,-0.7429080325692892,-0.49225160226821896,-0.07125286012887955,0.012892208993434906,0.07431477308273315
1772376675371300000,3.735300048828125,-0.10568608769997953,-0.7725842089086771,-0.6013432606279849,-0.04571154713630676,0.04472923278808594,0.0883304551243782
1772376675381249000,3.7452490234375,-0.136216067857109,-0.7835171063333749,-0.7221615971386433,-0.0058358293026685715,0.09545993059873581,0.10484161227941513
1772376675391199000,3.755198974609375,-0.12128069332540034,-0.8412373277656734,-0.764396810799837,0.035554222762584686,0.1549546867609024,0.12239184230566025
1772376675401148200,3.765148193359375,-0.08191939113270491,-0.9167296449929475,-0.7048416290253401,0.07344714552164078,0.19307854771614075,0.13934144377708435
1772376675411097000,3.77509716796875,0.0005719912016764283,-0.9716089439108967,-0.5862070662945509,0.1008838340640068,0.19884349405765533,0.15087106823921204
1772376675421046000,3.7850458984375,-0.008503807114250958,-0.967310516064614,-0.4467798909038305,0.11701325327157974,0.1840870976448059,0.1596439629793167
1772376675430995000,3.794994873046875,-0.03230510007087141,-0.9485125843532383,-0.37768414284586904,0.13403750956058502,0.17152176797389984,0.1721041053533554
1772376675440943900,3.80494384765625,-0.008761069810949266,-0.912797273980081,-0.3393973745495081,0.14174146950244904,0.17194385826587677,0.1833890676498413
1772376675450892800,3.814892822265625,0.0050531186711043116,-0.9057134531989693,-0.29706162312328815,0.1439034342765808,0.17978420853614807,0.19422706961631775
1772376675460842000,3.824842041015625,0.08711264892686157,-0.9342575567685067,-0.25635434968173504,0.13948394358158112,0.21159620583057404,0.21141847968101501
1772376675470791000,3.834791015625,0.16126476705893872,-0.9407027873851358,-0.151703304117918,0.11089357733726501,0.21510253846645355,0.2298869639635086
1772376675480740000,3.844739990234375,0.27616671913266183,-0.9164353382214904,-0.010111644169688225,0.07087139040231705,0.17909210920333862,0.24245503544807434
1772376675490690000,3.85468994140625,0.3006973858097568,-0.9074816319152712,0.10222995589673518,-0.0005671060644090176,0.10900916159152985,0.24189497530460358
1772376675500639000,3.864638916015625,0.23003274446725844,-0.8648175253175199,0.07807225071787834,-0.09078585356473923,0.021355096250772476,0.22696663439273834
1772376675510588000,3.874587890625,0.09608034722581506,-0.7969526342287659,-0.09878653744459151,-0.1840132623910904,-0.07956379652023315,0.18207959830760956
1772376675520536800,3.884536865234375,-0.0665151935128495,-0.6118471189856529,-0.40698973230719565,-0.2689099907875061,-0.16951946914196014,0.12445126473903656
1772376675530485800,3.89448583984375,-0.21124902394432574,-0.3767220198154449,-0.8574895205169916,-0.3238946795463562,-0.236978679895401,0.06275993585586548
1772376675540435200,3.904435302734375,-0.24958474594894794,-0.16914938282892106,-1.4913982491850852,-0.3274574279785156,-0.24533317983150482,0.022891085594892502
1772376675550384000,3.914384033203125,-0.13456512231230736,0.025195085402578116,-2.0471756904244423,-0.2615377902984619,-0.18394997715950012,0.0030638515017926693
1772376675560333000,3.9243330078125,-0.012866203574836253,0.19075462704598903,-2.4046838912039994,-0.15466667711734772,-0.06740282475948334,0.008107701316475868
1772376675570282000,3.934281982421875,0.07165449263006449,0.39029768683388827,-2.468464581719041,-0.01757141947746277,0.07524433732032776,0.033251937478780746
1772376675580231000,3.94423095703125,0.1877961790991947,0.5823569667376578,-2.2733237024128434,0.09607087820768356,0.22309169173240662,0.08902545273303986
1772376675590179800,3.954179931640625,0.3504267911512404,0.724791653381288,-1.872475541600585,0.19016516208648682,0.3516739010810852,0.1672760546207428
1772376675600128800,3.964128662109375,0.47703474391400813,0.8696269714258611,-1.2484691982656717,0.23981769382953644,0.4328385293483734,0.25578078627586365
1772376675610079000,3.974078857421875,0.601820486218296,0.9718259476624429,-0.5247767382979392,0.2645280957221985,0.44815918803215027,0.3388351798057556
1772376675620027100,3.984027099609375,0.5671804403938353,0.999516357012093,-0.5326403112798929,0.26896148920059204,0.4372842609882355,0.41602078080177307
1772376675629976000,3.99397607421875,0.6920623730815947,0.9971002357810735,0.05494798023998737,0.2743344306945801,0.41548416018486023,0.4810522496700287
1772376675639925000,4.003925048828125,0.7528539647832513,0.9309830651424824,0.48070144972801204,0.28218773007392883,0.38778039813041687,0.5327669382095337
1772376675649874000,4.0138740234375,0.7072888760469853,0.9087024058818817,0.8087351342201232,0.2873649001121521,0.3622329533100128,0.5700807571411133
1772376675659822800,4.02382275390625,0.5926757508520036,0.886595788013935,1.1272948879241942,0.27855193614959717,0.3295173645019531,0.6020185351371765
1772376675669772800,4.033772705078125,0.5265472551017999,0.8415200902298092,1.3938041363954543,0.25518032908439636,0.2922264337539673,0.6382876038551331
1772376675679722000,4.043721923828125,0.5436953007142991,0.771923260781914,1.6345716253668068,0.2287793904542923,0.23407325148582458,0.6664906144142151
1772376675689671000,4.0536708984375,0.5995847995880991,0.6856140737250447,1.7926555704325438,0.18882398307323456,0.15312805771827698,0.6889051198959351
1772376675699620000,4.0636201171875,0.6463412170007824,0.5782170904539525,1.904292237100005,0.138203427195549,0.057259052991867065,0.6964986324310303
1772376675709569000,4.073569091796875,0.6434560900185257,0.4703061663113534,1.9604782347023486,0.06441947817802429,-0.06082471087574959,0.6858840584754944
1772376675719518000,4.08351806640625,0.6033171179842204,0.39393648172765966,1.9254887543857095,-0.02915973588824272,-0.18647709488868713,0.6596147418022156
1772376675729467000,4.093466796875,0.5119593423008918,0.26938041999340057,1.7482447662979363,-0.11637239903211594,-0.2916533052921295,0.6204494833946228
1772376675739415800,4.103415771484375,0.41729101729746904,0.14174758116230368,1.3462497735381125,-0.18738333880901337,-0.3753771483898163,0.5596030354499817
1772376675749364700,4.11336474609375,0.26441801181305197,0.10735635899975896,0.8026216197758913,-0.23450876772403717,-0.4474619925022125,0.48833414912223816
1772376675759314200,4.123314208984375,0.023847872044704854,0.17002411983683705,0.18319909709990023,-0.2608301639556885,-0.5056673288345337,0.41709378361701965
1772376675769263000,4.13326318359375,-0.1392161629885435,0.23183263349607586,-0.5172428356617689,-0.24828211963176727,-0.503463864326477,0.34846118092536926
1772376675779212000,4.1432119140625,-0.201738158679381,0.24949951535090803,-1.2314251244843006,-0.18326525390148163,-0.4374881684780121,0.2907674312591553
1772376675789162000,4.153161865234375,-0.22291513101439922,0.30352438939660786,-1.93332134770751,-0.06838714331388474,-0.2996637225151062,0.253726065158844
1772376675799111000,4.16311083984375,-0.19318583624828606,0.40253202224597334,-2.506523386478424,0.06949921697378159,-0.10517378151416779,0.2517373263835907
1772376675809059800,4.173059814453125,-0.10348890644926577,0.5709430077977479,-2.7563673313528296,0.20451030135154724,0.09750129282474518,0.2849772870540619
1772376675819009000,4.183009033203125,0.06738039550743996,0.736773329206556,-2.6265684005290266,0.2973584532737732,0.2385215163230896,0.3503534495830536
1772376675828958000,4.1929580078125,0.3008348215190694,0.853725930199772,-2.0702800871580838,0.3432958424091339,0.29661545157432556,0.4354523718357086
1772376675838907000,4.202906982421875,0.5399896876620128,0.9096735890015959,-1.2276005977600812,0.35136914253234863,0.32583558559417725,0.50606369972229
1772376675848856000,4.21285595703125,0.6213081172268837,0.8268743097618222,-0.4424450765699148,0.33342796564102173,0.31058499217033386,0.5397955775260925
1772376675858805000,4.222804931640625,0.5219194857032969,0.6617823856301606,0.1713496693521738,0.30739012360572815,0.2758234143257141,0.5307559967041016
1772376675868754000,4.23275390625,0.3848997733131051,0.48975145601555703,0.67136489135921,0.2622048258781433,0.22605398297309875,0.4943753480911255
1772376675878702800,4.242702880859375,0.26301968932244923,0.3211003780975938,1.0318804572612046,0.21033471822738647,0.15953657031059265,0.44286128878593445
1772376675888651800,4.25265185546875,0.14591390706151722,0.18184227566346525,1.3168068214327096,0.14637358486652374,0.08664826303720474,0.37337514758110046
1772376675898602000,4.26260205078125,0.06717340169325471,0.072053574950248,1.4941729745954275,0.07798074185848236,0.035584062337875366,0.29148054122924805
1772376675908551000,4.272551025390625,-0.0013888970751315354,-0.0575533404327929,1.5300298853963612,0.01926843263208866,-0.0006056320853531361,0.20565859973430634
1772376675918499800,4.282499755859375,-0.06590462386645377,-0.12268676073104143,1.4943535918593407,-0.03293744847178459,-0.024847354739904404,0.11858565360307693
1772376675928449000,4.292448974609375,-0.10884773006867617,-0.1533876039430499,1.3804413814753294,-0.07742875069379807,-0.03437481075525284,0.03486758843064308
1772376675938398000,4.30239794921875,-0.09869513283409177,-0.18372852780148385,1.2618284460544587,-0.11138635128736496,-0.03719262778759003,-0.03317999839782715
1772376675948347000,4.312346923828125,0.03448434380609542,-0.17427578593194484,1.132405362805724,-0.14081694185733795,-0.04327608644962311,-0.07873203605413437
1772376675958297900,4.3222978515625,0.29648225233275444,0.024693565621227025,0.8862240320920943,-0.1568063497543335,-0.050909921526908875,-0.0995151698589325
1772376675968247000,4.3322470703125,0.4248596624534577,0.07239347442910075,0.7802297552257775,-0.1686590164899826,-0.04992348700761795,-0.09650233387947083
1772376675978196000,4.342196044921875,0.5122949309308081,0.08507248486876487,0.6751186909347772,-0.17881429195404053,-0.05289245396852493,-0.08630233258008957
1772376675988145000,4.352144775390625,0.5971273599660024,0.05853665238171816,0.5744447323083878,-0.19015295803546906,-0.05708266794681549,-0.07888836413621902
1772376675998094000,4.362093994140625,0.5836854023298248,0.025759879678487776,0.48304596702754493,-0.19632215797901154,-0.0568249449133873,-0.07942729443311691
1772376676008043000,4.37204296875,0.5512096583997831,-0.0075333181142807,0.38509938753843304,-0.19619619846343994,-0.05358840525150299,-0.08451659977436066
1772376676017993000,4.381992919921875,0.5184590065184981,-0.045645606626570225,0.29955227089524267,-0.19872558116912842,-0.045479025691747665,-0.09572558104991913
1772376676027942000,4.39194189453125,0.49846569101009514,-0.10005611898899078,0.2300830133497715,-0.19547438621520996,-0.038610998541116714,-0.1040695309638977
1772376676037890800,4.401890869140625,0.5021983747323975,-0.10599033134356141,0.13959785578250883,-0.18666595220565796,-0.029413288459181786,-0.11258072406053543
1772376676047840000,4.411840087890625,0.5000558828109875,-0.12800327957868576,0.13220716100931168,-0.1872265487909317,-0.034159041941165924,-0.11845938861370087
1772376676057789000,4.421788818359375,0.5501564960850402,-0.13228928633481263,0.1559562853872776,-0.189239963889122,-0.04890866205096245,-0.1182481050491333
1772376676067738000,4.431738037109375,0.5642792755922302,-0.15404796754792333,0.1424894855707884,-0.1918935328722,-0.06252966821193695,-0.11353538185358047
1772376676077687000,4.44168701171875,0.537543317423202,-0.16734204114601015,0.0950923591017723,-0.1939759999513626,-0.08066216856241226,-0.11189939081668854
1772376676087636000,4.451635986328125,0.5265528811249882,-0.19950316616892813,0.020730068817734718,-0.19707831740379333,-0.09442698210477829,-0.11018671840429306
1772376676097585000,4.4615849609375,0.46631000934727485,-0.23599516000300644,-0.07668459575176238,-0.196208655834198,-0.1033703088760376,-0.11140911281108856
1772376676107533800,4.471533935546875,0.41684250634498893,-0.2574415603965521,-0.17425240505635736,-0.19419929385185242,-0.10790140926837921,-0.11794237792491913
1772376676117483000,4.48148291015625,0.3717382765861228,-0.26011604030281305,-0.27063129683732984,-0.18649481236934662,-0.10852506756782532,-0.1250879019498825
1772376676127433000,4.491432861328125,0.3582125496566295,-0.26581059868261214,-0.3643722413301468,-0.1756397783756256,-0.10844171047210693,-0.13329097628593445
1772376676137382100,4.501382080078125,0.3592368877356872,-0.2762235638864338,-0.4596896413594484,-0.15609559416770935,-0.10342871397733688,-0.13247613608837128
1772376676147331000,4.5113310546875,0.3902790551986545,-0.2757670522905886,-0.5118856925427914,-0.1276692897081375,-0.08333329856395721,-0.13089928030967712
1772376676157280000,4.521280029296875,0.43450573493801053,-0.2609697345227003,-0.4982061267584562,-0.09364524483680725,-0.05841940641403198,-0.12116125226020813
1772376676167229000,4.53122900390625,0.4912891139116138,-0.24710107590705155,-0.4333744658857584,-0.06613718718290329,-0.03025781363248825,-0.09968498349189758
1772376676177177900,4.541177734375,0.5165535016907379,-0.25847294927090403,-0.28529285939633847,-0.04420100152492523,-0.011368922889232635,-0.06682557612657547
1772376676187126800,4.551126708984375,0.543083233230561,-0.28800401805117726,-0.07990940301716327,-0.03818758577108383,-0.011444023810327053,-0.03503914549946785
1772376676197076000,4.561075927734375,0.5561713724603876,-0.3320952348425984,0.114599023604393,-0.03115159645676613,-0.03222694247961044,-0.008636923506855965
1772376676207025200,4.571025146484375,0.518049695065245,-0.4176528728798032,0.30044600486457346,-0.027269775047898293,-0.0770263671875,0.010268856771290302
1772376676216974000,4.58097412109375,0.43417489554844796,-0.4987583538137376,0.4177665623873472,-0.03663291409611702,-0.13421162962913513,0.008477614261209965
1772376676226923000,4.590923095703125,0.3367881418991834,-0.5911059442520141,0.4686614678442478,-0.05591153725981712,-0.19919168949127197,-0.004285052418708801
1772376676236873000,4.600873046875,0.2150218570139259,-0.6308703838855028,0.41819852406382557,-0.07857877016067505,-0.2608928680419922,-0.02539832703769207
1772376676246822000,4.61082177734375,0.1566027483309619,-0.6760939657077193,0.22058570168614386,-0.0889509841799736,-0.2910044491291046,-0.053049396723508835
1772376676256770800,4.620770751953125,0.10797971506249159,-0.6504509904071688,-0.03988192853331566,-0.08149741590023041,-0.2999908924102783,-0.07377126812934875
1772376676266720000,4.630719970703125,0.10199707872262224,-0.5922346560209989,-0.27349311600923537,-0.06037961319088936,-0.29928407073020935,-0.08397623896598816
1772376676276669000,4.6406689453125,0.20406484806127845,-0.5327108922980726,-0.40710839025080203,-0.030934397131204605,-0.3059726059436798,-0.07903359085321426
1772376676286618000,4.6506181640625,0.29308826251290737,-0.4658576624698937,-0.48788814636170863,0.006562644615769386,-0.322466641664505,-0.05162380635738373
1772376676296567000,4.660567138671875,0.30805005012750625,-0.45090705383643503,-0.5373334375321864,0.04485899955034256,-0.3325333297252655,-0.024127556011080742
1772376676306516000,4.670515869140625,0.2923027016257867,-0.4553009048812091,-0.5766191537380219,0.09001662582159042,-0.3380841612815857,-0.0005079798866063356
1772376676316465000,4.68046484375,0.20734237189460544,-0.4973620771497488,-0.5311702387273312,0.12106909602880478,-0.3374427855014801,0.006238162517547607
1772376676326413800,4.690413818359375,0.1543671530323103,-0.5727566330909729,-0.4117372190952301,0.14860644936561584,-0.32724499702453613,-0.003398752072826028
1772376676336363000,4.700363037109375,0.11602305592498742,-0.6360531933508813,-0.23293898730278015,0.15712742507457733,-0.3243437111377716,-0.024621929973363876
1772376676346313000,4.71031298828125,0.1355982008202467,-0.688043638959527,-0.0062111295998096465,0.14460231363773346,-0.3267810344696045,-0.052951037883758545
1772376676356262000,4.720261962890625,0.14467232776889577,-0.7480794438578188,0.21257775179743765,0.11639655381441116,-0.32702717185020447,-0.08331400156021118
1772376676366210800,4.7302109375,0.21514025922920554,-0.7775146510481834,0.4203583324462175,0.05331532284617424,-0.33330851793289185,-0.11702162772417068
1772376676376160000,4.740159912109375,0.22076712266765533,-0.8219038278728723,0.6317477512419224,-0.046763595193624496,-0.39938291907310486,-0.14676505327224731
1772376676386109000,4.75010888671875,0.11923053759625181,-0.7972980866655707,0.7075760224252938,-0.17155319452285767,-0.5031764507293701,-0.20905053615570068
1772376676396058000,4.76005810546875,-0.06404549719737843,-0.739220430097729,0.46780981945097444,-0.2863735258579254,-0.5712525844573975,-0.30524036288261414
1772376676406007000,4.770007080078125,-0.35825302779749035,-0.6082477793194353,-0.09391220940649508,-0.3502403795719147,-0.5480921864509583,-0.40911218523979187
1772376676415956000,4.7799560546875,-0.5433078722992911,-0.377504256234318,-0.6094459030628204,-0.39533552527427673,-0.4809390902519226,-0.5072417855262756
1772376676425905000,4.78990478515625,-0.4367777715232223,-0.17861439965814352,-0.9600567455440759,-0.4153901934623718,-0.3983406126499176,-0.5658971071243286
1772376676435854000,4.79985400390625,-0.05783829485401511,-0.10552139865756034,-1.3152274432867765,-0.388333261013031,-0.2655058801174164,-0.5813287496566772
1772376676445803000,4.809802978515625,0.32070242828857154,-0.008210194462537766,-1.5176444510757923,-0.31934061646461487,-0.1648905873298645,-0.5606544017791748
1772376676455753000,4.8197529296875,0.5959902822274714,0.1253058571882546,-1.4640262581348418,-0.23760458827018738,-0.11360777914524078,-0.5299391150474548
1772376676465702100,4.8297021484375,0.782674956420809,0.22438772431761025,-1.2917916226416826,-0.15991832315921783,-0.10114392638206482,-0.48675253987312317
1772376676475651000,4.839651123046875,0.8541882870145141,0.30983152671679853,-1.152417054221034,-0.0849699079990387,-0.1139291301369667,-0.4255831241607666
1772376676485600000,4.84960009765625,0.7926222038090228,0.3950976344615221,-1.0454530555397272,-0.022089481353759766,-0.12259532511234283,-0.355843722820282
1772376676495549000,4.859548828125,0.5700392638910562,0.4194042465917766,-0.9896242008119821,0.03124690055847168,-0.09612090140581131,-0.29342055320739746
1772376676505497900,4.869497802734375,0.3189424694113433,0.399467520108819,-0.9658855978280305,0.07208967208862305,-0.04359989985823631,-0.2493731826543808
1772376676515446800,4.87944677734375,0.05033946353122592,0.3380595500744879,-0.9131751673817634,0.1073884665966034,0.035737745463848114,-0.22800956666469574
1772376676525396000,4.88939599609375,-0.1963010821919888,0.2785980379328131,-0.7980810537368058,0.13699747622013092,0.12048591673374176,-0.22019265592098236
1772376676535345200,4.89934521484375,-0.3440780066464096,0.2523319622978568,-0.6198053845137357,0.16586363315582275,0.18475975096225739,-0.214942067861557
1772376676545294000,4.909294189453125,-0.4944255853064358,0.2392851414591074,-0.37091245675385,0.1794596016407013,0.219403475522995,-0.21207091212272644
1772376676555243000,4.919242919921875,-0.6746591836642474,0.21158494136780498,-0.12477613422572612,0.17292089760303497,0.23094826936721802,-0.2186124324798584
1772376676565193000,4.92919287109375,-0.8315380637891591,0.19629443325549362,0.10446049142777919,0.13925135135650635,0.2137777954339981,-0.23642870783805847
1772376676575142000,4.939141845703125,-0.9654984982065856,0.19481544674411416,0.2724327933013439,0.0942319929599762,0.15087585151195526,-0.2802506983280182
1772376676585090800,4.9490908203125,-1.096247204035893,0.16411445740163325,0.284066532471776,0.03441765904426575,0.06618917733430862,-0.3565273582935333
1772376676595040000,4.9590400390625,-1.13323092690967,0.22953809281811116,0.1434685597360134,-0.0010088547132909298,0.004866765812039375,-0.4437812864780426
1772376676604989000,4.968989013671875,-1.1244622217815368,0.37856793994307514,-0.151859955984354,-0.008972239680588245,-0.011583046987652779,-0.5167438983917236
1772376676614938000,4.978938232421875,-1.0498635654583572,0.5969336274921894,-0.4255792819648981,0.006668802350759506,0.025392979383468628,-0.5618986487388611
1772376676624887000,4.988886962890625,-0.8428430093966424,0.8431386313423513,-0.5818932947486639,0.030018333345651627,0.09624478220939636,-0.550159215927124
1772376676634836000,4.9988359375,-0.5143297246940434,1.0087155625119806,-0.5741051250904798,0.059196725487709045,0.1960478127002716,-0.4889821410179138
1772376676644785000,5.008784912109375,-0.21509497704906388,1.0978713711716235,-0.4301005587816238,0.10286670178174973,0.2979411482810974,-0.3945366144180298
1772376676654733800,5.01873388671875,-0.017240354405296966,1.1323622543163596,-0.12698328888118265,0.17061997950077057,0.3907736539840698,-0.2837580740451813
1772376676664682800,5.028682861328125,0.08963059569769538,1.0953747320502996,0.2851297777891159,0.24143476784229279,0.43665218353271484,-0.18000343441963196
1772376676674632200,5.038632080078125,0.07188673961651511,0.972054057329893,0.718260498046875,0.3051719069480896,0.4539778232574463,-0.09521913528442383
1772376676684582000,5.048581787109375,-0.012290120719932018,0.8141461994834244,1.1748726316571234,0.35242968797683716,0.44064682722091675,-0.028837978839874268
1772376676694531000,5.058531005859375,-0.05863324462398886,0.6037972296513616,1.5933073025643825,0.36834365129470825,0.3818352520465851,0.0076867444440722466
1772376676704480000,5.06847998046875,-0.12157646140158175,0.43271191032379863,1.9329548524826763,0.3633776605129242,0.30531010031700134,0.019971108064055443
1772376676714429000,5.078428955078125,-0.17316641818424686,0.3202344089180231,2.1816046191364524,0.3286052644252777,0.22650396823883057,0.014361247420310974
1772376676724377900,5.0883779296875,-0.2459907400449738,0.22824878365993498,2.3615835851460694,0.26931798458099365,0.16292738914489746,-0.008165898732841015
1772376676734327000,5.0983271484375,-0.332030279847607,0.16166604133620857,2.461461424958706,0.17827826738357544,0.09773673117160797,-0.043098852038383484
1772376676744276000,5.10827587890625,-0.43305235779192297,0.10949015615805983,2.487876553675532,0.06663483381271362,0.052690960466861725,-0.09098834544420242
1772376676754225000,5.118224853515625,-0.5295099042996764,0.05018631879612803,2.4485218638867137,-0.05891251564025879,0.020062653347849846,-0.14456582069396973
1772376676764174000,5.128174072265625,-0.5779922687221318,0.047925388126820324,2.3732699312865733,-0.19224341213703156,-0.01656966097652912,-0.20041842758655548
1772376676774123000,5.138123046875,-0.5967454114437103,0.031063539044559,2.166890449607372,-0.3120217025279999,-0.04170627146959305,-0.2534843981266022
1772376676784072000,5.148072021484375,-0.5860906003080308,0.03766366796195507,1.8540122486710546,-0.4142221212387085,-0.06902018189430237,-0.30625733733177185
1772376676794022100,5.158022216796875,-0.5548917079133913,0.10802797465100884,1.4862369208991526,-0.48418113589286804,-0.08830432593822479,-0.34682270884513855
1772376676803971000,5.16797119140625,-0.5649556404838338,0.2085539031088352,1.1006336754918098,-0.532349169254303,-0.10040945559740067,-0.3758721947669983
1772376676813920000,5.177919921875,-0.46826139914337545,0.2657521464936435,0.7653682861804961,-0.5576518177986145,-0.1133747398853302,-0.3802027702331543
1772376676823869000,5.187868896484375,-0.3263704639876261,0.28469810837358234,0.48973465101122854,-0.5688133835792542,-0.13080139458179474,-0.36945104598999023
1772376676833817900,5.19781787109375,-0.15760344980610533,0.2834131831295788,0.22536533717811105,-0.5590416789054871,-0.1474466323852539,-0.3376569151878357
1772376676843767000,5.20776708984375,-0.026762517382390796,0.248897165543586,-0.005040916776657104,-0.533128559589386,-0.1550171971321106,-0.2939687967300415
1772376676853716000,5.217716064453125,0.11102893743212335,0.24855741219520566,-0.282647313323617,-0.4868457317352295,-0.13963770866394043,-0.2259010672569275
1772376676863665000,5.227664794921875,0.2074573765764013,0.21890958516746759,-0.5455968234866857,-0.4101320207118988,-0.09236340969800949,-0.13469737768173218
1772376676873614000,5.237614013671875,0.23281959870681165,0.1705875989384949,-0.6763315738558768,-0.31564417481422424,-0.028469664976000786,-0.03274723142385483
1772376676883563000,5.24756298828125,0.16992022107094526,0.1154712763942778,-0.6453361316114664,-0.23024380207061768,0.025945106521248817,0.06703528761863708
1772376676893512000,5.257511962890625,0.06469299218752421,-0.033138591752946374,-0.43362113412320613,-0.17769762873649597,0.04825059324502945,0.1413123607635498
1772376676903462100,5.267462158203125,-0.031031326408544554,-0.3042072570942342,-0.12757307146787641,-0.14995014667510986,0.0509643480181694,0.18428167700767517
1772376676913411000,5.2774111328125,-0.19515030472166836,-0.5431881549097597,0.14455577045083046,-0.1493787169456482,0.039431389421224594,0.19177331030368805
1772376676923360300,5.2873603515625,-0.3984395653005689,-0.7091795120991766,0.31861119163036344,-0.16378162801265717,0.04120239242911339,0.17458075284957886
1772376676933309400,5.297309326171875,-0.4998822798097506,-0.8451448565982281,0.398195600476861,-0.1825149953365326,0.036344531923532486,0.14000599086284637
1772376676943258400,5.30725830078125,-0.5363965950734914,-0.94548344579041,0.4072007447093725,-0.2065446972846985,0.04248498007655144,0.09831047058105469
1772376676953207300,5.317207275390625,-0.5528690795119852,-0.9890858561515807,0.37645372426807877,-0.22087575495243073,0.048295047134160995,0.058913715183734894
1772376676963156200,5.32715625,-0.49037389876283705,-0.9992042223230003,0.3227998754918575,-0.22600260376930237,0.04975499212741852,0.019617706537246704
1772376676973105200,5.337105224609375,-0.38550113673973824,-1.0079510078802705,0.2537976509362459,-0.2183268815279007,0.05002386495471001,0.00016251555643975735
1772376676983054000,5.34705419921875,-0.27579507280867543,-0.9637244742713869,0.19712825373113155,-0.20733095705509186,0.04806031659245491,-0.008373448625206947
1772376676993003300,5.357003173828125,-0.2143164121583104,-0.9096247814238071,0.15467267531752585,-0.19625742733478546,0.0398956723511219,-0.009885147213935852
1772376677002952400,5.366952392578125,-0.15237452704352325,-0.8805530007183551,0.08108312297165393,-0.1894863396883011,0.037810683250427246,-0.0032813074067234993
1772376677012902100,5.376902099609375,-0.17832345388755202,-0.8775805607788264,-0.037113632863759995,-0.18089650571346283,0.05216091871261597,0.007201693020761013
1772376677022851300,5.386851318359375,-0.19217322513964025,-0.9047695964775979,-0.1700590450197458,-0.16695459187030792,0.08682169020175934,0.004826685879379511
1772376677032800300,5.39680029296875,-0.1869401833243668,-0.9479314234644174,-0.23060791400671005,-0.14589552581310272,0.11171413958072662,0.000904116895981133
1772376677042749200,5.406749267578125,-0.19573508233968168,-0.9695337450720369,-0.2405821955323219,-0.13227106630802155,0.12644462287425995,-0.010392213240265846
1772376677052698400,5.416698486328125,-0.17524172662096096,-0.989002415651828,-0.24846155060529707,-0.12564760446548462,0.11873862892389297,-0.021697156131267548
1772376677062647300,5.426647216796875,-0.18889058673977852,-0.9879001534983515,-0.3044657618999481,-0.11922645568847656,0.1126977801322937,-0.028520973399281502
1772376677072596200,5.43659619140625,-0.21340092301489785,-0.9770919053666293,-0.4417869049221277,-0.09993725270032883,0.11804694682359695,-0.025408003479242325
1772376677082545400,5.44654541015625,-0.23930298764305188,-0.9641434303358196,-0.5823451301693916,-0.06841155141592026,0.14819660782814026,-0.023978952318429947
1772376677092494300,5.456494384765625,-0.203355950873252,-0.9559642155334352,-0.6771703627675771,-0.0232588741928339,0.20319847762584686,-0.01427226047962904
1772376677102443300,5.466443359375,-0.15188982139965518,-1.0081045910067856,-0.643846769836545,0.023833269253373146,0.2823124825954437,-0.0006137073505669832
1772376677112392200,5.47639208984375,-0.09752654571244493,-1.0536866308778523,-0.4626642732560634,0.04979763180017471,0.3348424434661865,0.016559865325689316
1772376677122342400,5.48634228515625,0.04419138923026621,-1.1092281930968164,-0.15293372269570826,0.0564747080206871,0.35676851868629456,0.03481157124042511
1772376677132291300,5.496291259765625,0.20754089014139024,-1.1879583232015372,0.14887421817183494,0.05249285325407982,0.3398045301437378,0.06067131087183952
1772376677142240300,5.506240234375,0.2962224688854068,-1.2282054317854345,0.37206747200787066,0.044705234467983246,0.2982586920261383,0.07956191152334213
1772376677152189200,5.516189208984375,0.3456843823971227,-1.2551147737599908,0.495841735714674,0.02555011957883835,0.25980594754219055,0.099199078977108
1772376677162138000,5.52613818359375,0.358027986869961,-1.2767238173693418,0.5276140075504779,-0.012639343738555908,0.22626478970050812,0.10603941231966019
1772376677172087300,5.53608740234375,0.465639781935513,-1.3394725344881415,0.5910545063257217,-0.08355177938938141,0.1826721727848053,0.11635046452283859
1772376677182036200,5.5460361328125,0.6128642601389438,-1.3798315790139137,0.5853612631201743,-0.17618876695632935,0.10528124868869781,0.12375432252883911
1772376677191985400,5.5559853515625,0.6055842591986059,-1.284495035892725,0.44398061557412144,-0.2748858630657196,-0.016898512840270996,0.11107660084962845
1772376677201934300,5.565934326171875,0.44241438917070625,-1.0652684937305748,0.08718319341242313,-0.37322255969047546,-0.1561751812696457,0.0676708072423935
1772376677211883300,5.57588330078125,0.17516995829269288,-0.7139066867515445,-0.4961182145684957,-0.4669562876224518,-0.29190248250961304,0.008995243348181248
1772376677221832200,5.585832275390625,0.03014689912367612,-0.37138752691969273,-1.1440496233701705,-0.5336487889289856,-0.4229305386543274,-0.061160407960414886
1772376677231781000,5.595781005859375,0.11812277728375047,-0.10903057582229375,-1.9567244351267814,-0.5263035297393799,-0.45818233489990234,-0.10435714572668076
1772376677241731000,5.60573095703125,0.3232231058726087,0.0987412369981408,-2.790250311732292,-0.42996424436569214,-0.3913697302341461,-0.1042972281575203
1772376677251680300,5.61568017578125,0.6292959011103958,0.3259490602377802,-3.330930721604824,-0.2641637623310089,-0.23913541436195374,-0.06300438195466995
1772376677261629400,5.62562939453125,0.9574515314817428,0.585966243276,-3.4921477039992808,-0.055701084434986115,-0.02302628383040428,0.030014242976903915
1772376677271578400,5.635578369140625,1.2757438664212821,0.8286383237596601,-3.219848766210675,0.12914317846298218,0.17490658164024353,0.17773889005184174
1772376677281527300,5.64552734375,1.5206351573243737,1.0786758184447884,-2.491090255025029,0.23410047590732574,0.28175899386405945,0.38119855523109436
1772376677291476200,5.655476318359375,1.6590300670579075,1.2368074020445345,-1.631201272150874,0.26697254180908203,0.29751765727996826,0.6087931394577026
1772376677301425200,5.665425048828125,1.5699046535365282,1.2206775204986333,-0.9882371303677558,0.26412269473075867,0.2679637372493744,0.8244277238845825
1772376677311374000,5.6753740234375,1.29139078675583,1.0769430033028125,-0.6495867747932672,0.26038774847984314,0.24971617758274078,0.9623218178749084
1772376677321323300,5.6853232421875,0.871541061418876,0.88937007503286,-0.5763315689682961,0.2877674400806427,0.24828870594501495,1.0302680730819702
1772376677331272400,5.6952724609375,0.5428602381296456,0.7164446077313273,-0.5420704029262066,0.3492700457572937,0.26158833503723145,1.0497844219207764
1772376677341221400,5.705221435546875,0.34858518187254667,0.5798449839167297,-0.4340355601429939,0.42371097207069397,0.2709709405899048,1.0538705587387085
1772376677351171300,5.71517138671875,0.24174915695246307,0.5488565559349954,-0.23078619318306445,0.49448928236961365,0.25578773021698,1.0561326742172241
1772376677361120300,5.725120361328125,0.23842425031345335,0.5602531253486871,0.10679390281140803,0.54576575756073,0.21375584602355957,1.0748218297958374
1772376677371069200,5.735069091796875,0.31974688112940636,0.5622774707831442,0.4334077836334705,0.5699066519737244,0.14990165829658508,1.0961180925369263
1772376677381018000,5.74501806640625,0.3612184534743428,0.556054358484596,0.7541869669526815,0.5699535012245178,0.04709085449576378,1.1207586526870728
1772376677390967300,5.75496728515625,0.3525766626615077,0.517192274518311,0.978038976958394,0.5421778559684753,-0.0792047455906868,1.1394375562667847
1772376677400916200,5.764916259765625,0.3224360106155276,0.4537677039645612,1.077110176563263,0.4819273054599762,-0.22078770399093628,1.1403528451919556
1772376677410865400,5.774865478515625,0.1559536185061559,0.3708953594885766,1.0232985068768263,0.39510416984558105,-0.36557531356811523,1.1065791845321655
1772376677420814300,5.784814453125,-0.09739888247847557,0.2613205937869847,0.7316039637446403,0.30392763018608093,-0.49333781003952026,1.0382126569747925
1772376677430763300,5.79476318359375,-0.3816764273524284,0.15757146549895404,0.23726503380835054,0.2271202802658081,-0.5849153399467468,0.9429818391799927
1772376677440712200,5.804712158203125,-0.7013800173293798,0.19083324524015188,-0.387415847787261,0.1806744784116745,-0.6370179653167725,0.8180513381958008
1772376677450661000,5.8146611328125,-0.9956387849263846,0.3005981266863644,-1.0044318938434122,0.16890935599803925,-0.6471298336982727,0.6896201968193054
1772376677460611300,5.824611328125,-1.139108002249524,0.3966531933404505,-1.599436599099636,0.1903214454650879,-0.5851489901542664,0.5713186264038086
1772376677470560300,5.834560302734375,-1.1252584136605261,0.4921946113839745,-2.0584622235924006,0.249792218208313,-0.44202783703804016,0.4674587547779083
1772376677480509200,5.84450927734375,-0.9200939337942748,0.6351350555926562,-2.2679531152904033,0.34916383028030396,-0.25501930713653564,0.40149518847465515
1772376677490458400,5.854458251953125,-0.5709457112114876,0.8050237124815582,-2.1286796691566705,0.44651055335998535,-0.05353657528758049,0.3744954466819763
1772376677500407300,5.8644072265625,-0.1776979241340421,0.992676427989453,-1.5643717154592274,0.5363304615020752,0.10173264145851135,0.3891609311103821
1772376677510356200,5.874356201171875,0.17706757207494228,1.0839698331996799,-0.7318219904094934,0.5871976017951965,0.1971573680639267,0.4341542422771454
1772376677520305200,5.88430517578125,0.38672103392351415,1.1447736998610198,0.07058335626721382,0.6116741895675659,0.24825569987297058,0.4842238128185272
1772376677530254300,5.89425439453125,0.4360217289915308,1.1463766050130129,0.823349935027957,0.5943262577056885,0.24394793808460236,0.52625572681427
1772376677540203300,5.904203369140625,0.3920589974179864,1.0630632387712597,1.3935031076222657,0.5533772110939026,0.2288488894701004,0.536725640296936
1772376677550152200,5.914152099609375,0.32377164313346146,0.9200563051976263,1.8353081327229737,0.4873202443122864,0.20008927583694458,0.5190398097038269
1772376677560101400,5.924101318359375,0.26841731058228757,0.7978357006736099,2.161924351632595,0.3902650773525238,0.15543605387210846,0.4812638759613037
1772376677570051000,5.934051025390625,0.23486904204990713,0.6616739568196237,2.376205984738469,0.2787114381790161,0.1076379343867302,0.4225202202796936
1772376677580000300,5.944000244140625,0.18438794155828653,0.5238938179835677,2.4198072260558603,0.1599789410829544,0.06591658294200897,0.345899760723114
1772376677589949400,5.953949462890625,0.16913992088083177,0.43099823827371,2.3365905981868504,0.05680830031633377,0.022916020825505257,0.26305869221687317
1772376677599898400,5.9638984375,0.14502980857021175,0.3772710320003331,2.16267955391407,-0.027302317321300507,-0.021460767835378647,0.17442654073238373
1772376677609847300,5.973847412109375,0.1730489110181108,0.35027079687193036,1.9033844746053217,-0.08448787033557892,-0.06304677575826645,0.09335034340620041
1772376677619796200,5.983796142578125,0.1901861064430326,0.3514084225997329,1.6150100158065557,-0.12161234021186829,-0.08947758376598358,0.039585378021001816
1772376677629745200,5.9937451171875,0.27553335313256827,0.39685865278467536,1.3480775734871626,-0.14123687148094177,-0.09332404285669327,0.00644979253411293
1772376677639694300,6.0036943359375,0.32910803572535513,0.46362727306932205,1.1074877791702746,-0.15552020072937012,-0.09676031768321991,-0.005465190391987562
1772376677649643300,6.013643310546875,0.387771785085462,0.4717474511608481,0.9482143320590257,-0.1770372837781906,-0.08045037090778351,-0.01527440920472145
1772376677659592200,6.02359228515625,0.4564067106986418,0.43507820106372236,0.8476274671941995,-0.20211787521839142,-0.07243292778730392,-0.014393702149391174
1772376677669541400,6.033541259765625,0.45152821794208137,0.4122700107976794,0.7420365104317664,-0.22353675961494446,-0.06558078527450562,-0.020747384056448936
1772376677679490300,6.043490234375,0.46195839000903066,0.3625217911578715,0.6136871938943863,-0.24490943551063538,-0.05869704857468605,-0.028523016721010208
1772376677689440300,6.053440185546875,0.4601437418024987,0.3022663521595299,0.48281741896867747,-0.25768765807151794,-0.06123293936252594,-0.03467349335551262
1772376677699389200,6.06338916015625,0.498680174010992,0.22421821296960115,0.30947920614778995,-0.25605249404907227,-0.059939175844192505,-0.03673851117491722
1772376677709338000,6.073338134765625,0.47926856738068163,0.1677912462182343,0.12695756991803644,-0.24497707188129425,-0.052547745406627655,-0.040329162031412125
1772376677719287000,6.083287109375,0.45559550391361114,0.12274039061442017,0.028075170883536338,-0.22947774827480316,-0.044915392994880676,-0.04296382516622543
1772376677729236500,6.093236572265625,0.4267716335546225,0.07341960260644555,-0.030336101552844046,-0.21420441567897797,-0.03921695426106453,-0.04390481114387512
1772376677739185400,6.103185302734375,0.39323841646090146,0.010397767634689808,-0.08418985681533812,-0.20737873017787933,-0.025514723733067513,-0.04737677425146103
1772376677749134300,6.11313427734375,0.3617483956325799,-0.07916881378293036,-0.09215396756231785,-0.19727779924869537,-0.014279038645327091,-0.04478028044104576
1772376677759083300,6.123083251953125,0.30543363881772384,-0.15778876151144502,-0.08773089042305945,-0.1916457563638687,-0.008351907134056091,-0.050809409469366074
1772376677769032200,6.1330322265625,0.27883787457067516,-0.22605638818219304,-0.06377192268669604,-0.19429734349250793,-0.009709963575005531,-0.06086284667253494
1772376677778981000,6.142981201171875,0.23707479019956662,-0.28444574104771014,-0.0390782109349966,-0.19682654738426208,-0.02330034039914608,-0.07684048265218735
1772376677788930300,6.152930419921875,0.24270443011699244,-0.3608510814666748,-0.030045009651780127,-0.2048783153295517,-0.027507051825523376,-0.09385150671005249
1772376677798880300,6.16288037109375,0.22317036615079267,-0.3993380485102534,-0.05934943006932735,-0.21047654747962952,-0.03872881457209587,-0.11001290380954742
1772376677808829200,6.1728291015625,0.2196191947415471,-0.41176805262491106,-0.11250994237065315,-0.22151270508766174,-0.04642767831683159,-0.12161611765623093
1772376677818778400,6.1827783203125,0.24952302409065885,-0.4259940002456307,-0.1949824738740921,-0.21452829241752625,-0.04094875976443291,-0.12828253209590912
1772376677828727300,6.192727294921875,0.27880114102317016,-0.40840778241157527,-0.2781798125207424,-0.1973942518234253,-0.028276998549699783,-0.1281568557024002
1772376677838676200,6.20267626953125,0.281939987038169,-0.40902182265669107,-0.3254150264263153,-0.1756972223520279,-0.01604057103395462,-0.11909543722867966
1772376677848625200,6.212625244140625,0.3443465213894844,-0.4061446597851813,-0.31246903561353684,-0.15152481198310852,-0.008783165365457535,-0.1095348671078682
1772376677858574000,6.222573974609375,0.38859139437265694,-0.4400213565543294,-0.24030220954716205,-0.12540480494499207,-0.014498574659228325,-0.09121604263782501
1772376677868523300,6.232523193359375,0.4392182234779,-0.4960734986439347,-0.1428507200986147,-0.10081301629543304,-0.032460954040288925,-0.07505332678556442
1772376677878472400,6.242472412109375,0.4114070372927934,-0.5362754529118537,-0.05120002588331699,-0.08932121098041534,-0.08126284927129745,-0.06400121003389359
1772376677888421400,6.25242138671875,0.3344283539652824,-0.5847510222673415,-0.03993512002527713,-0.07370233535766602,-0.13739602267742157,-0.06259762495756149
1772376677898370300,6.262370361328125,0.2614416080844588,-0.6353736866541206,-0.11031330910921096,-0.06360602378845215,-0.18569698929786682,-0.07029788941144943
1772376677908318700,6.272318603515625,0.19896498590530826,-0.6963399042703211,-0.2655143922150135,-0.050593018531799316,-0.22365888953208923,-0.08675117045640945
1772376677918269000,6.28226904296875,0.11580520279007032,-0.6823166396148502,-0.4615776470631361,-0.02617848850786686,-0.24227198958396912,-0.09851542115211487
1772376677928217900,6.2922177734375,0.034790267950110136,-0.6288425313197076,-0.6588567074418068,-0.004843141883611679,-0.24328234791755676,-0.11187968403100967
1772376677938166800,6.302166748046875,0.00045877661816775796,-0.5670183816999197,-0.8123755365490913,0.031113794073462486,-0.22767169773578644,-0.11662384122610092
1772376677948115700,6.31211572265625,-0.0018968465972691773,-0.5192857396662235,-0.9751268889039755,0.08088962733745575,-0.19635982811450958,-0.1045350432395935
1772376677958065000,6.32206494140625,0.03262680630590766,-0.5362330750748515,-1.005780970364809,0.14013858139514923,-0.16668742895126343,-0.09263364225625992
1772376677968013800,6.332013916015625,0.029248744707554578,-0.5227823496103287,-0.9066057258635759,0.20960849523544312,-0.1548081785440445,-0.07217657566070557
1772376677977962800,6.341962646484375,0.012391206474229692,-0.5479417791776359,-0.7040694756090641,0.26576629281044006,-0.16229671239852905,-0.060499947518110275
1772376677987912000,6.351911865234375,0.01862947980929166,-0.6519520426198839,-0.4003746980816126,0.3028276264667511,-0.20991486310958862,-0.0632271096110344
1772376677997860900,6.36186083984375,-0.012865874781273304,-0.737711486839503,-0.07436872002482414,0.30852463841438293,-0.28724241256713867,-0.0745048001408577
1772376678007809800,6.371809814453125,-0.13655845155399293,-0.7689296319238841,0.07546937474310397,0.2948570251464844,-0.3405296206474304,-0.1037399172782898
1772376678017758700,6.3817587890625,-0.281693227469176,-0.7724404165238141,0.1526093130469322,0.2599315345287323,-0.3473252058029175,-0.1482168436050415
1772376678027708000,6.3917080078125,-0.3433068396108225,-0.803028739272058,0.24126199449002741,0.19844475388526917,-0.333618700504303,-0.19116882979869843
1772376678037657900,6.401657958984375,-0.35469588330518453,-0.8356663957655429,0.35914720015823837,0.10525325685739517,-0.343927800655365,-0.25014203786849976
1772376678047607000,6.41160693359375,-0.36400695168171077,-0.8377981470972299,0.4680687626481056,-0.01720661111176014,-0.4129708409309387,-0.32041770219802856
1772376678057556000,6.421555908203125,-0.4758708512337878,-0.7429128548748791,0.4051122479975223,-0.13163411617279053,-0.4692184031009674,-0.40888339281082153
1772376678067505000,6.4315048828125,-0.7090970945127308,-0.5811351698577404,0.04250175564289093,-0.23032109439373016,-0.4795061945915222,-0.4976671636104584
1772376678077453800,6.441453857421875,-0.8492682932037859,-0.4394248519659042,-0.45902562449276446,-0.2970450222492218,-0.41732192039489746,-0.5816107988357544
1772376678087402800,6.45140283203125,-0.789774851553887,-0.33210561010614037,-0.9092787444651126,-0.34363892674446106,-0.3053346276283264,-0.6474032998085022
1772376678097351700,6.4613515625,-0.5788002241041511,-0.2540954648390412,-1.2382529246777296,-0.34537506103515625,-0.183162122964859,-0.6888346076011658
1772376678107300900,6.47130078125,-0.23429120562933384,-0.13331672968640923,-1.4367770166814327,-0.30602535605430603,-0.1040148213505745,-0.724275529384613
1772376678117249800,6.481249755859375,0.15794249076843261,-0.013468114990741013,-1.4918524226933716,-0.23722127079963684,-0.10371334850788116,-0.601521372795105
1772376678127199000,6.491198974609375,0.4677008791837841,0.12871946502402423,-1.4742594828575848,-0.16381898522377014,-0.14640916883945465,-0.6927279233932495
1772376678137148000,6.50114794921875,0.6094772480491548,0.2661173265442252,-1.5154250214606522,-0.07979092001914978,-0.19139155745506287,-0.5144548416137695
1772376678147096800,6.511096923828125,0.6102148416087031,0.3825713303655386,-1.6036615233182907,-0.011395648121833801,-0.1941508799791336,-0.5758520364761353
1772376678157046800,6.521046875,0.47206148554608224,0.47750075399056074,-1.6488286987781524,0.06570259481668472,-0.1576668918132782,-0.4109078347682953
1772376678166995700,6.53099560546875,0.2688436097029596,0.5378074847847223,-1.673745697891712,0.14493685960769653,-0.03651932626962662,-0.4779324233531952
1772376678176944600,6.540944580078125,0.14126600819043814,0.5990012275464832,-1.567800520864129,0.24626374244689941,0.08742232620716095,-0.32093721628189087
1772376678186893800,6.550893798828125,0.17789879873469472,0.6030092941440641,-1.1880138527810573,0.34241950511932373,0.2114628106355667,-0.3719246983528137
1772376678196843000,6.560843017578125,0.23676409854888913,0.5509202104665338,-0.6183481714427471,0.426801472902298,0.26955488324165344,-0.22891078889369965
1772376678206792000,6.5707919921875,0.2813495285980403,0.482257885389775,-0.026212299621105193,0.49271446466445923,0.30897578597068787,-0.26635822653770447
1772376678216740900,6.580740966796875,0.21711141317170113,0.4480279912687838,0.5543330876499414,0.5287802815437317,0.27985331416130066,-0.15759843587875366
1772376678226689800,6.590689697265625,0.05247242043931037,0.3988176778979599,1.0852987437158823,0.5130994915962219,0.23525133728981018,-0.2368917614221573
1772376678236638700,6.600638671875,-0.1410205455293879,0.3188014535054564,1.5058254184663296,0.45157676935195923,0.15208029747009277,-0.21254247426986694
1772376678246587600,6.610587646484375,-0.25208872812651095,0.28048867398500443,1.7345932575643062,0.3499467074871063,0.07936765253543854,-0.33580201864242554
1772376678256536800,6.620536865234375,-0.29144422163292766,0.284871272983402,1.7723603859007357,0.2393680065870285,-0.010265820659697056,-0.3656634986400604
1772376678266486000,6.630486083984375,-0.27255247415825723,0.3918884631566703,1.625479387372732,0.12687736749649048,-0.04276840761303902,-0.47776830196380615
1772376678276436000,6.64043603515625,-0.16066990643832832,0.5783924470208585,1.2583499562889338,0.03765374422073364,-0.05956576392054558,-0.4695524275302887
1772376678286385000,6.650385009765625,-0.0329328400477767,0.7877450992919505,0.8127461234271526,-0.0230451300740242,-0.01678363047540188,-0.47518280148506165
1772376678296333800,6.660333740234375,0.0676567647634074,0.9572663841731845,0.4659025245249271,-0.06251504272222519,-0.0015799105167388916,-0.4074210524559021
1772376678306282800,6.67028271484375,0.09567680792622267,1.030372244655341,0.18537234948575496,-0.0749545469880104,0.04800936579704285,-0.3602207899093628
1772376678316231700,6.680231689453125,0.054926864386722445,1.0792198621936142,-0.08454056994915007,-0.062132228165864944,0.0740598812699318,-0.2903333008289337
1772376678326180900,6.690180908203125,0.044540641059353944,1.0290063631296158,-0.3194108175754547,-0.017718883231282234,0.14325524866580963,-0.23457099497318268
1772376678336129800,6.7001298828125,0.031394926423393185,0.9487813182920217,-0.4337579122453928,0.05656147375702858,0.18964779376983643,-0.19842444360256195
1772376678346079000,6.710078857421875,0.021861995457112787,0.849441238617897,-0.3835153332173824,0.13742169737815857,0.2606288194656372,-0.14722365140914917
1772376678356028000,6.72002783203125,0.034403716317936775,0.752004800608009,-0.14714344885647296,0.21334388852119446,0.285640686750412,-0.14582230150699615
1772376678365976800,6.729976806640625,0.06241389567386359,0.6772735308811069,0.26599545373022554,0.25241127610206604,0.30354630947113037,-0.08573153614997864
1772376678375925800,6.73992578125,0.07955560287712142,0.6199345638513565,0.7153951717436313,0.2554430365562439,0.26898112893104553,-0.10599499195814133
1772376678385874700,6.749874755859375,0.08140238152127713,0.574959111571312,1.0488608181566,0.2311328798532486,0.24313682317733765,-0.029839057475328445
1772376678395825000,6.759824951171875,0.06611596506219357,0.474468692818284,1.2909282838106155,0.18253524601459503,0.1987762749195099,-0.06712011992931366
1772376678405773800,6.76977392578125,0.04318000196432695,0.3453374321229756,1.4066922595411537,0.13582740724086761,0.1864739954471588,0.01138756051659584
1772376678415722800,6.77972265625,-0.04642291114199906,0.24483941458538172,1.4055483502030373,0.08363211899995804,0.15104995667934418,-0.0622272714972496
1772376678425672000,6.789671875,-0.15336234163763002,0.16970745510309934,1.3510282399863003,0.040817372500896454,0.14912696182727814,0.007714705541729927
1772376678435620900,6.799620849609375,-0.23407580931298433,0.09425546988621354,1.255384092220664,0.0070977583527565,0.12302345782518387,-0.09106673300266266
1772376678445569800,6.80956982421875,-0.31472211176995185,0.07277779757156967,1.1747726784139871,-0.029874179512262344,0.11900276690721512,-0.013100208714604378
1772376678455518700,6.819518798828125,-0.4039946786770597,0.05363908959850668,1.102429326736927,-0.06956593692302704,0.08406662940979004,-0.12632609903812408
1772376678465468000,6.829468017578125,-0.4975026911968365,0.019025310726463792,0.9714508307397365,-0.1086566224694252,0.07279358804225922,-0.03872052580118179
1772376678475416800,6.839416748046875,-0.5627054504042491,-0.016016045907884836,0.8222668159663676,-0.15273113548755646,0.03380970656871796,-0.18194825947284698
1772376678485365800,6.84936572265625,-0.6009601430619135,-0.039660833128541705,0.6044628539532423,-0.18644149601459503,0.03118876926600933,-0.11701337993144989
1772376678495315000,6.85931494140625,-0.580733384123817,-0.03177519444525242,0.35091420934200285,-0.21057958900928497,0.04075857251882553,-0.197252556681633
1772376678505263900,6.869263916015625,-0.5323518131947145,0.0005607026226818561,0.10181786796450615,-0.2222827672958374,0.06897188723087311,-0.2123233824968338
1772376678515212800,6.879212890625,-0.4000508729547262,0.05177358798757195,-0.09284662600159645,-0.2176741659641266,0.10346142202615738,-0.2110501229763031
1772376678525163000,6.8891630859375,-0.2882737383706495,0.11553630445450544,-0.2646259189426899,-0.20109166204929352,0.15362690389156342,-0.19068732857704163
1772376678535112000,6.89911181640625,-0.21100761640388518,0.15104863960146903,-0.38197979421317574,-0.1613708734512329,0.19454477727413177,-0.14706821739673615
1772376678545060900,6.909060791015625,-0.1353840557460673,0.1673585538893938,-0.4132259963482618,-0.1147368773818016,0.22783371806144714,-0.0870879739522934
1772376678555009800,6.919009765625,-0.08185487452913075,0.09805851543098687,-0.32536066589057444,-0.05731566250324249,0.2530679404735565,-0.036226123571395874
1772376678564958700,6.928958740234375,-0.10706764171887188,0.01641571274995804,-0.14211422251760958,-0.008765535429120064,0.255476176738739,0.008656489662826061
1772376678574908000,6.938907958984375,-0.1919382290736772,-0.12708499568998813,0.08894318882226944,0.030883073806762695,0.2406141459941864,0.031634245067834854
1772376678584856800,6.94885693359375,-0.31089163022898136,-0.25843247113004325,0.3905570684224367,0.04453267157077789,0.21979708969593048,0.0371149405837059
1772376678594806000,6.958805908203125,-0.42226445832848547,-0.40478345443457364,0.6203191792547702,0.02923840656876564,0.20258614420890808,0.03325894847512245
1772376678604755000,6.9687548828125,-0.5286916832519695,-0.5173237919434904,0.7658715595275163,-0.003190032672137022,0.202748641371727,0.017520198598504066
1772376678614703900,6.978703857421875,-0.5901894869942218,-0.5976520048946142,0.8069277925372124,-0.03592374548316002,0.21500717103481293,0.005037429742515087
1772376678624652800,6.98865283203125,-0.6175538792598992,-0.6721548726931214,0.7788076134681701,-0.06124960631132126,0.23518621921539307,-0.007746276445686817
1772376678634601700,6.998601806640625,-0.5782138390509411,-0.7467661693021654,0.7443091315388679,-0.07333774864673615,0.24870043992996216,-0.019622553139925003
1772376678644551700,7.0085517578125,-0.5937342469289899,-0.7892585725948215,0.7224836686998606,-0.07502197474241257,0.25346049666404724,-0.03394290432333946
1772376678654500600,7.01850048828125,-0.5450106210965663,-0.8077503609664738,0.7392150232702493,-0.07588031142950058,0.2423660308122635,-0.041663676500320435
1772376678664450000,7.028449951171875,-0.4912731126248836,-0.844523071438074,0.7246236033380031,-0.07582677900791168,0.20913398265838623,-0.04388812929391861
1772376678674399000,7.03839892578125,-0.4470747091319412,-0.8938489740125835,0.724375766056776,-0.07013880461454391,0.18243364989757538,-0.04617871344089508
1772376678684348000,7.048347900390625,-0.4295204938713461,-0.9395479182615876,0.690811350107193,-0.06592706590890884,0.16584192216396332,-0.04823537915945053
1772376678694296800,7.058296875,-0.43382520532794294,-0.9615975452452897,0.6666571520596742,-0.07095005363225937,0.1629665046930313,-0.05689331516623497
1772376678704245800,7.068245849609375,-0.4659302893146872,-0.9972592257350683,0.6640729807853698,-0.08220432698726654,0.1592833399772644,-0.06419454514980316
1772376678714194700,7.078194580078125,-0.44958051794040943,-1.063949520086497,0.6149070910781621,-0.10941091924905777,0.16039760410785675,-0.07799451798200607
1772376678724143600,7.0881435546875,-0.4241040583131835,-1.0956842363908885,0.5330599979966879,-0.12155500799417496,0.16368362307548523,-0.0899161547422409
1772376678734093000,7.098093017578125,-0.42783856866639103,-1.0931604170016944,0.39852877795398234,-0.12827202677726746,0.16470840573310852,-0.11184142529964447
1772376678744042000,7.1080419921875,-0.40238074067439883,-1.0639277466461061,0.26615678177177904,-0.1297156661748886,0.1678735464811325,-0.13205838203430176
1772376678753991000,7.117990966796875,-0.3596638444434851,-1.0329932408086955,0.11853051783442496,-0.12379013746976852,0.1658727079629898,-0.14424899220466614
1772376678763939800,7.12793994140625,-0.2590568135734647,-1.0121455369606613,-0.03971358622908592,-0.1074090227484703,0.16112545132637024,-0.15490740537643433
1772376678773889800,7.137889892578125,-0.16482461496498435,-0.928683409897983,-0.20817864005565642,-0.09004814177751541,0.15631365776062012,-0.15321709215641022
1772376678783838700,7.147838623046875,-0.06456314612962305,-0.8359120410896838,-0.3977718221068382,-0.06279859691858292,0.159242644906044,-0.13686209917068481
1772376678793788000,7.157787841796875,0.042670901664718985,-0.7694127392657101,-0.5722685573130846,-0.021474596112966537,0.16935333609580994,-0.1122017577290535
1772376678803736800,7.16773681640625,0.08658405847549439,-0.7040507709085941,-0.709026805755496,0.024917569011449814,0.20595815777778625,-0.07673874497413635
1772376678813686000,7.17768603515625,0.11994663171004503,-0.6677250735521316,-0.7993892137259244,0.06850845366716385,0.24727043509483337,-0.036024607717990875
1772376678823635000,7.187635009765625,0.1705570211371407,-0.638025077945739,-0.8340215511679648,0.11158926784992218,0.298723965883255,0.011802038177847862
1772376678833583900,7.197583984375,0.18347806017175317,-0.646405514408648,-0.7825707653939723,0.15854372084140778,0.3402109444141388,0.057726651430130005
1772376678843532800,7.20753271484375,0.1807828297384083,-0.6568240325704217,-0.674837535905838,0.19404198229312897,0.36163249611854553,0.09164804220199585
1772376678853481700,7.217481689453125,0.15137743316441774,-0.6941529156200588,-0.5377344195485114,0.21551664173603058,0.3842424750328064,0.11466947197914124
1772376678863430700,7.2274306640625,0.12088088035285473,-0.7839233490467071,-0.4371504772931337,0.22776232659816742,0.4373311400413513,0.12382897734642029
1772376678873379800,7.2373798828125,0.20442893213331698,-0.8726295142427086,-0.36326223426163196,0.22461046278476715,0.48769712448120117,0.13524700701236725
1772376678883329000,7.2473291015625,0.3780137401264161,-0.9540725565679371,-0.24379238975048065,0.20583297312259674,0.5301564335823059,0.13808850944042206
1772376678893278000,7.25727783203125,0.5458105393026024,-0.9845366684146225,-0.08346388062834739,0.16456489264965057,0.5643186569213867,0.14508384466171265
1772376678903228000,7.267227783203125,0.620702406418696,-0.9321237596102059,0.10691431432068348,0.08821101486682892,0.5225327610969543,0.14236482977867126
1772376678913176800,7.2771767578125,0.5588958655208349,-0.8025938549861311,0.16820143445432184,-0.007531759329140186,0.4353126883506775,0.13636207580566406
1772376678923125800,7.287125732421875,0.3383248499471694,-0.6636736062042414,-0.0027677111476659775,-0.11341037601232529,0.32406488060951233,0.10508955270051956
1772376678933074700,7.29707470703125,0.08807334718517959,-0.573847350937128,-0.38912089813947676,-0.21053852140903473,0.22146180272102356,0.0545390248298645
1772376678943023600,7.307023681640625,-0.08041077666804194,-0.4627335390999913,-0.9066197543889284,-0.2799409329891205,0.14149194955825806,-0.0028609733562916517
1772376678952972500,7.31697265625,-0.13387407130822537,-0.3433440663486719,-1.5569564707666634,-0.28588271141052246,0.11937014013528824,-0.04853152111172676
1772376678962922000,7.326921875,-0.0630810178130865,-0.25033406647890805,-2.244896064829826,-0.20574578642845154,0.18667170405387878,-0.07812093198299408
1772376678972871000,7.336870849609375,0.14304295473508535,-0.16380802180096507,-2.7136767751395703,-0.06551890075206757,0.30626121163368225,-0.07471928000450134
1772376678982819800,7.34681982421875,0.4058289448995143,0.028894524442404507,-2.739951034080982,0.07904523611068726,0.4377260208129883,-0.03754935786128044
1772376678992768800,7.356768798828125,0.6161984460629523,0.24616890962347387,-2.3665526057302952,0.1929430365562439,0.5140160322189331,0.03044913522899151
1772376679002717700,7.3667177734375,0.8005825151637196,0.4541445744529366,-1.7784820836514232,0.26872509717941284,0.524231493473053,0.13132718205451965
1772376679012666600,7.37666650390625,0.9643217095121741,0.6324930166512728,-1.150510928338766,0.3135852813720703,0.49716660380363464,0.24999044835567474
1772376679022615600,7.386615478515625,0.9908359146893024,0.7525763168856501,-0.6746469817698001,0.34259670972824097,0.4521523714065552,0.3695236146450043
1772376679032565800,7.396565673828125,0.8766093776591122,0.8153754490174353,-0.36061785723268985,0.37839093804359436,0.4194951057434082,0.46825283765792847
1772376679042514700,7.4065146484375,0.772529409981519,0.7879128570742905,-0.12374971378743647,0.414916455745697,0.3870207667350769,0.5521578788757324
1772376679052463900,7.4164638671875,0.7113301142618059,0.713362058480829,0.09881576353907584,0.4651782810688019,0.34845688939094543,0.6094757318496704
1772376679062412800,7.426412841796875,0.6274471314385534,0.6628747109115123,0.322599384483695,0.5141873359680176,0.3149052858352661,0.6490265130996704
1772376679072361700,7.43636181640625,0.5867382505618035,0.6401166433975101,0.6070744977563619,0.5447041988372803,0.258806049823761,0.6769899725914001
1772376679082310700,7.446310546875,0.6496949113428593,0.6094982177719473,0.9469143553763627,0.5369293093681335,0.16773702204227448,0.699450671672821
1772376679092259600,7.456259521484375,0.6938913420744239,0.5688263079047202,1.2668915746629237,0.49584099650382996,0.040940724313259125,0.7213681936264038
1772376679102208800,7.466208740234375,0.7022187331758439,0.4980696408972144,1.4449737671405076,0.42630448937416077,-0.09392178803682327,0.7420424818992615
1772376679112157700,7.47615771484375,0.6142236388586462,0.4516147637143731,1.5260492913275956,0.3197937607765198,-0.25033217668533325,0.7390232682228088
1772376679122107000,7.48610693359375,0.532114241579175,0.382378438141942,1.418111479178071,0.201316699385643,-0.40701815485954285,0.7150887250900269
1772376679132055800,7.496055908203125,0.35366109689734876,0.2907438182786107,1.1261065549224614,0.08536772429943085,-0.5438166856765747,0.6531894207000732
1772376679142004700,7.506004638671875,0.06451733422651887,0.32160335918366906,0.5722013372957706,-0.0055218227207660675,-0.6493789553642273,0.5640503764152527
1772376679151953700,7.51595361328125,-0.17903686285391449,0.4465256238818168,-0.08813187243938446,-0.06475691497325897,-0.71500563621521,0.46647244691848755
1772376679161903900,7.52590380859375,-0.3522605093844235,0.5834320486232638,-0.7753232784837484,-0.08610913157463074,-0.7273542284965515,0.3740342855453491
1772376679171852800,7.535852783203125,-0.4672113421011716,0.7009875839456915,-1.5155992089837789,-0.05805512145161629,-0.6319568753242493,0.28977322578430176
1772376679181801700,7.5458017578125,-0.4635399601120502,0.8693658362716435,-2.114668679460883,0.022532714530825615,-0.4498394727706909,0.22615621984004974
1772376679191750700,7.555750732421875,-0.379551105761528,1.038243270291388,-2.4481121140420434,0.1417672336101532,-0.21017281711101532,0.1908632218837738
1772376679201699800,7.565699951171875,-0.14613266437873243,1.2551517447695135,-2.3616899681299923,0.2713744640350342,0.05305373668670654,0.19336827099323273
1772376679211648800,7.575648681640625,0.20579503285475073,1.4527338797479867,-1.7567057206511496,0.36798009276390076,0.2620737850666046,0.24910877645015717
1772376679221597700,7.58559765625,0.5082064195081591,1.5728388072922825,-0.7683645453870296,0.40323904156684875,0.36752912402153015,0.3278232216835022
