time,seconds_elapsed,accel_x,accel_y,accel_z,gyro_x,gyro_y,gyro_z
1772376459427142000,0.074141845703125,-0.008045158360246569,0.25995149739086626,0.24402210685312747,0.13181506097316742,-0.5210967659950256,-1.7078877687454224
1772376459437090800,0.0840908203125,0.07384805715158581,0.3537336506769061,0.028883564656972883,0.14621104300022125,-0.4408559799194336,-1.6958338022232056
1772376459447041000,0.094041015625,0.23387487991340458,0.45831893752813335,-0.09682079032957554,0.19732248783111572,-0.4063675105571747,-1.6608550548553467
1772376459456990000,0.103989990234375,0.396764617825672,0.5183934670016169,-0.1780640722990036,0.26477211713790894,-0.39392468333244324,-1.608070731163025
1772376459466940000,0.11393994140625,0.5370155306894332,0.5658259570449591,-0.10980302149951457,0.32450392842292786,-0.418399840593338,-1.551466464996338
1772376459476888800,0.123888916015625,0.6658325378037989,0.5622299783796072,0.09241407980322837,0.35907813906669617,-0.45472216606140137,-1.4999136924743652
1772376459486838800,0.1338388671875,0.7292976595636457,0.5161635159924626,0.28009529075324535,0.3582032322883606,-0.4641554057598114,-1.4524669647216797
1772376459496788000,0.1437880859375,0.7852601506084204,0.4485048150002956,0.4623340183883905,0.32398614287376404,-0.4611348509788513,-1.4201971292495728
1772376459506738000,0.153738037109375,0.7912003543123602,0.37839725955128667,0.6640934390515089,0.2562064528465271,-0.4674430191516876,-1.4075615406036377
1772376459516686800,0.163686767578125,0.7471788417562842,0.31450317178964615,0.7505722835868597,0.18576209247112274,-0.4483393728733063,-1.4071171283721924
1772376459526636800,0.17363671875,0.6649475716628134,0.27060966952741144,0.686398794361949,0.10759712755680084,-0.41359180212020874,-1.408165454864502
1772376459536585700,0.183585693359375,0.6282540639072657,0.29648703810572624,0.5348831217706204,0.0446716845035553,-0.38569334149360657,-1.4044671058654785
1772376459546535000,0.193534912109375,0.6729599054656923,0.317384864705801,0.3452513612747192,0.004378729499876499,-0.34931960701942444,-1.389128565788269
1772376459556484900,0.20348486328125,0.8369395575065165,0.34575317331701516,0.09459376192986965,0.00045296410098671913,-0.30790454149246216,-1.3499388694763184
1772376459566433800,0.213433837890625,1.0309298054728657,0.40833062552213667,-0.18324761241674423,0.027677105739712715,-0.2622357904911041,-1.29218327999115
1772376459576383700,0.2233837890625,1.2148175424240528,0.4453048499152064,-0.3955418710976839,0.06417306512594223,-0.22756223380565643,-1.2135236263275146
1772376459586333000,0.2333330078125,1.3677642707318067,0.48263884753137826,-0.4459393484264612,0.11134219914674759,-0.20537933707237244,-1.1205908060073853
1772376459596283000,0.243282958984375,1.4576749894119798,0.48804187561869616,-0.41265374941825866,0.1438407599925995,-0.2028685063123703,-1.0209131240844727
1772376459606231800,0.253231689453125,1.4320565640307963,0.4369175453200936,-0.32993864133059975,0.17810119688510895,-0.2063385248184204,-0.9335295557975769
1772376459616181800,0.263181640625,1.3844487174205482,0.3274924172222614,-0.23792554354369638,0.2121017724275589,-0.20538005232810974,-0.8574281334877014
1772376459626131000,0.273130859375,1.3164812427401542,0.16293050831407307,-0.18569675913453101,0.24320752918720245,-0.1945001482963562,-0.798675000667572
1772376459636080000,0.283080078125,1.1351280657678842,0.05518500386625528,-0.11563888804614543,0.2547914683818817,-0.19478857517242432,-0.7599833011627197
1772376459646029800,0.29302978515625,0.9438267646245658,-0.05396335311681032,0.015329086557030677,0.2495991587638855,-0.1773790866136551,-0.734959065914154
1772376459655979000,0.30297900390625,0.786918366144225,-0.14009206904023885,0.16410276696383952,0.23227769136428833,-0.15351688861846924,-0.713586151599884
1772376459665929000,0.312928955078125,0.6925919499136507,-0.2037181535154581,0.25658114417493344,0.20352187752723694,-0.11725232005119324,-0.7064293026924133
1772376459675878000,0.3228779296875,0.6597522680420428,-0.2530360189139843,0.32583529766499997,0.181625634431839,-0.07668358832597733,-0.6941875219345093
1772376459685828400,0.332828369140625,0.6609489304807037,-0.2363628242716193,0.3402075218886137,0.1622995287179947,-0.042298976331949234,-0.668222188949585
1772376459695777500,0.342777587890625,0.7223867111314087,-0.22336276518404483,0.3441536291658878,0.16287796199321747,-0.019520960748195648,-0.6362423896789551
1772376459705727200,0.352727294921875,0.8516529233179986,-0.22472440892606974,0.3158808898836374,0.17290347814559937,0.0015918677672743797,-0.5946435332298279
1772376459715676400,0.362676513671875,0.9256677153386175,-0.19333207631856203,0.32407764034271236,0.1948700249195099,0.006251334212720394,-0.5470789670944214
1772376459725626000,0.372626220703125,0.9413581825539469,-0.16321107882112262,0.3989835359841585,0.19467738270759583,-0.01473131775856018,-0.49358540773391724
1772376459735575600,0.382575439453125,0.9263677533667534,-0.19068331537544725,0.505539538386464,0.18175892531871796,-0.035523150116205215,-0.4539248049259186
1772376459745524500,0.3925244140625,0.8738882821321486,-0.26184710187911986,0.5873433768481016,0.1593782901763916,-0.039535120129585266,-0.4287738800048828
1772376459755474400,0.402474365234375,0.771641155904904,-0.266483237247169,0.5765940192967653,0.1288166493177414,-0.032232195138931274,-0.41128143668174744
1772376459765423400,0.41242333984375,0.7094016304172575,-0.27391163368225097,0.5076660290211439,0.10484166443347931,0.002185211516916752,-0.39542528986930847
1772376459775373600,0.42237353515625,0.6844406460314989,-0.2546349785432219,0.4068073614776134,0.08522242307662964,0.04837933927774429,-0.37503480911254883
1772376459785322500,0.432322509765625,0.7131065493497997,-0.23939912322759627,0.3210486479103565,0.07335128635168076,0.10024802386760712,-0.345131516456604
1772376459795272400,0.4422724609375,0.7743775951314718,-0.23604396758079527,0.2728220848798752,0.0643836259841919,0.1268753707408905,-0.30240747332572937
1772376459805221400,0.452221435546875,0.8759498177718371,-0.18499591738879678,0.2480734280705452,0.059000104665756226,0.12453554570674896,-0.25070035457611084
1772376459815171300,0.46217138671875,0.9481431665189564,-0.16597119118422268,0.3132891198247671,0.05066148191690445,0.0984077975153923,-0.20505140721797943
1772376459825120500,0.47212060546875,0.9292050956845282,-0.17304712091982363,0.30768063229322434,0.04563702270388603,0.06785869598388672,-0.16311177611351013
1772376459835069400,0.4820693359375,0.8521899528041481,-0.13756518091112374,0.2038216138899326,0.040121614933013916,0.054771922528743744,-0.13063666224479675
1772376459845019400,0.492019287109375,0.7851123396355658,-0.13911504070162772,0.08726561099886894,0.03389289602637291,0.06549376249313354,-0.10107444226741791
1772376459854968300,0.50196826171875,0.7489197671394795,-0.15741700558960436,-0.040920623931288716,0.034161075949668884,0.09740322828292847,-0.07473098486661911
1772376459864918300,0.511918212890625,0.7754383562307804,-0.13836129972487687,-0.15208908856511116,0.04304647445678711,0.13826529681682587,-0.03606207296252251
1772376459874867500,0.521867431640625,0.8230131773542613,-0.13797376171201467,-0.2374807223856449,0.0634462907910347,0.1702117770910263,0.01758890599012375
1772376459884817400,0.5318173828125,0.8817893375802784,-0.11566957544535397,-0.27059622552394863,0.0920047014951706,0.1805909126996994,0.06882945448160172
1772376459894766300,0.541766357421875,0.8992959143068641,-0.11641600989848375,-0.25153204409182073,0.13330073654651642,0.18305060267448425,0.11460546404123306
1772376459904716300,0.55171630859375,0.8905688563633709,-0.14443769702911377,-0.1877268036574125,0.17373234033584595,0.18093039095401764,0.15798988938331604
1772376459914665200,0.561665283203125,0.8258700280901045,-0.1565644804134965,-0.09567512742578983,0.20378771424293518,0.1835152506828308,0.19519557058811188
1772376459924615400,0.571615478515625,0.7566269074507057,-0.131111766988039,-0.00658873074054718,0.23287063837051392,0.19545818865299225,0.23018482327461243
1772376459934564400,0.581564453125,0.7424466256026179,-0.14095394656658172,0.08454758421182632,0.2509351074695587,0.2015371173620224,0.2641715407371521
1772376459944513300,0.59151318359375,0.7789509674616157,-0.15705138714760541,0.22515607834160326,0.2759321331977844,0.211142897605896,0.3095158338546753
1772376459954463200,0.601463134765625,0.8410882746838033,-0.16746610591709613,0.2795616222679615,0.29718440771102905,0.1901577264070511,0.3527807593345642
1772376459964412400,0.611412353515625,0.9083683516219258,-0.1595516795307398,0.4019458929210901,0.32240256667137146,0.15953132510185242,0.37794530391693115
1772376459974362400,0.6213623046875,0.9554003711055964,-0.19829758977144957,0.4689665882706642,0.36825820803642273,0.14493054151535034,0.41769805550575256
1772376459984311300,0.631311279296875,0.9813368494600057,-0.20798224070072172,0.4338876761049032,0.404790997505188,0.13555273413658142,0.44669899344444275
1772376459994261200,0.64126123046875,0.9827932588133961,-0.21699527597874402,0.5480272655040025,0.41558587551116943,0.09079299867153168,0.4737257957458496
1772376460004210200,0.651210205078125,0.9980304293032735,-0.26044834099709985,0.6992062534868717,0.3982129693031311,0.046878065913915634,0.4887426495552063
1772376460014160400,0.661160400390625,0.9746350867990404,-0.3143552877515554,0.840530202409625,0.35853853821754456,0.013412252068519592,0.49574756622314453
1772376460024109300,0.671109375,0.8785657724238931,-0.362715706294775,0.8683400003552436,0.2947387099266052,-0.02808055654168129,0.47941797971725464
1772376460034059300,0.681059326171875,0.7600956795398145,-0.4552902373567223,0.8542951083898543,0.204573392868042,-0.05929892882704735,0.4411051869392395
1772376460044008200,0.69100830078125,0.605321224348247,-0.5180345705613494,0.7564438059687614,0.11427028477191925,-0.10657570511102676,0.37853455543518066
1772376460053957000,0.70095703125,0.4291222883339971,-0.5750073346272111,0.5871826333284378,0.017043067142367363,-0.16356895864009857,0.3050217032432556
1772376460063907300,0.7109072265625,0.3366160002026707,-0.6741214965909719,0.31644436898529527,-0.058017950505018234,-0.19045960903167725,0.21605204045772552
1772376460073856300,0.720856201171875,0.2726548385541886,-0.6889084390953183,-0.1276660104483366,-0.10729016363620758,-0.16816629469394684,0.13693271577358246
1772376460083806200,0.73080615234375,0.20695099795684216,-0.6188847625374794,-0.616252075946331,-0.10840737074613571,-0.09468086063861847,0.07591734826564789
1772376460093755100,0.740755126953125,0.2608886321105063,-0.477383703482151,-1.0148124180823563,-0.09089921414852142,0.00913261715322733,0.04500656947493553
1772376460103705300,0.750705322265625,0.4052618856012821,-0.3674330902054906,-1.2307552623987197,-0.06084773689508438,0.15133465826511383,0.04394536837935448
1772376460113654300,0.760654296875,0.5817991136591881,-0.2622735105976462,-1.2160142048627138,-0.02052987553179264,0.27350690960884094,0.06758998334407806
1772376460123604200,0.770604248046875,0.7712687423959373,-0.1514616043165326,-0.9971838224112987,0.012118348851799965,0.34981632232666016,0.11259660869836807
1772376460133553200,0.78055322265625,0.9022169893853366,-0.07340893508195877,-0.593273351418972,0.04603104293346405,0.3675212860107422,0.17001327872276306
1772376460143502300,0.79050244140625,1.0127348811559378,-0.07239800447374582,-0.11022329273819922,0.07562609761953354,0.3388965129852295,0.2235274463891983
1772376460153452300,0.800452392578125,0.9972268578354269,-0.1220756430953741,0.32247429679930206,0.10800880193710327,0.2949431538581848,0.26720941066741943
1772376460163401500,0.8104013671875,0.9000677754621952,-0.19983400555849073,0.6218804372221232,0.1469092220067978,0.23681822419166565,0.29438161849975586
1772376460173351200,0.82035107421875,0.7477847717601805,-0.26238866140991446,0.8276210364758968,0.18483556807041168,0.21338561177253723,0.30800503492355347
1772376460183300400,0.83030029296875,0.6939907107956708,-0.3146002024233341,0.9662801501035689,0.2058817595243454,0.1829701066017151,0.3098188042640686
1772376460193250300,0.840250244140625,0.5793731286212802,-0.372229092310369,1.2031605685085058,0.2000771313905716,0.14679771661758423,0.3061761260032654
1772376460203199500,0.850199462890625,0.4814490532249212,-0.42664486536979673,1.4548095169782638,0.16179026663303375,0.11249697208404541,0.29524722695350647
1772376460213149200,0.860149169921875,0.3401413978498429,-0.46366672829687594,1.5770973415195941,0.10880455374717712,0.09164202213287354,0.2714995741844177
1772376460223098400,0.870098388671875,0.23424853553138672,-0.5342506690859794,1.653465710929036,0.0519355833530426,0.06191721558570862,0.23726023733615875
1772376460233047300,0.88004736328125,0.11939232229553162,-0.5663222161293029,1.6622727022409438,-0.009013518691062927,0.009654015302658081,0.19808806478977203
1772376460242997500,0.88999755859375,0.03852138076983392,-0.601813216227293,1.5753566353321073,-0.053475894033908844,-0.03015555441379547,0.14668825268745422
1772376460252946400,0.899946533203125,-0.0320073227006942,-0.6562073619768023,1.3914128573447464,-0.07757590711116791,-0.06262614578008652,0.09498192369937897
1772376460262896400,0.909896484375,-0.079529463788867,-0.6434422806888819,1.1611311065524816,-0.09283801913261414,-0.09823177009820938,0.041984863579273224
1772376460272845300,0.91984521484375,-0.12537636514119804,-0.6020300738483667,0.951686392083764,-0.10477963089942932,-0.11360487341880798,-0.005271863657981157
1772376460282795500,0.92979541015625,-0.13155096212290227,-0.5701096257135272,0.7635363945782184,-0.11725807934999466,-0.11021091789007187,-0.04145307466387749
1772376460292744400,0.939744384765625,-0.060449865591898556,-0.5199079632177949,0.629087007600069,-0.13478994369506836,-0.090038001537323,-0.06769266724586487
1772376460302694400,0.9496943359375,-0.00032221769168972966,-0.48247196653187274,0.5566419491142034,-0.15850330889225006,-0.0633704662322998,-0.08881096541881561
1772376460312643300,0.959643310546875,0.05382650192938745,-0.4198904226735234,0.4953823015093803,-0.18170131742954254,-0.029686536639928818,-0.10144367069005966
1772376460322593500,0.969593505859375,0.08157076035812497,-0.3553220889121294,0.4419347889602184,-0.19190014898777008,0.007682911120355129,-0.10443150997161865
1772376460332542500,0.97954248046875,0.18334281641952693,-0.35488194392919536,0.434703084141016,-0.19693192839622498,0.03613372892141342,-0.10045541077852249
1772376460342491400,0.989491455078125,0.24857618996091185,-0.3333183468967676,0.44307285307943817,-0.19183745980262756,0.049209922552108765,-0.09165316075086594
1772376460352441300,0.99944140625,0.3097691290050745,-0.33183219999223945,0.49220776312649245,-0.1802026331424713,0.04266840219497681,-0.08583202213048935
1772376460362390300,1.009390380859375,0.3255133722342551,-0.3453422544285655,0.588284457090497,-0.1724778562784195,0.021601136773824692,-0.08380570262670517
1772376460372340500,1.019340576171875,0.36247985171228647,-0.4004971554175019,0.7013818439602851,-0.1637892872095108,-0.00704621896147728,-0.08597005158662796
1772376460382289400,1.029289306640625,0.41965639472194016,-0.42219869961589573,0.7555500719994306,-0.15820825099945068,-0.024588948115706444,-0.08959735929965973
1772376460392239400,1.0392392578125,0.42666795398443935,-0.43083471827507014,0.8131897755414247,-0.179160937666893,-0.03785015642642975,-0.09540943801403046
1772376460402188300,1.049188232421875,0.47235608457848427,-0.4445096078842878,0.907010215011239,-0.20366273820400238,-0.04647111892700195,-0.09601382911205292
1772376460412138200,1.05913818359375,0.5193992099780589,-0.472282873211801,0.9575298574149608,-0.24420830607414246,-0.057552263140678406,-0.09482206404209137
1772376460422087400,1.06908740234375,0.5566408531356603,-0.4783098784163594,0.9058359105348587,-0.28050246834754944,-0.049494534730911255,-0.09464453905820847
1772376460432036400,1.079036376953125,0.5817416843835264,-0.5182634108811617,0.7773387099593877,-0.3048831820487976,-0.02887607552111149,-0.09840971976518631
1772376460441986300,1.088986328125,0.6156855281047523,-0.4980097274035215,0.601384177160263,-0.3095308840274811,-0.005671191494911909,-0.08831645548343658
1772376460451935200,1.098935302734375,0.6590303104430437,-0.4712219659820199,0.4348667502701282,-0.30206921696662903,-0.019723892211914062,-0.06854753941297531
1772376460461885400,1.108885498046875,0.7314793144516647,-0.4668833522558212,0.2655108850836754,-0.28165343403816223,-0.026896320283412933,-0.03997182473540306
1772376460471834400,1.11883447265625,0.80654989913553,-0.50945437374264,0.11523381437659264,-0.24255448579788208,-0.05750961974263191,-0.007224796339869499
1772376460481784300,1.128784423828125,0.8365217704858631,-0.5239496398240328,0.020941081219911575,-0.1963164210319519,-0.08302619308233261,0.027399718761444092
1772376460491733200,1.138733154296875,0.8263019897665828,-0.5758677508488297,-0.06823825444579124,-0.1525907665491104,-0.09751192480325699,0.05086936056613922
1772376460501683200,1.14868310546875,0.7849621175099164,-0.6583832447111606,-0.07660626981854439,-0.12094801664352417,-0.1321689933538437,0.062004685401916504
1772376460511632400,1.15863232421875,0.7097286704145371,-0.7042308036506175,-0.025837036567926405,-0.10466092079877853,-0.16184459626674652,0.06429633498191833
1772376460521581300,1.168581298828125,0.6621854134730994,-0.7829498278394341,0.01054535941183567,-0.09688349068164825,-0.19689445197582245,0.06233206018805504
1772376460531531300,1.17853125,0.5693227131195366,-0.8296306227326392,0.004531213688850402,-0.09459077566862106,-0.22784650325775146,0.05449996888637543
1772376460541480200,1.188480224609375,0.5229333754535764,-0.858010914042592,-0.08874562042355537,-0.08632370084524155,-0.25112584233283997,0.04880243167281151
1772376460551430100,1.19843017578125,0.48222507909871637,-0.8132011737182736,-0.2311409979701042,-0.06557395309209824,-0.2665649950504303,0.05193590745329857
1772376460561379300,1.20837939453125,0.42382984448168426,-0.8036755127429962,-0.39202655645310874,-0.04972162842750549,-0.2676674723625183,0.056167371571063995
1772376460571329300,1.218329345703125,0.3866489185353741,-0.8076879632547497,-0.5455202511191368,-0.01357161346822977,-0.2686360776424408,0.06410732120275497
1772376460581278200,1.2282783203125,0.313311952711083,-0.8089429317519068,-0.639269963440299,0.022710418328642845,-0.2704770863056183,0.06831762939691544
1772376460591228200,1.238228271484375,0.2692033463934436,-0.8147004723653197,-0.7082248417228459,0.061341702938079834,-0.27601486444473267,0.0628562793135643
1772376460601177300,1.24817724609375,0.1874398399421945,-0.8062865720242262,-0.6871563347309827,0.09226637333631516,-0.2888821065425873,0.055174171924591064
1772376460611127300,1.258127197265625,0.07982234578821808,-0.7836623600229621,-0.5817775594145059,0.10266947746276855,-0.29968520998954773,0.03985407203435898
1772376460621076200,1.268076171875,0.031889797268249094,-0.793106772455573,-0.42250294325947757,0.09559501707553864,-0.31510236859321594,0.020176423713564873
1772376460631025400,1.278025390625,0.029596389101445672,-0.8273121166571974,-0.2866279073923826,0.0690574198961258,-0.34064048528671265,-0.0044431681744754314
1772376460640975400,1.287975341796875,-0.013520904623903334,-0.8366478080183267,-0.16365268510878084,0.03110203891992569,-0.3679085671901703,-0.04031510651111603
1772376460650924500,1.297924560546875,-0.07027078318670392,-0.7878434450998902,-0.1509808350622654,0.0002282797358930111,-0.38441458344459534,-0.08479975163936615
1772376460660874200,1.307874267578125,-0.15444840157497675,-0.7127887886375188,-0.1839198125898838,-0.02662663348019123,-0.3866761326789856,-0.13161854445934296
1772376460670823400,1.317823486328125,-0.19895311280442401,-0.6358826590895652,-0.26678338923752304,-0.05164490267634392,-0.3898889720439911,-0.18205535411834717
1772376460680773400,1.3277734375,-0.18535547141619024,-0.5191936774685979,-0.28619594571590423,-0.08293982595205307,-0.3958185613155365,-0.23347856104373932
1772376460690722300,1.337722412109375,-0.14039355447115376,-0.37006606905758377,-0.24888182184398172,-0.11763522028923035,-0.4042980670928955,-0.2697353959083557
1772376460700672300,1.34767236328125,-0.08385088891824707,-0.1902589524835348,-0.23085341320037842,-0.14276956021785736,-0.404888391494751,-0.29390454292297363
1772376460710621200,1.35762109375,-0.04832719212705269,0.009285714739561081,-0.2643056009471416,-0.15890619158744812,-0.39916977286338806,-0.3042922019958496
1772376460720570000,1.367570068359375,0.01628613155353814,0.15369038628190754,-0.3056429889857769,-0.14700046181678772,-0.34803733229637146,-0.30861958861351013
1772376460730520300,1.377520263671875,0.14277310655144973,0.2474532503455877,-0.33757775790691374,-0.1301642209291458,-0.2882120907306671,-0.28641337156295776
1772376460740469200,1.38746923828125,0.29810514082685113,0.38966479575783014,-0.2753220850020647,-0.10147696733474731,-0.24853584170341492,-0.2536809742450714
1772376460750419200,1.397419189453125,0.5520663117617368,0.3941600613504648,-0.14295534951686859,-0.07665817439556122,-0.22759459912776947,-0.21007679402828217
1772376460760368000,1.4073681640625,0.8343732141498476,0.36362200748473406,0.006460135924816131,-0.040664173662662506,-0.24891607463359833,-0.16276440024375916
1772376460770318300,1.417318359375,0.9881134309228509,0.3450643142700195,0.16174071400761603,-0.0080641508102417,-0.3217546045780182,-0.11818014830350876
1772376460780267300,1.427267333984375,1.0632516740154474,0.3391916228443384,0.2686363236278295,0.02437116578221321,-0.40870845317840576,-0.07786781340837479
1772376460790217200,1.43721728515625,1.0208865503642708,0.33891718981713054,0.20646832900643347,0.05663749575614929,-0.46027204394340515,-0.05356353521347046
1772376460800166100,1.447166259765625,0.7998822579398751,0.3520931899935007,0.027818565773963928,0.07304556667804718,-0.4610651433467865,-0.04789081588387489
1772376460810115000,1.457114990234375,0.5204685197100043,0.3399713750451803,-0.17240999206006527,0.06934402883052826,-0.41764602065086365,-0.06292062997817993
1772376460820065300,1.467065185546875,0.3102869058014825,0.3069979107260704,-0.33410394431650636,0.04967791214585304,-0.34789061546325684,-0.08763471990823746
1772376460830014200,1.47701416015625,0.19823029668889938,0.27715865277945995,-0.42951603689193724,0.020706983283162117,-0.28212040662765503,-0.11539604514837265
1772376460839964200,1.486964111328125,0.12794574983832427,0.28105858282744883,-0.48584991853237147,-0.015734229236841202,-0.19821277260780334,-0.13601182401180267
1772376460849913000,1.4969130859375,0.11739881952391006,0.25200638360530137,-0.5838257241159677,-0.03767814487218857,-0.1101449728012085,-0.1560526341199875
1772376460859863300,1.50686328125,0.10101138302036561,0.2631140530750155,-0.6780044755041599,-0.05008801817893982,-0.039407383650541306,-0.1808135211467743
1772376460869812200,1.516812255859375,0.11318427970195188,0.3229658797085285,-0.7464391293048859,-0.05124036967754364,0.015129360370337963,-0.19478686153888702
1772376460879762200,1.52676220703125,0.20235344103351235,0.3894344941332936,-0.7481330737411975,-0.03872915357351303,0.05594169721007347,-0.1911197304725647
1772376460889711000,1.536711181640625,0.37552455365918574,0.4154445491805672,-0.7043114676713943,-0.03691474348306656,0.08519172668457031,-0.1774747520685196
1772376460899660000,1.546659912109375,0.5549899075908586,0.4362161190524697,-0.582728576529026,-0.030569855123758316,0.10825109481811523,-0.1463853120803833
1772376460909610200,1.5566103515625,0.7177471416972577,0.45619916889518497,-0.4548194049745798,-0.019898833706974983,0.12785249948501587,-0.1008620336651802
1772376460919559200,1.56655908203125,0.8665630538105964,0.43715690703392024,-0.3402899394750595,-0.007840565405786037,0.14165882766246796,-0.05103220045566559
1772376460929509000,1.576509033203125,0.9389001949425786,0.4351704093918204,-0.20678689343631265,0.0030674757435917854,0.14191022515296936,0.0035146637819707394
1772376460939458000,1.5864580078125,0.9033931204926222,0.39631197868734597,-0.09256605549454688,0.019163165241479874,0.1500658392906189,0.04658158868551254
1772376460949408300,1.596408203125,0.8098793358191847,0.2859393406063318,-0.05635024825334549,0.04493004456162453,0.1577349603176117,0.0739559605717659
1772376460959357200,1.606357177734375,0.6808047737471759,0.19663959343135357,-0.0060930561780929565,0.07899128645658493,0.1582971215248108,0.08791469037532806
1772376460969306000,1.61630615234375,0.5224620681473985,0.11093348683416843,0.08223813822567462,0.1171349436044693,0.16947947442531586,0.0889410674571991
1772376460979256000,1.626256103515625,0.4255129021978005,0.029315526333451268,0.19400982944965361,0.14965371787548065,0.19144421815872192,0.08259856700897217
1772376460989205200,1.636205322265625,0.33887203550115225,-0.028085400016605852,0.3264110517263412,0.17057444155216217,0.2178928703069687,0.07270625233650208
1772376460999155200,1.6461552734375,0.25710995382200924,-0.04778729483038187,0.49063832185268397,0.17981262505054474,0.23926444351673126,0.06563106924295425
1772376461009104100,1.656104248046875,0.2366506099707447,-0.0662970572501421,0.7147890225440263,0.17203113436698914,0.2612698972225189,0.05994468554854393
1772376461019054000,1.66605419921875,0.24641517600212245,-0.0876744840607047,0.9345289210557937,0.15283773839473724,0.27599161863327026,0.06266940385103226
1772376461029003300,1.676003173828125,0.20978770095380023,-0.10838087974190712,1.118615322384238,0.12216290086507797,0.2902972996234894,0.055977948009967804
1772376461038953000,1.685952880859375,0.12274653722741641,-0.1345034552529454,1.2712936090141533,0.07771947234869003,0.2772632837295532,0.03748370334506035
1772376461048902400,1.69590234375,0.038233138412982225,-0.19462620778232811,1.4617518834620713,0.025022173300385475,0.2639775574207306,0.00414199149236083
1772376461058851300,1.705851318359375,-0.05243071845574304,-0.2616916190564632,1.5361469069719313,-0.023498279973864555,0.258588045835495,-0.03226581960916519
1772376461068801300,1.71580126953125,-0.11142311524832621,-0.2678387435093522,1.5317396119236946,-0.07404693961143494,0.22624370455741882,-0.07666097581386566
1772376461078750200,1.725750244140625,-0.14628918838100508,-0.26600100668817755,1.5082961924940346,-0.11769334226846695,0.20033961534500122,-0.12581518292427063
1772376461088700200,1.7357001953125,-0.1498507715864107,-0.26266923191696406,1.3985001852571963,-0.15896034240722656,0.19458931684494019,-0.16426324844360352
1772376461098649300,1.7456494140625,-0.12894267932064832,-0.2173009809270501,1.2151081959336996,-0.1987200379371643,0.19359014928340912,-0.19668474793434143
1772376461108599300,1.755599365234375,-0.10242741469759493,-0.12017360886633395,1.067158106869459,-0.24058465659618378,0.2118796706199646,-0.20844367146492004
1772376461118548200,1.76554833984375,-0.01672430377509445,-0.016469781024754045,0.9222165519714355,-0.27648797631263733,0.2312151938676834,-0.19549742341041565
1772376461128498200,1.775498291015625,0.09511267123743891,0.07353431502729654,0.7742880902171134,-0.2893022894859314,0.2413615733385086,-0.1684540957212448
1772376461138447400,1.785447265625,0.19399733529426155,0.18602116878330707,0.6240747323960065,-0.28717100620269775,0.2355857938528061,-0.12841150164604187
1772376461148396300,1.795396240234375,0.2643101675244048,0.227980195851624,0.4766822772145271,-0.2694396674633026,0.2188534140586853,-0.08500755578279495
1772376461158346200,1.80534619140625,0.3463061675572768,0.2292252274766564,0.34353286691904067,-0.22851361334323883,0.2021562159061432,-0.032963722944259644
1772376461168295200,1.815295166015625,0.41416181589365003,0.1959255999431014,0.24414894810318946,-0.18529103696346283,0.18466296792030334,0.017510635778307915
1772376461178245000,1.8252451171875,0.34812739163506773,0.16751637479960918,0.1790828939527273,-0.15042565762996674,0.1761229932308197,0.06748265027999878
1772376461188194300,1.8351943359375,0.26995628365259616,0.1415641874194145,0.1852519379764795,-0.13297636806964874,0.18387944996356964,0.11050521582365036
1772376461198144300,1.845144287109375,0.1376998766740784,0.06288754106760025,0.23768179791569707,-0.11956289410591125,0.1962706297636032,0.14495061337947845
1772376461208093200,1.85509326171875,0.01964358875527978,-0.05713116949796676,0.33439269813001155,-0.12594090402126312,0.21540729701519012,0.16654857993125916
1772376461218043100,1.865043212890625,-0.05704352774713188,-0.21130641668736933,0.49115036302804943,-0.13425734639167786,0.21942700445652008,0.1717333346605301
1772376461227992000,1.874991943359375,-0.14483798492569475,-0.3563572771787643,0.6148837102025747,-0.1518762856721878,0.20027807354927063,0.16401709616184235
1772376461237941200,1.884941162109375,-0.20992489920109508,-0.5047407892242074,0.7069687041819095,-0.16818444430828094,0.18002675473690033,0.1522354781627655
1772376461247891200,1.89489111328125,-0.24941147174127398,-0.630230332416296,0.7380413033157587,-0.1821492612361908,0.16134200990200043,0.1320985108613968
1772376461257840000,1.904840087890625,-0.314883659007214,-0.7272498601883649,0.668265171778202,-0.18887819349765778,0.1495896875858307,0.10466726869344711
1772376461267790000,1.9147900390625,-0.37785022012777625,-0.8217316861763596,0.5557324330538511,-0.1879892200231552,0.1540645956993103,0.08090654015541077
1772376461277739300,1.9247392578125,-0.3476885252937674,-0.8547057350173592,0.4183037380039692,-0.17505300045013428,0.1716492474079132,0.05959661304950714
1772376461287689200,1.934689208984375,-0.283505427990295,-0.8869824492439627,0.30555180357098577,-0.15604281425476074,0.18577465415000916,0.0514121875166893
1772376461297638100,1.94463818359375,-0.1866607818610966,-0.8925275161504745,0.28885142866075036,-0.14577899873256683,0.1931084245443344,0.05009415000677109
1772376461307588000,1.954588134765625,-0.031198855862021445,-0.8883262650683522,0.2906669536501169,-0.12802822887897491,0.20816567540168762,0.06787128001451492
1772376461317537000,1.964537109375,0.12429573029763996,-0.9506535419046879,0.30118308696746826,-0.12130133807659149,0.217689648270607,0.08576555550098419
1772376461327486200,1.974486328125,0.19285897891409695,-0.9583432196244597,0.31930911076664925,-0.11318455636501312,0.21460144221782684,0.10331232845783234
1772376461337436200,1.984436279296875,0.25892405403926966,-1.0058519897744058,0.3668640581458807,-0.11949098855257034,0.19899903237819672,0.11491255462169647
1772376461347385000,1.994385009765625,0.3219601367320865,-1.0787278408929706,0.3665793959856033,-0.10985593497753143,0.17661410570144653,0.12523603439331055
1772376461357335000,2.0043349609375,0.3617023645337671,-1.093020277878642,0.30752222686111924,-0.09729272872209549,0.1648218333721161,0.12821921706199646
1772376461367284000,2.014283935546875,0.3279488557528704,-1.0772022387608886,0.233912800770998,-0.0897490605711937,0.1626095324754715,0.12914493680000305
1772376461377234200,2.024234130859375,0.33611016957238316,-1.0805179391801356,0.16868191144764422,-0.09580836445093155,0.1578843593597412,0.13116484880447388
1772376461387183000,2.03418310546875,0.40032581743858753,-1.0766370060935615,0.12446516858041286,-0.11077825725078583,0.15395192801952362,0.13418033719062805
1772376461397133000,2.044133056640625,0.4549726958401501,-1.0426251386374235,0.005389876344799995,-0.11344693601131439,0.16178636252880096,0.14438647031784058
1772376461407082000,2.05408203125,0.47809901214465494,-0.9538763033434748,-0.1741951219111681,-0.10874751955270767,0.19189099967479706,0.15411873161792755
1772376461417031200,2.06403125,0.49964083573669194,-0.889592924003303,-0.35018940219879147,-0.09542831778526306,0.23650053143501282,0.18125371634960175
1772376461426981000,2.073981201171875,0.6142463621471077,-0.8364899871081113,-0.4969610951334238,-0.07642160356044769,0.2854238450527191,0.2179957628250122
1772376461436930300,2.083930419921875,0.787995493856445,-0.8064689428538083,-0.5037462252289057,-0.06464078277349472,0.30821043252944946,0.2581932544708252
1772376461446880000,2.0938798828125,0.9049071783173829,-0.7794453268498182,-0.40542204459905623,-0.06285060197114944,0.2930453419685364,0.3013993203639984
1772376461456829200,2.1038291015625,0.9955415350969881,-0.7445023160234093,-0.30711656866967674,-0.047868140041828156,0.2657890021800995,0.34253132343292236
1772376461466779100,2.113779052734375,1.0298449328456074,-0.7267533088430762,-0.24195582197308538,-0.041860051453113556,0.27162134647369385,0.37585678696632385
1772376461476728300,2.123728271484375,1.0783880875445901,-0.762619571994245,-0.2619336111187935,-0.04020455852150917,0.2925548255443573,0.4059988558292389
1772376461486677200,2.13367724609375,1.1800300144203006,-0.8174518169000744,-0.24343057070076465,-0.05903763324022293,0.31764551997184753,0.43152526021003723
1772376461496627200,2.143627197265625,1.356826258740574,-0.8611804839894175,-0.13557751422524453,-0.09114842116832733,0.3114491105079651,0.4605899155139923
1772376461506576100,2.153576171875,1.4865228982336818,-0.85588851506114,0.014809446597099303,-0.14540554583072662,0.24279628694057465,0.4785076677799225
1772376461516526300,2.1635263671875,1.4762489031091333,-0.7451271699234843,0.15444588082432745,-0.21896736323833466,0.1316303312778473,0.4895365834236145
1772376461526475300,2.173475341796875,1.2978548682034015,-0.585447772359848,0.02890285387933254,-0.2905491590499878,0.03641593083739281,0.48817941546440125
1772376461536425200,2.18342529296875,1.1208757415968924,-0.48919805991649623,-0.3696341073811054,-0.34671932458877563,-0.047861091792583466,0.4741918742656708
1772376461546374100,2.1933740234375,0.9876957169674336,-0.4276633947625756,-0.942167453110218,-0.3486061692237854,-0.02467374876141548,0.4347403645515442
1772376461556324400,2.203324462890625,0.8995273119099437,-0.323039529466629,-1.5975158601701258,-0.29890626668930054,0.07560515403747559,0.41454264521598816
1772376461566273300,2.213273193359375,0.9136220343664287,-0.07142682135403156,-2.147272725945711,-0.23696035146713257,0.21963423490524292,0.4206010699272156
1772376461576222200,2.22322216796875,1.1119923971131442,0.13317220664918422,-2.357354569274187,-0.16506965458393097,0.3532836437225342,0.4732688069343567
1772376461586172200,2.233172119140625,1.3797704964764415,0.33441987839788195,-2.2916379422605035,-0.09828502684831619,0.4722406566143036,0.5659114122390747
1772376461596121000,2.24312109375,1.6629022323161362,0.4737240119308233,-2.0008517461448907,-0.052856288850307465,0.527772068977356,0.6700446605682373
1772376461606071300,2.2530712890625,1.8703928901076317,0.6441799473136663,-1.5713970840513705,-0.03848720341920853,0.5224939584732056,0.7852962017059326
1772376461616020200,2.263020263671875,1.9664717760287225,0.7441472189754247,-1.2021651277303695,-0.03811430186033249,0.4786570370197296,0.8885053992271423
1772376461625970200,2.27297021484375,1.9475947877317665,0.7738415154933929,-1.011508700361848,-0.012509340420365334,0.4396795630455017,0.9673314690589905
1772376461635919000,2.282919189453125,1.8055735041946173,0.7930477357447147,-0.9911188232839107,0.03983589634299278,0.40880653262138367,1.0229663848876953
1772376461645868000,2.292867919921875,1.6375949187107384,0.8452738898053764,-1.0589660325855017,0.12641820311546326,0.38716596364974976,1.0630714893341064
1772376461655818200,2.302818359375,1.5648343645349143,0.8851718926906585,-1.0815069502174854,0.22961467504501343,0.3807653784751892,1.0990310907363892
1772376461665767200,2.31276708984375,1.6002072912111878,0.924366131220758,-0.9340805927664041,0.31310051679611206,0.3896949589252472,1.1369915008544922
1772376461675717000,2.322717041015625,1.702830630339682,0.9832818460479378,-0.6281804141491651,0.36974114179611206,0.3924752473831177,1.1829230785369873
1772376461685666000,2.332666015625,1.7585493026912211,1.0426944044813513,-0.2376467266023159,0.3841398060321808,0.395401269197464,1.2301832437515259
1772376461695616000,2.342615966796875,1.7818750870905815,1.084648463113606,0.16190145752727986,0.362255334854126,0.3907538056373596,1.2727419137954712
1772376461705565000,2.35256494140625,1.814415859080851,1.110616432584822,0.5332148962974548,0.3104858696460724,0.3576800227165222,1.3187757730484009
1772376461715515100,2.36251513671875,1.8556123773440718,1.0699117894917727,0.7696949172079562,0.24933186173439026,0.3215225338935852,1.3483829498291016
1772376461725464000,2.372464111328125,1.8489026505723594,0.9936518488928675,0.8555962541162967,0.1843739002943039,0.3175751864910126,1.3572688102722168
1772376461735413000,2.3824130859375,1.750966592477262,0.916198899117112,0.8118079657942057,0.11640270799398422,0.286628395318985,1.3430819511413574
1772376461745363000,2.392363037109375,1.6281554747141898,0.9364075744092464,0.77332479814291,0.0498252809047699,0.234789177775383,1.3143869638442993
1772376461755311900,2.402311767578125,1.5600190732076764,0.9424170439571141,0.6226391466349362,-0.00958843994885683,0.17439903318881989,1.2881392240524292
1772376461765262000,2.412261962890625,1.470027252115309,0.9428186104953289,0.3138677964955568,-0.04716378077864647,0.14921937882900238,1.2612969875335693
1772376461775211000,2.4222109375,1.340521459019184,1.0283712800964713,-0.11889116784036159,-0.04792418330907822,0.13355576992034912,1.2338916063308716
1772376461785161000,2.432160888671875,1.2177120948217808,1.1817372567296027,-0.5831038395822048,-0.022151971235871315,0.15499208867549896,1.2068045139312744
1772376461795110000,2.44210986328125,1.1353987724680452,1.2797060480505227,-1.0026654686927794,0.02071320079267025,0.2061985582113266,1.18886399269104
1772376461805059000,2.45205908203125,1.160017080895975,1.3177318273231386,-1.2283230668157339,0.07306881994009018,0.2855626344680786,1.1857291460037231
1772376461815009000,2.462009033203125,1.2399531527243555,1.3795067309737206,-1.3017360935509203,0.12407667189836502,0.3872796595096588,1.2077866792678833
1772376461824958200,2.471958251953125,1.3194310324564575,1.4841452093169092,-1.2500474073678254,0.17159812152385712,0.4981158971786499,1.250162124633789
1772376461834908000,2.481907958984375,1.3999956845119594,1.5725006613790988,-0.9837924259185791,0.20598092675209045,0.5807269215583801,1.3120112419128418
1772376461844857000,2.491857177734375,1.4161653135463594,1.5860110080763696,-0.5079477685719728,0.21528680622577667,0.6042657494544983,1.3598581552505493
1772376461854807000,2.50180712890625,1.3921826726734639,1.4980638445541261,0.04671440490186214,0.2030714750289917,0.5920648574829102,1.3954167366027832
1772376461864756200,2.511756103515625,1.2629912062235176,1.3701032350733875,0.5046615865081548,0.18498888611793518,0.5692703127861023,1.4049750566482544
1772376461874706000,2.521705810546875,1.0488459859136492,1.2232815655171871,0.7570639836937189,0.16346475481987,0.5409384965896606,1.39376699924469
1772376461884655000,2.531655029296875,0.851950737220794,1.124454988323152,0.8823217639565467,0.13680332899093628,0.5067149996757507,1.3530206680297852
1772376461894604000,2.54160400390625,0.7319664403814822,0.9996405679136514,1.0254682521313427,0.10415823012590408,0.47017985582351685,1.3081490993499756
1772376461904554200,2.55155419921875,0.6424763582661748,0.8975979512825608,1.0832435647517442,0.06335114687681198,0.42985719442367554,1.2602190971374512
1772376461914503200,2.561503173828125,0.5833852138068527,0.8763900358200073,1.0988947228699921,0.019485220313072205,0.3977638781070709,1.2200264930725098
1772376461924453000,2.571453125,0.5069320887234061,0.8788941275954246,1.0918278532236814,-0.0189223550260067,0.3735983669757843,1.1875958442687988
1772376461934402000,2.581402099609375,0.4304929191000759,0.9019964785024523,1.0301403355956078,-0.05407841131091118,0.35651183128356934,1.1614418029785156
1772376461944352300,2.591352294921875,0.34264282274413854,0.879057501463592,0.9462392325937747,-0.08295267075300217,0.3249371349811554,1.1328439712524414
1772376461954301200,2.60130126953125,0.29303722644541413,0.8490817576557398,0.8535714702904224,-0.10989899933338165,0.30439484119415283,1.1093121767044067
1772376461964250000,2.61125,0.21481310963407158,0.7822267742618918,0.7052648228734731,-0.12756454944610596,0.2987193763256073,1.0770589113235474
1772376461974200000,2.621199951171875,0.13174531565122305,0.7604621016994119,0.5337450576514006,-0.13907559216022491,0.309897243976593,1.040305733680725
1772376461984149000,2.63114892578125,0.03261467747669667,0.7561319635406136,0.3905038769304752,-0.14998921751976013,0.3229914605617523,0.9976944327354431
1772376461994099200,2.64109912109375,-0.011418415919318794,0.660262482586503,0.3096224140107631,-0.15181975066661835,0.36966177821159363,0.9560238122940063
1772376462004048100,2.651048095703125,-0.026769056721031664,0.6263970378637314,0.2602081025004387,-0.15417291224002838,0.4303280711174011,0.9264251589775085
1772376462013998000,2.660998046875,-0.05218523752838373,0.6627423167034984,0.3313566914349794,-0.1683219075202942,0.44878754019737244,0.9066141247749329
1772376462023947000,2.670947021484375,-0.009157485250011086,0.6479211796686053,0.4793132102400064,-0.17643310129642487,0.44496163725852966,0.8910841345787048
1772376462033897200,2.680897216796875,0.11072320508435368,0.5489040483385325,0.5674199482381344,-0.17460370063781738,0.4091586172580719,0.8820482492446899
1772376462043846100,2.69084619140625,0.2117895605618134,0.47428895233720536,0.6407353598177432,-0.16018694639205933,0.34560495615005493,0.8664125800132751
1772376462053795000,2.700795166015625,0.2688289235904813,0.42477381080091,0.670622548559308,-0.1405484527349472,0.2794594168663025,0.8591299653053284
1772376462063745000,2.7107451171875,0.23381613546349106,0.40721594227850433,0.6726818191766738,-0.12991417944431305,0.2219545841217041,0.8502190113067627
1772376462073694000,2.72069384765625,0.18383319375235585,0.35645284650772807,0.6787731217890978,-0.12382913380861282,0.18229180574417114,0.8501092791557312
1772376462083644200,2.73064404296875,0.11880513352472334,0.3175894473671913,0.6094599315881729,-0.12826569378376007,0.17452336847782135,0.838031530380249
1772376462093593000,2.740593017578125,0.05130505716037005,0.23199732253849506,0.5574573571503162,-0.14404664933681488,0.13825573027133942,0.8043311238288879
1772376462103543000,2.75054296875,-0.06926284825317561,0.10226005877405404,0.5234206475138664,-0.16075798869132996,0.12514179944992065,0.7609556913375854
1772376462113492000,2.760491943359375,-0.12344126889277249,-0.006342939285933971,0.45109132436215876,-0.18092024326324463,0.0993911549448967,0.7167432308197021
1772376462123441000,2.77044091796875,-0.18433073147833345,-0.04665390688627958,0.3605027064204216,-0.21187709271907806,0.04766430705785751,0.6725760102272034
1772376462133391000,2.78039111328125,-0.2701474953757599,-0.053197921702265734,0.23302082036733626,-0.24900394678115845,-0.01411862950772047,0.6219086050987244
1772376462143340000,2.790340087890625,-0.3378051003893837,-0.10422200649678706,0.08305588434934616,-0.2851811349391937,-0.07649758458137512,0.5587543845176697
1772376462153290000,2.8002900390625,-0.39395449230838564,-0.14561638541966676,-0.24745091225802898,-0.2937936782836914,-0.10845260322093964,0.5115305185317993
1772376462163239000,2.810239013671875,-0.47341648035161193,-0.059086979740858074,-0.6282277604222297,-0.2766788601875305,-0.11471422761678696,0.45841720700263977
1772376462173189000,2.820189208984375,-0.5026465203586965,-0.0043570261657238,-1.0005839862436054,-0.240869402885437,-0.09763745963573456,0.4158298373222351
1772376462183138000,2.830137939453125,-0.4470499400168657,0.01932137106359005,-1.3224164780080319,-0.18514035642147064,-0.06612294167280197,0.3909873366355896
1772376462193087000,2.8400869140625,-0.3985123382758349,0.0815048555150628,-1.492715177002549,-0.1333358883857727,-0.038783445954322815,0.3821069002151489
1772376462203037000,2.850036865234375,-0.37617381134815514,0.1349982530325651,-1.5155740745425224,-0.0979510024189949,-0.01642514392733574,0.3855905830860138
1772376462212986000,2.859986083984375,-0.38532574364021416,0.14085896175950766,-1.4244891975164413,-0.0736808106303215,-0.01289677806198597,0.3924185633659363
1772376462222936000,2.86993603515625,-0.3585026186443865,0.09969634576588869,-1.33301269082427,-0.0500178262591362,-0.0026465370319783688,0.4065842032432556
1772376462232885200,2.87988525390625,-0.40970629778951406,0.01237315936088562,-1.2494675616532565,-0.019254585728049278,0.019036918878555298,0.40423476696014404
1772376462242835000,2.8898349609375,-0.5368231864551082,-0.08575783678442239,-1.136584694316983,0.014700982719659805,0.03029729798436165,0.3834700882434845
1772376462252784000,2.8997841796875,-0.6470286147430538,-0.18654694622308016,-0.9094125999778508,0.03810723498463631,0.03444599732756615,0.34374213218688965
1772376462262733800,2.90973388671875,-0.7017559379696846,-0.2499287005484104,-0.6175099670529365,0.04853750765323639,0.07438941299915314,0.3044048547744751
1772376462272683300,2.919683349609375,-0.6508579637728631,-0.2737377384200692,-0.35503567318618295,0.03269103914499283,0.0544622540473938,0.27269572019577026
1772376462282632200,2.929632080078125,-0.507759990914911,-0.30528233897984025,0.08081365838050841,-0.017997438088059425,-0.014402566477656364,0.2483152598142624
1772376462292582100,2.93958203125,-0.35029717342220246,-0.3425695748448372,0.48134559285044665,-0.10945925861597061,-0.10639682412147522,0.2268562912940979
1772376462302531000,2.949531005859375,-0.3300839680854231,-0.4108779719173908,0.7862713734775781,-0.23859567940235138,-0.23050493001937866,0.1920035034418106
1772376462312481300,2.959481201171875,-0.4807969825243577,-0.4331871266201138,0.8643143981009721,-0.3768366277217865,-0.37075769901275635,0.11811188608407974
1772376462322430200,2.96943017578125,-0.770722068298608,-0.4413751092508435,0.7287316231787204,-0.5128567814826965,-0.48942017555236816,-0.0012983994092792273
1772376462332380200,2.979380126953125,-1.0104194438204168,-0.5120101957052946,0.1410556533753872,-0.5708976984024048,-0.4856760799884796,-0.1340988725423813
1772376462342329000,2.9893291015625,-1.2133104257967322,-0.47732057511806486,-0.7618371894448995,-0.5766067504882812,-0.4026813209056854,-0.25304922461509705
1772376462352278000,2.999278076171875,-1.1974546119518577,-0.22339462162703275,-1.3465432035267353,-0.544571578502655,-0.2962067723274231,-0.3339778184890747
1772376462362228200,3.009228271484375,-0.9410879873104393,0.009820844529569148,-1.6877976041197775,-0.45895519852638245,-0.1266012191772461,-0.35709965229034424
1772376462372177200,3.01917724609375,-0.4823733284629881,0.20192747070640324,-1.962213680192828,-0.326494038105011,0.07654289156198502,-0.31505924463272095
1772376462382127000,3.029127197265625,0.018729939942504277,0.45956776854544873,-2.000252026686072,-0.16530834138393402,0.2502795159816742,-0.21189264953136444
1772376462392076000,3.039075927734375,0.5023029676180333,0.7308782798185944,-1.704956828713417,0.005104806739836931,0.37574610114097595,-0.04927779361605644
1772376462402026000,3.04902587890625,0.946811844849959,0.9652169047862291,-1.1663976487785577,0.16475625336170197,0.4204494059085846,0.14671115577220917
1772376462411975200,3.05897509765625,1.2704051357418298,1.007187330031395,-0.5002203891903162,0.3006007671356201,0.3888840973377228,0.3467327654361725
1772376462421924000,3.068924072265625,1.4037363323450087,0.8849737397700548,0.21127017633020875,0.40684065222740173,0.3155406415462494,0.5180219411849976
1772376462431874000,3.0788740234375,1.2697662533164025,0.7433630828604102,0.8004378459960222,0.464592844247818,0.2129986584186554,0.633801281452179
1772376462441823000,3.088822998046875,0.9604325931191444,0.531651592503488,1.3114262974381445,0.45282912254333496,0.08653100579977036,0.6784462332725525
1772376462451773200,3.098773193359375,0.5836889825263991,0.21390900040119884,1.716504643166065,0.3803703784942627,-0.026723966002464294,0.6611433625221252
1772376462461722000,3.10872216796875,0.1826085290619172,-0.11650018105059862,1.9489514630377291,0.2513522207736969,-0.1293661892414093,0.5765501856803894
1772376462471672000,3.118672119140625,-0.24738301638728005,-0.4057107984125614,1.9441747501552105,0.07221261411905289,-0.20587822794914246,0.42423921823501587
1772376462481621000,3.12862109375,-0.6549141072958707,-0.6556544042691588,1.8002011635065078,-0.12063673138618469,-0.26116785407066345,0.22691015899181366
1772376462491570000,3.13856982421875,-0.8944080692000687,-0.8123959948152303,1.3815584028065204,-0.2991802394390106,-0.27622219920158386,0.0052023292519152164
1772376462501520100,3.14852001953125,-0.9995487249117344,-0.7743433275356888,0.7063666466355324,-0.4207375645637512,-0.2427598536014557,-0.1970309317111969
1772376462511469000,3.158468994140625,-0.8951983427949249,-0.5627566326022148,-0.11074702435135841,-0.4883148968219757,-0.18374837934970856,-0.353293240070343
1772376462521419000,3.1684189453125,-0.540958423096314,-0.3195765295311808,-0.780711985784769,-0.49118950963020325,-0.10092326998710632,-0.446766197681427
1772376462531368000,3.178367919921875,-0.06638666262920014,-0.06693944680690765,-1.4335247368872164,-0.4185224175453186,0.01966274343430996,-0.4662337899208069
1772376462541318000,3.18831787109375,0.40032494065575297,0.2319923541024327,-1.9532383465766905,-0.29234129190444946,0.15380962193012238,-0.41989824175834656
1772376462551267000,3.19826708984375,0.8616059428598731,0.6032572775557636,-2.1765356453090905,-0.10739010572433472,0.2715921700000763,-0.2928900122642517
1772376462561217000,3.208217041015625,1.3318227503873408,0.9349649743854999,-2.1830893047362565,0.0940716415643692,0.36623212695121765,-0.10821522772312164
1772376462571166000,3.218166015625,1.6386265998460352,1.1843579606220125,-1.900129856723547,0.2735908031463623,0.443178653717041,0.11523263156414032
1772376462581115000,3.228114990234375,1.7368221856601536,1.299113051570952,-1.4053823459863661,0.39383652806282043,0.46666693687438965,0.33934321999549866
1772376462591064800,3.23806494140625,1.6016329401001332,1.2304054260477424,-0.7020914535343646,0.4528656005859375,0.4458867311477661,0.5063194036483765
1772376462601014000,3.248013916015625,1.2817736481048165,0.9552774023130536,-0.05242927541732788,0.46910104155540466,0.4690951108932495,0.5890617370605469
1772376462610964000,3.2579638671875,0.7781538987997919,0.6094137543588877,0.3435223455250263,0.45746663212776184,0.5090809464454651,0.6049208045005798
1772376462620913200,3.2679130859375,0.30414135225117206,0.3296320595994591,0.671032882925868,0.41748008131980896,0.545403242111206,0.5623144507408142
1772376462630862800,3.27786279296875,-0.08544341880669817,0.1276721479281783,0.9555962590038776,0.349508672952652,0.5710654854774475,0.48893484473228455
1772376462640812000,3.28781201171875,-0.35104189084228127,-0.06975187387913465,1.2721037563532591,0.25430598855018616,0.591278076171875,0.39948326349258423
1772376462650761200,3.29776123046875,-0.542897136073932,-0.18290800519883632,1.5387094509363173,0.13640670478343964,0.5684897899627686,0.293274462223053
1772376462660711200,3.307711181640625,-0.5730397974139079,-0.24814532426297664,1.7866583758443593,0.023073766380548477,0.49828383326530457,0.18894541263580322
1772376462670660000,3.31766015625,-0.5150221639376134,-0.284370483854413,1.8813456612765789,-0.07896605134010315,0.4152316153049469,0.08741988986730576
1772376462680610000,3.327610107421875,-0.367955177850835,-0.2679036254391074,1.8505284982085226,-0.16259489953517914,0.32392966747283936,0.004922620020806789
1772376462690559200,3.337559326171875,-0.17325356674473733,-0.20907412759065627,1.649674501952529,-0.21110405027866364,0.26606136560440063,-0.040018707513809204
1772376462700509200,3.34750927734375,-0.037317265677079554,-0.023496610921621322,1.2571832505971192,-0.22302035987377167,0.25647345185279846,-0.038941726088523865
1772376462710458000,3.3574580078125,0.09311671164724976,0.22239771954417228,0.8551251294732093,-0.21667897701263428,0.26978734135627747,-0.0017019158694893122
1772376462720407000,3.367406982421875,0.2363256705990061,0.4030909713029861,0.5631710586220026,-0.2107936590909958,0.29181647300720215,0.05378291383385658
1772376462730357200,3.377357177734375,0.3388462069401517,0.4379559484571218,0.42770109642446036,-0.21023039519786835,0.30436187982559204,0.11436991393566132
1772376462740306200,3.38730615234375,0.41058804906010626,0.4179387040838599,0.3670972823798656,-0.19761766493320465,0.3080724775791168,0.17883865535259247
1772376462750256000,3.397256103515625,0.3873619256429374,0.46113896338492627,0.27511574877500533,-0.1792525053024292,0.3065703213214874,0.23893484473228455
1772376462760205000,3.407205078125,0.3065958327312022,0.44743513994216916,0.1628974828273058,-0.15258626639842987,0.3026174008846283,0.29539600014686584
1772376462770155300,3.4171552734375,0.18050302641633897,0.3753171214535832,0.04709317508637905,-0.11885414272546768,0.311784565448761,0.34137922525405884
1772376462780104200,3.427104248046875,0.04710581537224352,0.2776967051789164,-0.032172084808349606,-0.07629656046628952,0.31998443603515625,0.37535449862480164
1772376462790053000,3.43705322265625,-0.1382683242117986,0.1839312107667327,-0.02313771448135376,-0.0405108705163002,0.32629960775375366,0.3866729736328125
1772376462800003000,3.447003173828125,-0.25194888126440346,0.04803220950216055,0.1165939968138933,-0.026503173634409904,0.3220273554325104,0.3840974271297455
1772376462809952000,3.456951904296875,-0.37915721107311545,-0.10819354047626256,0.30535540421605106,-0.03252717852592468,0.313832551240921,0.36103707551956177
1772376462819902200,3.466902099609375,-0.4966076055206358,-0.23728549207448957,0.4890168581306934,-0.06021180376410484,0.29870206117630005,0.3298487961292267
1772376462829851100,3.47685107421875,-0.5990962123535574,-0.33787761763632296,0.6523164920181036,-0.09768734127283096,0.28882527351379395,0.29190793633461
1772376462839801000,3.486801025390625,-0.6816724234271794,-0.4156751430660486,0.6700912181615829,-0.13462592661380768,0.29338911175727844,0.2544524371623993
1772376462849750000,3.49675,-0.7221469110261648,-0.47951896194517607,0.5993640695095062,-0.15620817244052887,0.31157127022743225,0.221467524766922
1772376462859699000,3.506698974609375,-0.7145431580241769,-0.5199143929585814,0.5093436068445444,-0.16205008327960968,0.32651853561401367,0.18941958248615265
1772376462869649200,3.516649169921875,-0.6609721652258187,-0.5428410950377583,0.4152747455716133,-0.15559138357639313,0.3315869867801666,0.1689879447221756
1772376462879598000,3.52659814453125,-0.58184689832367,-0.5308373535111546,0.352502939838171,-0.15055827796459198,0.317365437746048,0.15826739370822906
1772376462889548000,3.536548095703125,-0.48772323812358076,-0.5498983200728893,0.31586218518316744,-0.1369858682155609,0.3103930652141571,0.15807503461837769
1772376462899497000,3.5464970703125,-0.4035489442035556,-0.5746431774899363,0.2848883702486753,-0.12407593429088593,0.30537378787994385,0.16381175816059113
1772376462909447200,3.556447265625,-0.37488245636336504,-0.5993567629858851,0.27744857563674447,-0.1198010966181755,0.29671400785446167,0.1579795479774475
1772376462919396000,3.56639599609375,-0.36207791984789073,-0.646502545042336,0.26867607111632824,-0.11586121469736099,0.2920449674129486,0.16019557416439056
1772376462929346000,3.576345947265625,-0.32111528340578077,-0.6942103448957204,0.25898937436044217,-0.11085899919271469,0.28968435525894165,0.15143536031246185
1772376462939295000,3.586294921875,-0.29233130666576324,-0.6992974389016627,0.2571311792731285,-0.11469767987728119,0.266502320766449,0.15076638758182526
1772376462949244000,3.596243896484375,-0.24639563105143605,-0.6760317141264677,0.23459084616303444,-0.11325524747371674,0.2609303593635559,0.15089958906173706
1772376462959194000,3.606194091796875,-0.17813852577470243,-0.6695519967183471,0.13888415455520153,-0.1130179613828659,0.26516905426979065,0.15840011835098267
1772376462969143000,3.61614306640625,-0.09993051984794438,-0.6662579236090183,-0.014126140508055687,-0.11016657948493958,0.2824184000492096,0.17264580726623535
1772376462979093000,3.626093017578125,-0.017229294155165553,-0.6278881532043218,-0.11795534829497337,-0.10671698302030563,0.2569311559200287,0.1862524300813675
1772376462989042000,3.6360419921875,0.06999941889941692,-0.6205699391454458,-0.15856676014661789,-0.07861471176147461,0.2465866506099701,0.20051810145378113
1772376462998992100,3.6459921875,0.12147986915931105,-0.5893871576353907,-0.26723756274580956,-0.03632637485861778,0.2568853497505188,0.22152218222618103
1772376463008941000,3.655941162109375,0.1096094716887921,-0.4624102984949946,-0.3939028717190027,0.00564164575189352,0.2555055618286133,0.2563922107219696
1772376463018890200,3.66589013671875,0.16015234883762894,-0.37952860166877506,-0.41316462154984473,0.038734614849090576,0.28331509232521057,0.29905256628990173
1772376463028840200,3.675840087890625,0.2984257510833442,-0.38828503183722496,-0.35199849744737144,0.05127996578812599,0.3210785388946533,0.34037649631500244
1772376463038789000,3.6857890625,0.4026356287509203,-0.3857739257991314,-0.19242285251915453,0.03669755905866623,0.34617429971694946,0.37407055497169495
1772376463048739000,3.695739013671875,0.44591479850709437,-0.3723392746865749,-0.022833763098716736,0.006850654724985361,0.3676113784313202,0.4053410589694977
1772376463058688300,3.705688232421875,0.5184738387614488,-0.4051809293195605,0.1356692841619253,-0.02771744132041931,0.3967021405696869,0.4340573847293854
1772376463068638200,3.71563818359375,0.6127801620520651,-0.44927609163373705,0.2272895832389593,-0.06881201267242432,0.4359205961227417,0.4651738405227661
1772376463078587100,3.725587158203125,0.7561121628616004,-0.52062575609833,0.3308487419128418,-0.11977319419384003,0.42928585410118103,0.4945477247238159
1772376463088536000,3.7355361328125,1.0070238830979912,-0.6683283001422882,0.546387097081542,-0.18982166051864624,0.3430578112602234,0.5253423452377319
1772376463098486300,3.745486328125,1.1729076882597058,-0.8366855096802115,0.7107903082966804,-0.2847098112106323,0.18029604852199554,0.5392805337905884
1772376463108435200,3.755435302734375,1.0690474277473985,-0.8694032456725835,0.7574222956120967,-0.39345788955688477,-0.01840108633041382,0.5103076100349426
1772376463118385200,3.76538525390625,0.7208812019392847,-0.7707949874043464,0.4360667737096548,-0.48112621903419495,-0.18341852724552155,0.4468863308429718
1772376463128334000,3.775333984375,0.3084511782743037,-0.616615648561716,-0.3174374716758728,-0.5335538387298584,-0.31162914633750916,0.3596819341182709
1772376463138284300,3.7852841796875,0.02257598894536495,-0.5091197349607944,-1.1294511891752481,-0.540454089641571,-0.27254992723464966,0.25479811429977417
1772376463148233200,3.795233154296875,0.05966616786830127,-0.4286009678736329,-1.9020733920067547,-0.48580124974250793,-0.15558870136737823,0.18153345584869385
1772376463158182100,3.80518212890625,0.19973953220807014,-0.19073972173780201,-2.6136861226022243,-0.35546401143074036,0.06482595205307007,0.16670231521129608
1772376463168132000,3.815132080078125,0.5493723234374076,0.13474515505433082,-3.0728683989614245,-0.18155993521213531,0.2951776385307312,0.23213541507720947
1772376463178081000,3.8250810546875,1.0044067594021557,0.5003007609501481,-2.9071593658447266,-0.01846715249121189,0.4562871754169464,0.3554307222366333
1772376463188031200,3.83503125,1.4914225068435072,0.8708449689134955,-2.2330326085567473,0.091107077896595,0.5136447548866272,0.5461680889129639
1772376463197980200,3.844980224609375,1.8071175187662243,1.1127101899936795,-1.375421507486701,0.1284283548593521,0.4938851296901703,0.7516959309577942
1772376463207930000,3.85493017578125,1.8975417399264871,1.191110357491672,-0.580712560531497,0.11728368699550629,0.4157272279262543,0.9280266761779785
1772376463217879000,3.864879150390625,1.9127773029811679,1.0353644999846816,0.06902969708442687,0.09347902238368988,0.332662433385849,1.0327317714691162
1772376463227828000,3.874827880859375,1.6513801368266343,0.8067384074449538,0.33356969130933284,0.0959242731332779,0.2958732545375824,1.061899185180664
1772376463237778200,3.884778076171875,1.2565798778764903,0.6755567900910974,0.35377778207957744,0.11714806407690048,0.3015332818031311,1.0375925302505493
1772376463247727000,3.89472705078125,0.9664783760894089,0.6043246145263313,0.3579945229917764,0.14225880801677704,0.3247831165790558,1.0087871551513672
1772376463257677000,3.904677001953125,0.9058735391315073,0.5773550667971372,0.4810141689389944,0.16040797531604767,0.34794169664382935,0.9942116737365723
1772376463267626000,3.9146259765625,0.9951069430720061,0.6000538053393364,0.7179162146538496,0.15106502175331116,0.32879552245140076,1.0019158124923706
1772376463277576200,3.924576171875,1.1901185699753463,0.606483253864944,1.0348854842960833,0.11924104392528534,0.27086272835731506,1.0171432495117188
1772376463287525000,3.934525146484375,1.3833635525323449,0.59816346154809,1.3252309509068727,0.06651904433965683,0.16873660683631897,1.0361624956130981
1772376463297474000,3.94447412109375,1.4866861259713768,0.5543883249685168,1.5094979694992303,-0.0015308456495404243,0.03822573274374008,1.0396103858947754
1772376463307424000,3.954424072265625,1.5827390006683766,0.45658904499560593,1.50464936042428,-0.08215418457984924,-0.08271510899066925,1.035194993019104
1772376463317373000,3.964373046875,1.5844915434241293,0.3350567149966955,1.224893092367053,-0.15222780406475067,-0.16741694509983063,1.0099745988845825
1772376463327323100,3.9743232421875,1.4604483996480702,0.24864509047865865,0.6485293746948242,-0.20321409404277802,-0.23425684869289398,0.9577776789665222
1772376463337271000,3.98427099609375,1.2344330741286278,0.2636959446161985,-0.0701964027762413,-0.22960948944091797,-0.2823018729686737,0.886888861656189
1772376463347220200,3.99422021484375,0.9799918645918368,0.34416824221312997,-0.7366986565351485,-0.26019540429115295,-0.36204710602760315,0.8063644170761108
1772376463357170200,4.004170166015625,0.8546507168944925,0.3613344810694456,-1.3527180927693843,-0.2615208625793457,-0.3999995291233063,0.7186819911003113
1772376463367119000,4.014119140625,0.8281157611902803,0.38277152911275625,-2.1520745732694864,-0.19971303641796112,-0.3354264497756958,0.6374140977859497
1772376463377069000,4.024069091796875,0.7371218503832817,0.5169678181126713,-2.9815783547520636,-0.08506928384304047,-0.19012223184108734,0.5728867650032043
1772376463387018200,4.034018310546875,0.7001707876700908,0.8092714330539107,-3.5618297275125976,0.06154658645391464,0.02697434276342392,0.5532814264297485
1772376463396967200,4.04396728515625,0.7856989073518663,1.1078054668173194,-3.710263216179609,0.20478923618793488,0.2524029314517975,0.5897425413131714
1772376463406917000,4.053917236328125,1.0061738421399147,1.393726102723181,-3.440406410846114,0.3250617980957031,0.4769156873226166,0.6802467107772827
1772376463416866000,4.063865966796875,1.3055243799179792,1.619770654337108,-2.7855665378302334,0.3831213712692261,0.6267493963241577,0.8048344254493713
1772376463426816000,4.07381591796875,1.5039455960690975,1.7663763430550694,-1.8587685032874344,0.4013257324695587,0.6928698420524597,0.9439031481742859
1772376463436765200,4.08376513671875,1.5602039282552898,1.7489795103132724,-0.9712824884355068,0.4074137210845947,0.7463551759719849,1.0550552606582642
1772376463446715100,4.093715087890625,1.3967938197307288,1.6013669826403258,-0.39906712261438365,0.41172781586647034,0.7587505578994751,1.1209499835968018
1772376463456664000,4.1036640625,1.1113049263056367,1.4479299865975974,0.0697650256216526,0.4190821349620819,0.742915153503418,1.1391808986663818
1772376463466613000,4.113613037109375,0.8198437535379082,1.296091365662217,0.4547843336611986,0.42303022742271423,0.6869779229164124,1.1320277452468872
1772376463476563000,4.12356298828125,0.6125853701323271,1.1201023460716009,0.7904916215211153,0.4211241900920868,0.62864750623703,1.1015087366104126
1772376463486512000,4.13351220703125,0.4402553845059126,0.9192813753023743,1.0482651903510094,0.39918357133865356,0.5670557618141174,1.0550836324691772
1772376463496462000,4.143462158203125,0.2649029092531651,0.7684732664585113,1.3039362339437006,0.3531588017940521,0.47742894291877747,0.985157310962677
1772376463506411000,4.153410888671875,0.0895545256536454,0.6587345423668622,1.5335060370743274,0.28234127163887024,0.38424786925315857,0.9063608646392822
1772376463516360000,4.16335986328125,-0.00449906498491764,0.4759396421536803,1.617905737248063,0.1981409192085266,0.30214154720306396,0.8216142654418945
1772376463526310100,4.17331005859375,-0.12658340284340083,0.3276318256929517,1.59334938814044,0.12676793336868286,0.21954970061779022,0.7269878387451172
1772376463536259000,4.183259033203125,-0.24132490365840492,0.23253157554566858,1.4185785121679306,0.06793764233589172,0.16518180072307587,0.6181897521018982
1772376463546209000,4.193208984375,-0.37313298234753306,0.1700023463964462,1.1671318082720041,0.03634989261627197,0.13138340413570404,0.5195489525794983
1772376463556158000,4.203157958984375,-0.4218518589396029,0.1928776105493307,0.8643599908083677,0.01911364495754242,0.13598161935806274,0.43483966588974
1772376463566108000,4.21310791015625,-0.4048850881781429,0.27166502379924057,0.6372773283183575,0.007137943524867296,0.1441018432378769,0.36942335963249207
1772376463576057000,4.22305712890625,-0.3276618555050343,0.38438977796435353,0.49138826343715186,-0.008339283987879753,0.1559278815984726,0.33017396926879883
1772376463586006300,4.23300634765625,-0.19458667948953806,0.45863867100179195,0.42352877917587756,-0.030745521187782288,0.18597282469272614,0.3166884481906891
1772376463595956000,4.2429560546875,-0.044077407461777324,0.5209276616543531,0.3338146059811115,-0.05676620453596115,0.22150978446006775,0.31078606843948364
1772376463605905200,4.2529052734375,0.01889196667037904,0.5657189895391463,0.28787703067064285,-0.07985441386699677,0.24742956459522247,0.31874603033065796
1772376463615855000,4.262855224609375,0.03510017414949834,0.5894114152938127,0.24460779778659342,-0.08627796173095703,0.2881154716014862,0.3281294107437134
1772376463625804300,4.27280419921875,0.05469137513041496,0.5336114943996072,0.14221183767318724,-0.08506035804748535,0.323168009519577,0.3374117910861969
1772376463635754000,4.28275390625,0.05306837703846395,0.5087798354819417,0.10185703093111514,-0.06147407740354538,0.3387613296508789,0.3398035764694214
1772376463645703200,4.292703125,0.0063613517254590985,0.48318771358579393,0.13195172494351864,-0.037811364978551865,0.3276960551738739,0.34747013449668884
1772376463655652000,4.302652099609375,-0.008278437393158674,0.42138533740639683,0.228327109593153,-0.012894561514258385,0.2868761718273163,0.3502427637577057
1772376463665602300,4.312602294921875,-0.03809913676977157,0.32629823900163174,0.3491127128779888,0.000026304624043405056,0.23193047940731049,0.34760239720344543
1772376463675553000,4.322552978515625,-0.07499613120816648,0.277262989936769,0.4767062426120042,-0.002962294965982437,0.17165622115135193,0.3348655700683594
1772376463685502000,4.332501953125,-0.11235336356945336,0.22919424781650302,0.5829366663217544,-0.01389936450868845,0.11565098911523819,0.3251284658908844
1772376463695452400,4.342452392578125,-0.1812674714501947,0.1659185842141509,0.6198983234941959,-0.036450743675231934,0.07486867159605026,0.3094933331012726
1772376463705401300,4.3524013671875,-0.21873649362288414,0.0897226487621665,0.6018114626616239,-0.06295319646596909,0.051665134727954865,0.29313841462135315
1772376463715350300,4.362350341796875,-0.23353607641309498,0.024101298816502092,0.5418839404433965,-0.08007252961397171,0.04761126637458801,0.28054726123809814
1772376463725300200,4.37230029296875,-0.21748627436608076,-0.008730126683413981,0.44558863529264925,-0.09946227073669434,0.03883794695138931,0.26491841673851013
1772376463735249400,4.38224951171875,-0.24391608919538557,-0.04867956749498844,0.36991526241004463,-0.11356370151042938,0.018202979117631912,0.24545258283615112
1772376463745199400,4.392199462890625,-0.25655367164611814,-0.08573065651655197,0.340695597666502,-0.13187679648399353,-0.000783795490860939,0.220839723944664
1772376463755148300,4.402148193359375,-0.29583704976439473,-0.11606675806939601,0.26699264807403084,-0.13926175236701965,-0.017502054572105408,0.20797665417194366
1772376463765098200,4.41209814453125,-0.29044191272258757,-0.13621961152106524,0.15444120464920996,-0.1405232846736908,-0.04105982184410095,0.1925697773694992
1772376463775047400,4.42204736328125,-0.2718115195978433,-0.1647647380039096,0.0017664251506328583,-0.12685833871364594,-0.04020601511001587,0.17572422325611115
1772376463784996600,4.43199658203125,-0.2619719703678042,-0.1655082498475909,-0.062217094460129733,-0.10977809876203537,-0.04938048496842384,0.16133183240890503
1772376463794946600,4.441946533203125,-0.22277407857589424,-0.14950550181269645,-0.05404781652987003,-0.08556409925222397,-0.08012135326862335,0.15822231769561768
1772376463804895500,4.4518955078125,-0.1575583868216723,-0.14666414090692997,0.019210896426439285,-0.06676843762397766,-0.11328765004873276,0.16978523135185242
1772376463814845400,4.461845458984375,-0.06452537140250206,-0.16655016011595725,0.12211246797442435,-0.06140216439962387,-0.14006812870502472,0.1827782541513443
1772376463824794600,4.471794677734375,-0.07217362113334239,-0.19202859250456095,0.19468436771035194,-0.06674101948738098,-0.1625034660100937,0.19004827737808228
1772376463834744600,4.48174462890625,-0.16014431166164575,-0.21104192053228615,0.27531974691450595,-0.08974380046129227,-0.18466363847255707,0.1872524917125702
1772376463844693500,4.491693603515625,-0.25566307948194444,-0.3114721335306763,0.3346265068858862,-0.12171012163162231,-0.18813933432102203,0.1715727150440216
1772376463854642400,4.501642333984375,-0.30855595382302997,-0.39102731628268955,0.28431027809977527,-0.13353535532951355,-0.18929675221443176,0.15391568839550018
1772376463864592400,4.51159228515625,-0.3741174633402377,-0.4489923062562942,0.1994914757311344,-0.13524110615253448,-0.21885912120342255,0.1270652562379837
1772376463874541600,4.52154150390625,-0.4021888348314911,-0.4973182380080223,0.14090776933729648,-0.12458474189043045,-0.2490396648645401,0.10294660180807114
1772376463884491500,4.531491455078125,-0.38029410614855585,-0.5538169548213482,0.09714636902213096,-0.10110710561275482,-0.2850961983203888,0.08320805430412292
1772376463894440400,4.5414404296875,-0.364246861384809,-0.5975812777459621,0.03170329825282096,-0.06733476370573044,-0.30946677923202515,0.07120225578546524
1772376463904390400,4.551390380859375,-0.34469781904518604,-0.6096358726769685,0.0034983635097742076,-0.03658463805913925,-0.3177665174007416,0.0661708265542984
1772376463914339600,4.561339599609375,-0.33056831753626464,-0.6047741118595004,0.02755611544549465,-0.01642584055662155,-0.33535537123680115,0.04930049926042557
1772376463924288500,4.57128857421875,-0.31421050898600367,-0.6321262291654944,0.11226970387399196,-0.013966414146125317,-0.35235220193862915,0.03356223925948143
1772376463934238500,4.581238525390625,-0.28103732084371147,-0.6637602615743875,0.22092121725082395,-0.02087865024805069,-0.37491583824157715,0.019402744248509407
1772376463944187400,4.5911875,-0.24399032347537575,-0.6965288509711622,0.3110468938559294,-0.031074555590748787,-0.40123528242111206,-0.005020488053560257
1772376463954137300,4.601137451171875,-0.23101116104535757,-0.7189297756105661,0.32042320948839187,-0.042326681315898895,-0.4105062782764435,-0.036422885954380035
1772376463964086500,4.61108642578125,-0.2462061728939414,-0.7222340778529643,0.2853513115853071,-0.05701521039009094,-0.4004366099834442,-0.06908080726861954
1772376463974036500,4.621036376953125,-0.17111238999757913,-0.7538567120850086,0.2638707166612148,-0.07193290442228317,-0.4030981659889221,-0.10133647918701172
1772376463983985400,4.6309853515625,-0.02930646624416113,-0.7690934441834688,0.36161972775161266,-0.10119539499282837,-0.45199015736579895,-0.13216039538383484
1772376463993934300,4.640934326171875,0.044017567033320666,-0.733018214456737,0.48487084436714645,-0.15228813886642456,-0.5439767837524414,-0.16638226807117462
1772376464003884300,4.65088427734375,0.025625878035277126,-0.6319084947615862,0.4968284086644649,-0.21385203301906586,-0.6515690684318542,-0.2077985256910324
1772376464013833500,4.66083349609375,-0.12849811389092355,-0.5491074619561434,0.34471535470187664,-0.2924900949001312,-0.7217361330986023,-0.26570895314216614
1772376464023783400,4.670783447265625,-0.3439988769955933,-0.5198670466855168,-0.08840952033698558,-0.3564349412918091,-0.7178030610084534,-0.3405333161354065
1772376464033732400,4.680732421875,-0.5926591650433838,-0.4518742914333939,-0.7329863580137491,-0.3911053240299225,-0.666130542755127,-0.4265861511230469
1772376464043681300,4.690681396484375,-0.6694443716254085,-0.3396820367097854,-1.2843407221138476,-0.3963257074356079,-0.583000659942627,-0.4932340383529663
1772376464053631200,4.70063134765625,-0.5599724817764014,-0.20887159075587985,-1.6394003606975078,-0.3536911606788635,-0.48881980776786804,-0.5283366441726685
1772376464063580400,4.710580322265625,-0.4082606290258467,-0.05847907697558403,-2.048817612412572,-0.24657702445983887,-0.3510451018810272,-0.5193153023719788
1772376464073530400,4.7205302734375,-0.1759443767312914,0.13137801670879126,-2.381140518531203,-0.08605072647333145,-0.20756997168064117,-0.48037853837013245
1772376464083479300,4.730479248046875,0.06572923076692969,0.3196525173768401,-2.4504168838530775,0.10508807003498077,-0.06910344213247299,-0.40681323409080505
1772376464093429200,4.74042919921875,0.2642058303670958,0.47194414277672764,-2.230836559817195,0.27545928955078125,0.025192702189087868,-0.31367743015289307
1772376464103378400,4.75037841796875,0.45926253852117804,0.5482058369413018,-1.560286491972208,0.37260526418685913,0.05372340977191925,-0.22488844394683838
1772376464113327600,4.76032763671875,0.5846074125455692,0.47363311877697706,-0.7088543717980385,0.410122811794281,0.032811202108860016,-0.1575631946325302
1772376464123277300,4.77027734375,0.6018094899002462,0.3092135409489274,0.0023345804274082184,0.40054866671562195,0.0023031020537018776,-0.12113800644874573
1772376464133226500,4.7802265625,0.442393857839331,0.2059454741761088,0.4908142629414797,0.3393276631832123,-0.053823281079530716,-0.13150835037231445
1772376464143176200,4.79017626953125,0.23471850939700378,0.03769552440494299,0.8550409583210945,0.23706594109535217,-0.11355533450841904,-0.1833009421825409
1772376464153125600,4.800125732421875,-0.012260351202753372,-0.09637655369341373,1.0433020149856804,0.11477305740118027,-0.17730022966861725,-0.26872768998146057
1772376464163075300,4.810075439453125,-0.2481274963453412,-0.16949088974297047,1.0490852745622397,-0.01919660158455372,-0.24661408364772797,-0.3799574673175812
1772376464173024500,4.8200244140625,-0.42026466281339525,-0.17866408401876688,0.8198457262992859,-0.14202426373958588,-0.27184009552001953,-0.48695823550224304
1772376464182973400,4.829973388671875,-0.5103948329305276,-0.09427607428282499,0.3156926738351583,-0.21958614885807037,-0.24274902045726776,-0.5743535161018372
1772376464192923400,4.83992333984375,-0.47592923035752027,0.0983124901920557,-0.3444938209056854,-0.2488577514886856,-0.19978530704975128,-0.6341643929481506
1772376464202872600,4.84987255859375,-0.33936544504128396,0.38261458498537537,-0.8772112890750169,-0.24686504900455475,-0.13888728618621826,-0.6579962372779846
1772376464212822500,4.859822509765625,-0.06974843067987821,0.5925362693160772,-1.212415888109803,-0.18376010656356812,-0.0331997349858284,-0.6251360177993774
1772376464222771500,4.869771484375,0.2584144240166992,0.7944605251520872,-1.5232576147824526,-0.07766283303499222,0.08824758976697922,-0.543369472026825
1772376464232721400,4.879721435546875,0.6476782377582043,0.952930254665017,-1.618591965946555,0.06097041815519333,0.21340817213058472,-0.4221098721027374
1772376464242670600,4.889670654296875,0.9231667653683573,1.0821858723923563,-1.3951181416034697,0.20931966602802277,0.31475818157196045,-0.26622259616851807
1772376464252619500,4.89961962890625,1.144938388903439,1.1454407854676245,-0.893882437890768,0.33639585971832275,0.3569492995738983,-0.11239176988601685
1772376464262569500,4.909569580078125,1.2175279704265296,1.0505109234511851,-0.194402628159523,0.41571664810180664,0.3651891350746155,0.024457577615976334
1772376464272518400,4.919518310546875,1.097008251536265,0.8274766595691442,0.44865912877917286,0.47113198041915894,0.3674805164337158,0.12710139155387878
1772376464282468400,4.92946826171875,0.8697698139626532,0.6457748152896762,1.0424743319898844,0.477239727973938,0.3222012221813202,0.17841115593910217
1772376464292417500,4.93941748046875,0.6150244338475167,0.4125590568721294,1.5945190164417027,0.44116586446762085,0.25675028562545776,0.18694418668746948
1772376464302367500,4.949367431640625,0.3780968152999878,0.12068185064941644,2.0285914014637467,0.39457300305366516,0.19912134110927582,0.15461210906505585
1772376464312316400,4.95931640625,0.1008272129593417,-0.08478811496943235,2.2573978190064428,0.3206298053264618,0.156295046210289,0.08396351337432861
1772376464322265300,4.969265380859375,-0.11570848268363625,-0.2288166466757655,2.447667292883992,0.20983672142028809,0.08681581914424896,-0.006083063315600157
1772376464332215300,4.97921533203125,-0.2505970282640308,-0.3425193059623241,2.6184844627946613,0.07031663507223129,0.018821854144334793,-0.10120159387588501
1772376464342164500,4.98916455078125,-0.3309486951559782,-0.38156595271527766,2.6324673954397437,-0.05936118960380554,-0.05901990085840225,-0.17712077498435974
1772376464352114400,4.999114501953125,-0.2892594249397516,-0.3347846200570464,2.4491432106554507,-0.16419492661952972,-0.15288569033145905,-0.26689887046813965
1772376464362063400,5.0090634765625,-0.2500491120576858,-0.29358517918437715,2.1509996375143525,-0.23142610490322113,-0.2283487766981125,-0.347721666097641
1772376464372013300,5.019013427734375,-0.24458361319340763,-0.21798574832081793,1.6321072810798882,-0.26526182889938354,-0.2418169230222702,-0.41016799211502075
1772376464381962500,5.02896240234375,-0.1393997759271413,-0.06408318059295416,1.1107494113147258,-0.28609034419059753,-0.2502903640270233,-0.4403833746910095
1772376464391911400,5.038911376953125,-0.018661117056570947,0.15023732321858405,0.7141793662130832,-0.307839572429657,-0.27802184224128723,-0.4384174346923828
1772376464401861400,5.048861328125,0.10975052412729709,0.31720074031054973,0.4719494034737348,-0.32527977228164673,-0.3096473813056946,-0.4094158411026001
1772376464411810300,5.058810302734375,0.3624874504968524,0.3611041794449091,0.1592944898992777,-0.33173927664756775,-0.27163130044937134,-0.37144553661346436
1772376464421760300,5.06876025390625,0.5061018484443426,0.36856647814959287,-0.17386895869672297,-0.32739150524139404,-0.1881350576877594,-0.32993948459625244
1772376464431709400,5.07870947265625,0.456493073807843,0.4884396427646279,-0.4900274964779615,-0.29773828387260437,-0.07106143981218338,-0.26620471477508545
1772376464441658600,5.08865869140625,0.5156077818058431,0.5652689076840878,-0.743233026739955,-0.25773221254348755,0.057556211948394775,-0.18106643855571747
1772376464451608300,5.0986083984375,0.6135637136451899,0.5640022487491368,-0.8576537711679935,-0.19550079107284546,0.18657571077346802,-0.07428912818431854
1772376464461557500,5.1085576171875,0.6370071330748498,0.6073930621862411,-0.8302548921108245,-0.1357482373714447,0.2826385796070099,0.030155256390571594
1772376464471507200,5.118507080078125,0.6435265979714692,0.5650102567479014,-0.5764835446596145,-0.0840192660689354,0.3210541605949402,0.12460958957672119
1772376464481456600,5.12845654296875,0.5823382985698059,0.40526626951545475,-0.20179040032327175,-0.04700426012277603,0.31316080689430237,0.2013603001832962
1772376464491406300,5.13840625,0.4476086333455518,0.18358663511276244,0.16522037281692026,-0.019102588295936584,0.29479777812957764,0.25102531909942627
1772376464501355500,5.14835546875,0.2604162653584033,-0.04134352551847696,0.42448213437795634,-0.0021278085187077522,0.28994065523147583,0.26430845260620117
1772376464511304400,5.158304443359375,0.02997581687308848,-0.19012889636307953,0.5767804817795753,-0.0009307176806032658,0.2695951759815216,0.2535112202167511
1772376464521254700,5.168254638671875,-0.1229054084504023,-0.3471270920187235,0.7695400189071894,-0.020320847630500793,0.25421279668807983,0.22978197038173676
1772376464531203600,5.17820361328125,-0.1807699337242171,-0.5386448123916984,0.9715624744206667,-0.05904001370072365,0.24533917009830475,0.19107744097709656
1772376464541153500,5.188153564453125,-0.21515099981892852,-0.6439259725525975,1.082992220339179,-0.10205639153718948,0.24370326101779938,0.1500815898180008
1772376464551102500,5.1981025390625,-0.24753300105091183,-0.7330687756001949,1.1295663399875164,-0.14031003415584564,0.2382483035326004,0.10442516952753067
1772376464561052400,5.208052490234375,-0.2693139306284487,-0.7551829922527075,1.0755839899092912,-0.1688127964735031,0.24506138265132904,0.07310941815376282
1772376464571001600,5.218001708984375,-0.3012061755821109,-0.754223207309842,0.9818687643796205,-0.18660856783390045,0.25179117918014526,0.046744123101234436
1772376464580950500,5.227950439453125,-0.23950700404886155,-0.7821896571218967,0.8505062375009059,-0.1962307095527649,0.23492908477783203,0.03368031978607178
1772376464590900500,5.237900390625,-0.07190258563961834,-0.8214408865362405,0.7146686110347509,-0.1946714222431183,0.20476798713207245,0.025227978825569153
1772376464600849400,5.247849365234375,0.03180255737621337,-0.8288777585387229,0.5666232449024915,-0.1879749745130539,0.16447411477565765,0.022838978096842766
1772376464610799400,5.25779931640625,0.021997385339811444,-0.8157458897650242,0.3767395554721355,-0.1791258156299591,0.13091643154621124,0.01805780455470085
1772376464620748500,5.26774853515625,-0.02769749667756259,-0.8099713980168104,0.10645780272483825,-0.17524725198745728,0.13869686424732208,0.009783484041690826
1772376464630698500,5.277698486328125,-0.11132467810884117,-0.7581295670986176,-0.154334821665287,-0.17214015126228333,0.17320238053798676,0.004677138291299343
1772376464640647400,5.2876474609375,-0.18875358942188322,-0.7699442157939076,-0.38631519306898116,-0.1781586855649948,0.22675244510173798,-0.00566090876236558
1772376464650596400,5.297596435546875,-0.18778554810732603,-0.795165750811994,-0.4611328259050846,-0.1635211557149887,0.2988050580024719,-0.011349154636263847
1772376464660546600,5.307546630859375,-0.16491386415101586,-0.7782175386205316,-0.5678524944365024,-0.13334913551807404,0.40015140175819397,-0.001756672514602542
1772376464670495500,5.31749560546875,-0.1254524991173297,-0.731824620757997,-0.5743851110756397,-0.10591751337051392,0.4726991057395935,0.011632103472948074
1772376464680445400,5.327445556640625,-0.0033726913034915922,-0.7017454165756702,-0.3512649224758148,-0.09198640286922455,0.492417573928833,0.0356968529522419
1772376464690393900,5.337393798828125,0.12731193631365895,-0.726535282178223,0.0039449382334947585,-0.09596196562051773,0.46115925908088684,0.05279461294412613
1772376464700342800,5.3473427734375,0.22903087394833563,-0.7956833449453115,0.3234229758262634,-0.10848972946405411,0.40628060698509216,0.06042070686817169
1772376464710292700,5.357292724609375,0.27367731346972285,-0.825729523640871,0.5155231722623109,-0.12913109362125397,0.3448209762573242,0.05747684836387634
1772376464720242000,5.367241943359375,0.3079579879298806,-0.8482493984848261,0.5665437499254942,-0.1414850950241089,0.3173001706600189,0.04827076569199562
1772376464730192000,5.37719189453125,0.4298471685424447,-0.8797869847819209,0.4896282680273056,-0.15178699791431427,0.3061782717704773,0.049204472452402115
1772376464740140800,5.387140869140625,0.6146331695076078,-0.8956091155529021,0.5012906487703324,-0.189033642411232,0.26133993268013,0.052624382078647614
1772376464750090800,5.3970908203125,0.7907840285964309,-0.8550739838078617,0.6168646548867225,-0.2601323127746582,0.16865980625152588,0.0645018145442009
1772376464760039700,5.407039794921875,0.8670057560767978,-0.7898825497120618,0.7248843001008033,-0.3582359254360199,0.053291670978069305,0.07425343245267868
1772376464769989000,5.416989013671875,0.7916117846574634,-0.7192071312472224,0.6275163972824812,-0.48259595036506653,-0.05488486588001251,0.06302448362112045
1772376464779938800,5.426938720703125,0.468724961534515,-0.6261167596176266,0.24587504124343393,-0.6101160645484924,-0.16066507995128632,0.012463800609111786
1772376464789888000,5.436887939453125,0.12279847747720778,-0.5987324936076999,-0.3597124328255653,-0.6873865723609924,-0.18436667323112488,-0.0672675147652626
1772376464799838000,5.446837890625,-0.06228511819504201,-0.6163681035414338,-1.1408248161047696,-0.7011727094650269,-0.13848140835762024,-0.14980460703372955
1772376464809787100,5.456787109375,-0.2130615167263895,-0.4565370225474238,-1.936374305537343,-0.6620602011680603,-0.03353741765022278,-0.21897515654563904
1772376464819736800,5.46673681640625,-0.10989654500186442,-0.28214024058431386,-2.501823245963454,-0.557748556137085,0.11389410495758057,-0.23682647943496704
1772376464829686000,5.47668603515625,0.23815401853732762,-0.08128975145965814,-2.8115491203486918,-0.41542524099349976,0.26673346757888794,-0.18629884719848633
1772376464839635000,5.486635009765625,0.6690348409764468,0.22550357660502193,-2.7625883978247643,-0.2653682231903076,0.38136088848114014,-0.07216084748506546
1772376464849585000,5.4965849609375,1.0865911216139792,0.5833282959878444,-2.350371870779991,-0.14117330312728882,0.4339796006679535,0.089354008436203
1772376464859534000,5.5065341796875,1.3967153476670384,0.8555302031427622,-1.7203163104087114,-0.06998187303543091,0.4212487041950226,0.27033451199531555
1772376464869484000,5.516484130859375,1.5524249648168682,0.9279232391804456,-1.0922609839439392,-0.05111098289489746,0.3723794221878052,0.44025030732154846
1772376464879433000,5.526432861328125,1.5240512493781744,0.8725479734390974,-0.6137871471375227,-0.03816808760166168,0.309812992811203,0.5626412630081177
1772376464889383000,5.5363828125,1.3364429575338959,0.7550815777048469,-0.360846989813447,-0.015167697332799435,0.2646583020687103,0.6241762638092041
1772376464899331800,5.546331787109375,1.0682320197112858,0.6388584600299596,-0.2848918773800134,0.025644419714808464,0.23045065999031067,0.6477503180503845
1772376464909281000,5.556281005859375,0.8584495977208018,0.558640137194097,-0.251080208671093,0.07872015237808228,0.21161599457263947,0.6536785364151001
1772376464919231000,5.56623095703125,0.7703399371132255,0.538444029122591,-0.21395079371631145,0.12936238944530487,0.18228864669799805,0.6736096143722534
1772376464929180000,5.576179931640625,0.8005969820804893,0.5519067372858524,-0.11161737744510174,0.17222703993320465,0.13639625906944275,0.7043923139572144
1772376464939129900,5.5861298828125,0.8568379978056997,0.6187728265956044,0.005176525855064392,0.19524884223937988,0.09052985161542892,0.7446067929267883
1772376464949079000,5.5960791015625,0.8710431948993355,0.6677902477428317,0.11787702236175536,0.18609821796417236,0.022457057610154152,0.7811312675476074
1772376464959028000,5.606028076171875,0.8515914754543453,0.6990057624787092,0.275038007363677,0.1473150998353958,-0.08283590525388718,0.8081141710281372
1772376464968978000,5.61597802734375,0.8118516588054597,0.6626695437282324,0.2946440405875444,0.09111868590116501,-0.17691686749458313,0.8157385587692261
1772376464978926800,5.6259267578125,0.736770187401399,0.5965227086037397,0.09309621684849262,0.04066506773233414,-0.24240335822105408,0.8049663305282593
1772376464988876800,5.635876708984375,0.5206856695920229,0.5715940190523863,-0.35910686814785003,0.012396680191159248,-0.2848554849624634,0.7733668684959412
1772376464998826000,5.645825927734375,0.3010460165843367,0.622559359396994,-0.9170879569113254,0.00790014024823904,-0.2858482301235199,0.7299745678901672
1772376465008776000,5.65577587890625,0.10058978747427463,0.6977101697102188,-1.5117431180775165,0.03373093903064728,-0.25633081793785095,0.6872037053108215
1772376465018724900,5.665724853515625,-0.01693893290646374,0.7863856475070119,-1.9966203921854495,0.06444954872131348,-0.19284383952617645,0.6440859436988831
1772376465028673800,5.675673828125,-0.05721519451960921,0.8773878146857023,-2.268054237577319,0.11741103231906891,-0.10328679531812668,0.6132212281227112
1772376465038623700,5.685623779296875,-0.031159985156357286,0.9925073550328611,-2.475010642361641,0.19583114981651306,0.032073453068733215,0.6031157970428467
1772376465048573000,5.695572998046875,0.09463467846214771,1.147590364716947,-2.5078011513292786,0.29129189252853394,0.17157383263111115,0.63716721534729
1772376465058523000,5.70552294921875,0.2620473006263375,1.3048995260179042,-2.2664900570005178,0.38896504044532776,0.28037241101264954,0.6961671710014343
1772376465068471800,5.715471923828125,0.45206053472049534,1.4009507932797074,-1.7452303869128227,0.4632869362831116,0.3452393114566803,0.771577000617981
1772376465078421800,5.725421875,0.5583288792878389,1.3954483964711426,-1.034805989319086,0.5117496252059937,0.3785703778266907,0.84278404712677
1772376465088371000,5.735370849609375,0.5822969071134925,1.361036423781514,-0.3826204302042722,0.5515282154083252,0.36687299609184265,0.9102944135665894
1772376465098320100,5.745320068359375,0.48454943039305504,1.3738660947382448,0.18582476942837237,0.552722692489624,0.3215295374393463,0.9458428621292114
1772376465108269800,5.755269775390625,0.41634288625977933,1.215114917935431,0.7358154439598321,0.5179316997528076,0.28123989701271057,0.95880126953125
1772376465118219000,5.765218994140625,0.34024376224577424,0.98201898650527,1.1755892554938792,0.45692190527915955,0.2324022501707077,0.9443584084510803
1772376465128168700,5.775168701171875,0.21528511105999348,0.8246975502446293,1.4604197580754756,0.3733932077884674,0.19268572330474854,0.9079253077507019
1772376465138118100,5.7851181640625,0.07364164785929024,0.677797262494266,1.6188333734869955,0.28175464272499084,0.13927075266838074,0.8560563921928406
1772376465148067000,5.795067138671875,-0.04443893425054848,0.5596861391156912,1.6692133151590822,0.19962835311889648,0.08678809553384781,0.7851342558860779
1772376465158017000,5.80501708984375,-0.12827055221274494,0.4650397702157497,1.6014181283056734,0.13128025829792023,0.04880102723836899,0.725307047367096
1772376465167966000,5.814966064453125,-0.13604907725974916,0.3848445359945297,1.4347475566804408,0.07089866697788239,0.0043123867362737656,0.6574526429176331
1772376465177916000,5.824916015625,-0.14631518133878707,0.3413844567134976,1.3061872277408837,0.02704419195652008,-0.05201613903045654,0.5859538912773132
1772376465187865000,5.834864990234375,-0.14004406518004833,0.3107859048321843,1.11988022775352,0.004722907207906246,-0.09663846343755722,0.5275688767433167
1772376465197815000,5.84481494140625,-0.13669373183883726,0.3121335200488567,0.8594055832713842,0.0003877481212839484,-0.1239854022860527,0.483849436044693
1772376465207764000,5.854763916015625,-0.1471963480874896,0.36934769165515896,0.5626151783049106,0.0017480908427387476,-0.13034608960151672,0.45046111941337585
1772376465217713000,5.864712890625,-0.136617743993178,0.4033507912829518,0.287216520935297,0.012431230396032333,-0.1154070794582367,0.42341846227645874
1772376465227663000,5.8746630859375,-0.1272340122392401,0.4342246529743075,0.08185819899737834,0.016033155843615532,-0.07933749258518219,0.4057379961013794
1772376465237612000,5.884612060546875,-0.07551525971144438,0.3975564257904887,-0.06427870316505432,0.024331633001565933,-0.03505605459213257,0.3940303921699524
1772376465247562000,5.89456201171875,-0.016120090804249046,0.34871143860071896,-0.09921031581461429,0.022216815501451492,0.010989202186465263,0.3709125518798828
1772376465257511000,5.904510986328125,0.003664002400264144,0.2956841972902417,-0.06334346814155578,0.023079529404640198,0.05386178195476532,0.34988293051719666
1772376465267460900,5.9144609375,-0.006355944897979498,0.23947452655136583,0.002861234650015831,0.01828131265938282,0.0857938826084137,0.3312261402606964
1772376465277410000,5.92441015625,-0.0031509383115917444,0.16616057627648115,0.07649287257194519,0.020275305956602097,0.10514873266220093,0.3082127869129181
1772376465287359000,5.93435888671875,0.0034970118029043077,0.09807020586878061,0.18511223724484444,0.02523837424814701,0.11069422960281372,0.28058433532714844
1772376465297309000,5.944308837890625,0.03662668959703296,0.020552666424214838,0.3181429895967245,0.03448525816202164,0.10096380859613419,0.2566433846950531
1772376465307257900,5.9542578125,0.09419011303242296,-0.0602361497759819,0.4338754011452198,0.04131174087524414,0.09291786700487137,0.2354494333267212
1772376465317207800,5.964207763671875,0.15835319046117363,-0.103789460298419,0.5448515580773353,0.04020766168832779,0.08863072842359543,0.21424663066864014
1772376465327157000,5.974156982421875,0.18068791799657047,-0.14579437233507633,0.6757423757910728,0.026751244440674782,0.08795081824064255,0.20143602788448334
1772376465337106000,5.98410595703125,0.2174204791208729,-0.16889350837171077,0.77927406193614,0.0014234455302357674,0.059198249131441116,0.18941189348697662
1772376465347055900,5.994055908203125,0.216344410854578,-0.21444763732254504,0.8650310219377279,-0.03401044383645058,0.04309944063425064,0.1717652529478073
1772376465357004800,6.0040048828125,0.24534195728003977,-0.27905308822393415,0.8294611113846302,-0.06531404703855515,0.02223195880651474,0.1387484073638916
1772376465366955000,6.013955078125,0.16543332144785672,-0.3620452596873045,0.7341752755373716,-0.08578549325466156,0.016074463725090027,0.10364874452352524
1772376465376904000,6.023904052734375,0.1470336318064481,-0.3951037719413638,0.592433977985382,-0.09119728952646255,0.015322759747505188,0.07044466584920883
1772376465386854000,6.03385400390625,0.16673362692408264,-0.3945116512671113,0.4286228874444961,-0.09012829512357712,0.006404898129403591,0.048440828919410706
1772376465396802800,6.043802734375,0.21256145824976264,-0.353916606028378,0.29799452005922794,-0.08289255201816559,-0.004563881084322929,0.03509656339883804
1772376465406751700,6.053751708984375,0.2571999336604029,-0.3155237470090389,0.19404256267547607,-0.06975118070840836,-0.017606977373361588,0.03316417336463928
1772376465416702000,6.063701904296875,0.3328728316189721,-0.28746669630408284,0.1312912152081728,-0.06543999165296555,-0.04044172540307045,0.039071518927812576
1772376465426651000,6.07365087890625,0.354390032226406,-0.25622809295356275,0.03373568086326122,-0.05205228179693222,-0.04137010499835014,0.046999748796224594
1772376465436600800,6.083600830078125,0.3685309319121763,-0.25598463958650824,-0.07934943104684353,-0.03495699167251587,-0.03157529979944229,0.05906252935528755
1772376465446550000,6.093550048828125,0.3740858991581946,-0.267906255787611,-0.15602525897026062,-0.012471922673285007,-0.023185811936855316,0.06834231317043304
1772376465456499000,6.1034990234375,0.36358777642156925,-0.26639994287788865,-0.20314882919490337,0.006128458306193352,-0.011063373647630215,0.07572558522224426
1772376465466449000,6.113448974609375,0.37155360420159994,-0.3109139151260257,-0.18553660013675688,0.01670839823782444,-0.014205637387931347,0.08165191859006882
1772376465476398000,6.123398193359375,0.35618740050457415,-0.34968145267665385,-0.14587971253097057,0.03050348535180092,-0.03774404153227806,0.08480557799339294
1772376465486348000,6.13334814453125,0.36044699417781084,-0.37037352757155895,-0.07656126163303852,0.03301750868558884,-0.08017299324274063,0.08288250863552094
1772376465496297000,6.143296875,0.3053708575135097,-0.38588440043628214,-0.06467150187492371,0.03834858164191246,-0.12169932574033737,0.07346471399068832
1772376465506247000,6.153246826171875,0.22430475874189287,-0.41356998748034235,-0.10892214701175688,0.036807943135499954,-0.161449134349823,0.05985862761735916
1772376465516196000,6.163196044921875,0.14306253621838985,-0.4072179881051183,-0.24724808316230773,0.04463770240545273,-0.17536044120788574,0.04912494495511055
1772376465526145000,6.17314501953125,0.04685947592835873,-0.3751704064592719,-0.43565410125553605,0.06576535850763321,-0.16322308778762817,0.03810824826359749
1772376465536095000,6.183094970703125,-0.03475362573415041,-0.3554132743269205,-0.6246440567165613,0.0914817824959755,-0.13623908162117004,0.03689088672399521
1772376465546044000,6.1930439453125,-0.05242646240573376,-0.37099049042612314,-0.6851373961240053,0.1203022450208664,-0.120404452085495,0.03967202827334404
1772376465555994000,6.202994140625,-0.07270075027998536,-0.3521180321738124,-0.6814262666463852,0.15280838310718536,-0.11401824653148651,0.03710769861936569
1772376465565943000,6.212943115234375,-0.10983031136523931,-0.3301367942512035,-0.6355126567333936,0.1915730983018875,-0.1047336682677269,0.03352947160601616
1772376465575893000,6.22289306640625,-0.14287073997333646,-0.3333542949929833,-0.5033382289499044,0.22141088545322418,-0.11040988564491272,0.022708337754011154
1772376465585842000,6.232842041015625,-0.1400815111136064,-0.32130145362764595,-0.23919980126321314,0.22339919209480286,-0.1339293271303177,0.007023117039352655
1772376465595790800,6.242790771484375,-0.13436200095564127,-0.3182186851814389,0.11621639567315578,0.18851323425769806,-0.16433602571487427,-0.011503138579428196
1772376465605741000,6.252740966796875,-0.10927161803655326,-0.3621083880513906,0.4868032737344503,0.12444505095481873,-0.18559204041957855,-0.029139656573534012
1772376465615690000,6.26268994140625,-0.06156144356299191,-0.39483021569699045,0.7286766781210899,0.04005172476172447,-0.1890943944454193,-0.03836904093623161
1772376465625640000,6.272639892578125,-0.0450952427348122,-0.33726796130537984,0.8263520394533872,-0.0809473991394043,-0.2965545654296875,-0.07516833394765854
1772376465635588900,6.2825888671875,-0.16576823422433806,-0.3834416834592819,0.9509300207585096,-0.21759732067584991,-0.3883979022502899,-0.14131249487400055
1772376465645537800,6.292537841796875,-0.3962149845862761,-0.44162382331490513,0.8277700895577669,-0.33707311749458313,-0.4471411108970642,-0.23734448850154877
1772376465655488000,6.302488037109375,-0.7032698496639728,-0.40187662707716226,0.32087329134345055,-0.40736323595046997,-0.427659809589386,-0.3476819396018982
1772376465665437000,6.31243701171875,-0.8997421237044035,-0.2925198880404234,-0.40189679308235643,-0.42067399621009827,-0.3408154547214508,-0.44353947043418884
1772376465675387000,6.322386962890625,-0.8516861680004745,-0.14736498265266418,-1.0320914696633816,-0.4029948115348816,-0.25226184725761414,-0.4925285577774048
1772376465685335800,6.332335693359375,-0.5401376082327216,-0.0527136453166604,-1.2796715612590313,-0.3371066153049469,-0.1819530874490738,-0.47908490896224976
1772376465695286000,6.3422861328125,-0.14320199948800727,0.15746142925322054,-1.4811936660349367,-0.2295684814453125,-0.1502593457698822,-0.411337286233902
1772376465705235000,6.35223486328125,0.17343650382990017,0.35227877569347615,-1.5776766027122735,-0.09575343132019043,-0.1434701532125473,-0.31841105222702026
1772376465715183900,6.362183837890625,0.39749892344959076,0.47430882608145475,-1.6248410894691943,0.05891864746809006,-0.13325315713882446,-0.21985477209091187
1772376465725134000,6.372134033203125,0.4489815656665712,0.49619215658754107,-1.5545464870154857,0.20756883919239044,-0.1153082400560379,-0.13734126091003418
1772376465735083000,6.3820830078125,0.2965506231275387,0.5043725404337048,-1.311574765998125,0.3190555274486542,-0.091265007853508,-0.08837181329727173
1772376465745033000,6.392032958984375,0.020589783564209936,0.40552696627825496,-0.8888198938041925,0.3730388879776001,-0.06176091358065605,-0.06956910341978073
1772376465754982000,6.40198193359375,-0.20716738065388052,0.243700327552855,-0.3490606904298067,0.3760795593261719,-0.03807501494884491,-0.07687853276729584
1772376465764931000,6.41193115234375,-0.3638819005299359,0.06274754807502031,0.15909633697867392,0.3514772653579712,-0.0282138604670763,-0.10179080069065094
1772376465774881000,6.421881103515625,-0.47875316520445044,-0.062060442593693727,0.4918360072046518,0.31927090883255005,-0.0012137126177549362,-0.13928614556789398
1772376465784830200,6.431830322265625,-0.6898113062191754,-0.0892190831542015,0.7008177803367376,0.25641337037086487,-0.008373887278139591,-0.19823014736175537
1772376465794780000,6.44177978515625,-0.8351995089061558,-0.14737579630762337,0.9221072463780641,0.17144183814525604,-0.029815003275871277,-0.2694636881351471
1772376465804729000,6.45172900390625,-0.9512210395943372,-0.20144202527701854,1.0576368298083543,0.06639744341373444,-0.07062102109193802,-0.35892191529273987
1772376465814679000,6.461678955078125,-1.0412353647794574,-0.24841771146357058,1.05857732552886,-0.04376134276390076,-0.1113939881324768,-0.4695543050765991
1772376465824628200,6.471628173828125,-1.096793439741805,-0.22615327268540858,0.8329752569854258,-0.13214899599552155,-0.13474299013614655,-0.5816294550895691
1772376465834577200,6.4815771484375,-1.06444059153907,-0.14453355861902237,0.43657413870990275,-0.18244679272174835,-0.11841756850481033,-0.6745151877403259
1772376465844527000,6.491527099609375,-0.8788552568897604,0.08125292658060788,-0.07003858186602592,-0.19764278829097748,-0.0922035425901413,-0.7278636693954468
1772376465854476000,6.50147607421875,-0.6024428193677216,0.3480634960860014,-0.4944581724017858,-0.1876513510942459,-0.06449095904827118,-0.7306647896766663
1772376465864426200,6.51142626953125,-0.26335898601310326,0.5819947092965245,-0.6919663653612137,-0.16555297374725342,-0.04247301071882248,-0.6904430985450745
1772376465874375200,6.521375244140625,0.16083349950220435,0.7203256138831376,-0.8044540959000587,-0.10998670011758804,0.013571112416684628,-0.6071763634681702
1772376465884324000,6.531323974609375,0.4767154488317668,0.8985419541344046,-0.9837672914773226,-0.022385215386748314,0.0888456255197525,-0.4828554689884186
1772376465894274000,6.541274169921875,0.6688638683237135,1.0499351693898438,-1.0330553462594747,0.09492555260658264,0.17324090003967285,-0.34479472041130066
1772376465904223000,6.551222900390625,0.7449237563058734,1.1220803681463003,-0.9160907625675201,0.20161816477775574,0.2557714581489563,-0.20986060798168182
1772376465914173200,6.561173095703125,0.7137026886120438,1.0349395525708793,-0.5477841043978929,0.26931166648864746,0.2930314540863037,-0.10042248666286469
1772376465924122000,6.5711220703125,0.6538433362592011,0.7859902184486389,0.07315875971317291,0.3046395480632782,0.2733890414237976,-0.02788623794913292
1772376465934072000,6.581072021484375,0.5499190705999731,0.5003609667047858,0.6727420249313115,0.31923678517341614,0.2626834809780121,0.00972076877951622
1772376465944021000,6.59102099609375,0.34991460384540257,0.2910328643530607,1.0214864890187978,0.3057055175304413,0.20330137014389038,0.01083450298756361
1772376465953970000,6.600969970703125,0.13057608920875935,0.16029899076670406,1.3909259506106375,0.2701413929462433,0.13463948667049408,-0.01663200929760933
1772376465963920100,6.610920166015625,0.008702800285071133,-0.004838087680935859,1.6660609886080027,0.20828814804553986,0.08574837446212769,-0.05781060457229614
1772376465973869000,6.620869140625,-0.08059175925813615,-0.15449702648967503,1.8090379654347895,0.12684260308742523,0.037320878356695175,-0.11045294255018234
1772376465983819000,6.630819091796875,-0.17721527344994245,-0.21278291898071763,1.8570003245711326,0.03207588195800781,0.006794393062591553,-0.16988404095172882
1772376465993768000,6.640767822265625,-0.2635674959309399,-0.2317404251679778,1.8242279357820748,-0.06342937797307968,0.003657807596027851,-0.2266717106103897
1772376466003716900,6.650716796875,-0.2632541556654498,-0.23036212255209684,1.6843904260247944,-0.14600840210914612,0.017270822077989578,-0.2746141850948334
1772376466013667000,6.6606669921875,-0.23850118800718337,-0.19396189865469932,1.4750117625296115,-0.20407725870609283,0.02474573627114296,-0.3028627932071686
1772376466023616000,6.670615966796875,-0.1487835076810792,-0.10887918465286493,1.2417851904571056,-0.2366410493850708,0.030834518373012543,-0.3219565749168396
1772376466033566000,6.68056591796875,0.005455196665972471,-0.045865971378982066,0.9770762694060802,-0.2673346996307373,0.05238328129053116,-0.323434054851532
1772376466043515000,6.690514892578125,0.13933628223687408,0.031138650107383727,0.768552176913619,-0.2880929708480835,0.03547114133834839,-0.30474770069122314
1772376466053465000,6.700465087890625,0.2561900990307331,0.10854805300235748,0.5889408751726151,-0.2896253168582916,0.0265865009278059,-0.26871588826179504
1772376466063414000,6.7104140625,0.3638483270538971,0.12503478516191244,0.3281856601834297,-0.28491684794425964,0.024572620168328285,-0.23490333557128906
1772376466073363000,6.720363037109375,0.34695948036685587,0.1346560154661536,0.14883271711766718,-0.26629894971847534,-0.0025702971033751965,-0.20522181689739227
1772376466083313000,6.73031298828125,0.29710495080836113,0.10598346321135758,0.02747077524960041,-0.23657619953155518,0.020051125437021255,-0.18076680600643158
1772376466093262000,6.740261962890625,0.2810962844893336,0.10330664521753788,-0.22066168953180312,-0.18700897693634033,0.03885522112250328,-0.14738790690898895
1772376466103212000,6.7502119140625,0.27250805049464105,0.11620499749630689,-0.3589887947261333,-0.14022761583328247,0.0673675537109375,-0.11717488616704941
1772376466113161000,6.760160888671875,0.2924464574780315,0.11431231561750173,-0.31959201936125753,-0.09237255156040192,0.11095414310693741,-0.07336216419935226
1772376466123111000,6.77011083984375,0.3291265212301165,0.10206102907061576,-0.2762450450658798,-0.050352659076452255,0.15860874950885773,-0.016671989113092422
1772376466133060000,6.78006005859375,0.3553150015842169,0.10005641124993563,-0.11990882045030593,-0.018238283693790436,0.18738842010498047,0.041269898414611816
1772376466143009000,6.790009033203125,0.3112517687782645,0.027807459858059883,0.17133973248004913,-0.009009366855025291,0.1831025928258896,0.08258964121341705
1772376466152959200,6.799959228515625,0.2209599418260157,-0.10300824679285288,0.524758618119359,-0.019787561148405075,0.15947960317134857,0.1011664941906929
1772376466162908200,6.809908203125,0.10695318502634762,-0.2554138539612293,0.790788558641076,-0.03828880563378334,0.12237296998500824,0.10247144848108292
1772376466172858000,6.819858154296875,-0.0567540798138827,-0.3721528122037649,0.9501064294159411,-0.06322652846574783,0.0966702476143837,0.08158913254737854
1772376466182807000,6.82980712890625,-0.15422054763585327,-0.485272703166306,0.9584241759061812,-0.08384604752063751,0.0902155414223671,0.05800417810678482
1772376466192756000,6.839755859375,-0.22576807276010513,-0.5347188711196184,0.9445259989351034,-0.10801982879638672,0.09709528833627701,0.032153140753507614
1772376466202706200,6.8497060546875,-0.3062364978995174,-0.560064909300208,0.8970844488024711,-0.13022206723690033,0.11074265837669373,0.010402838699519634
1772376466212655000,6.859655029296875,-0.3133317899227142,-0.5924599892094731,0.8411737610101699,-0.14720381796360016,0.12459316104650497,-0.00425343681126833
1772376466222605000,6.86960498046875,-0.23208163982108235,-0.6511915796414017,0.8289636832565068,-0.1505972146987915,0.12548425793647766,-0.013640014454722404
1772376466232554000,6.879553955078125,-0.14045790667794644,-0.6736161774173378,0.7882739454716443,-0.1598145067691803,0.1305142492055893,-0.017153454944491386
1772376466242503200,6.889503173828125,-0.09613273500017822,-0.6657794924423098,0.7646341266870498,-0.1774134784936905,0.12393410503864288,-0.02555226720869541
1772376466252453000,6.899453125,-0.08058664469160139,-0.6758610337346792,0.7258850015759468,-0.18499915301799774,0.12335436791181564,-0.02455197460949421
1772376466262402000,6.909402099609375,-0.012486994998902082,-0.6982324400186538,0.5971925706893205,-0.17035655677318573,0.12851691246032715,-0.013021019287407398
1772376466272352000,6.91935205078125,0.05559950295127928,-0.7004746659874915,0.41655777111947534,-0.1467692255973816,0.13992264866828918,-0.005278808064758778
1772376466282301000,6.929301025390625,0.09980265568457543,-0.6683993195518851,0.2822083373844623,-0.12623119354248047,0.14689186215400696,0.007516082841902971
1772376466292251100,6.939251220703125,0.15562800328098236,-0.6464052221477031,0.24924773254692553,-0.11555702239274979,0.15383826196193695,0.02786843478679657
1772376466302200000,6.949199951171875,0.1968099815621972,-0.6605898148447275,0.20920506049394608,-0.10962563008069992,0.15787747502326965,0.0463973768055439
1772376466312149000,6.95914892578125,0.2517904758322984,-0.669348875361681,0.18281039004325866,-0.11158115416765213,0.15933439135551453,0.0710287019610405
1772376466322099000,6.969098876953125,0.27340931018330156,-0.6866884249582886,0.12810673995316027,-0.10413016378879547,0.1516791433095932,0.09170761704444885
1772376466332048000,6.9790478515625,0.3034420448753983,-0.6891659209877252,0.04436696499288082,-0.1018618643283844,0.1488940417766571,0.1148664727807045
1772376466341998000,6.988998046875,0.27938253937400875,-0.6981096904218197,-0.08399111937284469,-0.09728042781352997,0.1467597782611847,0.1221238523721695
1772376466351947000,6.998947021484375,0.2117201851200312,-0.8049617531612515,-0.10319441701471804,-0.1059621199965477,0.20610225200653076,0.11111930757761002
1772376466361896000,7.00889599609375,0.21376104329787193,-0.902146408367157,-0.14633330151736734,-0.11116886883974075,0.2682734727859497,0.11582405120134354
1772376466371846000,7.018845947265625,0.27338490639440716,-0.9127233319610357,-0.22671207561194895,-0.11255346238613129,0.33143293857574463,0.12558573484420776
1772376466381795000,7.028795166015625,0.44741592378504574,-0.9689186819136142,-0.14551847800314427,-0.10801064223051071,0.40677323937416077,0.15088896453380585
1772376466391745000,7.0387451171875,0.6247538007013499,-0.999581531202793,-0.05869067389965057,-0.12398473173379898,0.5151101350784302,0.17838583886623383
1772376466401694000,7.04869384765625,0.7885005938343703,-1.0644064700737594,0.13964520205557346,-0.18877306580543518,0.5800508260726929,0.2010461390018463
1772376466411644000,7.058643798828125,0.9648797817863524,-1.1655758110016583,0.5721849706828593,-0.3176315724849701,0.5941045880317688,0.20862379670143127
1772376466421592800,7.0685927734375,1.029385279444605,-1.3443182209536433,0.9704150579512119,-0.4938609302043915,0.5057512521743774,0.18438637256622314
1772376466431542300,7.078542236328125,0.8854979828398675,-1.4235463637083767,1.1708476139247417,-0.685155987739563,0.34650665521621704,0.11639313399791718
1772376466441492000,7.088491943359375,0.5269862310409545,-1.3745976238831876,0.9296183526605367,-0.8430819511413574,0.16546577215194702,0.011735162697732449
1772376466451441200,7.098441162109375,0.10373977593779564,-1.2244383343368768,0.16570084981024263,-0.9532139301300049,-0.025443142279982567,-0.12342819571495056
1772376466461390800,7.108390869140625,-0.14547843825370071,-1.026743678894639,-0.7521504926890135,-0.9962756037712097,-0.132409006357193,-0.2775098979473114
1772376466471340000,7.118340087890625,-0.07739435145631432,-0.9607879824280738,-1.7069027020841836,-0.9589923620223999,-0.15643072128295898,-0.39735594391822815
1772376466481289200,7.128289306640625,0.1319596159890294,-0.7189923194527625,-2.709586875477433,-0.8179564476013184,-0.0933750569820404,-0.4499264657497406
1772376466491239200,7.1382392578125,0.4996325062997639,-0.3128662182375789,-3.598329612392187,-0.5908716320991516,0.06044434756040573,-0.41312769055366516
1772376466501188000,7.14818798828125,0.9707993810936808,0.10370938079953193,-4.04338867085278,-0.3233371078968048,0.24033981561660767,-0.30456897616386414
1772376466511138000,7.158137939453125,1.4437225980356334,0.5287283985331654,-3.859742999029159,-0.0842009112238884,0.4079304039478302,-0.12971043586730957
1772376466521087000,7.1680869140625,1.8480862196229397,0.9468570722311734,-3.2176006950229405,0.07798799872398376,0.49543657898902893,0.11008484661579132
1772376466531037200,7.178037109375,2.0471677993789315,1.2458300819337367,-2.305341473442316,0.13862231373786926,0.5445281863212585,0.36704766750335693
1772376466540986000,7.187986083984375,2.058556770008057,1.3724334315866231,-1.388631117671728,0.13501904904842377,0.5476238131523132,0.595971405506134
1772376466550935000,7.19793505859375,1.9093034893907606,1.337076579262316,-0.7592419122546911,0.1208636462688446,0.5250542759895325,0.7614548206329346
1772376466560885000,7.207885009765625,1.6799838616289198,1.0541636007398367,-0.41059330975711344,0.14200276136398315,0.4898552894592285,0.8469937443733215
1772376466570834200,7.217834228515625,1.3156411386542022,0.8628694599896669,-0.2931850739508867,0.21340160071849823,0.4758545756340027,0.8739157319068909
1772376466580784000,7.2277841796875,0.974928151461482,0.8057324452728033,-0.2574222711741924,0.2854137420654297,0.4204411208629608,0.8826194405555725
1772376466590733000,7.237733154296875,0.8573055422522127,0.7740107345804572,-0.03668517831861973,0.34712696075439453,0.34251168370246887,0.9034780859947205
1772376466600682000,7.247681884765625,0.8837360146686434,0.7442714298769831,0.23353578415215015,0.37456658482551575,0.2400875985622406,0.9348160624504089
1772376466610632000,7.2576318359375,0.8356742868110537,0.7442652923971415,0.5054284792274236,0.3673063814640045,0.13093173503875732,0.9647294878959656
1772376466620581000,7.2675810546875,0.6963397581398487,0.8135819897294044,0.7068126368373632,0.3338592052459717,0.014087686315178871,0.9780012965202332
1772376466630531000,7.277531005859375,0.5810894310198724,0.7974366183534264,0.7753507510125637,0.2731221914291382,-0.1178942620754242,0.9710145592689514
1772376466640480000,7.28747998046875,0.4631900506958365,0.6910171018123626,0.7311299164921045,0.20279476046562195,-0.23451994359493256,0.9355508685112
1772376466650429000,7.297428955078125,0.3176189657226205,0.5941980650484562,0.5060767140030861,0.14496813714504242,-0.3262863755226135,0.8759881854057312
1772376466660379000,7.30737890625,0.10505188144966959,0.6189546129032969,0.050661681222915644,0.09762006998062134,-0.38803577423095703,0.7997618913650513
1772376466670328000,7.317328125,-0.1175134497463703,0.7358095987409353,-0.5419149201035499,0.07331528514623642,-0.4211747646331787,0.7301070690155029
1772376466680278000,7.327278076171875,-0.18471176668517292,0.8589978792533278,-1.0357260267734527,0.054452113807201385,-0.42128926515579224,0.6652156710624695
1772376466690227000,7.33722705078125,-0.2554380385544151,0.8937646567299962,-1.4478800099760294,0.07233470678329468,-0.3440661132335663,0.5920106768608093
1772376466700177000,7.347177001953125,-0.3887197699926793,0.8417600364655256,-1.9333307000577449,0.13611873984336853,-0.17524272203445435,0.5069898366928101
1772376466710125800,7.357125732421875,-0.5571600547041744,0.8491554074138402,-2.2603525771588084,0.23900629580020905,0.019118446856737137,0.40483561158180237
1772376466720075000,7.367074951171875,-0.6540354247651994,0.8950117341816425,-2.1808067467570305,0.34004130959510803,0.1873237043619156,0.2982702851295471
1772376466730025000,7.37702490234375,-0.6263879777744412,0.8632172505140304,-1.6676175704002378,0.4152665436267853,0.26483550667762756,0.21490924060344696
1772376466739974100,7.38697412109375,-0.4778823006540537,0.8524395436510444,-0.832978764116764,0.44324037432670593,0.26636362075805664,0.14950546622276306
1772376466749923800,7.396923828125,-0.3688713793803006,0.7836240738391875,0.1485270121693611,0.4297197461128235,0.22457285225391388,0.10792259871959686
1772376466759873000,7.406873046875,-0.335370530186221,0.7316653385430574,1.053905826586485,0.3375852704048157,0.14607031643390656,0.045697301626205444
1772376466769822000,7.416822021484375,-0.491491577681154,0.6179527423843741,1.844766865941882,0.1960114985704422,0.06042836606502533,-0.05094337463378906
1772376466779772200,7.426772216796875,-0.6384259868968277,0.38799598576277494,2.3661785117208955,0.045871537178754807,-0.04147748649120331,-0.16204912960529327
1772376466789721000,7.43672119140625,-0.6356942969106137,0.2808504930347204,2.5578525916993615,-0.08595943450927734,-0.12672296166419983,-0.26992470026016235
1772376466799671000,7.446671142578125,-0.5360010929498821,0.2757473246768117,2.5615900246620176,-0.20082342624664307,-0.1893213540315628,-0.3581264615058899
1772376466809620000,7.456619873046875,-0.35899383622743186,0.3876595934152603,2.4620722503334282,-0.29882094264030457,-0.2637374699115753,-0.40116021037101746
1772376466819570200,7.466570068359375,-0.162160400724411,0.5248419124886393,2.3210475766181946,-0.3826005160808563,-0.35851535201072693,-0.39512497186660767
1772376466829519000,7.47651904296875,0.004436375012248754,0.5987047288179397,2.1042665279120207,-0.43595215678215027,-0.43887415528297424,-0.36376893520355225
1772376466839468000,7.486468017578125,-0.024441198295354842,0.61421180229038,1.713563913539052,-0.4284819960594177,-0.49564528465270996,-0.33017048239707947
1772376466849418000,7.49641796875,-0.2131377968329936,0.6273565305456519,1.1661708542853593,-0.35631513595581055,-0.5264133214950562,-0.3072987198829651
1772376466859367000,7.506366943359375,-0.39656573425270614,0.6040253393188119,0.5915057572245598,-0.2447633147239685,-0.5026015043258667,-0.29384204745292664
1772376466869317000,7.516317138671875,-0.5450448886923491,0.5691448723345994,0.1356651925086975,-0.13374871015548706,-0.433356374502182,-0.2976817488670349
1772376466879266000,7.52626611328125,-0.6992578375436366,0.4953063136637211,-0.09332476490736007,-0.057294413447380066,-0.3956798315048218,-0.32087522745132446
1772376466889215000,7.536215087890625,-0.7007869468070567,0.4069607984736561,-0.12486205894351005,-0.014689558185636997,-0.35231900215148926,-0.37270206212997437
1772376466899165000,7.5461650390625,-0.6242910054951906,0.2843710683763027,-0.09701251350939273,0.01246003806591034,-0.25410136580467224,-0.4169478118419647
1772376466909113900,7.55611376953125,-0.5214732397731393,0.3024775106921792,-0.031633740147948265,0.0008007184369489551,-0.17217454314231873,-0.43725600838661194
1772376466919064000,7.56606396484375,-0.35870595919676124,0.42830519979745146,0.13445114054381846,-0.04880465194582939,-0.11439540982246399,-0.4279125928878784
1772376466929013000,7.576012939453125,0.05053951614797115,0.5338409192413092,0.31332126852869985,-0.09396187216043472,-0.08775579929351807,-0.3556688725948334
1772376466938963000,7.585962890625,0.48296661818102,0.715479635156691,0.2875637269377708,-0.11887441575527191,-0.06287655234336853,-0.22707413136959076
1772376466948911900,7.595911865234375,0.7544046282913536,0.890456555095315,0.09739712891280651,-0.1156793013215065,-0.03192584961652756,-0.08242899179458618
1772376466958860800,7.60586083984375,0.7932247728120535,0.9435305581569671,-0.09268880509138107,-0.08051092177629471,-0.010881020687520504,0.034518927335739136
1772376466968811000,7.61581103515625,0.6957314900483935,0.8365808802619576,-0.21761399239897727,-0.01792670413851738,-0.0020228098146617413,0.1058051660656929
1772376466978760000,7.625760009765625,0.5295676258362829,0.5784294180303812,-0.2327835044801235,0.03814588487148285,0.025984056293964386,0.12843485176563263
1772376466988710000,7.6357099609375,0.26066161842159924,0.3438371105626225,-0.18961539388298987,0.08185835182666779,0.06427978724241257,0.11421132832765579
