time,seconds_elapsed,accel_x,accel_y,accel_z,gyro_x,gyro_y,gyro_z
1772376685324823600,0.074823486328125,-0.19311605894770473,-0.4071069289460778,0.05086509484052658,0.12020093202590942,-0.09690306335687637,-0.31920358538627625
1772376685334772500,0.0847724609375,-0.05077110554729588,-0.32268063302636146,0.17027999429404733,0.15995629131793976,-0.10322980582714081,-0.33613091707229614
1772376685344721700,0.0947216796875,0.065355826310697,-0.20143559553623197,0.3496428742319345,0.1701093316078186,-0.12463602423667908,-0.33392155170440674
1772376685354670600,0.104670654296875,0.1741507713127881,-0.12610095308870076,0.5392389788925648,0.15084904432296753,-0.16103263199329376,-0.31951403617858887
1772376685364619500,0.11461962890625,0.2454883982797153,-0.08991407968103884,0.7525807007998228,0.10648424178361893,-0.19498313963413239,-0.3027944266796112
1772376685374568400,0.124568359375,0.25342523742727935,-0.08898439761549234,0.9130383892595767,0.03800128772854805,-0.23398414254188538,-0.29635128378868103
1772376685384517600,0.134517578125,0.22198793316688387,-0.16568009928315877,0.9051835841059684,-0.010580898262560368,-0.2617531716823578,-0.3093283176422119
1772376685394466600,0.144466552734375,0.17300907219806685,-0.23586978005766868,0.6855354555308818,-0.031898196786642075,-0.24482163786888123,-0.3339393138885498
1772376685404415500,0.15441552734375,0.06416740197741892,-0.22229221334308386,0.3969879782527685,-0.03488972410559654,-0.21699240803718567,-0.3557814955711365
1772376685414364700,0.16436474609375,-0.020184673362039027,-0.14259060785770417,0.23263678948581218,-0.04063715785741806,-0.19150599837303162,-0.3744955062866211
1772376685424313600,0.174313720703125,0.017064614245900882,-0.07814911534637212,0.16816636314094066,-0.04634298011660576,-0.15402492880821228,-0.3741905987262726
1772376685434262500,0.184262451171875,0.08171762148290872,-0.04437923995256424,0.12537234655320645,-0.05219883471727371,-0.0896763876080513,-0.36670514941215515
1772376685444211500,0.19421142578125,0.11777113256817683,-0.010626900215446948,0.07199965280592441,-0.05778161808848381,-0.009737879037857056,-0.35689273476600647
1772376685454160600,0.20416064453125,0.11569123928789049,0.06365326474308967,0.1368026721060276,-0.07430362701416016,0.04656904935836792,-0.3407152593135834
1772376685464109600,0.214109619140625,0.1504054280607961,0.11942629763036966,0.3372796517431736,-0.10295285284519196,0.047611407935619354,-0.31672045588493347
1772376685474058800,0.224058837890625,0.28369128768490626,0.09358721523582934,0.5331669655025005,-0.13213472068309784,0.031391941010951996,-0.2773393988609314
1772376685484007700,0.234007568359375,0.4282798826931044,0.08027268337160348,0.6189560742080211,-0.1316063553094864,0.027235815301537514,-0.22715534269809723
1772376685493957600,0.24395751953125,0.45759581088535484,0.06561462794393301,0.5841150624513626,-0.12184158712625504,0.042142607271671295,-0.17661583423614502
1772376685503906600,0.253906494140625,0.49655054157115514,-0.015854863996803758,0.6029179625988006,-0.10219864547252655,0.06333763897418976,-0.1296030431985855
1772376685513855500,0.26385546875,0.5553527860864996,-0.14099135596752166,0.6991115609407424,-0.08290230482816696,0.07696489244699478,-0.08770619332790375
1772376685523804700,0.2738046875,0.5870648521676659,-0.2783180519476533,0.8957318651497364,-0.0859963595867157,0.08425023406744003,-0.048879172652959824
1772376685533753600,0.283753662109375,0.5867595856107771,-0.41734073819071055,1.184806581172347,-0.10547055304050446,0.06495368480682373,-0.01365690864622593
1772376685543702500,0.29370263671875,0.6092859632607549,-0.5353954552069307,1.4012901082366704,-0.13134343922138214,0.041044093668460846,0.015874352306127548
1772376685553651500,0.3036513671875,0.5760726988364011,-0.6308081323042511,1.5337228946954011,-0.15682871639728546,0.010491112247109413,0.0456046462059021
1772376685563600600,0.3136005859375,0.532955733904615,-0.7308993226066232,1.5792846224308013,-0.18076494336128235,-0.012281578034162521,0.06185152754187584
1772376685573549600,0.323549560546875,0.5287118857897818,-0.8233020042330026,1.5411071597278116,-0.19868627190589905,-0.027866316959261894,0.07456012070178986
1772376685583498500,0.33349853515625,0.4722117442043498,-0.9308967020332812,1.3961778797894715,-0.2111554592847824,-0.02712276205420494,0.07952744513750076
1772376685593447700,0.34344775390625,0.3903882146615535,-1.019546460866928,1.2393839745342732,-0.2230633795261383,-0.00987012218683958,0.06946363300085068
1772376685603396600,0.353396728515625,0.29103184143975375,-1.0864067049577832,1.181285421308875,-0.2460176944732666,-0.005978977773338556,0.05392195284366608
1772376685613345500,0.363345458984375,0.21496420854255555,-1.1779662137582898,1.1484528267651795,-0.27825531363487244,-0.016431335359811783,0.02891869656741619
1772376685623294500,0.37329443359375,0.16339823542367665,-1.247560266727209,1.100181840071082,-0.3190424144268036,-0.04796342924237251,-0.007615877315402031
1772376685633243600,0.38324365234375,0.07059139344319701,-1.3031103045135737,0.9783774151325225,-0.34731507301330566,-0.07718844711780548,-0.051468729972839355
1772376685643193600,0.393193603515625,0.034351830867072566,-1.2927616367176173,0.7305459791243076,-0.3548526167869568,-0.10244453698396683,-0.09749694168567657
1772376685653142800,0.403142822265625,0.03873289549550973,-1.2263742708355188,0.37000060260593887,-0.3391842246055603,-0.0789099857211113,-0.13227179646492004
1772376685663091700,0.413091796875,-0.030548684857599435,-1.1163336411878466,-0.011765256595611572,-0.3136352002620697,-0.036908477544784546,-0.15043163299560547
1772376685673040600,0.42304052734375,-0.06674158614724875,-1.0206082448795437,-0.3417453989803791,-0.2732614278793335,0.04812009632587433,-0.1669720709323883
1772376685682989600,0.432989501953125,-0.086684431843739,-0.9166469351455568,-0.5761497826606035,-0.2386922687292099,0.13256120681762695,-0.1625046283006668
1772376685692938500,0.4429384765625,-0.0887948115938343,-0.8368369008496404,-0.6019149230360984,-0.212177574634552,0.22148175537586212,-0.15749229490756989
1772376685702887400,0.452887451171875,-0.09348532576393336,-0.7930600107043981,-0.5282786089390515,-0.18573398888111115,0.29009518027305603,-0.14376050233840942
1772376685712836600,0.462836669921875,-0.12193228910192846,-0.7410606511369348,-0.36144144857525823,-0.17011459171772003,0.33374884724617004,-0.13474871218204498
1772376685722785500,0.47278564453125,-0.10741930470075457,-0.7324655490100384,-0.1278834525913,-0.15768136084079742,0.34432321786880493,-0.13003891706466675
1772376685732734700,0.482734619140625,-0.11325509818214922,-0.7549231722727417,0.09987842433452605,-0.15619394183158875,0.33860093355178833,-0.13247135281562805
1772376685742683600,0.49268359375,-0.1471984304467216,-0.7733356117978691,0.27658699037134643,-0.14209915697574615,0.32391494512557983,-0.14039106667041779
1772376685752632600,0.502632568359375,-0.18388711589667944,-0.7578431513726711,0.3613344810694456,-0.12504088878631592,0.3096075654029846,-0.14272212982177734
1772376685762581500,0.51258154296875,-0.19924528241772205,-0.7250693012788891,0.4414765237987041,-0.10075871646404266,0.30288174748420715,-0.13905255496501923
1772376685772530400,0.522530517578125,-0.18941051896065472,-0.6961705390527844,0.49524610790908336,-0.08591293543577194,0.31311941146850586,-0.13326889276504517
1772376685782479600,0.532479736328125,-0.20366189328357576,-0.694390085376799,0.5557207426160574,-0.07809709012508392,0.3271375000476837,-0.12277150899171829
1772376685792428500,0.542428466796875,-0.20326938683465123,-0.6889870572894812,0.693739220252633,-0.0834934338927269,0.3347933292388916,-0.11607267707586288
1772376685802378800,0.552378662109375,-0.1956078026982024,-0.7008838313102722,0.7912836486816406,-0.09996695071458817,0.3375536799430847,-0.11257781088352203
1772376685812327700,0.56232763671875,-0.18347652580179272,-0.7332873867869377,0.8099971169799566,-0.10909787565469742,0.35664886236190796,-0.11109122633934021
1772376685822276600,0.572276611328125,-0.21696246968768534,-0.7388155025586486,0.7459750189244747,-0.1154034361243248,0.3951967656612396,-0.11569716036319733
1772376685832225500,0.5822255859375,-0.2450978463258594,-0.7524620428562164,0.7032850472331047,-0.1298293024301529,0.417041540145874,-0.11237700283527374
1772376685842174500,0.592174560546875,-0.15372056222446262,-0.7640773695871234,0.7373509829640388,-0.13870403170585632,0.4247708320617676,-0.09945881366729736
1772376685852123400,0.602123291015625,-0.04051131247803569,-0.7784408259823918,0.7910475018382072,-0.1429332196712494,0.427604615688324,-0.07697445154190063
1772376685862072600,0.612072509765625,-0.0005689589943736792,-0.7689408839702606,0.7953267865926027,-0.15252698957920074,0.4130650758743286,-0.06007988750934601
1772376685872021800,0.622021728515625,0.019395313082635403,-0.7287520814448595,0.8314566691160201,-0.1666622757911682,0.37116819620132446,-0.036796581000089645
1772376685881970700,0.631970703125,0.05172251538746059,-0.7169663665831089,0.8540320735394954,-0.1814902275800705,0.3236030638217926,-0.014978902414441109
1772376685891919600,0.641919677734375,0.047255233780294656,-0.7400731014043093,0.7898030547350645,-0.1944638341665268,0.26316794753074646,0.0027959239669144154
1772376685901868500,0.65186865234375,0.0734212831068784,-0.7353124628737568,0.6542565201699734,-0.20855967700481415,0.2123420536518097,0.01941031962633133
1772376685911817700,0.661817626953125,0.04455445038899779,-0.7172521977871656,0.48125849908888335,-0.2192717045545578,0.184117391705513,0.026277199387550354
1772376685921766700,0.6717666015625,-0.018849954159557817,-0.6846580881744623,0.30099428639709946,-0.24099192023277283,0.15656645596027374,0.0336669385433197
1772376685931715800,0.6817158203125,-0.02240107076987624,-0.6903185981541872,0.13874796095490455,-0.2719481289386749,0.13217274844646454,0.03597819432616234
1772376685941665000,0.6916650390625,-0.046680356501787895,-0.6693754711076617,-0.05570552060902118,-0.2975970208644867,0.08629128336906433,0.03516726195812225
1772376685951614000,0.701614013671875,-0.07724493304826319,-0.6180915663331746,-0.3325117066890001,-0.30861005187034607,0.02703084424138069,0.022522488608956337
1772376685961564000,0.71156396484375,-0.18336466292515397,-0.5180097283810376,-0.6628104135036468,-0.29940375685691833,-0.04889773949980736,-0.0096855154260993
1772376685971512800,0.721512939453125,-0.26513335700817403,-0.46811230952888727,-1.0416460644721983,-0.2465444803237915,-0.04849369823932648,-0.03710160776972771
1772376685981461800,0.731461669921875,-0.2495491997115314,-0.32463439744263883,-1.4676707521170378,-0.18203899264335632,-0.0012873061932623386,-0.05385715141892433
1772376685991410700,0.74141064453125,-0.1927001350905746,-0.14167875370979308,-1.7366314853936433,-0.10523372888565063,0.09113874286413193,-0.050224509090185165
1772376686001360000,0.75135986328125,-0.027147315448895096,0.017357962036132813,-1.8068927700996398,-0.0379156731069088,0.21210138499736786,-0.0036815081257373095
1772376686011308800,0.761308837890625,0.2008787653710693,0.14669015213102102,-1.616555491682887,0.015487871132791042,0.3324322998523712,0.06281372159719467
1772376686021258000,0.771258056640625,0.4016808853093535,0.331872239741683,-1.202811024418473,0.028179431334137917,0.37715503573417664,0.1500554084777832
1772376686031207000,0.78120703125,0.6101701987493783,0.37285190038383004,-0.5921148290336131,-0.0005007290747016668,0.34543007612228394,0.23349614441394806
1772376686041155800,0.79115576171875,0.7608349535997957,0.24785394010096787,-0.04028641768097877,-0.05881330370903015,0.27021363377571106,0.2909962236881256
1772376686051104800,0.801104736328125,0.7084183915335684,0.07233955228477716,0.2644318576753139,-0.12492145597934723,0.15398770570755005,0.30974823236465454
1772376686061053700,0.8110537109375,0.5959975887510925,-0.09806465291082858,0.37068624678254125,-0.19828514754772186,0.016727322712540627,0.2845986783504486
1772376686071002600,0.821002685546875,0.44225021158494054,-0.19172902503609657,0.31619127100706096,-0.2602660059928894,-0.11218808591365814,0.233157217502594
1772376686080951800,0.830951904296875,0.34686288812458516,-0.260804314827919,0.041268998977541924,-0.3068905174732208,-0.18607936799526215,0.1707039624452591
1772376686090901000,0.84090087890625,0.2200149160608649,-0.20081454102843999,-0.444046666547656,-0.32115501165390015,-0.18534117937088013,0.11943572759628296
1772376686100850000,0.850849853515625,0.11443148501776158,0.01658726992458105,-0.9372603918462992,-0.3150646388530731,-0.13568493723869324,0.08599627763032913
1772376686110798800,0.860798828125,0.13855397275276482,0.23389438833147286,-1.2431921346455812,-0.3036908209323883,-0.056078363209962845,0.07090626657009125
1772376686120748800,0.870748779296875,0.30533494594991206,0.3768959150776267,-1.3023890045017004,-0.2685821056365967,0.06629148870706558,0.0898919403553009
1772376686130697700,0.88069775390625,0.4821748102162033,0.5764256769925356,-1.2874760975301265,-0.22027195990085602,0.19685132801532745,0.14804881811141968
1772376686140647000,0.89064697265625,0.694970588678494,0.7811193975418805,-1.0648919155031442,-0.16364410519599915,0.30974698066711426,0.23130588233470917
1772376686150595800,0.900595947265625,0.9238910610549151,0.9319655003085732,-0.6483318062961101,-0.11939075589179993,0.38093307614326477,0.33204856514930725
1772376686160544800,0.910544677734375,1.0861133480343967,1.0151230914667249,-0.12532032410502433,-0.08575104176998138,0.3995746672153473,0.44096651673316956
1772376686170494000,0.920493896484375,1.2167878926489502,0.9252034588277339,0.42341947358250615,-0.061103325337171555,0.36871808767318726,0.5347986221313477
1772376686180443000,0.93044287109375,1.366691088542342,0.7725514756828546,0.8850643406629561,-0.04387320578098297,0.28424394130706787,0.6143035888671875
1772376686190391800,0.940391845703125,1.4443246555820106,0.5967857434540986,1.2520879732847212,-0.033468857407569885,0.16558778285980225,0.6661314368247986
1772376686200340700,0.9503408203125,1.3999158972740173,0.4281123075738549,1.491139305987954,-0.0413704551756382,0.04136331379413605,0.6965337991714478
1772376686210289700,0.96028955078125,1.3105429387323557,0.2625932440713048,1.5705004274725913,-0.06814581155776978,-0.07055508345365524,0.7050572037696838
1772376686220238800,0.97023876953125,1.164728984913975,0.1372670747473836,1.5648913554191588,-0.11299850046634674,-0.17478054761886597,0.6905615925788879
1772376686230187800,0.980187744140625,1.0207465573716907,0.03755348558574915,1.4522919811993837,-0.17846107482910156,-0.2623405158519745,0.6624187231063843
1772376686240137000,0.990136962890625,0.8683179346539079,-0.008707330329716205,1.2272107216596602,-0.240950807929039,-0.3148673474788666,0.626723051071167
1772376686250086000,1.0000859375,0.7498794790171086,-0.07838672349452971,0.8184387821108102,-0.2811206877231598,-0.3294045627117157,0.5925782322883606
1772376686260034800,1.010034912109375,0.6436064582746476,-0.06482318530529738,0.3040022360414266,-0.30545133352279663,-0.3113749623298645,0.5611169934272766
1772376686269984800,1.01998486328125,0.5632871592823415,0.00946311713308096,-0.16352642838060855,-0.3123508095741272,-0.2823638319969177,0.5347882509231567
1772376686279934000,1.029933837890625,0.5638548031024635,0.03652589610368013,-0.5293494530409574,-0.2980373799800873,-0.2400619238615036,0.5154635906219482
1772376686289883000,1.0398828125,0.5998226269319653,0.07124298921972513,-0.843092746374011,-0.25387704372406006,-0.16470132768154144,0.5010473132133484
1772376686299831800,1.049831787109375,0.6779827020637691,0.0967544470950961,-1.0726169567972421,-0.19034866988658905,-0.08415268361568451,0.5037198066711426
1772376686309780700,1.05978076171875,0.8010637228094041,0.17379530893862247,-1.1434884823560714,-0.11854051798582077,-0.004034358076751232,0.5244279503822327
1772376686319730000,1.06972998046875,0.922402137671411,0.24105448921918868,-1.011213516807556,-0.05806891992688179,0.0777992531657219,0.5580477118492126
1772376686329678800,1.079678955078125,1.0018437770463526,0.24396394692510365,-0.688614132323861,-0.035624779760837555,0.13779869675636292,0.5903329253196716
1772376686339627800,1.089627685546875,1.0362943281807004,0.1614145507931709,-0.21148820299506185,-0.04619539901614189,0.16898298263549805,0.6108980774879456
1772376686349576700,1.09957666015625,1.0286796884585172,0.0417711032807827,0.29405191991329194,-0.07520213723182678,0.1733136624097824,0.6047115921974182
1772376686359526000,1.10952587890625,0.966687707991153,-0.11040098739266395,0.6411164680898189,-0.08937255293130875,0.18535807728767395,0.5893787145614624
1772376686369474800,1.119474853515625,0.9121853526268154,-0.17906974221020935,0.812277336871624,-0.12074911594390869,0.17232723534107208,0.5634331107139587
1772376686379423700,1.129423828125,0.862236641978845,-0.25902912184894084,1.0324304923593997,-0.16568385064601898,0.13604192435741425,0.5265078544616699
1772376686389373000,1.139373046875,0.9219071937613189,-0.34081747048050165,1.2123141813009977,-0.2099360078573227,0.09080331772565842,0.49607229232788086
1772376686399321900,1.14932177734375,0.9457133090235292,-0.3863081788063049,1.2849112154781817,-0.25052154064178467,0.04193351790308952,0.47403544187545776
1772376686409270800,1.159270751953125,0.957315045620501,-0.35922114217728374,1.2473211972743272,-0.2899603843688965,-0.02656201645731926,0.4662932753562927
1772376686419219700,1.1692197265625,1.0016925320073962,-0.29705928503572937,1.1362778203248978,-0.3126148283481598,-0.09294956177473068,0.467992901802063
1772376686429170000,1.179169921875,1.0277456955440343,-0.306185425299406,0.9108423405200242,-0.32334715127944946,-0.12963543832302094,0.48001858592033386
1772376686439118800,1.189118896484375,0.9990718281149864,-0.2900605121895671,0.6229518658459187,-0.31588152050971985,-0.16044820845127106,0.4860924780368805
1772376686449067800,1.19906787109375,0.9315128611702471,-0.29114655386060473,0.36772272080183027,-0.29876604676246643,-0.17270739376544952,0.4850759506225586
1772376686459016700,1.2090166015625,0.8590608614869415,-0.32770313736349344,0.1444102245002985,-0.2651178240776062,-0.17361553013324738,0.48658275604248047
1772376686468966000,1.2189658203125,0.8126705009076743,-0.36042554953098294,0.005437807139754295,-0.24575147032737732,-0.16336415708065033,0.4751853942871094
1772376686478914800,1.228914794921875,0.7114799710612744,-0.38564796133190393,-0.05902735850811004,-0.2330670952796936,-0.15042464435100555,0.458998441696167
1772376686488863700,1.23886376953125,0.6703409551389515,-0.40785073305070396,-0.08647767549157143,-0.2337169200181961,-0.11678657680749893,0.4413340389728546
1772376686498813000,1.24881298828125,0.7088498417533934,-0.4268970865651965,-0.11770400388240813,-0.2240925282239914,-0.06832104176282883,0.439285010099411
1772376686508761900,1.258761962890625,0.7372614049844444,-0.4231508857741952,-0.1775403406858444,-0.2197447270154953,-0.01280161738395691,0.4463264048099518
1772376686518710800,1.268710693359375,0.742838328333944,-0.4014963955879211,-0.1555763461589813,-0.21855217218399048,0.03280980885028839,0.4527217149734497
1772376686528659700,1.27865966796875,0.7458845641620456,-0.4217085780113935,-0.06660334672033787,-0.2206496298313141,0.05235478654503822,0.46505916118621826
1772376686538609000,1.28860888671875,0.7588565661989152,-0.45409196748286484,0.042811552244424816,-0.21695183217525482,0.04795284941792488,0.47082093358039856
1772376686548557800,1.298557861328125,0.7391070328511298,-0.47353053518533705,0.1293394966185093,-0.2134099155664444,0.014233388938009739,0.47514650225639343
1772376686558506800,1.3085068359375,0.6759606216516345,-0.5073606163337826,0.15722294432222841,-0.2032715231180191,-0.01907449960708618,0.472185343503952
1772376686568456000,1.3184560546875,0.6574037321545183,-0.5330342790335416,0.1372650289207697,-0.18851283192634583,-0.05870715156197548,0.46619731187820435
1772376686578404900,1.32840478515625,0.6039109556915239,-0.5458730100795627,0.04703881455063819,-0.17405293881893158,-0.08436031639575958,0.4569641351699829
1772376686588354800,1.338354736328125,0.5587907246459275,-0.5050616917416453,-0.07274199560582638,-0.1393488645553589,-0.09488788992166519,0.46273273229599
1772376686598303700,1.3483037109375,0.5801261024130508,-0.46120969053357835,-0.17238778022825718,-0.10962319374084473,-0.09210968017578125,0.46934056282043457
1772376686608252700,1.358252685546875,0.5926284045789391,-0.43545156442075966,-0.20170622917115688,-0.07525037229061127,-0.09787019342184067,0.48842716217041016
1772376686618201900,1.368201904296875,0.6116602546440437,-0.38796763645112514,-0.16383973211348055,-0.05516694113612175,-0.10228065401315689,0.5087992548942566
1772376686628151000,1.378151123046875,0.6409354854997247,-0.37658553395420313,-0.15510755960345268,-0.025830447673797607,-0.10321762412786484,0.5340810418128967
1772376686638100000,1.388099853515625,0.6162153971977532,-0.40237142485678196,-0.15350129345059393,-0.006207211408764124,-0.11106756329536438,0.5521218180656433
1772376686648049000,1.398048828125,0.5553881496608257,-0.3974950509920716,-0.137273796749115,0.0054180254228413105,-0.11817371100187302,0.5645393133163452
1772376686657997800,1.407997802734375,0.4957975312467664,-0.4379632549807429,-0.11244330687522887,0.021117625758051872,-0.11834467947483063,0.5688999891281128
1772376686667946800,1.41794677734375,0.4137821323936805,-0.5014481774196028,-0.08704699981212616,0.03439091891050339,-0.11531224101781845,0.5570111870765686
1772376686677895700,1.427895751953125,0.3256911764865741,-0.5215644982531666,-0.06478256103396415,0.044007595628499985,-0.09921875596046448,0.5498427152633667
1772376686687844900,1.437844970703125,0.26247403813842685,-0.5442544689670205,-0.026785131072998045,0.05041051283478737,-0.07590935379266739,0.5333854556083679
1772376686697793800,1.447793701171875,0.24223918722542,-0.5645885242044926,0.051531449794769285,0.049190785735845566,-0.0626516118645668,0.5222521424293518
1772376686707743000,1.457742919921875,0.25839811220271514,-0.5882213287264109,0.21722353177666662,0.04115944355726242,-0.06002550572156906,0.5119069814682007
1772376686717692000,1.46769189453125,0.3351213777307421,-0.6166337687402963,0.3678746964931488,0.012715552002191544,-0.09387853741645813,0.5125780701637268
1772376686727640800,1.477640869140625,0.3638464273577556,-0.6598898498818278,0.4528057270646095,-0.015921959653496742,-0.14911192655563354,0.5039129853248596
1772376686737589800,1.48758984375,0.3883228796295821,-0.7463529123261571,0.44894729807078837,-0.041151680052280426,-0.20414136350154877,0.48533400893211365
1772376686747538700,1.49753857421875,0.36180151405930516,-0.8239180903047323,0.3096551472365856,-0.06223903223872185,-0.24189719557762146,0.45686525106430054
1772376686757488600,1.507488525390625,0.3143552146863192,-0.8633984522998333,0.09075812928974628,-0.07327224314212799,-0.26064610481262207,0.41919857263565063
1772376686767437800,1.517437744140625,0.24107597039863465,-0.9186308024391532,-0.12705050889849662,-0.08726261556148529,-0.2571200430393219,0.3767034709453583
1772376686777387000,1.527386962890625,0.17289375698901713,-0.9431754611089825,-0.33839725759625433,-0.11234612762928009,-0.25597938895225525,0.329761266708374
1772376686787336000,1.5373359375,0.14111096375919877,-0.9035884238690137,-0.5119938290923833,-0.14634057879447937,-0.23021943867206573,0.28789398074150085
1772376686797284900,1.547284912109375,0.14778799383770674,-0.9172057380720973,-0.7101005724668502,-0.1783648282289505,-0.17815463244915009,0.26156702637672424
1772376686807233800,1.55723388671875,0.25625600387379527,-0.9957049820303916,-0.9190046041876078,-0.21052119135856628,-0.12013006955385208,0.26196855306625366
1772376686817182700,1.5671826171875,0.36905528457984327,-0.9617878071203827,-1.0663736784934996,-0.2470373958349228,-0.1272798478603363,0.253503680229187
1772376686827131600,1.577131591796875,0.3957292468959465,-0.9841668121889233,-1.0844663845449685,-0.28624841570854187,-0.15641769766807556,0.22432804107666016
1772376686837080800,1.587080810546875,0.25323709444403647,-1.0353504714593291,-1.2494056023329496,-0.29906779527664185,-0.19329501688480377,0.1629997044801712
1772376686847030000,1.597030029296875,0.0566925954176113,-1.0279287970259785,-1.5227245308190582,-0.2857346534729004,-0.20275264978408813,0.08130679279565811
1772376686856979000,1.60697900390625,-0.11844915969390421,-1.001068262629211,-1.846120618638396,-0.24614647030830383,-0.14604996144771576,-0.013874320313334465
1772376686866927900,1.616927978515625,-0.2498037224618718,-0.8724845528140663,-2.149151379299164,-0.1811377853155136,-0.02994721382856369,-0.09285356104373932
1772376686876876800,1.626876708984375,-0.2089697539007291,-0.6669748397067189,-2.272731581738591,-0.10696182399988174,0.11407014727592468,-0.1335144340991974
1772376686886825700,1.63682568359375,-0.045393495029024775,-0.3781903388023376,-2.1160510737299916,-0.040062129497528076,0.23544585704803467,-0.1287384182214737
1772376686896774700,1.646774658203125,0.26239468929190185,-0.13313625855296848,-1.714737048971653,0.01828772947192192,0.3326070308685303,-0.08801043033599854
1772376686906723800,1.656723876953125,0.6303621421024203,0.10079612370133399,-1.263847384661436,0.08645840734243393,0.39422744512557983,-0.015568792819976807
1772376686916673800,1.666673828125,0.891681712976098,0.3116337538331747,-0.8170809377610683,0.17358477413654327,0.42648711800575256,0.08158785104751587
1772376686926623200,1.676623291015625,1.064416991467774,0.46286885591745375,-0.47284664457440373,0.27991756796836853,0.45062994956970215,0.1950932741165161
1772376686936572200,1.686572265625,1.0880092447835952,0.5912327855020761,-0.1525268954604864,0.3929024338722229,0.4533727467060089,0.3002530038356781
1772376686946521000,1.69652099609375,1.0108687219578771,0.6145636844679713,0.23967560208141803,0.4850744903087616,0.4150407910346985,0.3912917375564575
1772376686956470000,1.706469970703125,0.8412161388471722,0.6000932605668902,0.682683573231101,0.5530287623405457,0.3494141101837158,0.45178383588790894
1772376686966419000,1.7164189453125,0.6808373608425259,0.5273255459979176,1.0848282035946846,0.5947321057319641,0.2683108448982239,0.4870345890522003
1772376686976367900,1.726367919921875,0.534338566565141,0.4225874066725373,1.4348428337484598,0.590709388256073,0.1771031767129898,0.5035871863365173
1772376686986316800,1.73631689453125,0.3558564149845391,0.3004173632919788,1.7308201687663793,0.5447374582290649,0.07851867377758026,0.4953163266181946
1772376686996266000,1.746265869140625,0.16214717591665684,0.18100860131829977,1.8973054469525812,0.4532203674316406,-0.011280454695224762,0.46202918887138367
1772376687006215200,1.756215087890625,-0.04258884940445423,0.06937924117445946,1.9019190782278774,0.3451687693595886,-0.08942209184169769,0.40526801347732544
1772376687016164000,1.7661640625,-0.26276308421287686,-0.04231763124763965,1.709395687943697,0.23233835399150848,-0.1575297713279724,0.30991992354393005
1772376687026113000,1.776113037109375,-0.46421172189377247,-0.10448504134714603,1.3811305327832697,0.1298401653766632,-0.2070358544588089,0.19206774234771729
1772376687036062000,1.78606201171875,-0.5723436683759093,-0.0720744716078043,0.9243389509528874,0.06036602705717087,-0.22912463545799255,0.08891100436449051
1772376687046011000,1.796010986328125,-0.6093604167364537,0.07425941443145274,0.34868951902985573,0.009601069614291191,-0.20118890702724457,0.004141435492783785
1772376687055960000,1.8059599609375,-0.5537661014169454,0.2872922165200114,-0.1369336050093174,-0.03390352800488472,-0.15989765524864197,-0.04897531494498253
1772376687065909000,1.815908935546875,-0.4221753552729264,0.5153834715306759,-0.45696752291917797,-0.0683777779340744,-0.09514224529266357,-0.07288933545351028
1772376687075858000,1.82585791015625,-0.13786778058689086,0.6370175083383918,-0.7378349670886993,-0.06584165245294571,0.03822993114590645,-0.060453176498413086
1772376687085808000,1.83580810546875,0.06951969082476571,0.8013798030212521,-1.018214920002222,-0.023215284571051598,0.20437072217464447,-0.01020839437842369
1772376687095757000,1.845757080078125,0.30117762534106146,1.0380535929381847,-1.1258645628601311,0.0403013713657856,0.3722984790802002,0.07603275030851364
1772376687105706000,1.8557060546875,0.494876215150766,1.255488721638918,-0.9605272856652736,0.10259037464857101,0.49028751254081726,0.20084339380264282
1772376687115655000,1.865655029296875,0.6881055252145976,1.333119073808193,-0.5395125351369381,0.15112090110778809,0.5371485352516174,0.33814772963523865
1772376687125603800,1.875603759765625,0.8072591433834284,1.3105217498138546,0.02838789009451866,0.1934051364660263,0.5164774656295776,0.4557868540287018
1772376687135552800,1.885552734375,0.7082289333760738,1.1852771212935447,0.531597524228692,0.22955754399299622,0.4611852467060089,0.5379238128662109
1772376687145502200,1.895502197265625,0.4619932786593213,1.0164645692035554,0.8643599908083677,0.24411121010780334,0.3905818462371826,0.5717765688896179
1772376687155451100,1.905451171875,0.233661200630106,0.8033435043096542,1.2147989838540554,0.23526525497436523,0.30968940258026123,0.5682182908058167
1772376687165400000,1.915400146484375,0.04300628936523571,0.593284457334876,1.4307558566957712,0.2105950266122818,0.2480284571647644,0.5447375774383545
1772376687175349000,1.925348876953125,-0.12350543843647464,0.43594168602526184,1.5726462073296308,0.17236961424350739,0.20903605222702026,0.5043150186538696
1772376687185298000,1.9352978515625,-0.2720653482284397,0.322407369042933,1.67999715950191,0.11589083075523376,0.17362897098064423,0.45741650462150574
1772376687195246800,1.945246826171875,-0.368032115544565,0.26457214292883874,1.8159160345107317,0.03653634712100029,0.1378224939107895,0.40649473667144775
1772376687205195800,1.95519580078125,-0.43274296304918825,0.19228169048279523,1.9082465276837348,-0.052301179617643356,0.10814683884382248,0.3651829957962036
1772376687215145000,1.96514501953125,-0.44037305606883015,0.12069792500138282,1.8958686921477317,-0.1444004774093628,0.06910116970539093,0.3261450529098511
1772376687225094100,1.97509423828125,-0.44439226511493324,0.07800941461473702,1.7758856374174354,-0.22160367667675018,0.04082050547003746,0.2921583950519562
1772376687235043000,1.98504296875,-0.46018933450989424,0.04460837253332138,1.507664908853173,-0.26493731141090393,0.03372025117278099,0.2578587532043457
1772376687244992000,1.994991943359375,-0.4840695013890043,0.04231558542102575,1.1924375144422052,-0.3034038841724396,0.02203679457306862,0.22716882824897766
1772376687254942000,2.00494189453125,-0.44361083241365845,0.06671557492315769,0.890007057762146,-0.31540942192077637,0.018776552751660347,0.21316352486610413
1772376687264891000,2.014890869140625,-0.30832645591609176,0.08026654589176177,0.5716477950662374,-0.3141787350177765,0.04813845455646515,0.22124692797660828
1772376687274839800,2.02483984375,-0.21453564439956097,0.10887070908546446,0.2743897725880146,-0.30055826902389526,0.07525370270013809,0.2425871044397354
1772376687284789000,2.0347890625,-0.15063730972106568,0.14615151520967481,0.1182762508124113,-0.28839126229286194,0.0901656448841095,0.2698570191860199
1772376687294738200,2.04473828125,-0.07272839633873664,0.14469605570435523,-0.01164250699877739,-0.2546074688434601,0.11616315692663193,0.3039017915725708
1772376687304687000,2.05468701171875,-0.053379269618540996,0.11873539275676011,-0.11747136417031287,-0.22111526131629944,0.1343105435371399,0.34059011936187744
1772376687314636000,2.064635986328125,-0.05339921642802655,0.08461889588236808,-0.11267419302165507,-0.18756689131259918,0.1351366490125656,0.36833494901657104
1772376687324585000,2.0745849609375,-0.004375100678531453,0.0012713351100683212,-0.061571782293915744,-0.1661418229341507,0.1329818069934845,0.390418142080307
1772376687334534000,2.084533935546875,0.02718937362548895,-0.09275836319625377,0.05054886849820613,-0.15395759046077728,0.12038450688123703,0.40824854373931885
1772376687344482800,2.09448291015625,-0.005021426624897867,-0.17870646185576913,0.14619476982951163,-0.1472783088684082,0.1100434809923172,0.41109490394592285
1772376687354432000,2.104431884765625,-0.06346638213517145,-0.24526509265154597,0.2241910327017307,-0.1470351666212082,0.1133844181895256,0.4122970700263977
1772376687364381200,2.114381103515625,-0.11399282873901538,-0.32176790209561584,0.2515676999270916,-0.14525537192821503,0.11883804202079773,0.4057595431804657
1772376687374330000,2.124330078125,-0.10923546901093795,-0.39774581088274713,0.2715162629783153,-0.1477281153202057,0.12385649979114532,0.39817458391189575
1772376687384279000,2.134279052734375,-0.02266433394909836,-0.46147243312299246,0.31513445543050767,-0.15271057188510895,0.12048929184675217,0.3939058184623718
1772376687394228000,2.14422802734375,0.08379795315461233,-0.500440753942728,0.3274702053904533,-0.14817067980766296,0.1046711802482605,0.39400967955589294
1772376687404177000,2.154177001953125,0.18622125793267041,-0.5149836585581302,0.26780279541313645,-0.1389746218919754,0.1007002741098404,0.4050840735435486
1772376687414125800,2.164125732421875,0.2766899027565494,-0.5078808408156037,0.213311911290884,-0.1280364841222763,0.10238898545503616,0.41946566104888916
1772376687424076000,2.174075927734375,0.2988054528496228,-0.5096516498804092,0.1530851138651371,-0.1369563341140747,0.10286616533994675,0.43325304985046387
1772376687434025000,2.18402490234375,0.353428639848344,-0.5252130838885903,0.15176117178499698,-0.1477959305047989,0.1101302057504654,0.44479066133499146
1772376687443974100,2.19397412109375,0.4351974069966003,-0.569179359126091,0.08558394152224064,-0.15188641846179962,0.12378882616758347,0.4564756155014038
1772376687453923000,2.203923095703125,0.5082152969343587,-0.5920911558970808,-0.03897241247296333,-0.15716080367565155,0.1348089873790741,0.47105297446250916
1772376687463872000,2.2138720703125,0.5908676785167306,-0.5770172131448984,-0.1365975049227476,-0.16602735221385956,0.12576965987682343,0.48756298422813416
1772376687473821000,2.223821044921875,0.7138173279676586,-0.6003273615837097,-0.26559973241090773,-0.16399802267551422,0.09613506495952606,0.5024404525756836
1772376687483769900,2.233769775390625,0.8392842940017581,-0.6460097930893302,-0.4139186547875404,-0.14074046909809113,0.10263384133577347,0.5320754647254944
1772376687493719000,2.243718994140625,0.8962235941894352,-0.5900950136438011,-0.6886749226003885,-0.11132106930017471,0.10568422824144363,0.5679062008857727
1772376687503668000,2.25366796875,0.8989813684649764,-0.5059516263186932,-0.904272314479947,-0.0752549022436142,0.1002652645111084,0.6143427491188049
1772376687513617200,2.2636171875,0.906665347096324,-0.3895952376529574,-1.058079312878847,-0.022024698555469513,0.10209379345178604,0.6723378896713257
1772376687523566000,2.273566162109375,0.9738144911311566,-0.3861185014531016,-1.2334534154415129,0.04499948024749756,0.14416120946407318,0.736268937587738
1772376687533515000,2.283514892578125,0.9969397845223545,-0.391533804500103,-1.3792746757835148,0.11593357473611832,0.19950968027114868,0.7914120554924011
1772376687543464000,2.2934638671875,0.9750606187347323,-0.38228520690053697,-1.3538099796593188,0.1629653126001358,0.23284263908863068,0.8469635844230652
1772376687553412900,2.303412841796875,0.9404548770386725,-0.3847916367635131,-1.1431915452361106,0.16967540979385376,0.24918752908706665,0.8980262279510498
1772376687563361800,2.31336181640625,0.9398064230673014,-0.469121778832376,-0.8454729195088148,0.14011430740356445,0.2695804834365845,0.9366620182991028
1772376687573311000,2.32331103515625,0.949619084290415,-0.6174146899849176,-0.5488280604928731,0.07349240034818649,0.2801726460456848,0.9593108892440796
1772376687583260200,2.33326025390625,0.9660676033314317,-0.8126341874852776,-0.33832126975059507,-0.010336059145629406,0.25836992263793945,0.9674152135848999
1772376687593209900,2.3432099609375,1.0215174686789512,-1.014583577762544,-0.20587562381029129,-0.10246305167675018,0.17341484129428864,0.9599226713180542
1772376687603159000,2.353158935546875,1.0204285774637014,-1.1588126004770398,-0.22954583773314952,-0.184910386800766,0.04898872226476669,0.9272328615188599
1772376687613108000,2.36310791015625,0.8408035394582897,-1.1394915216743946,-0.528290883898735,-0.2331293225288391,-0.07927364110946655,0.8779313564300537
1772376687623057000,2.373056884765625,0.54689099148307,-0.9839657366588711,-1.0781886194497345,-0.23933196067810059,-0.1993882656097412,0.8208995461463928
1772376687633006000,2.383006103515625,0.2740132674258202,-0.7278419808626174,-1.709205133807659,-0.2242656648159027,-0.26611965894699097,0.7500991225242615
1772376687642955000,2.392955078125,0.20806005517728626,-0.6436562157005071,-2.2735341302931307,-0.15520671010017395,-0.18709060549736023,0.710044264793396
1772376687652904000,2.402904052734375,0.30893987510669974,-0.4684744208395481,-2.853052512603998,-0.022652139887213707,0.004056708887219429,0.6939193606376648
1772376687662853000,2.41285302734375,0.37073680792599917,-0.14766718046963215,-3.214182995533943,0.16921281814575195,0.25947025418281555,0.7308662533760071
1772376687672802000,2.422802001953125,0.6148990539021789,0.18074848907738922,-3.068617755779624,0.3522563874721527,0.5075690150260925,0.8142492771148682
1772376687682751000,2.4327509765625,0.955342357308045,0.4463242560908198,-2.3524726424515245,0.48420223593711853,0.6755701303482056,0.9583579897880554
1772376687692700000,2.442699951171875,1.3378886262975633,0.6228700327813625,-1.2094237205564975,0.5550018548965454,0.7354539632797241,1.1200268268585205
1772376687702648800,2.45264892578125,1.647434321810305,0.6186795953541994,-0.01564355933368206,0.576782763004303,0.7388576865196228,1.2657145261764526
1772376687712598000,2.462597900390625,1.7266744472637772,0.5062295664772392,0.9286749343305826,0.5786336660385132,0.6873934268951416,1.3801183700561523
1772376687722547000,2.472546875,1.5769615863107145,0.33628041157275435,1.5874895561963318,0.5696836113929749,0.5870589017868042,1.4455691576004028
1772376687732496100,2.48249609375,1.368077282203734,0.09487608600258826,2.0588947697907685,0.5578898191452026,0.4591483175754547,1.4587796926498413
1772376687742445000,2.492445068359375,1.1931317072514445,-0.17253946365863085,2.271775303927064,0.5456191897392273,0.3271970748901367,1.416427731513977
1772376687752394000,2.50239404296875,1.0073867250610142,-0.3976049411073327,2.3247364942640063,0.5407580733299255,0.20226392149925232,1.3408393859863281
1772376687762344000,2.512343994140625,0.8702036022700369,-0.5822106901347637,2.266756598982215,0.5234318971633911,0.1024692952632904,1.2349134683609009
1772376687772293000,2.522293212890625,0.7985068779334425,-0.7277651162341237,2.1699983524948356,0.47686466574668884,0.018283579498529434,1.1128027439117432
1772376687782242000,2.532241943359375,0.7318792735546827,-0.8263724977195263,2.0867729567974806,0.40030309557914734,-0.06084186211228371,0.9901472926139832
1772376687792191000,2.54219091796875,0.7593615200463681,-0.8664610547408461,1.981443865841627,0.29701560735702515,-0.14480866491794586,0.8764457106590271
1772376687802140000,2.552139892578125,0.819144665357843,-0.8431503217801452,1.7726655063271521,0.19124217331409454,-0.22489352524280548,0.7763841152191162
1772376687812089000,2.562089111328125,0.8910118508905172,-0.7935948482334614,1.3285603875905274,0.09611592441797256,-0.3148795962333679,0.6887030005455017
1772376687822038000,2.5720380859375,0.8840788367569447,-0.6634454965367913,0.7206950317174196,0.014050372876226902,-0.43927451968193054,0.6047533750534058
1772376687831987000,2.581987060546875,0.754492452705279,-0.515690930044651,-0.030006431207060813,-0.0802960991859436,-0.599319338798523,0.4962266683578491
1772376687841936000,2.591935791015625,0.6454344043541699,-0.4705038808405399,-0.8649602947890758,-0.13566355407238007,-0.7845720648765564,0.36868494749069214
1772376687851885000,2.601885009765625,0.582310935638845,-0.4654091880500316,-2.007936151447892,-0.08403763920068741,-0.8334277272224426,0.22462444007396698
1772376687861834000,2.611833984375,0.4190956920992583,-0.3159741211250424,-3.5031717868387697,0.08807768672704697,-0.7337178587913513,0.09380269050598145
1772376687871783000,2.621782958984375,0.1898490565083921,0.13089198675751684,-4.788460603457689,0.3260476291179657,-0.4605809152126312,-0.013234011828899384
1772376687881732000,2.631732177734375,0.12292809520624577,0.6787877348363399,-5.401880670848488,0.5603038668632507,-0.10272306948900223,-0.037458572536706924
1772376687891681000,2.641680908203125,0.3523097553536296,1.137415007661283,-5.2214358408927914,0.7185183167457581,0.2630607485771179,0.03204699978232384
1772376687901630000,2.6516298828125,0.8077324599836021,1.573265216010809,-4.354432057577371,0.7936708331108093,0.5923539400100708,0.18692447245121002
1772376687911578600,2.66157861328125,1.243576750048995,1.9172218612998724,-3.067985303094983,0.7816866040229797,0.8496102094650269,0.37241658568382263
1772376687921527600,2.671527587890625,1.5122744484752415,2.151765361189842,-1.7074264336973428,0.713310956954956,1.0354658365249634,0.552697479724884
1772376687931476500,2.6814765625,1.5706602942094205,2.177504490341246,-0.5141565600842237,0.6250500679016113,1.1579688787460327,0.690087080001831
1772376687941426700,2.6914267578125,1.455269827966392,2.0497861651837823,0.43225101481378075,0.5284931063652039,1.192973256111145,0.7742306590080261
1772376687951375600,2.701375732421875,1.2008203620579092,1.8500676026985048,1.1174527083456516,0.44669732451438904,1.1520863771438599,0.8087673187255859
1772376687961324800,2.71132470703125,0.9612078152753413,1.6574489353463053,1.5556161620736122,0.3966231346130371,1.0601505041122437,0.8033100366592407
1772376687971273700,2.721273681640625,0.7222742637328803,1.4886194321215152,1.8076444652497767,0.368463933467865,0.9400478601455688,0.7522963881492615
1772376687981222700,2.73122265625,0.5053071909353136,1.361536482258141,1.9932816031515597,0.3588973879814148,0.7953277826309204,0.6736137866973877
1772376687991171600,2.741171630859375,0.3633564884163439,1.277469375039637,2.1370961998462676,0.3450436294078827,0.6482096910476685,0.5806382894515991
1772376688001120800,2.751120849609375,0.3010936551183462,1.2166750068590044,2.2797300623238086,0.307009220123291,0.49161389470100403,0.49300092458724976
1772376688011069700,2.761069580078125,0.31763642831407485,1.2097682962104677,2.412624036553502,0.2372562438249588,0.3508125841617584,0.42246896028518677
1772376688021018600,2.7710185546875,0.37464758816156535,1.214227029184997,2.487307813876867,0.1590469628572464,0.2586539685726166,0.3788681626319885
1772376688030967800,2.7809677734375,0.41584304697886104,1.2611550768375397,2.4467764815241098,0.07448919862508774,0.22541025280952454,0.36262422800064087
1772376688040916700,2.790916748046875,0.3968322397017851,1.3701643176108598,2.2737954115778205,-0.012971282936632633,0.23179160058498383,0.3725050985813141
1772376688050865700,2.80086572265625,0.3601748261729255,1.4755840094596147,2.104788505959511,-0.09549838304519653,0.2564452886581421,0.3903602659702301
1772376688060814600,2.810814697265625,0.33635822604931886,1.5163514886558056,1.9257541273236274,-0.16271865367889404,0.2832247316837311,0.40455207228660583
1772376688070763500,2.820763427734375,0.30206237228633837,1.5026786448732017,1.756451453629136,-0.21163879334926605,0.29334741830825806,0.41432666778564453
1772376688080712700,2.830712646484375,0.27988015016522255,1.4180106491521,1.625638377326727,-0.24884815514087677,0.2740062177181244,0.40685099363327026
1772376688090662000,2.840661865234375,0.20119486384922639,1.3488257615059613,1.545924204620719,-0.27557432651519775,0.2269471287727356,0.3905164897441864
1772376688100610800,2.85061083984375,0.18342464948408305,1.3007023665890096,1.4412433484405278,-0.29389241337776184,0.17797473073005676,0.3805336356163025
1772376688110560800,2.860560791015625,0.22231179482638835,1.249964112998545,1.281867025476694,-0.2990608215332031,0.14174695312976837,0.3801133930683136
1772376688120509700,2.870509765625,0.2683913906897418,1.239779695853591,1.1144172861725092,-0.2980256974697113,0.10794895142316818,0.39409735798835754
1772376688130458600,2.880458740234375,0.31625107490289955,1.2286664734259247,1.019555813217163,-0.30212855339050293,0.08121001720428467,0.4224208891391754
1772376688140407800,2.89040771484375,0.3822360339965671,1.1843240583524106,0.9260387406080961,-0.3073417544364929,0.05749214068055153,0.4529995918273926
1772376688150356700,2.900356689453125,0.39883221787996587,1.1115002296820282,0.9171505007535219,-0.3172900080680847,0.026309188455343246,0.47930628061294556
1772376688160305700,2.9103056640625,0.404097371866554,0.9907289471834897,0.8893892181247472,-0.3409305214881897,-0.0357259064912796,0.4966074228286743
1772376688170254600,2.920254638671875,0.3740770582646131,0.8720409006997942,0.8351116844922304,-0.3584253489971161,-0.11256156861782074,0.5083181262016296
1772376688180203800,2.930203857421875,0.32253026477023955,0.7486947992771863,0.7051742219805717,-0.366199791431427,-0.183871790766716,0.5095223188400269
1772376688190152700,2.940152587890625,0.22475085854157803,0.6394780532330274,0.482754875126481,-0.37329789996147156,-0.25008225440979004,0.5094717144966125
1772376688200101600,2.9501015625,0.09491837250804529,0.5516492553934454,0.1866869392156601,-0.3837687075138092,-0.29554060101509094,0.49651598930358887
1772376688210050600,2.960050537109375,-0.030101708275079724,0.4451373843938112,-0.10398469060957431,-0.3883517384529114,-0.3404814302921295,0.4816589951515198
1772376688219999700,2.969999755859375,-0.12040263184923677,0.3316200185462832,-0.41753216910958285,-0.3840740919113159,-0.36287084221839905,0.46414464712142944
1772376688229948700,2.97994873046875,-0.23197847170755265,0.23525457076877354,-0.7613970444619655,-0.3627168536186218,-0.37450432777404785,0.435457319021225
1772376688239897600,2.989897705078125,-0.32750699373688547,0.13298749773204327,-1.1086685133874417,-0.3221822679042816,-0.34812837839126587,0.40778955817222595
1772376688249846800,2.9998466796875,-0.45148952989950775,0.08275777818560599,-1.4484925889164209,-0.2650206983089447,-0.294284850358963,0.373901903629303
1772376688259795700,3.009795654296875,-0.5225116063775495,0.0857470231294632,-1.6922352943062782,-0.188684344291687,-0.22335895895957947,0.3490656316280365
1772376688269744600,3.01974462890625,-0.521005256935209,0.08047492794543504,-1.7785598250627517,-0.11921632289886475,-0.1428808867931366,0.32874464988708496
1772376688279693600,3.029693603515625,-0.4104716561388224,0.05586684865057468,-1.6748685644418,-0.06439816206693649,-0.0738995298743248,0.32084155082702637
1772376688289643800,3.039643798828125,-0.2584747393691912,0.012073591892421244,-1.3697954842984676,-0.043245211243629456,-0.03210308402776718,0.31760287284851074
1772376688299592700,3.0495927734375,-0.1216199717497453,-0.04609627300351858,-0.895096489855647,-0.049902934581041336,-0.03227439895272255,0.3152391314506531
1772376688309541600,3.059541748046875,0.028943405085429547,-0.14138970763534306,-0.4256774816423654,-0.08487556874752045,-0.06407734006643295,0.31413766741752625
1772376688319490600,3.069490478515625,0.09954247037842869,-0.30359307071864605,-0.06110241121649742,-0.1238742247223854,-0.11237847059965134,0.31445667147636414
1772376688329439700,3.079439697265625,0.08844641828127205,-0.4166086245238781,0.08866437188088894,-0.15279614925384521,-0.18775683641433716,0.3014564514160156
1772376688339388700,3.089388671875,-0.024508199116960165,-0.536551054982841,0.12467033576369285,-0.19494959712028503,-0.22944554686546326,0.26617276668548584
1772376688349337900,3.099337890625,-0.09530052195973694,-0.762106654036045,0.14435060326755045,-0.2509295344352722,-0.22223877906799316,0.22537846863269806
1772376688359286800,3.109286865234375,-0.16981062321662901,-0.9728539755359291,0.12381167310774326,-0.34419432282447815,-0.22413209080696106,0.16205240786075592
1772376688369235700,3.119235595703125,-0.23404629095755516,-1.1728510627016424,0.18430910416841506,-0.48861193656921387,-0.26633012294769287,0.09986335039138794
1772376688379184600,3.1291845703125,-0.34302710935398933,-1.2898144773498177,0.25666823793649673,-0.6551882028579712,-0.4046286642551422,0.013603282161056995
1772376688389133600,3.139133544921875,-0.6329456557895988,-1.299452366527915,0.15811317116022108,-0.8430217504501343,-0.6047101020812988,-0.1428646296262741
1772376688399082800,3.149082763671875,-1.0684510692894458,-1.3865475893959402,-0.35833880638480187,-0.975986897945404,-0.7335218191146851,-0.3349233567714691
1772376688409031700,3.15903173828125,-1.4217887063860892,-1.3574050815418361,-1.3250596859931945,-1.0436112880706787,-0.7407237887382507,-0.5363928079605103
1772376688418980600,3.168980712890625,-1.5363108653619884,-1.2312491833955048,-2.3328414747864006,-1.024190902709961,-0.6126213669776917,-0.7151633501052856
1772376688428929800,3.1789296875,-1.3434902456969022,-1.0823758420065044,-3.3219641558170316,-0.8888114094734192,-0.3141455054283142,-0.8404882550239563
1772376688438878700,3.188878662109375,-0.9374221582792699,-0.7770689531072974,-3.9790959391623733,-0.6707426309585571,0.027170933783054352,-0.8717852830886841
1772376688448827600,3.19882763671875,-0.27630495855957266,-0.3808697871446609,-3.972472721630335,-0.429971307516098,0.34998175501823425,-0.8063327670097351
1772376688458776800,3.20877685546875,0.5005832311533391,0.025552666668593883,-3.309906053754687,-0.21281488239765167,0.5859062671661377,-0.6295657157897949
1772376688468726500,3.2187265625,1.2566405220225452,0.4138759846895933,-2.198037867543101,-0.04358085244894028,0.6781810522079468,-0.3671882152557373
1772376688478675700,3.22867578125,1.8576742783099411,0.6174703656949102,-0.9409721058458089,0.07351337373256683,0.6699588894844055,-0.06831635534763336
1772376688488625000,3.238625,2.175017203570157,0.6245668998271227,0.09326865080595016,0.1699506938457489,0.6005030870437622,0.203852578997612
1772376688498573800,3.24857373046875,2.1267896176263688,0.4330594085872173,0.8152613211184739,0.2667801082134247,0.4914129078388214,0.401981920003891
1772376688508522800,3.258522705078125,1.7601956085935233,0.14635989726334808,1.2446592845886946,0.34875354170799255,0.36892586946487427,0.5105177164077759
1772376688518471700,3.2684716796875,1.3085279456481336,-0.14271423423737287,1.5188351221650838,0.4079665243625641,0.25019100308418274,0.5564489364624023
1772376688528420600,3.278420654296875,0.8885891537882387,-0.42360710510909555,1.6744687514692544,0.4454664885997772,0.13862639665603638,0.5521194338798523
1772376688538369500,3.28836962890625,0.49602337589189405,-0.6992126832276583,1.7525918555915354,0.44233763217926025,0.03629297763109207,0.5067204236984253
1772376688548318700,3.298318603515625,0.13545681045502422,-0.9207435568094253,1.8028870415896177,0.3932744860649109,-0.06896819919347763,0.4219999313354492
1772376688558267600,3.308267578125,-0.22582586736194787,-1.086427747745812,1.8199013047546146,0.29389622807502747,-0.1739649772644043,0.3035739064216614
1772376688568216800,3.318216796875,-0.5351883883275091,-1.2142954182460903,1.7398294046521185,0.16864006221294403,-0.27423566579818726,0.16211533546447754
1772376688578165800,3.328165771484375,-0.8075722279205918,-1.2610709056854248,1.4944792640656233,0.019207250326871872,-0.3762460947036743,-0.0069139739498496056
1772376688588114700,3.33811474609375,-1.051627141064778,-1.1911238014951349,1.0293979927957058,-0.12003079801797867,-0.45113232731819153,-0.183241605758667
1772376688598063600,3.348063720703125,-1.2350266561076044,-1.0036705540820956,0.3173246589511633,-0.23122742772102356,-0.459503710269928,-0.34279876947402954
1772376688608012800,3.3580126953125,-1.309087040835619,-0.777532186704874,-0.5237900653481483,-0.3074913024902344,-0.4168468117713928,-0.4815143048763275
1772376688617961700,3.367961669921875,-1.2126322342742233,-0.6033396951422095,-1.3562176253229379,-0.31031718850135803,-0.2683069407939911,-0.5936411619186401
1772376688627910700,3.37791064453125,-1.0055555641110987,-0.3862412510499358,-2.1905922277122736,-0.22863377630710602,-0.04320748895406723,-0.6587466597557068
1772376688637859600,3.387859619140625,-0.6858441561538726,-0.047020109850168225,-2.782750895887613,-0.08622889220714569,0.19733303785324097,-0.6649501919746399
1772376688647809800,3.397809814453125,-0.23950302199348805,0.3443742861792445,-2.8851351655632254,0.07648199051618576,0.4129073917865753,-0.5891736745834351
1772376688657758700,3.4077587890625,0.2348027353480458,0.7257870941594242,-2.5875059716850517,0.23934385180473328,0.5607309341430664,-0.4292672574520111
1772376688667707600,3.417707763671875,0.6600348843757062,1.0667919039055704,-1.9318612120270728,0.3626095950603485,0.6075160503387451,-0.21785968542099
1772376688677656600,3.427656494140625,0.946273280993849,1.2574562223196029,-1.1341799712628124,0.443543940782547,0.5681020617485046,-0.0010280481074005365
1772376688687605500,3.43760546875,0.9990953551210462,1.245753217305243,-0.3987351141810417,0.5134944915771484,0.5047520995140076,0.16622193157672882
1772376688697554700,3.4475546875,0.7505901115044951,1.044274659410119,0.07388473590016365,0.5684919357299805,0.44801127910614014,0.25930994749069214
1772376688707503900,3.45750390625,0.2718508286949247,0.8244672486200928,0.4086690636962652,0.6047397255897522,0.39895081520080566,0.278779000043869
1772376688717452800,3.467452880859375,-0.16610479096863418,0.5699696327209473,0.6599988632142544,0.6080955862998962,0.38172227144241333,0.25272610783576965
1772376688727401700,3.477401611328125,-0.5137035921523347,0.3565969311535358,0.9055161770612001,0.5893024206161499,0.38021785020828247,0.1910824477672577
1772376688737350700,3.4873505859375,-0.7981740657825023,0.22510347137153147,1.1382120032578706,0.5342177152633667,0.3899902105331421,0.10822246223688126
1772376688747299600,3.497299560546875,-1.0507732276491821,0.18706687844395636,1.4021481863707304,0.4472620487213135,0.3915926218032837,0.012036806903779507
1772376688757248800,3.507248779296875,-1.2396364879906177,0.17243600328415631,1.6615186690032482,0.3333111107349396,0.38133561611175537,-0.09279453009366989
1772376688767197700,3.51719775390625,-1.319977414292842,0.1359372874483466,1.8987515541076658,0.19413378834724426,0.35576075315475464,-0.1912982016801834
1772376688777147000,3.52714697265625,-1.3572693263329565,0.14493570967912672,2.0007512083798646,0.06131766363978386,0.3140484690666199,-0.28825339674949646
1772376688787095800,3.537095703125,-1.3023287987470626,0.15930121190100907,1.9652263060122728,-0.04008219391107559,0.2748850882053375,-0.3750748634338379
1772376688797044700,3.547044677734375,-1.2016666036237031,0.22975275848209856,1.791537964579463,-0.09419220685958862,0.2453584223985672,-0.43477341532707214
1772376688806993700,3.55699365234375,-1.0798272535022349,0.3858917069599032,1.500059694546461,-0.12177670001983643,0.2525385618209839,-0.4670993983745575
1772376688816942600,3.566942626953125,-0.9684573480121791,0.6000254560276865,1.2279109788835048,-0.12632757425308228,0.28309640288352966,-0.46198320388793945
1772376688826892500,3.576892578125,-0.8351984129276127,0.7488046893924474,1.0811714346528052,-0.1309947669506073,0.3266393542289734,-0.42667156457901
1772376688836841500,3.586841552734375,-0.6462587994143366,0.8387897884830832,1.100308681321144,-0.14227533340454102,0.37154749035835266,-0.3729057013988495
1772376688846791000,3.596791015625,-0.4412570358291268,0.8296136715978384,1.2268144158184529,-0.16142027080059052,0.39915701746940613,-0.3095373809337616
1772376688856739800,3.60673974609375,-0.27700740774050353,0.7895686614573001,1.4120833049297332,-0.1776413917541504,0.4013037085533142,-0.24116021394729614
1772376688866688800,3.616688720703125,-0.15119619484599678,0.7104094922855496,1.580640713214874,-0.1892050951719284,0.38326212763786316,-0.17475402355194092
1772376688876637700,3.6266376953125,-0.0643919908137992,0.6170739137232303,1.7633178322672842,-0.20272190868854523,0.332005113363266,-0.11062324792146683
1772376688886586600,3.636586669921875,-0.038399562754761425,0.5134720849514007,1.919976712965965,-0.2154211848974228,0.25574204325675964,-0.051284030079841614
1772376688896535600,3.64653564453125,-0.04915328595396131,0.37801147510409355,1.9929636232435701,-0.24579781293869019,0.1636379063129425,0.0005845122504979372
1772376688906484500,3.656484375,-0.10679138206075876,0.22988310686349867,2.108200360229611,-0.28407806158065796,0.03458938002586365,0.03855479881167412
1772376688916433200,3.66643310546875,-0.14595109726674854,0.05717763898819685,2.0937030483216046,-0.3224533498287201,-0.08457717299461365,0.06708816438913345
1772376688926382300,3.67638232421875,-0.23206015864163637,-0.09317541956454514,1.898870796573162,-0.350178986787796,-0.18053537607192993,0.08026948571205139
1772376688936331300,3.686331298828125,-0.3433347139984369,-0.2145566506549716,1.5853776786088942,-0.363903284072876,-0.24374014139175415,0.08234860748052597
1772376688946280200,3.6962802734375,-0.45184543066509064,-0.3162017924010753,1.155081889516115,-0.366034597158432,-0.2636350095272064,0.08292625099420547
1772376688956229000,3.70622900390625,-0.46600949203073977,-0.38709962144494053,0.7209826164871453,-0.36535122990608215,-0.26146265864372253,0.09300950914621353
1772376688966178300,3.71617822265625,-0.43458259956650436,-0.4236173342421651,0.3582715863674879,-0.3617860674858093,-0.2576434314250946,0.10926996916532516
1772376688976127200,3.726127197265625,-0.3906545009149238,-0.4719660623475909,0.08312544245421886,-0.36867475509643555,-0.2538240849971771,0.12677821516990662
1772376688986076200,3.736076171875,-0.35576270881909877,-0.5416483781218528,-0.18801906460225581,-0.36121976375579834,-0.2425951361656189,0.14007750153541565
1772376688996025000,3.746025146484375,-0.31840945851318536,-0.654051937508583,-0.4951853176325559,-0.3302385210990906,-0.200982004404068,0.14585141837596893
1772376689005974300,3.755974365234375,-0.2860065423573367,-0.7020753791823983,-0.8373889817744493,-0.2933518886566162,-0.17930150032043457,0.15749582648277283
1772376689015924200,3.76592431640625,-0.22563673799801617,-0.7247440148472786,-1.030288804155588,-0.2464388757944107,-0.15231533348560333,0.1818346232175827
1772376689025873200,3.775873046875,-0.13403274160181172,-0.7563920757815241,-1.1696405762225388,-0.19624920189380646,-0.16566096246242523,0.21303702890872955
1772376689035822000,3.785822021484375,-0.0862324320262298,-0.7825967766180634,-1.1954179915577172,-0.15439437329769135,-0.1785285323858261,0.23827791213989258
1772376689045771000,3.79577099609375,-0.04521520215293858,-0.8091101050123571,-1.1996633740425109,-0.10752487182617188,-0.2018572837114334,0.26660221815109253
1772376689055720200,3.80572021484375,-0.04334830773593858,-0.8449155778869986,-1.2621657151848078,-0.05886242538690567,-0.19550444185733795,0.2830471992492676
1772376689065669400,3.81566943359375,-0.03550986919524148,-0.8918187833592295,-1.2668132487297057,-0.013680567964911461,-0.17339755594730377,0.2966759204864502
1772376689075618300,3.825618408203125,-0.04262838683039881,-0.9287553060904145,-1.2148913383126259,0.009059161879122257,-0.1334865242242813,0.30089572072029114
1772376689085567200,3.835567138671875,0.02015938365715556,-0.9553218259766697,-1.073062946999073,0.013728482648730278,-0.09330874681472778,0.3111126720905304
1772376689095516200,3.84551611328125,0.10072755197715014,-0.9673825583875179,-0.8691425489097833,0.002845434006303549,-0.05700167641043663,0.32596102356910706
1772376689105465000,3.855465087890625,0.20881697449181227,-0.9824483178332447,-0.6071019702851772,-0.023021848872303963,-0.02474307082593441,0.3349742293357849
1772376689115414000,3.8654140625,0.2941997308861464,-0.9948357979804276,-0.35499767926335335,-0.0599307119846344,0.00667917262762785,0.3475838899612427
1772376689125363200,3.87536328125,0.4788590001991018,-1.0376359520480036,-0.1362538060516119,-0.11797936260700226,0.04572271183133125,0.3628765642642975
1772376689135312100,3.88531201171875,0.6728230542782694,-1.1518003836274147,0.09918985754847526,-0.2066662609577179,0.060689251869916916,0.38031062483787537
1772376689145261300,3.89526123046875,0.8343979832649231,-1.273905252817273,0.3271849587082863,-0.31991854310035706,0.007575434632599354,0.39470767974853516
1772376689155210200,3.905210205078125,0.9050973671272396,-1.3750408376060426,0.4581482571363449,-0.43975335359573364,-0.10223981738090515,0.3936505615711212
1772376689165159200,3.9151591796875,0.8212699869487434,-1.4419341071836649,0.32239772443175313,-0.5367100238800049,-0.24642229080200195,0.3653312921524048
1772376689175108000,3.925108154296875,0.6286261120900511,-1.4603598445817827,-0.16328969701528548,-0.5852628946304321,-0.37587618827819824,0.3111877143383026
1772376689185057300,3.935057373046875,0.4037700030757114,-1.3750200870789586,-0.9976946945428847,-0.5723322033882141,-0.44295695424079895,0.2474476397037506
1772376689195006200,3.945006103515625,0.24396928068734705,-1.2441297077566384,-1.8532529547363519,-0.5155969262123108,-0.5036672949790955,0.18277135491371155
1772376689204956400,3.954956298828125,0.29900059182923283,-1.160486963430047,-2.528360539755225,-0.41601094603538513,-0.47999951243400574,0.13744968175888062
1772376689214905300,3.9649052734375,0.49652350743375717,-1.0427310832299292,-3.163969642600417,-0.26453688740730286,-0.3797577917575836,0.12421865016222
1772376689224854300,3.974854248046875,0.7072792314358055,-0.8247107019871472,-3.61102484331429,-0.0749262124300003,-0.22248747944831848,0.15537336468696594
1772376689234803200,3.98480322265625,0.9190816149465739,-0.5107135800234973,-3.7192297819674014,0.12001349031925201,-0.053719162940979004,0.24348042905330658
1772376689244751000,3.994751220703125,1.2130357735738158,-0.16553206911459564,-3.4000410827100276,0.2878110110759735,0.08624619990587234,0.381918728351593
1772376689254700300,4.0047001953125,1.542199631139636,0.11951602174043655,-2.740548415452242,0.4033251702785492,0.17714926600456238,0.5471175312995911
1772376689264649200,4.014649169921875,1.7677927857242524,0.2492129534944892,-1.9386311445534228,0.4734557867050171,0.2086603194475174,0.7088672518730164
1772376689274598100,4.02459814453125,1.8000315060280263,0.2822046841226518,-1.199917056542635,0.5336413979530334,0.2320069670677185,0.8354125022888184
1772376689284547000,4.034547119140625,1.6614682539902625,0.23685572235509753,-0.6675035397559403,0.5930147171020508,0.24016395211219788,0.9133943915367126
1772376689294496300,4.044496337890625,1.445562672944367,0.16213161302134393,-0.2434849312365055,0.6529152393341064,0.2175603210926056,0.9517931938171387
1772376689304445200,4.054445068359375,1.2917369698449968,0.07172200490832328,0.118424134850502,0.6982030868530273,0.17284159362316132,0.9622983336448669
1772376689314395100,4.06439501953125,1.2500935845971106,-0.0026826632127165792,0.44478316412866115,0.7355697751045227,0.09922099113464355,0.9669698476791382
1772376689324344000,4.074343994140625,1.2580543343432247,-0.0506876924470067,0.7370160519212484,0.7366284132003784,0.008916395716369152,0.9577755331993103
1772376689334293200,4.084293212890625,1.2521116464212536,-0.09570376899838447,0.9743979901075362,0.7117802500724792,-0.09926548600196838,0.9479605555534363
1772376689344242200,4.0942421875,1.2033518532969056,-0.12037614570111035,1.0990800163090229,0.6501115560531616,-0.20381559431552887,0.9129975438117981
1772376689354191400,4.10419140625,1.157662042202428,-0.22932722654640672,1.1011644213676453,0.5602586269378662,-0.31919974088668823,0.8675315976142883
1772376689364140300,4.114140380859375,1.0639048772271722,-0.2845797426909208,0.9412538453966378,0.4596140384674072,-0.4483718276023865,0.7914099097251892
1772376689374089200,4.124089111328125,0.8975226940892637,-0.3024351328551769,0.5074240369588137,0.3823832869529724,-0.5732012391090393,0.707644522190094
1772376689384038100,4.1340380859375,0.5603717832922935,-0.23904782557189463,-0.20196751045584677,0.32050445675849915,-0.6748618483543396,0.6073512434959412
1772376689393987000,4.143987060546875,0.19624138789400458,-0.07239420508146285,-1.0117197127640247,0.27023857831954956,-0.7590867877006531,0.5038290023803711
1772376689403936300,4.153936279296875,-0.034003903345391155,0.03467266945242881,-1.8459236347615717,0.26799753308296204,-0.7414068579673767,0.38267993927001953
1772376689413885200,4.16388525390625,-0.2503950759511441,0.09251315626353025,-2.8768951604843136,0.3353821337223053,-0.6033347845077515,0.25613439083099365
1772376689423834000,4.173834228515625,-0.3845838392317295,0.2590375974163413,-3.772000418168306,0.4788902997970581,-0.37629207968711853,0.1472976803779602
1772376689433783300,4.183783203125,-0.3570161064136773,0.5825044123843311,-4.312552233225107,0.6691197156906128,-0.0901121273636818,0.0923701673746109
1772376689443732200,4.193732177734375,-0.04504245310164988,0.9537468317449093,-4.291313045841455,0.8541593551635742,0.21049004793167114,0.11268796026706696
1772376689453681200,4.20368115234375,0.4215674159750342,1.3629796668037772,-3.6184611307948824,0.9822034239768982,0.45356351137161255,0.21214132010936737
1772376689463630000,4.213630126953125,0.864008327826485,1.740384408186376,-2.4107249249339104,1.0256084203720093,0.6077733635902405,0.3586202561855316
1772376689473579300,4.223579345703125,1.1383457857053727,1.9058488188922404,-1.07297526871562,1.0111902952194214,0.7140805721282959,0.5128839015960693
1772376689483528200,4.233528076171875,1.2774907100886106,1.9292633044883607,0.12040741762220859,0.9636651873588562,0.7538663148880005,0.6369643211364746
1772376689493477000,4.24347705078125,1.2244829771962016,1.853640492749214,1.0657494091153144,0.8912222981452942,0.7413576245307922,0.7105605006217957
1772376689503427300,4.25342724609375,1.0576791345801204,1.6929527949258685,1.7854513381421564,0.812545895576477,0.701987624168396,0.740418016910553
1772376689513376300,4.263376220703125,0.8905183682851493,1.4981234657868743,2.285549562257528,0.7330338358879089,0.6355858445167542,0.726795494556427
1772376689523325200,4.2733251953125,0.6496775948818773,1.3294088211134076,2.614937583968043,0.6459455490112305,0.5558047294616699,0.6701173186302185
1772376689533274000,4.283274169921875,0.41268304857797916,1.1536954035937785,2.8554841236650943,0.5554218888282776,0.46141332387924194,0.5752266645431519
1772376689543223000,4.29322314453125,0.22834720253311097,0.9861977334946394,3.0010452717661855,0.46191614866256714,0.37094175815582275,0.45573434233665466
1772376689553172200,4.303172119140625,0.07995426507219672,0.8992711451917886,3.0461013880670067,0.3710836172103882,0.28376439213752747,0.335704505443573
1772376689563121200,4.31312109375,0.03811046188138425,0.8687281228899956,3.0410815140783787,0.2727096378803253,0.20317552983760834,0.22284722328186035
1772376689573070300,4.3230703125,0.059812225275486706,0.8876993653416633,2.980928366410732,0.17875108122825623,0.1357196867465973,0.127095565199852
1772376689583019300,4.333019287109375,0.12705065502896903,0.924060134011507,2.86888311894238,0.09037728607654572,0.08726613968610764,0.060043562203645706
1772376689592968200,4.34296826171875,0.1283777389142662,1.0829974810361862,2.6578058348357674,0.008043346926569939,0.0492381751537323,0.028551870957016945
1772376689602917000,4.352917236328125,0.15704766082055865,1.2268132467746733,2.3604437674611805,-0.052867937833070755,0.04172752797603607,0.021467329934239388
1772376689612866000,4.362865966796875,0.22106267154812811,1.2912465559795498,2.048427151790261,-0.10311517119407654,0.039288535714149475,0.029395993798971176
1772376689622815200,4.372815185546875,0.24964871456325052,1.3122528113901615,1.7175111898601054,-0.13688592612743378,0.03148041293025017,0.03608611971139908
1772376689632764200,4.38276416015625,0.23345818887129424,1.272463529576361,1.4123843337029218,-0.16697530448436737,0.027397893369197845,0.03234083577990532
1772376689642713300,4.39271337890625,0.17465565209500492,1.2227066882386803,1.1569213799029587,-0.1794772446155548,0.020124001428484917,0.02416786178946495
1772376689652662300,4.402662353515625,0.1307655108336359,1.1637117706954478,0.9144108466565608,-0.18511506915092468,0.030196158215403557,0.010047157295048237
1772376689662611200,4.412611083984375,0.09889840032123029,1.1015718331247568,0.6750894648402929,-0.17681239545345306,0.06338580697774887,-0.0003077457658946514
1772376689672560000,4.42256005859375,0.059032034683227534,1.0752312309488654,0.4867343001514673,-0.16999496519565582,0.08937589079141617,-0.005178655497729778
1772376689682509000,4.432509033203125,0.04195281652323901,1.0340312055543064,0.4278250150650739,-0.17083999514579773,0.11508471518754959,-0.0033586507197469473
1772376689692459000,4.442458984375,0.03545512506701052,0.9842413387298583,0.4262456369191408,-0.17203500866889954,0.12834051251411438,-0.0014017694629728794
1772376689702408200,4.452408203125,0.022198899261280894,0.9161939306810498,0.5206336471438407,-0.19340474903583527,0.1187848150730133,-0.0075574005022645
1772376689712357400,4.462357421875,-0.01673654220215976,0.8500058867633342,0.6240718097865581,-0.21835920214653015,0.0919882208108902,-0.01813141629099846
1772376689722306300,4.472306396484375,-0.039354397527873515,0.7601061278685927,0.6981880163550377,-0.24226613342761993,0.06772123277187347,-0.033090658485889435
1772376689732255200,4.482255126953125,-0.09901019013263285,0.6753422705575823,0.6684171474695205,-0.2618224620819092,0.0427677258849144,-0.05008702725172043
1772376689742204200,4.4922041015625,-0.16541341117098926,0.5877154250308871,0.5688719006121158,-0.271879106760025,0.026744285598397255,-0.06773393601179123
1772376689752153000,4.502153076171875,-0.2082918911717832,0.5262053097963333,0.44713644925653934,-0.27468475699424744,0.022166334092617035,-0.08219392597675323
1772376689762102000,4.51210205078125,-0.20171346262954173,0.47237931932359933,0.3634036885589361,-0.2648843228816986,0.033731378614902496,-0.09225747734308243
1772376689772051200,4.52205126953125,-0.2324574143309146,0.4311164578258991,0.33500761515796185,-0.26554468274116516,0.03722318634390831,-0.10151868313550949
1772376689782000400,4.53200048828125,-0.23164989734031258,0.37882892896682024,0.41414311119318004,-0.2782314717769623,0.03836594894528389,-0.10892892628908157
1772376689791949300,4.54194921875,-0.2146349035229534,0.2830722607374191,0.5456657970696688,-0.3110297620296478,0.021889066323637962,-0.1172589510679245
1772376689801898200,4.551898193359375,-0.17697379284426568,0.15386661963164805,0.7046633498489856,-0.3567724823951721,-0.018459687009453773,-0.13165493309497833
1772376689811847200,4.56184716796875,-0.18623853786103425,0.02726151641309261,0.8018909674137831,-0.4130335748195648,-0.059644050896167755,-0.15661406517028809
1772376689821796000,4.571796142578125,-0.2189346465434879,-0.1268275137975812,0.7331079385668039,-0.46517160534858704,-0.08733320236206055,-0.19312867522239685
1772376689831745000,4.5817451171875,-0.2570022191312164,-0.2508183428645134,0.5221919825017451,-0.48975175619125366,-0.1267530769109726,-0.23310628533363342
1772376689841694200,4.591694091796875,-0.2886890777058899,-0.2917544566258788,0.2092781257301569,-0.49575477838516235,-0.12979893386363983,-0.27442845702171326
1772376689851643100,4.60164306640625,-0.22525910032466054,-0.3288783186227083,-0.16642799504101274,-0.48745396733283997,-0.13277103006839752,-0.29754576086997986
1772376689861592300,4.61159228515625,-0.12163140645921229,-0.31325492529422044,-0.47938569095432754,-0.4578574597835541,-0.12543748319149017,-0.3063613474369049
1772376689871541200,4.621541259765625,-0.02303586154207587,-0.30712124484479425,-0.7508125220835209,-0.4176062345504761,-0.12910448014736176,-0.3033205568790436
1772376689881491200,4.6314912109375,0.13696224658191203,-0.3113467535853386,-0.9116191701114177,-0.3652476966381073,-0.12646102905273438,-0.28439825773239136
1772376689891440000,4.641440185546875,0.23156726055815816,-0.2803974885702133,-1.0856126319706438,-0.30711156129837036,-0.11955875903367996,-0.2583465576171875
1772376689901389000,4.65138916015625,0.2813386418778449,-0.2793684377834201,-1.1882821483284234,-0.23916050791740417,-0.12954561412334442,-0.2225978970527649
1772376689911338000,4.661337890625,0.26775471848770976,-0.29871611233204604,-1.1956623217076063,-0.1776919662952423,-0.13530460000038147,-0.1874222457408905
1772376689921288700,4.671288818359375,0.24409575661122798,-0.3990972254917025,-1.050749992904067,-0.15485695004463196,-0.1324928253889084,-0.16371984779834747
1772376689931237600,4.681237548828125,0.19794168900586664,-0.5756695979282259,-0.8042834155082702,-0.175900399684906,-0.14013653993606567,-0.16011472046375275
1772376689941186600,4.6911865234375,0.13122786764837802,-0.7822817193195223,-0.4238134413361549,-0.24810588359832764,-0.19591033458709717,-0.18861080706119537
1772376689951135700,4.7011357421875,-0.06285787658169865,-0.9524611758485436,-0.05262801285982131,-0.35121849179267883,-0.297994464635849,-0.2406385987997055
1772376689961085000,4.7110849609375,-0.3012285335443914,-1.0336629567638038,0.09494622862935066,-0.4523930549621582,-0.41126081347465515,-0.3266312777996063
1772376689971033900,4.721033935546875,-0.5848156850013881,-1.0993830909088254,-0.09471651152670382,-0.5313330888748169,-0.48227953910827637,-0.43502891063690186
1772376689980982800,4.730982666015625,-0.9016454000424593,-1.137194642908871,-0.5817611928015947,-0.5959110260009766,-0.4809418320655823,-0.5585114359855652
1772376689990931700,4.740931640625,-1.0274689974945037,-1.205972411058843,-1.130182426059246,-0.6429082155227661,-0.4156668186187744,-0.6791889667510986
1772376690000880600,4.750880615234375,-0.9442769195448607,-1.2337111895948647,-1.5588795477837323,-0.6582767963409424,-0.3070681691169739,-0.7751791477203369
1772376690010829600,4.76082958984375,-0.7890574970647692,-1.169013384234905,-2.0038877528399226,-0.6301217675209045,-0.17840445041656494,-0.8263010382652283
1772376690020778800,4.77077880859375,-0.5574313459262251,-1.0030325484395026,-2.392497194325924,-0.5637035965919495,-0.07049024105072021,-0.834770143032074
1772376690030727700,4.780727783203125,-0.21332455157674848,-0.8163622680976986,-2.6233184588223692,-0.4553593397140503,-0.00931583158671856,-0.7978744506835938
1772376690040676900,4.7906767578125,0.09179156399071216,-0.684166213004291,-2.7674925364792347,-0.31654471158981323,0.004056432284414768,-0.7434833645820618
1772376690050625800,4.800625732421875,0.23208792343139648,-0.5850780622646212,-2.8285136991530657,-0.14967085421085358,-0.006810389459133148,-0.6814939975738525
1772376690060574700,4.81057470703125,0.2619782539781183,-0.47017625632137056,-2.854164857760072,0.03247951716184616,-0.00477413646876812,-0.6187075972557068
1772376690070524700,4.820524658203125,0.20581972890459,-0.3550362577080726,-2.811882297825813,0.22072097659111023,0.03635644167661667,-0.5529857277870178
1772376690080473600,4.8304736328125,0.07241225219480693,-0.25749212154000994,-2.6512323016643524,0.37468042969703674,0.09545518457889557,-0.49185898900032043
1772376690090422500,4.840422607421875,-0.08393149814009666,-0.19356383924782275,-2.207348132202029,0.4722658097743988,0.1579861342906952,-0.4433533549308777
1772376690100371700,4.850371826171875,-0.24973390862867234,-0.18723405170440674,-1.551075011512637,0.5128145813941956,0.20121777057647705,-0.42037269473075867
1772376690110321000,4.86032080078125,-0.4179156154692173,-0.24777999808192253,-0.8862257856577634,0.5210641622543335,0.25866425037384033,-0.4240926504135132
1772376690120269800,4.870269775390625,-0.6071636738771572,-0.2946668369412422,-0.3934633112579584,0.4899235963821411,0.3010961413383484,-0.45093196630477905
1772376690130218800,4.88021875,-0.79675857296139,-0.2597816937819123,0.053338206955790515,0.4311157166957855,0.29576215147972107,-0.4990297257900238
1772376690140167700,4.890167724609375,-0.9435855032145977,-0.24935294648706913,0.44495968973934646,0.3384355902671814,0.25606268644332886,-0.5722081065177917
1772376690150116600,4.90011669921875,-1.0421921540476382,-0.24567893414944408,0.7080950778633356,0.21851903200149536,0.1867448091506958,-0.6667520999908447
1772376690160065500,4.9100654296875,-1.0943696466609836,-0.19323124629259109,0.7949579532802105,0.11218992620706558,0.10688406974077225,-0.765744686126709
1772376690170014700,4.9200146484375,-1.1104882761605084,-0.11168255163580179,0.6409305901288986,0.033741939812898636,0.0480518713593483,-0.8549503087997437
1772376690179964000,4.9299638671875,-1.0597226961717008,0.07524345703274012,0.19875439362823963,0.010258187539875507,0.03195386379957199,-0.9125787019729614
1772376690189912800,4.939912841796875,-0.9294454803116619,0.3842947931572795,-0.35130583900809287,0.03951101750135422,0.06278302520513535,-0.9207791090011597
1772376690199861800,4.94986181640625,-0.7732656153015792,0.7378229843899607,-0.821357884427905,0.09991417080163956,0.11066772788763046,-0.881746768951416
1772376690209810700,4.959810791015625,-0.5603798204682767,0.9766597975596785,-0.985720763632655,0.18148104846477509,0.18031935393810272,-0.8080700635910034
1772376690219759600,4.969759521484375,-0.31400450155250725,1.1507333389177918,-1.002593572500348,0.27879613637924194,0.274878591299057,-0.6936782598495483
1772376690229708500,4.97970849609375,-0.1557125397592783,1.341635265479982,-0.8523001351803541,0.37341007590293884,0.35348454117774963,-0.5607554316520691
1772376690239657700,4.98965771484375,-0.033855206456547604,1.466883108870685,-0.4480927270680666,0.4335344135761261,0.38658711314201355,-0.4275915324687958
1772376690249607000,4.99960693359375,0.05452278623101301,1.4158154771953821,0.10608137062788009,0.4659709632396698,0.38280734419822693,-0.3090628981590271
1772376690259555800,5.009555908203125,0.06536802820514422,1.190252279357612,0.6458072562545537,0.48623016476631165,0.37130939960479736,-0.21889866888523102
1772376690269505800,5.019505859375,-0.04204202461007517,0.9747761757701635,0.9827420400828123,0.5078276991844177,0.3452526032924652,-0.1675412356853485
1772376690279454700,5.029454833984375,-0.2071522561499849,0.8458356153413653,1.2762322344601154,0.5201288461685181,0.2851618230342865,-0.13984942436218262
1772376690289403600,5.039403564453125,-0.34128954497165975,0.7585176896333694,1.5585767654448748,0.524689793586731,0.22162659466266632,-0.12335269898176193
1772376690299352600,5.0493525390625,-0.447483947519958,0.6749044636622071,1.8151333597004413,0.4982038736343384,0.15727929770946503,-0.11381218582391739
1772376690309301800,5.0593017578125,-0.5112116292061284,0.5596420077130199,2.060690421035886,0.4447389841079712,0.09350503236055374,-0.11135943233966827
1772376690319251000,5.0692509765625,-0.5736836482753976,0.4219987931296229,2.2056787376850844,0.3766970932483673,0.04426983743906021,-0.11879151314496994
1772376690329199900,5.079199951171875,-0.6158570852793753,0.30321459279507396,2.3226421523332594,0.30003979802131653,-0.017023414373397827,-0.13254258036613464
1772376690339148800,5.089148681640625,-0.6548902880288661,0.19319675950109957,2.33666541698873,0.22889292240142822,-0.06337067484855652,-0.1524888575077057
1772376690349097700,5.09909765625,-0.6912843013811856,0.13847323566675185,2.304903082025051,0.1586897075176239,-0.10485143214464188,-0.1806519776582718
1772376690359046700,5.109046630859375,-0.7275000355571508,0.12334025620371103,2.2335575092136857,0.088634192943573,-0.14422999322414398,-0.19965016841888428
1772376690368995600,5.11899560546875,-0.7946956490822136,0.1421945942774415,2.147354559010267,0.017299607396125793,-0.16569262742996216,-0.21935158967971802
1772376690378944500,5.128944580078125,-0.8655142754100262,0.17039193023592233,2.0296195754677058,-0.06542536616325378,-0.16389736533164978,-0.24236422777175903
1772376690388894000,5.13889404296875,-0.944742491229996,0.20587708511501548,1.9129519288957118,-0.1529809683561325,-0.1553620994091034,-0.27008727192878723
1772376690398843000,5.1488427734375,-0.9756301622509955,0.21430413719862698,1.746053978255391,-0.22586315870285034,-0.13979460299015045,-0.29046204686164856
1772376690408791800,5.158791748046875,-0.9539720918681472,0.25514877328425645,1.5046148736327887,-0.2733347713947296,-0.11650015413761139,-0.3099967837333679
1772376690418740700,5.16874072265625,-0.893713657195121,0.27718028008937834,1.1697118878930806,-0.2876468598842621,-0.07561930269002914,-0.31766241788864136
1772376690428689700,5.178689697265625,-0.8096913389664143,0.31995266936719413,0.8773550814598798,-0.27764976024627686,-0.03445526212453842,-0.3090870976448059
1772376690438638600,5.188638671875,-0.7035427483212202,0.37684184680283067,0.6887351283550261,-0.2763892710208893,0.011924222111701965,-0.28963589668273926
1772376690448588800,5.1985888671875,-0.6421456650070846,0.4027957877486944,0.6231792448610067,-0.2590734362602234,0.05803074687719345,-0.2577112913131714
1772376690458537700,5.208537841796875,-0.5556282420270144,0.38807869561016556,0.6332055488348007,-0.24245585501194,0.09911186993122101,-0.2211703360080719
1772376690468487000,5.21848681640625,-0.50257491642721,0.33282296459525823,0.6951999404549598,-0.23628868162631989,0.10711152106523514,-0.19889922440052032
1772376690478435800,5.228435791015625,-0.4963944011613726,0.2369797871261835,0.8524667239189148,-0.24484968185424805,0.07364916801452637,-0.19369354844093323
1772376690488384800,5.238384765625,-0.5063111072808504,0.12177782919257879,1.0136310993432998,-0.266977459192276,0.02015945315361023,-0.2040107250213623
1772376690498333700,5.248333740234375,-0.521848137500137,-0.01344458798468113,0.9921686245977878,-0.27665725350379944,-0.027438689023256302,-0.22490668296813965
1772376690508282600,5.25828271484375,-0.5140188321139663,-0.11839695458263158,0.8232248473435639,-0.2604595124721527,-0.06209772080183029,-0.2473134547472
1772376690518231600,5.2682314453125,-0.47854383330270645,-0.16067279251515865,0.5213771589875221,-0.2245478332042694,-0.06887093931436539,-0.26246020197868347
1772376690528180700,5.2781806640625,-0.40522842172309753,-0.15508388646692037,0.2821720970273018,-0.1915554702281952,-0.06795421987771988,-0.26279497146606445
1772376690538130000,5.2881298828125,-0.2748606232364662,-0.13490852892249822,0.1430640705883503,-0.15060751140117645,-0.05040079355239868,-0.23794952034950256
1772376690548078800,5.298078857421875,-0.1422043302201666,-0.10682663603723049,0.03372866660058498,-0.12412866950035095,-0.04187193512916565,-0.21530182659626007
1772376690558027800,5.30802783203125,-0.034943156956881286,-0.197841662697494,0.06978314580023288,-0.10857687890529633,-0.03302491828799248,-0.18304003775119781
1772376690567976700,5.317976806640625,0.0266842279817909,-0.21108955906629562,0.052313540083169935,-0.10938507318496704,-0.06930374354124069,-0.15660201013088226
1772376690577925600,5.327925537109375,0.02917714077606797,-0.2535097739055753,0.08524608787000179,-0.1324342042207718,-0.15340396761894226,-0.1473318189382553
1772376690587874600,5.33787451171875,0.018179379687923936,-0.3647627019524574,0.054126142463088035,-0.15156890451908112,-0.21676792204380035,-0.15102340281009674
1772376690597823700,5.34782373046875,-0.0741065254246816,-0.4537579132229089,-0.1674795499205589,-0.16676384210586548,-0.2430567890405655,-0.16728919744491577
1772376690607773000,5.35777294921875,-0.22885749014280735,-0.45445729366391896,-0.5333703791201114,-0.16202856600284576,-0.19872911274433136,-0.19640493392944336
1772376690617721900,5.367721923828125,-0.34700741116181016,-0.4713113978311419,-0.8740525327831506,-0.15387555956840515,-0.09191212058067322,-0.2175472378730774
1772376690627670800,5.3776708984375,-0.280501003743615,-0.49098845046460626,-1.1336036326795815,-0.14042551815509796,0.044020701199769974,-0.2195817083120346
1772376690637619700,5.38761962890625,-0.026218016975838688,-0.5287538252353667,-1.2206155611783265,-0.1298101544380188,0.17797105014324188,-0.19566093385219574
1772376690647569700,5.397569580078125,0.34441987888664005,-0.5573348998144269,-1.1356073737174273,-0.10271738469600677,0.2755710184574127,-0.1438332200050354
1772376690657518600,5.4075185546875,0.7544263286665082,-0.5376183919534087,-0.9484744442999362,-0.07620934396982193,0.330654501914978,-0.07033902406692505
1772376690667467800,5.4174677734375,1.1423819824188948,-0.519154222241044,-0.6922329073429108,-0.04766847938299179,0.37149277329444885,0.030403899028897285
1772376690677416700,5.427416748046875,1.463859231004864,-0.5729714448854327,-0.4455740222454071,-0.03885661065578461,0.40684571862220764,0.14993828535079956
1772376690687366000,5.437365966796875,1.7110848100744187,-0.7204732056602835,-0.14583821147680281,-0.08665455132722855,0.42484280467033386,0.2653684914112091
1772376690697314800,5.447314697265625,1.9374093476735055,-1.0459484378412365,0.21905717694461344,-0.20913545787334442,0.3611687421798706,0.3504122793674469
1772376690707263700,5.457263671875,1.9076342410042881,-1.3581436249494552,0.5591647455900908,-0.3855620324611664,0.19434581696987152,0.37427714467048645
1772376690717212700,5.467212646484375,1.459127818568796,-1.5257321882024406,0.5525234078794717,-0.5702080130577087,-0.06871777772903442,0.3195875287055969
1772376690727161600,5.47716162109375,0.6691418084822595,-1.5209598592340945,0.06326455768644809,-0.7424361109733582,-0.37603604793548584,0.1856248378753662
1772376690737110800,5.48711083984375,-0.13726628929609433,-1.4554717802792787,-0.7986877874583005,-0.8628309369087219,-0.6523123979568481,0.0121747562661767
1772376690747059700,5.497059814453125,-0.6140528123363852,-1.3078566222578287,-2.0175024366945027,-0.8540918231010437,-0.750669002532959,-0.15664206445217133
1772376690757009000,5.5070087890625,-0.68448053965047,-1.0455530087828635,-3.405100119665265,-0.6933729648590088,-0.6108821034431458,-0.28930023312568665
1772376690766957800,5.516957763671875,-0.5210335697142408,-0.7432359493494033,-4.522573870798945,-0.3972551226615906,-0.2707880735397339,-0.34064191579818726
1772376690776906800,5.52690673828125,-0.08985183723294175,-0.3420037576556206,-4.964340317454933,-0.03281193971633911,0.16786545515060425,-0.2675764858722687
1772376690786855700,5.536855712890625,0.4430027104526758,0.08418576516211032,-4.67547719835639,0.275939017534256,0.5458652377128601,-0.0908476859331131
1772376690796804600,5.5468046875,1.0074345827907323,0.503615000064671,-3.544430848944187,0.45690932869911194,0.7835180163383484,0.17802132666110992
1772376690806753500,5.55675341796875,1.53029774255231,0.8117863384842872,-1.9582886157035826,0.5201835036277771,0.8479540944099426,0.4721522033214569
1772376690816702700,5.56670263671875,1.7914670913003383,0.834110983017087,-0.43308278946280476,0.4950038194656372,0.7621617317199707,0.7110036611557007
1772376690826652000,5.57665185546875,1.7079945889741182,0.6845993437245488,0.6946154185652732,0.4474497139453888,0.6600250601768494,0.8509219884872437
1772376690836600800,5.586600830078125,1.3529554086565971,0.4868041505172848,1.2439976058095692,0.39889150857925415,0.5296230912208557,0.8882259726524353
1772376690846550800,5.59655078125,0.9329042424634099,0.282466403798759,1.445508020147681,0.3732071816921234,0.39994049072265625,0.8608422875404358
1772376690856499700,5.606499755859375,0.6811984492398798,0.05097878434807062,1.42708389018476,0.367442786693573,0.2891940176486969,0.7958086729049683
1772376690866448600,5.61644873046875,0.555316837990284,-0.12993278633654118,1.3289870885699986,0.37785208225250244,0.1904883086681366,0.7286279797554016
1772376690876397800,5.626397705078125,0.49060244682170445,-0.13255933544784784,1.270037471473217,0.38649219274520874,0.11722128093242645,0.6774023175239563
1772376690886346800,5.6363466796875,0.46185891168992965,-0.04518558789938688,1.2452058125555514,0.37634292244911194,0.05788659304380417,0.6512607932090759
1772376690896295700,5.646295654296875,0.500786279444769,0.04162964898347855,1.3146487666159867,0.3263079822063446,0.0036260178312659264,0.6457517743110657
1772376690906244900,5.656244873046875,0.606760171110183,0.07951835787296295,1.4129244319289922,0.2320082187652588,-0.06027480587363243,0.6470198035240173
1772376690916192500,5.666192626953125,0.6868511412393301,0.06909837840646504,1.4841449170559644,0.10550621151924133,-0.1680646538734436,0.63344806432724
1772376690926141400,5.676141357421875,0.7162985503241419,0.06273351954966783,1.3925824856460094,-0.02424517273902893,-0.271921306848526,0.6103565096855164
1772376690936090400,5.68609033203125,0.6634774260450154,0.071797115971148,1.0743377892404795,-0.14425040781497955,-0.3992305397987366,0.5663552284240723
1772376690946039600,5.69603955078125,0.49574645864665506,0.11167144571989775,0.5103203429222106,-0.23283366858959198,-0.5190513730049133,0.49764353036880493
1772376690955988700,5.70598876953125,0.2194821974236518,0.1737754351943731,-0.2208499055802822,-0.27584850788116455,-0.5849904417991638,0.41084179282188416
1772376690965937700,5.715937744140625,-0.009735677863610908,0.23195552922338247,-1.1031868671059608,-0.26404133439064026,-0.5713903903961182,0.30411913990974426
1772376690975886600,5.725886474609375,-0.1528586755649652,0.3060360799565911,-1.9629145219385622,-0.19022996723651886,-0.46797776222229004,0.2005232721567154
1772376690985835500,5.73583544921875,-0.2509920006646775,0.47427930772602556,-2.6007272723078727,-0.07414907217025757,-0.22537299990653992,0.11538954079151154
1772376690995784400,5.745784423828125,-0.11944112987332045,0.693648034837842,-2.830429761907458,0.057914428412914276,0.06237649917602539,0.0968475490808487
1772376691005733400,5.7557333984375,0.10460135207003914,0.9719397833004594,-2.6107798797667026,0.16986098885536194,0.3437318205833435,0.14229317009449005
1772376691015682600,5.7656826171875,0.3812003708058968,1.2473933857277035,-2.056329303216934,0.2629392743110657,0.5553092956542969,0.24030441045761108
1772376691025631700,5.7756318359375,0.6991226668566465,1.4301169742703437,-1.2403905212283133,0.3200531303882599,0.6668712496757507,0.37135571241378784
1772376691035580700,5.78558056640625,0.9322744201272726,1.4790285969555377,-0.3180482970505953,0.33764782547950745,0.6736266016960144,0.4845941364765167
1772376691045530600,5.795530517578125,1.042211881661415,1.3478800050884485,0.5651835674881934,0.34093236923217773,0.6221193075180054,0.5663859248161316
1772376691055479600,5.8054794921875,1.0400699011966585,1.1700631855487822,1.2391904977887869,0.3238537907600403,0.533467710018158,0.6058241724967957
1772376691065428500,5.815428466796875,0.8780258203282951,0.9804004453927277,1.804178834965825,0.2653832733631134,0.41432106494903564,0.5974802374839783
1772376691075377400,5.82537744140625,0.6939012789465486,0.754322283770144,2.2320102797716856,0.19491179287433624,0.28119683265686035,0.5674110054969788
1772376691085326600,5.83532666015625,0.6154756847463548,0.5558806093528866,2.4765485194534063,0.11292791366577148,0.13896559178829193,0.5094470381736755
1772376691095275500,5.845275634765625,0.4937041391640901,0.40524142733514307,2.5599802513778207,0.03670237585902214,0.03017546609044075,0.4381227493286133
1772376691105224700,5.855224609375,0.3621950434215367,0.24804595554172992,2.4589000500380993,-0.02307986468076706,-0.047433722764253616,0.36250415444374084
1772376691115173600,5.865173583984375,0.3282099178418517,0.19978110632747412,2.2795196344435213,-0.07855217903852463,-0.1026112288236618,0.29319512844085693
1772376691125122600,5.87512255859375,0.2832378265626728,0.22555589131414888,2.0558716225773095,-0.1261167675256729,-0.12384378165006638,0.23775772750377655
1772376691135071500,5.885071533203125,0.3142043349735439,0.28007512474805113,1.8601456368595362,-0.1778998076915741,-0.11477705091238022,0.20566770434379578
1772376691145020400,5.8950205078125,0.3918062647659331,0.317638547205925,1.6756079846322536,-0.22416073083877563,-0.10112830996513367,0.19112959504127502
1772376691154969300,5.90496923828125,0.43188525024130936,0.3501648522794246,1.5079028092622757,-0.2709314227104187,-0.09160963445901871,0.18153928220272064
1772376691164918800,5.914918701171875,0.46559985178392377,0.34776217505186796,1.3505728974342346,-0.2965451776981354,-0.10435179620981216,0.17484650015830994
1772376691174867700,5.92486767578125,0.5025730897963047,0.3223541775509715,1.1364777268111705,-0.29974550008773804,-0.11751899868249893,0.16184814274311066
1772376691184816600,5.934816650390625,0.5176963515829295,0.27025983317643404,0.8556436003893614,-0.28302061557769775,-0.11199674010276794,0.1501184105873108
1772376691194765600,5.944765625,0.5406666370755061,0.2075432647615671,0.5638678087145089,-0.25996217131614685,-0.09393571317195892,0.13658103346824646
1772376691204714500,5.954714599609375,0.5109980229880661,0.15556728606969117,0.3471750228136778,-0.23319463431835175,-0.07037832587957382,0.12261950969696045
1772376691214663400,5.964663330078125,0.5232965827427805,0.11630670430511235,0.27645664198994635,-0.2176998257637024,-0.059221282601356506,0.12163280695676804
1772376691224612400,5.9746123046875,0.5341488161467015,0.07377396900206803,0.30623160252869125,-0.21774302423000336,-0.06425443291664124,0.1205432191491127
1772376691234561800,5.984561767578125,0.5014287055341526,0.013860767570137976,0.32942426206767556,-0.22255748510360718,-0.07552439719438553,0.11902841180562973
1772376691244511500,5.994511474609375,0.5025964706718922,-0.06069236911088228,0.2945318123847246,-0.22440241277217865,-0.07803218811750412,0.11540979146957397
1772376691254460700,6.004460693359375,0.47766843870766457,-0.1331686995178461,0.19689269140958784,-0.21475271880626678,-0.08487624675035477,0.11195060610771179
1772376691264409600,6.01440966796875,0.44808856234960254,-0.18974223513305186,0.07966565738916397,-0.19083918631076813,-0.0981614887714386,0.1077263131737709
1772376691274358500,6.024358642578125,0.42876090767569836,-0.23652327553033828,-0.005511456897854805,-0.16508162021636963,-0.11592796444892883,0.10230357944965363
1772376691284307500,6.034307373046875,0.39044557087197895,-0.33132395820915694,-0.05505962392091751,-0.13268794119358063,-0.1261110156774521,0.09108768403530121
1772376691294256600,6.044256591796875,0.3233770543253049,-0.37532647380381823,-0.1316840139180422,-0.11028995364904404,-0.13317105174064636,0.06807637959718704
1772376691304205600,6.05420556640625,0.2601079117952846,-0.43338703310638665,-0.14724281757771968,-0.09805426001548767,-0.1315896362066269,0.04158429801464081
1772376691314154800,6.06415478515625,0.23830632302220908,-0.4978954533740878,-0.13069500288069247,-0.10154566913843155,-0.12202994525432587,0.00777839869260788
1772376691324103700,6.074103759765625,0.20628175692576914,-0.551963435909152,-0.10659399632513522,-0.12097379565238953,-0.11062320321798325,-0.0310596264898777
1772376691334052600,6.084052490234375,0.1963961400642991,-0.5478975016444921,-0.11071546016931533,-0.12993720173835754,-0.1027626171708107,-0.05953707545995712
1772376691344001500,6.09400146484375,0.20663805955015122,-0.5520537445411086,-0.14913666850030421,-0.12835073471069336,-0.10138947516679764,-0.08531454205513
1772376691353950500,6.103950439453125,0.26613380275499077,-0.5282721791982651,-0.226889185744524,-0.11519337445497513,-0.11026418954133987,-0.10315611958503723
1772376691363899400,6.1138994140625,0.2976440261211246,-0.48771074396818875,-0.2989303396046161,-0.09278817474842072,-0.14089715480804443,-0.11604030430316925
1772376691373848600,6.1238486328125,0.28825057669077064,-0.4723123915672302,-0.3479927689373493,-0.06817950308322906,-0.18707983195781708,-0.12530197203159332
1772376691383797800,6.1337978515625,0.3245246169252321,-0.47245793751776216,-0.4564741864442825,-0.036745473742485046,-0.2176993191242218,-0.12968073785305023
1772376691393746700,6.14374658203125,0.3398349622491747,-0.49290159060955047,-0.6687520785123109,0.004615281708538532,-0.2270110696554184,-0.13029485940933228
1772376691403695600,6.153695556640625,0.3557539044581354,-0.5296145337179303,-0.8181833460450172,0.044254302978515625,-0.2263633757829666,-0.13401129841804504
1772376691413644500,6.16364453125,0.35860929388925433,-0.5632742267355323,-0.9542343230009078,0.07383403927087784,-0.22933147847652435,-0.1362297236919403
1772376691423593500,6.173593505859375,0.30451946484856307,-0.5758735960677266,-1.030178914040327,0.08536254614591599,-0.22841833531856537,-0.14489975571632385
1772376691433542400,6.18354248046875,0.17992230391893535,-0.5707745193630457,-1.0590934583574534,0.07487741112709045,-0.24413950741291046,-0.16203533113002777
1772376691443492600,6.19349267578125,0.09474727199114859,-0.6192331375837326,-1.0457435629189014,0.04556342214345932,-0.2563706040382385,-0.17615146934986115
1772376691453441500,6.203441650390625,0.04576656612511724,-0.7178720832511782,-1.1005652864307165,-0.0025108959525823593,-0.26795560121536255,-0.20335832238197327
1772376691463390500,6.213390380859375,-0.03510905157569796,-0.7780056494355201,-1.1795716031283139,-0.07130343466997147,-0.3123056888580322,-0.25170740485191345
1772376691473339600,6.223339599609375,-0.20907436505267396,-0.8542568222060799,-1.2821774066001177,-0.13537880778312683,-0.3648567795753479,-0.3280658423900604
1772376691483288600,6.23328857421875,-0.5182630820875987,-0.8457903148949146,-1.4798627096921204,-0.1924697309732437,-0.42398741841316223,-0.4426201283931732
1772376691493237500,6.243237548828125,-0.8832504231087863,-0.7119900394752621,-1.7725532781243323,-0.22592437267303467,-0.4417078197002411,-0.5681567192077637
1772376691503186400,6.2531865234375,-1.1253209575027228,-0.5604346193954348,-2.144808966180682,-0.21530742943286896,-0.39104095101356506,-0.6749011874198914
1772376691513135600,6.263135498046875,-1.1225193440854548,-0.3671475512623787,-2.5601409948974845,-0.14546309411525726,-0.23427210748195648,-0.7379584312438965
1772376691523084500,6.27308447265625,-0.9126616649016738,-0.16262860275804997,-2.872394341933727,-0.034388866275548935,-0.047361161559820175,-0.7541466355323792
1772376691533033700,6.28303369140625,-0.5624538502633571,0.047223815728724,-2.7945634987562893,0.09120235592126846,0.1491425782442093,-0.726578414440155
1772376691542982700,6.292982666015625,-0.15418154906602574,0.26325316928476095,-2.3875158987820146,0.19301588833332062,0.3007361590862274,-0.6540893912315369
1772376691552931600,6.302931640625,0.19219821345042437,0.46574616491943593,-1.6890157477378844,0.2578457295894623,0.364237904548645,-0.5593793392181396
1772376691562880500,6.312880615234375,0.4051647088371217,0.6007248364686966,-0.9717933605670929,0.3103921115398407,0.3533070683479309,-0.4519023001194
1772376691572829400,6.322829345703125,0.5061534325011074,0.6611088702827692,-0.43932080706954,0.3541385531425476,0.28758636116981506,-0.3496220111846924
1772376691582778400,6.3327783203125,0.47909481824897227,0.6446785444855689,-0.06186170515120029,0.4110203981399536,0.19399191439151764,-0.2748521566390991
1772376691592727600,6.3427275390625,0.28922534000705924,0.6152782624781131,0.10281447778642178,0.4820157587528229,0.11759167164564133,-0.24139776825904846
1772376691602676700,6.3526767578125,-0.01783581781410612,0.5901856145367026,0.20454817459881305,0.5451565384864807,0.06043802574276924,-0.23827005922794342
1772376691612625700,6.362625732421875,-0.27278874886585397,0.5849526823192834,0.3431698788255453,0.5949360728263855,0.0019203899428248405,-0.24434927105903625
1772376691622574600,6.37257470703125,-0.4274021134778857,0.5800847840219736,0.5015115980446339,0.612825870513916,-0.013137388974428177,-0.2558424174785614
1772376691632523500,6.3825234375,-0.500672626469843,0.5639522721275687,0.6671095720022916,0.5954048037528992,-0.026609521359205246,-0.2740722894668579
1772376691642473500,6.392473388671875,-0.6464687889032066,0.6054065645441412,0.831322813603282,0.5319176912307739,-0.027186095714569092,-0.29733312129974365
1772376691652422700,6.402422607421875,-0.7391535023413598,0.6317153102770448,1.021267877832055,0.43612140417099,-0.015345415100455284,-0.33247140049934387
1772376691662371600,6.41237158203125,-0.839177180365473,0.6650298431187868,1.0873346334576606,0.31278395652770996,-0.014135893434286118,-0.3808914124965668
1772376691672320500,6.422320556640625,-0.8533850078076124,0.7079246897324919,1.0723550909906625,0.1861133575439453,-0.010944360867142677,-0.4295564293861389
1772376691682269700,6.432269775390625,-0.8287609272260218,0.8005746241182088,0.9365683179289102,0.08857937902212143,-0.009025268256664276,-0.46007874608039856
1772376691692218600,6.442218505859375,-0.7414379600167273,0.9715312024995684,0.6596423048615455,0.03014402650296688,-0.004199353512376547,-0.46536538004875183
1772376691702167600,6.45216748046875,-0.6151651574924588,1.1583490746185183,0.3369868062764406,0.012092018499970436,0.011368406936526299,-0.43906861543655396
1772376691712116500,6.462116455078125,-0.4786577785385772,1.3010481112867593,0.017289572975039483,0.029609760269522667,0.030375922098755836,-0.39195916056632996
1772376691722065700,6.472065673828125,-0.3596333762399852,1.4045865194335578,-0.17467618342638014,0.06984535604715347,0.0603327676653862,-0.33205676078796387
1772376691732014600,6.4820146484375,-0.23325258329659698,1.442468506321311,-0.27617782504856586,0.1238449364900589,0.11772441864013672,-0.26337355375289917
1772376691741963500,6.491963623046875,-0.11584793682009913,1.4140236253425478,-0.18710136523544788,0.1811503767967224,0.18052928149700165,-0.1908392757177353
1772376691751912700,6.50191259765625,-0.043398147360188884,1.3546709804028272,0.05778232688307762,0.22249703109264374,0.23046541213989258,-0.11708516627550125
1772376691761861600,6.511861572265625,-0.02740326297134161,1.2704472213178872,0.4824252047806978,0.23990467190742493,0.2566623091697693,-0.05364473536610603
1772376691771810600,6.521810546875,-0.068918838854786,1.1111793271645902,0.947007294356823,0.24473431706428528,0.250632107257843,-0.004760817624628544
1772376691781759500,6.531759521484375,-0.16031225210707634,0.960470587041974,1.3128642212867736,0.22361527383327484,0.23052559792995453,0.02262117713689804
1772376691791708400,6.54170849609375,-0.29802405668096615,0.8053159734264016,1.6064941163957118,0.19742760062217712,0.1926426738500595,0.029452452436089516
1772376691801657600,6.55165771484375,-0.3426622215643525,0.610979688501358,1.8173159644365309,0.1503400206565857,0.14701581001281738,0.020546752959489822
1772376691811606500,6.5616064453125,-0.3878489054422825,0.46223552644997834,1.9863819067656994,0.08654159307479858,0.08617377281188965,-0.0009822417050600052
1772376691821555700,6.5715556640625,-0.463678199538961,0.35859248888492584,2.080343216010928,0.010090690106153488,0.03445722907781601,-0.031238960102200508
1772376691831504600,6.581504638671875,-0.5142821592252701,0.2251873502627015,2.044852215912938,-0.062388304620981216,-0.02247476391494274,-0.07519575953483582
1772376691841453600,6.59145361328125,-0.6018455110616981,0.10184534049332142,1.861663640207052,-0.13152654469013214,-0.06083618104457855,-0.12755243480205536
1772376691851403500,6.601403564453125,-0.7051090477898716,0.05171060575395822,1.6611089191585777,-0.1868412047624588,-0.07588037848472595,-0.18276429176330566
1772376691861352700,6.611352783203125,-0.7690586651310324,0.00046761751174926756,1.4154209249198435,-0.23839519917964935,-0.07233195751905441,-0.23119236528873444
1772376691871301600,6.621301513671875,-0.7770188303552568,0.006224865864217281,1.1479980687350033,-0.28760960698127747,-0.05883000046014786,-0.27145057916641235
1772376691881250600,6.63125048828125,-0.7344288849722593,0.03336977016031742,0.9229904589533805,-0.3287038803100586,-0.057013824582099915,-0.29746177792549133
1772376691891199500,6.641199462890625,-0.6658665131386369,0.07136953820884227,0.6831599585711956,-0.3549296259880066,-0.05746337026357651,-0.30806994438171387
1772376691901148700,6.651148681640625,-0.5865213198754936,0.10091215129643678,0.43982466493844985,-0.3718261420726776,-0.059029653668403625,-0.3112435042858124
1772376691911097600,6.66109765625,-0.5434508244339377,0.1607932040244341,0.19954291365742682,-0.3819371163845062,-0.06438872963190079,-0.3045203387737274
1772376691921046500,6.671046630859375,-0.4627057743102312,0.18514292464405296,-0.01087386071383953,-0.3716250956058502,-0.04966118186712265,-0.2854931354522705
1772376691930995500,6.680995361328125,-0.3912551336891949,0.20121113913059233,-0.29044600437581536,-0.33562153577804565,-0.010362513363361359,-0.26280245184898376
1772376691940944600,6.690944580078125,-0.3289004573892802,0.17348258972764014,-0.49746086134910583,-0.2849949896335602,0.033330224454402924,-0.2345958799123764
1772376691950893600,6.7008935546875,-0.2712028679138981,0.1325724871903658,-0.5753647697627544,-0.21965965628623962,0.10980769246816635,-0.19824160635471344
1772376691960842500,6.710842529296875,-0.23119108418952672,0.14786562565118075,-0.5362561636894941,-0.16709735989570618,0.17143109440803528,-0.14675003290176392
1772376691970791700,6.720791748046875,-0.23219448907840995,0.12936287749409675,-0.32330782501399513,-0.13724438846111298,0.20644927024841309,-0.09349825233221054
1772376691980740600,6.73074072265625,-0.19715528786852954,0.048963352872431275,0.06502572214007377,-0.12946127355098724,0.208088219165802,-0.04881351813673973
1772376691990689500,6.740689453125,-0.2185128044022247,-0.0916290669053793,0.4836269817858934,-0.1377817839384079,0.17891594767570496,-0.021628504619002342
1772376692000638500,6.750638427734375,-0.27123613086268306,-0.24593787734657524,0.7988976308166981,-0.1494373083114624,0.14830778539180756,-0.015915654599666595
1772376692010587400,6.76058740234375,-0.35509525788631285,-0.37436142816394563,0.9210755652427672,-0.15962816774845123,0.10383245348930359,-0.026326218619942665
1772376692020536600,6.77053662109375,-0.4434085513072088,-0.4699328029543161,0.9904004458814859,-0.16137194633483887,0.07260801643133163,-0.048354290425777435
1772376692030485500,6.780485595703125,-0.45176301307864486,-0.5641846195787191,1.009790790528059,-0.16774888336658478,0.047330621629953384,-0.06524219363927841
1772376692040434700,6.7904345703125,-0.4620955699900165,-0.6195142926126718,1.0012737220734358,-0.189489483833313,0.03046894446015358,-0.08639265596866608
1772376692050384600,6.800384521484375,-0.42320930143054575,-0.6869128813639283,1.0274217242866754,-0.20711401104927063,0.018385648727416992,-0.10097052901983261
1772376692060333600,6.81033349609375,-0.3705982762381434,-0.7266860888257622,0.9771657012552022,-0.23186832666397095,0.016984334215521812,-0.10782569646835327
1772376692070282500,6.820282470703125,-0.28557383176218715,-0.7548235112905501,0.8894675440579652,-0.25707992911338806,0.01209956407546997,-0.11162309348583221
1772376692080231700,6.830231689453125,-0.210003882721439,-0.775924459247291,0.7776075900286435,-0.2748076617717743,0.0019335998222231865,-0.1123615950345993
1772376692090180600,6.8401806640625,-0.15057481154464183,-0.7985130154132842,0.5860761333912611,-0.27285584807395935,0.0005202600732445717,-0.10103011131286621
1772376692100129500,6.850129638671875,-0.10056165735833346,-0.805162244169414,0.3765490013360977,-0.25822269916534424,0.013766683638095856,-0.0837026834487915
1772376692110078500,6.860078369140625,-0.052196087715961036,-0.8081544117227196,0.15998013407588005,-0.23887032270431519,0.0398574061691761,-0.06165038421750069
1772376692120027600,6.870027587890625,0.010629786292277276,-0.8752946417987346,-0.008629296657443046,-0.22690069675445557,0.05957895144820213,-0.0416339747607708
1772376692129976600,6.8799765625,0.11417393006011843,-0.9239289088472723,-0.0656610974341631,-0.2278144210577011,0.02773446962237358,-0.019862903282046318
1772376692139925500,6.889925537109375,0.18895247299484907,-0.9823995102554559,-0.10413783534467219,-0.21766391396522522,-0.009876654483377934,0.003917978145182133
1772376692149874700,6.899874755859375,0.23225535242017356,-1.048755896477401,-0.2133376302540302,-0.21160228550434113,-0.041449226438999176,0.015603928826749325
1772376692159823600,6.90982373046875,0.1763582547618076,-1.0647264958083629,-0.3837994108557701,-0.21540266275405884,-0.0612458735704422,0.015094912610948086
1772376692169772500,6.9197724609375,0.10914989135302602,-1.0903174486607312,-0.5993722528159618,-0.21141457557678223,-0.04658517241477966,0.007652975618839264
1772376692179721500,6.929721435546875,0.04517959655001759,-1.11032183355242,-0.8706623058229684,-0.19434525072574615,-0.005859282333403826,-0.006268718279898167
1772376692189670700,6.939670654296875,0.029529899736493823,-1.133964574946463,-1.0437181945711373,-0.16803056001663208,0.08992530405521393,-0.01512852218002081
1772376692199619600,6.94961962890625,0.11049363411217927,-1.0694219601482153,-1.1664596080988645,-0.15850086510181427,0.18119007349014282,0.001823644619435072
1772376692209568500,6.959568603515625,0.32322018326316027,-0.9810594938233494,-1.081084340891242,-0.154225155711174,0.2691710591316223,0.04723852872848511
1772376692219517400,6.969517333984375,0.6238152046769857,-0.9726675130531192,-0.8948182574361562,-0.1606220304965973,0.3386841118335724,0.11359351128339767
1772376692229466600,6.979466552734375,0.9364457144625484,-1.0058487749040126,-0.7013193001180886,-0.16820591688156128,0.377718061208725,0.1924784779548645
1772376692239415600,6.98941552734375,1.1441477499824018,-1.0387141026735305,-0.44988837831318373,-0.18011915683746338,0.3535681664943695,0.26384684443473816
1772376692249364700,6.99936474609375,1.3232326166965067,-1.1327850097730756,-0.14686989261209965,-0.19819961488246918,0.23273389041423798,0.3312671482563019
1772376692259313700,7.009313720703125,1.4428104516267775,-1.2908739232748747,0.09360358184874057,-0.22766415774822235,0.04546106234192848,0.37873613834381104
1772376692269263600,7.019263671875,1.3715652704499661,-1.3330065533444284,0.10674538749456405,-0.25522440671920776,-0.19408468902111053,0.3912908136844635
1772376692279212500,7.029212646484375,1.084123416326195,-1.2764487998202443,-0.06083353114724159,-0.2979740798473358,-0.4291478991508484,0.35045957565307617
1772376692289161700,7.03916162109375,0.5908198573196306,-1.1212225822731852,-0.4970604638546705,-0.3430449068546295,-0.5855563879013062,0.28128528594970703
1772376692299110700,7.049110595703125,0.11286332238558679,-0.8667255508959293,-1.2321762351125478,-0.37479785084724426,-0.6705946326255798,0.21511268615722656
1772376692309059600,7.0590595703125,-0.15067889297362416,-0.6988412195667624,-1.9358336227893829,-0.36374226212501526,-0.6239632368087769,0.148825004696846
1772376692319008500,7.069008544921875,-0.1649659961970523,-0.6391111196167767,-2.6962235360354185,-0.2749764621257782,-0.41050317883491516,0.11448273807764053
1772376692328957400,7.07895751953125,-0.14645130187384783,-0.4131970625147223,-3.353279331535101,-0.10822341591119766,-0.09830985218286514,0.11192290484905243
1772376692338906600,7.08890673828125,0.04600061234300956,-0.07901347709074616,-3.589351356166601,0.09154808521270752,0.2600798010826111,0.18613427877426147
1772376692348855600,7.09885546875,0.4165135301189497,0.23391367755383252,-3.171384302771091,0.24409180879592896,0.5706357955932617,0.33403638005256653
1772376692358804500,7.108804443359375,0.8688622706636786,0.5196184787519276,-2.12599554463923,0.2828925848007202,0.7237655520439148,0.5213398337364197
1772376692368753700,7.118753662109375,1.19276484670043,0.6418392294064164,-0.8239993388473987,0.26417163014411926,0.7427578568458557,0.7099885940551758
1772376692378702600,7.12870263671875,1.3408012988738716,0.6548305206656455,0.2401870587348938,0.22383975982666016,0.6217471361160278,0.8593212366104126
1772376692388651500,7.138651611328125,1.3066744267359376,0.5720210122928023,0.8716448871195316,0.2145831435918808,0.44926831126213074,0.9513882994651794
1772376692398600700,7.1486005859375,1.0954407830238342,0.42860593630969523,1.052745550635457,0.2500673532485962,0.2878980338573456,0.9866679906845093
1772376692408549600,7.158549560546875,0.8031010007906705,0.3330982744053006,0.9632909051597118,0.3125866651535034,0.15234313905239105,0.979508638381958
1772376692418498600,7.16849853515625,0.5531808123422787,0.27804712605178356,0.806469527375698,0.4023687541484833,0.04750461131334305,0.9557951092720032
1772376692428447500,7.178447509765625,0.4527659430434927,0.24227672449052332,0.7708990323007107,0.478977233171463,-0.023026011884212494,0.9325550198554993
1772376692438396400,7.188396484375,0.4506237433830276,0.25728695435673,0.8334078031837939,0.5136688351631165,-0.09577485173940659,0.9199962615966797
1772376692448345600,7.198345703125,0.5323852405402809,0.31469927888363597,1.063245317339897,0.500559389591217,-0.1805669665336609,0.9231982231140137
1772376692458294500,7.20829443359375,0.6477130898758768,0.36797435747534035,1.3214075932264326,0.440984845161438,-0.2840522825717926,0.9338892102241516
1772376692468243700,7.21824365234375,0.754823438225314,0.4155892183482647,1.428816413065791,0.3483656942844391,-0.3917097747325897,0.9419346451759338
1772376692478193400,7.228193359375,0.8524960230786353,0.4012929819703102,1.3665426199823618,0.2551494240760803,-0.49782663583755493,0.9460054636001587
1772376692488142600,7.238142578125,0.8899721325792371,0.36928251746445895,1.0517705681234597,0.17288838326931,-0.5905517339706421,0.9375805258750916
1772376692498091500,7.248091552734375,0.8374696457952261,0.36572570176571606,0.5090361483305692,0.12300250679254532,-0.6940316557884216,0.9132387042045593
1772376692508040700,7.258040771484375,0.6699056324616074,0.4570397113725543,-0.17401450464725493,0.09190930426120758,-0.8065917491912842,0.8688672184944153
1772376692517989600,7.26798974609375,0.43009000085499133,0.5432110973939299,-0.8106599648028612,0.07513842731714249,-0.9171309471130371,0.7988110184669495
1772376692527938600,7.2779384765625,0.2818135841795243,0.517406794051826,-1.5051041184544562,0.10679702460765839,-0.9412226676940918,0.719631016254425
1772376692537887500,7.287887451171875,0.10887523913010955,0.5742693757414817,-2.3268682455956933,0.18635393679141998,-0.8674097061157227,0.6244683265686035
1772376692547836400,7.29783642578125,-0.03323485520165413,0.6942071300253272,-3.0503543693363664,0.3005273938179016,-0.7064487338066101,0.5344167351722717
1772376692557785600,7.30778564453125,-0.03985558851566166,0.9185954388648271,-3.4894080499023197,0.4474110007286072,-0.48339715600013733,0.4808404743671417
1772376692567734500,7.317734619140625,0.1788107990130782,1.1789829895853996,-3.5496523829847573,0.5907742977142334,-0.2382931113243103,0.48174408078193665
1772376692577683700,7.32768359375,0.5590166423562913,1.4876096705570816,-3.1632378211945293,0.7056155800819397,-0.013354622758924961,0.5479165315628052
1772376692587632600,7.337632568359375,0.9796746153362095,1.7881071133479476,-2.3273919772088525,0.7563788890838623,0.13815714418888092,0.6583825945854187
1772376692597581600,7.34758154296875,1.2902397170245647,1.971169432325661,-1.2632985186070202,0.7453694939613342,0.24154865741729736,0.7767221331596375
1772376692607530500,7.357530517578125,1.4042197319477796,1.9710040126308797,-0.3176414698153734,0.709220826625824,0.3229186236858368,0.8764356374740601
1772376692617479700,7.367479736328125,1.350693016682565,1.8826967836245894,0.4510720351397991,0.6492717266082764,0.34970733523368835,0.9335113763809204
1772376692627428600,7.3774287109375,1.184632247518748,1.7611428263157605,1.059775010880828,0.580032467842102,0.3198767304420471,0.9486927390098572
1772376692637377500,7.38737744140625,0.9920286316052078,1.596693145610392,1.5234890854507683,0.5048385858535767,0.265142023563385,0.930415153503418
1772376692647326500,7.397326416015625,0.7803138533126562,1.3991262082010507,1.7839187217473982,0.4255506694316864,0.20229434967041016,0.8725555539131165
1772376692657275600,7.407275634765625,0.54905777759552,1.2131439101234078,1.9001234269827603,0.35231462121009827,0.12386542558670044,0.794070303440094
1772376692667224600,7.417224609375,0.361420917243883,1.0563456209540367,1.9647563504129648,0.2856205403804779,0.036233045160770416,0.6903955936431885
1772376692677174500,7.427174560546875,0.22533158103898165,0.908849120876193,1.938559832882881,0.22282224893569946,-0.05359021946787834,0.5771101117134094
1772376692687123500,7.43712353515625,0.15569127777554093,0.8132043885886668,1.8605851973205805,0.15996472537517548,-0.1367865651845932,0.4582819938659668
1772376692697072400,7.447072265625,0.11912716855332255,0.7456500247538089,1.7313643586456775,0.10130850225687027,-0.1912110298871994,0.34835249185562134
1772376692707021600,7.457021484375,0.09775799811445177,0.7218328035756946,1.567957172730565,0.033179521560668945,-0.20279711484909058,0.2556728720664978
1772376692716970800,7.466970703125,0.09680931908749044,0.7711006923526526,1.3000707906872033,-0.025447502732276917,-0.1847170889377594,0.18750396370887756
1772376692726919700,7.476919677734375,0.14288440317250786,0.8801277610436081,0.9975427188515662,-0.06593155115842819,-0.1297001838684082,0.150748610496521
1772376692736868600,7.48686865234375,0.21939342316165567,0.9611857495740056,0.7245131287008524,-0.09868254512548447,-0.05596122518181801,0.13713817298412323
1772376692746817500,7.496817626953125,0.2697008841194212,1.0076260137096047,0.546866405031085,-0.12538659572601318,0.008472091518342495,0.13215965032577515
1772376692756766500,7.506766357421875,0.3100533527739346,1.0003002008661628,0.42445290828347204,-0.15232312679290771,0.08109889179468155,0.12900769710540771
1772376692766715600,7.516715576171875,0.3436802395004779,0.938571766705811,0.2797369788348675,-0.15965400636196136,0.15426018834114075,0.11670894920825958
1772376692776664600,7.52666455078125,0.2866582294654101,0.8539809278741478,0.21555822891294954,-0.15834225714206696,0.20748306810855865,0.09814060479402542
1772376692786613500,7.536613525390625,0.2102449980009347,0.7903548433989286,0.23261048600077627,-0.15872575342655182,0.23492002487182617,0.07546591758728027
1772376692796562700,7.546562744140625,0.1568737655583769,0.715733317656815,0.30856442939043044,-0.15516050159931183,0.2487618774175644,0.05143159255385399
1772376692806511600,7.55651171875,0.11217128500081598,0.6183809046685695,0.41667350645363327,-0.16744939982891083,0.2339230179786682,0.026206130161881447
1772376692816460500,7.56646044921875,0.061912412425130604,0.5495870621666312,0.562939003431797,-0.18238313496112823,0.20744633674621582,0.0017276890575885773
1772376692826409500,7.576409423828125,0.01888911712616682,0.4630743153616786,0.645676323351264,-0.1965966820716858,0.1825883984565735,-0.02437182143330574
1772376692836358700,7.586358642578125,-0.04688377011939883,0.37322161047905683,0.6713420950055122,-0.21164152026176453,0.16153547167778015,-0.048736099153757095
1772376692846307600,7.5963076171875,-0.11376045388840138,0.3049886167302728,0.6880629281818866,-0.23072867095470428,0.13401223719120026,-0.07713844627141953
1772376692856256500,7.606256591796875,-0.1842271249733865,0.2571799868509173,0.6716150667279959,-0.2519680857658386,0.10322777181863785,-0.10672519356012344
1772376692866205400,7.616205322265625,-0.2325992339543998,0.19977526110857724,0.6329799233853817,-0.26508069038391113,0.07975786179304123,-0.1339174062013626
1772376692876154600,7.626154541015625,-0.2499015933457762,0.10524755015224217,0.5310848985314369,-0.27313339710235596,0.0684230774641037,-0.15840588510036469
1772376692886103600,7.636103515625,-0.26439203712157905,0.07225333530604838,0.4087988275557756,-0.2797689139842987,0.0567786768078804,-0.1827831268310547
1772376692896052500,7.646052490234375,-0.28583887590654194,0.0517158664509654,0.2667290287017822,-0.28117403388023376,0.04937560111284256,-0.197408065199852
