time,seconds_elapsed,accel_x,accel_y,accel_z,gyro_x,gyro_y,gyro_z
1772376410656870700,0.05587060546875,0.7679032114855945,-0.4369268976703286,-0.2835246806800365,-0.1259234994649887,-0.3171910345554352,-0.08033706992864609
1772376410666820600,0.065820556640625,0.6606111498937011,-0.5068199335858226,-0.5333522589415312,-0.06045706197619438,-0.26276037096977234,-0.0944070965051651
1772376410676769500,0.07576953125,0.5668404313171282,-0.5291828643023967,-0.5376520019620656,-0.03028424270451069,-0.22774246335029602,-0.10963105410337448
1772376410686719500,0.085719482421875,0.5706440613837912,-0.5664025878891349,-0.3465951770991087,-0.03777908906340599,-0.22537347674369812,-0.11894457042217255
1772376410696669700,0.095669677734375,0.645175534222275,-0.6072133217051625,-0.059847442719340324,-0.08064533025026321,-0.26068779826164246,-0.1304004192352295
1772376410706618600,0.10561865234375,0.7301561760891229,-0.6347369961857795,0.21329320659041404,-0.14041121304035187,-0.31347209215164185,-0.13364432752132416
1772376410716568600,0.115568603515625,0.8042617151331156,-0.6389858858019113,0.32325463352203365,-0.18400663137435913,-0.3669731318950653,-0.1327364593744278
1772376410726517500,0.125517578125,0.8955550472781062,-0.6414174968630075,0.18542963263094425,-0.1949789971113205,-0.39566075801849365,-0.13240377604961395
1772376410736467700,0.1354677734375,0.9490834430437535,-0.6801385649234056,-0.14193652786314487,-0.17911241948604584,-0.4063868820667267,-0.13190576434135437
1772376410746417400,0.14541748046875,0.9292391440846025,-0.6757096425652503,-0.4904506903260946,-0.1464357078075409,-0.4026172459125519,-0.12824766337871552
1772376410756366600,0.15536669921875,0.8913994619686156,-0.6321335356891155,-0.766897979965806,-0.11130142956972122,-0.3988262414932251,-0.12411070615053177
1772376410766316300,0.16531640625,0.8624414438359439,-0.6200880008473992,-0.9536872105121612,-0.07638979703187943,-0.3755263686180115,-0.11821942776441574
1772376410776265700,0.175265625,0.8125433673966675,-0.6223968623116612,-1.0918529876649379,-0.04278895631432533,-0.3520665764808655,-0.11378926038742065
1772376410786215400,0.18521533203125,0.7636107019234448,-0.6029413434743881,-1.1728104384303093,-0.012815605849027634,-0.31062906980514526,-0.11359462887048721
1772376410796165400,0.195165283203125,0.6758945706781,-0.5953127482920885,-1.2403981200128793,0.003310633357614279,-0.26255980134010315,-0.12426166236400604
1772376410806114600,0.205114501953125,0.5983767024399712,-0.5522402070239186,-1.199064823627472,-0.008897829800844193,-0.24948367476463318,-0.13388392329216003
1772376410816064500,0.215064453125,0.5136992447707802,-0.4522717663183808,-1.0190618922203778,-0.0444483645260334,-0.26687705516815186,-0.14309392869472504
1772376410826013400,0.225013427734375,0.4071124453714117,-0.382770067808032,-0.8523620945006608,-0.07770244777202606,-0.2761158347129822,-0.15908029675483704
1772376410835963400,0.23496337890625,0.2622071125642396,-0.3736144091889262,-0.8173188381701707,-0.10557588934898376,-0.26900601387023926,-0.19062542915344238
1772376410845913300,0.244913330078125,0.08002801529499702,-0.3205895059660077,-0.8810206182301044,-0.12298054248094559,-0.24855634570121765,-0.2330184280872345
1772376410855862500,0.254862548828125,-0.00920658508874476,-0.2580614458605647,-0.9674328272700309,-0.1201714426279068,-0.22078436613082886,-0.27029868960380554
1772376410865812500,0.2648125,-0.027201251292950472,-0.2062543939948082,-1.072374964734912,-0.09711858630180359,-0.1981193572282791,-0.294282466173172
1772376410875761400,0.274761474609375,0.05093468947801739,-0.14347206686735153,-1.1566028154730796,-0.06317420303821564,-0.17657385766506195,-0.31157198548316956
1772376410885711400,0.28471142578125,0.10369460335550829,-0.031058570608496663,-1.2280617855310438,-0.002892310032621026,-0.17842116951942444,-0.30860283970832825
1772376410895661600,0.29466162109375,0.13881321734399535,0.1131982168957591,-1.291863518834114,0.06736055016517639,-0.18157941102981567,-0.3057878911495209
1772376410905610500,0.304610595703125,0.14440068035381845,0.24526070873737335,-1.3039146066337823,0.13919976353645325,-0.14713993668556213,-0.2971743643283844
1772376410915560400,0.314560546875,0.10011205042731017,0.35086014106720687,-1.293937402498722,0.20439980924129486,-0.09698248654603958,-0.2812345623970032
1772376410925509400,0.32450927734375,0.061196811501681804,0.4474523833379149,-1.2317623936146498,0.2654840350151062,-0.0573158785700798,-0.26598870754241943
1772376410935459600,0.33445947265625,0.00020324922082945703,0.5183896676093339,-1.0311275930672883,0.31889772415161133,-0.02665250562131405,-0.24845071136951447
1772376410945409500,0.344409423828125,-0.003302009820612147,0.5461144176200032,-0.7888654816240072,0.36798596382141113,0.0004232395440340042,-0.23117828369140625
1772376410955358500,0.3543583984375,-0.05321577701936476,0.5331672577634453,-0.5023135620772838,0.39519840478897095,0.02206781506538391,-0.23055270314216614
1772376410965308400,0.364308349609375,-0.17528618681719527,0.5417001083090901,-0.19760230098366735,0.39245474338531494,0.038197148591279984,-0.24383051693439484
1772376410975257600,0.374257568359375,-0.3463463169045746,0.5244833083093166,0.1249123278260231,0.3600539267063141,0.04811955615878105,-0.27568989992141724
1772376410985207600,0.38420751953125,-0.49531646973155435,0.5014344411551952,0.37537002068459985,0.28631773591041565,0.03432661294937134,-0.32136303186416626
1772376410995157500,0.394157470703125,-0.6113020888561382,0.49725598642677066,0.6307061332345009,0.19161228835582733,-0.016344554722309113,-0.3807310163974762
1772376411005106400,0.4041064453125,-0.6847414556089788,0.5114964009642601,0.8138853565901517,0.08684477210044861,-0.07179853320121765,-0.44073033332824707
1772376411015056600,0.414056640625,-0.7041924444016069,0.546804737971723,0.8155354618847369,-0.003230527974665165,-0.09476456791162491,-0.48792552947998047
1772376411025005600,0.424005615234375,-0.6581213058393448,0.6022112756341695,0.6049626201689243,-0.07115320861339569,-0.0918419361114502,-0.5263761878013611
1772376411034955500,0.43395556640625,-0.5708910584148019,0.7295657359153032,0.2933908256560564,-0.11386844515800476,-0.05474570021033287,-0.5352123379707336
1772376411044905500,0.443905517578125,-0.46499341032337393,0.8966232610315084,-0.0474175847351551,-0.13877691328525543,0.005742804147303104,-0.5178740620613098
1772376411054854700,0.453854736328125,-0.2894426725521684,1.0465019800707698,-0.3230494663387537,-0.1225353553891182,0.07794509828090668,-0.476583331823349
1772376411064804600,0.4638046875,-0.06072067275675944,1.1581602740481496,-0.5327905334055424,-0.07925506681203842,0.1666317582130432,-0.40788131952285767
1772376411074753500,0.47375341796875,0.16368896199855953,1.2228829215884207,-0.598223082780838,-0.013387640938162804,0.2573390007019043,-0.32214030623435974
1772376411084703500,0.483703369140625,0.31797873894572254,1.2543027267247437,-0.4718810144126415,0.049861010164022446,0.31054002046585083,-0.23635169863700867
1772376411094653700,0.49365380859375,0.43057814969811586,1.1817682363897561,-0.1503746858626604,0.10604917258024216,0.3154037594795227,-0.15027672052383423
1772376411104602600,0.5036025390625,0.46265967014618214,1.0694719367697834,0.24851824922859667,0.1500977724790573,0.29501596093177795,-0.08266086131334305
1772376411114552600,0.513552490234375,0.42370903111360964,0.904442118088901,0.6001876608520745,0.18504537642002106,0.2594659626483917,-0.040440965443849564
1772376411124501500,0.52350146484375,0.31297972508203237,0.7211158874779939,0.8650029648870229,0.1975809633731842,0.20937618613243103,-0.033291302621364594
1772376411134451700,0.53345166015625,0.11066645166212692,0.5324284220948815,1.089398580250144,0.19065222144126892,0.1616603285074234,-0.04878770560026169
1772376411144401700,0.543401611328125,-0.11688092399649322,0.3353676806420088,1.2156547239005564,0.17936909198760986,0.12743519246578217,-0.08239748328924179
1772376411154350600,0.5533505859375,-0.2578728279532865,0.16788082419782877,1.2632996876507996,0.1519574373960495,0.11404480040073395,-0.11716026067733765
1772376411164300500,0.563300537109375,-0.338246377883479,0.07759089694172143,1.2290928821444511,0.12100717425346375,0.11269723623991013,-0.1466229408979416
1772376411174249500,0.57324951171875,-0.3159063165858388,0.03688391576111316,1.1786083110541103,0.07139541208744049,0.1354885697364807,-0.17733797430992126
1772376411184199700,0.58319970703125,-0.29035061770994214,0.022576281206309796,1.152284367752075,0.012830819934606552,0.16889028251171112,-0.18689337372779846
1772376411194149400,0.5931494140625,-0.20359145839586854,0.023066695071756838,1.1470938133716582,-0.05294739454984665,0.18336082994937897,-0.18478786945343018
1772376411204098600,0.6030986328125,-0.0893662730725482,0.036507483664155,1.174578617146611,-0.10963446646928787,0.18517287075519562,-0.173777773976326
1772376411214048500,0.613048583984375,-0.060314731437526636,0.03669365388602018,1.1204635805994272,-0.1525651514530182,0.17857302725315094,-0.16168169677257538
1772376411223997700,0.622997802734375,-0.1049311411468312,0.04587590825110674,0.9916630131632089,-0.1819898933172226,0.15806807577610016,-0.15455326437950134
1772376411233947400,0.632947509765625,-0.07134575547445565,0.042541210870444775,0.8943886338472365,-0.20118382573127747,0.11776671558618546,-0.14821812510490417
1772376411243897300,0.6428974609375,-0.021671879712492226,0.03653612523674965,0.776202399405837,-0.21066094934940338,0.06812302768230438,-0.14154990017414093
1772376411253846500,0.652846435546875,0.035031565892696376,0.03855331027805805,0.654490328925848,-0.21320347487926483,0.035836998373270035,-0.1351705640554428
1772376411263796500,0.66279638671875,0.0889118803685531,0.02698796016871929,0.5081891761124133,-0.2163492739200592,0.04172784462571144,-0.11866624653339386
1772376411273745700,0.67274560546875,0.09945106576792895,0.037846038791537286,0.2943219690263271,-0.1976914405822754,0.07080050557851791,-0.08507685363292694
1772376411283695400,0.6826953125,0.08987338234446943,0.08086948022097348,0.12206687526702881,-0.17588593065738678,0.10925135016441345,-0.046815190464258194
1772376411293645600,0.6926455078125,0.05815499612037092,0.07859627459198236,0.05038111071586609,-0.1552264541387558,0.14340214431285858,-0.010799933224916458
1772376411303594500,0.702594482421875,0.07930164638236165,0.01771393586695194,0.08096212694048881,-0.1300264596939087,0.16160620748996735,0.018460361286997795
1772376411313544400,0.71254443359375,0.1009285544419661,-0.05675123026967048,0.15960954719781875,-0.10593258589506149,0.1653042733669281,0.04485894739627838
1772376411323493400,0.722493408203125,0.06882416457496583,-0.13809358869940042,0.25321079095900056,-0.07569798827171326,0.15407665073871613,0.06074976176023483
1772376411333443600,0.732443603515625,0.04203453998994082,-0.2527490186661482,0.37819443045556544,-0.06818174570798874,0.13373303413391113,0.06235058978199959
1772376411343392500,0.742392578125,0.004663096440210938,-0.37861294812858104,0.5084270765215159,-0.07222016155719757,0.12352700531482697,0.05814998596906662
1772376411353342500,0.752342529296875,-0.03355440601222217,-0.4917047820404172,0.5913029281288386,-0.07736779004335403,0.12185266613960266,0.04912133514881134
1772376411363292400,0.76229248046875,-0.06811492032706737,-0.5807324342757463,0.6025403614580631,-0.0805242508649826,0.1258428990840912,0.03413712978363037
1772376411373241300,0.772241455078125,-0.11610657862313091,-0.6272875569626689,0.5879290677815675,-0.08804981410503387,0.13122540712356567,0.011483217589557171
1772376411383191600,0.782191650390625,-0.10897504624277353,-0.6400041229337453,0.5505868868589401,-0.08883322775363922,0.14375050365924835,-0.0020169501658529043
1772376411393140500,0.792140380859375,-0.1314580231424421,-0.6704486532971262,0.4825760114282369,-0.0883898138999939,0.15188832581043243,-0.006455107592046261
1772376411403090400,0.80209033203125,-0.09518222934231162,-0.677545625820756,0.37994098186194897,-0.07971952855587006,0.15358906984329224,-0.010033187456429005
1772376411413040600,0.81204052734375,-0.10193126521110533,-0.6677016926765441,0.2788847459197044,-0.06969352811574936,0.15194350481033325,-0.019456518813967705
1772376411422989600,0.821989501953125,-0.0780219818353653,-0.6996431835994124,0.17729659505784512,-0.05498373508453369,0.14945381879806519,-0.030707480385899544
1772376411432939500,0.831939453125,-0.027630422790721056,-0.7318807348594069,0.05766834511458874,-0.03660472482442856,0.1381833255290985,-0.03641010820865631
1772376411442888400,0.841888427734375,0.03198459941223263,-0.7157225040018558,-0.03944704424738884,-0.01852336898446083,0.12577682733535767,-0.03929049149155617
1772376411452838400,0.85183837890625,0.10910261814519763,-0.6805427618101239,-0.12541443212926387,-0.0015417218673974276,0.10971395671367645,-0.03146212920546532
1772376411462788600,0.86178857421875,0.11454342095963656,-0.6174982766151428,-0.2560901457875967,0.009615492075681686,0.0931733176112175,-0.016697769984602928
1772376411472737500,0.871737548828125,0.08462452190555632,-0.539335425004363,-0.34097324556410313,0.011730041354894638,0.052646663039922714,-0.011985039338469505
1772376411482687500,0.8816875,0.06565189121440053,-0.5049883342444896,-0.4318143769621849,0.018343834206461906,0.0260299202054739,-0.009914707392454147
1772376411492636400,0.891636474609375,0.051239554176107045,-0.48931204168498516,-0.6112772101432085,0.031232468783855438,0.04446352273225784,-0.007178043946623802
1772376411502586600,0.901586669921875,0.09246113381534814,-0.5239242131218314,-0.873714094609022,0.07355906069278717,0.0984533354640007,-0.0025997834745794535
1772376411512536600,0.91153662109375,0.12918876303620636,-0.49243689570724963,-1.0989894154161215,0.1182921826839447,0.16496258974075317,0.016207726672291756
1772376411522485500,0.921485595703125,0.19863179016187785,-0.4430392430707812,-1.1578040079563856,0.15753217041492462,0.24326948821544647,0.05105141922831535
1772376411532435500,0.931435546875,0.30374964951984584,-0.39942338870614763,-1.0795488018870354,0.19108960032463074,0.30132532119750977,0.09652622044086456
1772376411542384600,0.941384521484375,0.4283470661778003,-0.38536329917162654,-0.8706155440717935,0.20435833930969238,0.3493746817111969,0.13952091336250305
1772376411552334600,0.95133447265625,0.5724959363281726,-0.42692514361590145,-0.5768868647634983,0.1853439062833786,0.3937685191631317,0.17881105840206146
1772376411562284500,0.961284423828125,0.7969299840055406,-0.5505123603180051,-0.2297118419498205,0.13345550000667572,0.4090103209018707,0.2062024027109146
1772376411572233500,0.9712333984375,1.0163534369792788,-0.7110062891349196,0.21467852346897123,0.04194609820842743,0.3531228303909302,0.22063301503658295
1772376411582183700,0.98118359375,1.1832654892101884,-0.8205915762305259,0.6041197396039962,-0.08543378859758377,0.2309291809797287,0.21757587790489197
1772376411592132600,0.991132568359375,1.201591346430406,-0.862119518405199,0.8689613471239804,-0.22713153064250946,0.04279787838459015,0.19780457019805908
1772376411602082600,1.00108251953125,1.0074932541754096,-0.8425713528484106,0.8486012806624174,-0.35344961285591125,-0.132359117269516,0.15295498073101044
1772376411612032500,1.011032470703125,0.5939234858907759,-0.6865738586679101,0.4100456127464771,-0.4466429352760315,-0.2594401240348816,0.08038783818483353
1772376411621981700,1.020981689453125,0.20243300907574593,-0.49923254719674587,-0.33208266762197014,-0.4894656836986542,-0.27992719411849976,-0.0008518095128238201
1772376411631931600,1.030931640625,0.017869272559136153,-0.3572933889850974,-1.1186334425628184,-0.48043838143348694,-0.1670997142791748,-0.05695369467139244
1772376411641880800,1.040880859375,0.05462357059121131,-0.14097382031083106,-1.9130127191722393,-0.42747244238853455,0.012334452010691166,-0.059253670275211334
1772376411651830800,1.050830810546875,0.3346193464927375,0.12659049017131327,-2.3981483519554136,-0.32937756180763245,0.21553656458854675,0.0089786471799016
1772376411661780700,1.06078076171875,0.7483428440343588,0.4301464437499642,-2.6229168922841546,-0.1969323754310608,0.36818674206733704,0.12419195473194122
1772376411671730000,1.07072998046875,1.1143515274599194,0.7591182858750224,-2.4944588546752926,-0.06421375274658203,0.44197043776512146,0.2689044177532196
1772376411681679600,1.0806796875,1.4015537276089192,0.9762380650162696,-2.091682356148958,0.054925691336393356,0.42180442810058594,0.43109145760536194
1772376411691628800,1.09062890625,1.5840952375829218,1.1126932388588786,-1.5388865610688924,0.1447565108537674,0.35502326488494873,0.5631306767463684
1772376411701578800,1.100578857421875,1.5505417814187705,1.1621662948191165,-0.9721785604923963,0.2131662368774414,0.2818848788738251,0.6516017913818359
1772376411711528000,1.11052783203125,1.3284943366169928,1.092447446426749,-0.5600023654580116,0.2719794809818268,0.2378886640071869,0.7027286291122437
1772376411721477600,1.1204775390625,1.0661696072887628,1.0444476778894662,-0.2440501639038324,0.31583189964294434,0.21663996577262878,0.7366324067115784
1772376411731427600,1.130427490234375,0.893952434387058,0.9660574472635984,0.009917582902312278,0.3518434166908264,0.2188916653394699,0.7572290301322937
1772376411741376800,1.140376708984375,0.7936826726473868,0.9027966889694332,0.29082302099466323,0.35873380303382874,0.22827190160751343,0.7781504392623901
1772376411751326700,1.15032666015625,0.786746151382476,0.8617723124027251,0.6341518897742032,0.34033775329589844,0.20534288883209229,0.7980684638023376
1772376411761275600,1.160275634765625,0.8042927678585052,0.8372644786119461,1.0156254880309104,0.28395339846611023,0.1547132134437561,0.8065605163574219
1772376411771225600,1.1702255859375,0.7766784924849868,0.7531780821710824,1.3507049993813036,0.20476537942886353,0.06171243265271187,0.8039932250976562
1772376411781175800,1.18017578125,0.7566640245907008,0.6687327892899513,1.564135568615794,0.1184510663151741,-0.05174002796411514,0.7809151411056519
1772376411791124700,1.190124755859375,0.6777721280530095,0.5873693880721926,1.595495752519369,0.030022667720913887,-0.1806812286376953,0.7366147637367249
1772376411801074700,1.20007470703125,0.588009293410927,0.49813218473941084,1.4392074586987496,-0.05269528552889824,-0.29398345947265625,0.6746425628662109
1772376411811023600,1.210023681640625,0.4357230748385191,0.4652262326985597,1.0782535013794898,-0.10916309058666229,-0.38061022758483887,0.6088007092475891
1772376411820973800,1.219973876953125,0.3036130175281316,0.5167313790082931,0.4857540569424629,-0.14763003587722778,-0.42205169796943665,0.5466815233230591
1772376411830923800,1.229923828125,0.13365180685967207,0.5948012916386127,-0.15975041697323322,-0.16620318591594696,-0.4273039698600769,0.4886610805988312
1772376411840872700,1.239872802734375,0.03426291960775852,0.6597714841991663,-0.7720236524164676,-0.15856879949569702,-0.3515295684337616,0.4333208501338959
1772376411850822700,1.24982275390625,-0.0015692220780998468,0.6983467140480876,-1.368192725276947,-0.11978865414857864,-0.19771336019039154,0.38257405161857605
1772376411860771600,1.259771484375,0.01655782463438809,0.7844044105619191,-1.8226216696292161,-0.05949193611741066,-0.0024492251686751842,0.3594568371772766
1772376411870721800,1.2697216796875,0.09076675098761916,0.9361655823469162,-2.045678729864955,0.020227663218975067,0.1892176866531372,0.36742928624153137
1772376411880671700,1.279671630859375,0.32256939120423045,1.1105147257760166,-1.9521207407236099,0.09858042001724243,0.34604859352111816,0.41153791546821594
1772376411890620700,1.28962060546875,0.6106107455911114,1.2239356455117463,-1.5526128886044024,0.159542053937912,0.42018622159957886,0.47607162594795227
1772376411900571000,1.29957080078125,0.8497123837094753,1.3271964057609438,-0.8875035505086183,0.2085396945476532,0.4423128068447113,0.5390716791152954
1772376411910519800,1.309519775390625,0.986946579100564,1.3006155650883913,-0.20674013168513775,0.2482338398694992,0.4313461482524872,0.5950947403907776
1772376411920469800,1.3194697265625,1.0020341119866818,1.2205220376759767,0.3951894043982029,0.25331151485443115,0.3675314486026764,0.6163752675056458
1772376411930419700,1.329419677734375,0.9647044252194463,1.1224372187599538,0.9759025494515895,0.22979846596717834,0.27509579062461853,0.6134974360466003
1772376411940369000,1.339368896484375,0.8437241761453449,0.9273819719105958,1.4583417827576397,0.17880097031593323,0.18403246998786926,0.5765548944473267
1772376411950318800,1.34931884765625,0.6904382059458642,0.7567071330800652,1.772003827548027,0.10831908136606216,0.10545456409454346,0.5217694640159607
1772376411960267800,1.359267822265625,0.551405802026391,0.6112324942186474,1.9459148718208072,0.030477015301585197,0.044586215168237686,0.45974811911582947
1772376411970217700,1.3692177734375,0.44052638346701856,0.5064686359301209,1.9660025510817765,-0.03821895644068718,0.00019717775285243988,0.3970000445842743
1772376411980166700,1.379166748046875,0.3758118096353486,0.4168953325107693,1.8148077810078858,-0.08924023807048798,-0.014885716140270233,0.33882832527160645
1772376411990116900,1.389116943359375,0.3591007306680083,0.3928600846678018,1.5845774681419134,-0.12517240643501282,-0.021654406562447548,0.29615116119384766
1772376412000066800,1.39906689453125,0.3783454562988132,0.3962286843180656,1.3112170386016369,-0.15283767879009247,-0.02298084646463394,0.26202037930488586
1772376412010015700,1.409015625,0.4292640348922461,0.4033241955369711,1.055009403914213,-0.17301538586616516,-0.024612031877040863,0.23702262341976166
1772376412019966000,1.418966064453125,0.4810062413608655,0.4024035735607147,0.8386375205308199,-0.18820305168628693,-0.0217908788472414,0.22014544904232025
1772376412029915000,1.428914794921875,0.5470799747165292,0.4015355585545301,0.6594856529951095,-0.2013169825077057,-0.026986174285411835,0.20105084776878357
1772376412039864800,1.43886474609375,0.5970017973575741,0.3954758201241493,0.47904140756130215,-0.20664747059345245,-0.03207404538989067,0.18771782517433167
1772376412049814800,1.448814697265625,0.6659536069002002,0.36290099973380563,0.31653672344386574,-0.20175763964653015,-0.025346364825963974,0.16899767518043518
1772376412059763700,1.458763671875,0.7652586883261799,0.3056698769927025,0.18431144225597382,-0.20028971135616302,-0.02068568766117096,0.15839305520057678
1772376412069714000,1.4687138671875,0.7893377022456377,0.29341069940030573,0.05067454070448875,-0.19512665271759033,-0.013883708044886589,0.15220600366592407
1772376412079662800,1.478662841796875,0.820671655729413,0.22862667706161735,-0.05245265629291534,-0.1986411213874817,0.00134221650660038,0.14833839237689972
1772376412089612800,1.48861279296875,0.8325529399201274,0.15142624074220656,-0.12819792536795138,-0.20309258997440338,0.010682189837098122,0.1363733410835266
1772376412099563000,1.49856298828125,0.7347345168553292,0.1132177983790636,-0.21009937898516653,-0.2051537036895752,0.02751179039478302,0.11833742260932922
1772376412109512000,1.508511962890625,0.6663530545465648,0.04688917694687843,-0.27758126210570333,-0.1984928697347641,0.051616594195365906,0.0942603126168251
1772376412119462000,1.5184619140625,0.6547936957865953,-0.027837854996323585,-0.3538841650635004,-0.1741665005683899,0.08114039152860641,0.08026193827390671
1772376412129410800,1.528410888671875,0.6678229809686541,-0.04550415232926607,-0.4321282652169466,-0.13969215750694275,0.09838803112506866,0.07227277755737305
1772376412139360800,1.53836083984375,0.7427491156805306,-0.04243424336463213,-0.4487152428805828,-0.0975140705704689,0.12548229098320007,0.10320907086133957
1772376412149310700,1.548310791015625,0.8347337180253118,-0.04803279402405023,-0.36269933968186374,-0.0637342631816864,0.10937735438346863,0.0724136084318161
1772376412159260000,1.558260009765625,0.8956813040062784,-0.08033376590907573,-0.21195815859436987,-0.03690514340996742,0.11150592565536499,0.13911983370780945
1772376412169209600,1.568209716796875,0.9011370121289044,-0.10192132833898067,0.009300912308692932,-0.026982469484210014,0.06456291675567627,0.09284741431474686
1772376412179158800,1.57815869140625,0.8870186896011233,-0.17973346681594848,0.1914051999092102,-0.022269295528531075,0.04039262235164642,0.15419207513332367
1772376412189108700,1.588108642578125,0.8173657460518181,-0.27244857539236544,0.32511575121879577,-0.0206836499273777,-0.016107406467199326,0.06388933956623077
1772376412199058000,1.598057861328125,0.7478828253071754,-0.3313312647327781,0.37667233545482154,-0.02396172471344471,-0.03624605014920235,0.12210775911808014
1772376412209007600,1.608007568359375,0.7149778961796313,-0.3683426062658429,0.3321750220805406,-0.015453457832336426,-0.07667816430330276,0.018129955977201462
1772376412218957600,1.61795751953125,0.6859209477171302,-0.38930589931756254,0.21545827566981315,0.0017799311317503452,-0.07441793382167816,0.10230648517608643
1772376412228906800,1.62790673828125,0.6775393422104418,-0.3732973060637712,0.09893032982945442,0.027937497943639755,-0.09992169588804245,-0.0033288660924881697
1772376412238856700,1.637856689453125,0.6940241746738552,-0.3490399399027228,0.00241641349196434,0.048160750418901443,-0.08991453796625137,0.10578452050685883
1772376412248806000,1.647805908203125,0.7008842697016895,-0.3267532892927527,-0.06557809532582759,0.07095927000045776,-0.09957941621541977,-0.007858687080442905
1772376412258755600,1.657755615234375,0.6776826962038874,-0.3305626184478402,-0.06304302389025687,0.09142379462718964,-0.0978151336312294,0.10955160856246948
1772376412268705800,1.667705810546875,0.6500520542174577,-0.3558285771295428,-0.0398842666208744,0.09535808116197586,-0.12879648804664612,-0.022139038890600204
1772376412278654700,1.67765478515625,0.5865461985884234,-0.3934074894174933,-0.012999182304739952,0.0900319442152977,-0.14423847198486328,0.0827367976307869
1772376412288604700,1.687604736328125,0.49143447719905525,-0.45538346859812734,0.012872341054677962,0.08159132301807404,-0.17957356572151184,-0.08038447797298431
1772376412298553600,1.6975537109375,0.46767958066742865,-0.5215691744282841,-0.05454115300476551,0.08069587498903275,-0.177757129073143,0.015300938859581947
1772376412308503800,1.70750390625,0.45883006538804616,-0.5844450250580907,-0.19663257916867732,0.0868389904499054,-0.19442345201969147,-0.16464245319366455
1772376412318453800,1.717453857421875,0.4585468279998749,-0.5653726603195071,-0.40632688448429105,0.11340217292308807,-0.17428173124790192,-0.042013153433799744
1772376412328402700,1.727402587890625,0.5276254422599449,-0.5307730561032891,-0.6113374158978462,0.14410708844661713,-0.17278076708316803,-0.2037903219461441
1772376412338352600,1.7373525390625,0.6203048584684729,-0.4429293529555201,-0.7597919473528861,0.1739058941602707,-0.16449375450611115,-0.05318324267864227
1772376412348301800,1.7473017578125,0.6722966923166066,-0.33600627080649137,-0.8365215512901544,0.1944444626569748,-0.15699508786201477,-0.2069472372531891
1772376412358251800,1.757251708984375,0.6989055169746279,-0.3179939365148544,-0.8235971877872943,0.19759663939476013,-0.13409844040870667,-0.045352187007665634
1772376412368200700,1.76720068359375,0.724327250739932,-0.3673690850585699,-0.7272673958450555,0.16471245884895325,-0.15371368825435638,-0.2169090211391449
1772376412378150700,1.777150634765625,0.6827264625247568,-0.42846623557806013,-0.5364923105329275,0.10755615681409836,-0.211334228515625,-0.08725492656230927
1772376412388100900,1.787100830078125,0.4867005440123379,-0.41936552201658484,-0.37027240528464317,0.04603740572929382,-0.2822462320327759,-0.3115364909172058
1772376412398049800,1.7970498046875,0.14890828483821825,-0.3779673437014222,-0.42781916984617707,-0.006940062623471022,-0.29462918639183044,-0.2228505164384842
1772376412407999700,1.806999755859375,-0.2021685677195899,-0.2981456189677119,-0.7255810501933098,-0.05689563974738121,-0.263432115316391,-0.47564202547073364
1772376412417948700,1.81694873046875,-0.3874679433006793,-0.19453443784564733,-1.031380106523633,-0.07962827384471893,-0.15039782226085663,-0.37498196959495544
1772376412427899000,1.82689892578125,-0.3362277680700645,-0.12302666020989417,-1.274020988151431,-0.09041380882263184,0.004299351014196873,-0.5750559568405151
1772376412437848800,1.836848876953125,-0.15912324325190857,0.03647065878510475,-1.435336754745245,-0.05300847813487053,0.11654728651046753,-0.39489081501960754
1772376412447797800,1.8467978515625,0.17269027030616999,0.25872517046630383,-1.3700433215796948,-0.008875105530023575,0.14616137742996216,-0.5000025629997253
1772376412457747700,1.856747802734375,0.5808876613700762,0.40680882278233765,-1.2020657590091228,0.05210088938474655,0.095878966152668,-0.2520548105239868
1772376412467696600,1.866696533203125,0.8973601970039308,0.4437599585607648,-0.9222650672882795,0.10488501191139221,-0.00803251564502716,-0.34481242299079895
1772376412477646800,1.876646728515625,1.0150425735764206,0.4482987710341811,-0.6940121919751167,0.1541748046875,-0.11906863749027252,-0.13081155717372894
1772376412487595800,1.886595703125,0.8186576855584978,0.4038853365510702,-0.6138514445453882,0.18300458788871765,-0.19868889451026917,-0.2764856517314911
1772376412497545700,1.896545654296875,0.4627408090909943,0.3456628646850586,-0.6551046614319086,0.20731525123119354,-0.21803180873394012,-0.13097310066223145
1772376412507496000,1.906495849609375,0.11220361636783927,0.30528350802361964,-0.816514536049962,0.21667999029159546,-0.16130249202251434,-0.3093167543411255
1772376412517444900,1.91644482421875,-0.18921879578083753,0.3129886755734682,-0.9310293885022402,0.23002128303050995,-0.054090678691864014,-0.2239675372838974
1772376412527394800,1.926394775390625,-0.37240901545453814,0.36206747151911256,-0.9630173489153384,0.23415078222751617,0.06289505958557129,-0.25208038091659546
1772376412537343700,1.93634375,-0.4252532283483073,0.4022057129010558,-0.7782780366361141,0.23206683993339539,0.14306281507015228,-0.2363506406545639
1772376412547293700,1.946293701171875,-0.41965526221077887,0.3961892290905118,-0.45969548657834525,0.2262084186077118,0.18572025001049042,-0.22908633947372437
1772376412557244000,1.956243896484375,-0.4230058512803167,0.3712862585023045,-0.11188567299246788,0.2179449051618576,0.19652070105075836,-0.24020130932331085
1772376412567192800,1.96619287109375,-0.47940275168698276,0.30684973442703484,0.20945114420950411,0.20824088156223297,0.16906803846359253,-0.2653178572654724
1772376412577142800,1.976142822265625,-0.5723343890909105,0.3095227530285716,0.42557226770222184,0.18495827913284302,0.10840420424938202,-0.31205618381500244
1772376412587091700,1.986091796875,-0.6155998956479132,0.3039607349872589,0.5919049856752157,0.1543540358543396,0.053008586168289185,-0.35887986421585083
1772376412597042000,1.9960419921875,-0.5262286541393026,0.31930911076664925,0.6445259842723607,0.11913913488388062,0.004264079034328461,-0.3921259343624115
1772376412606992000,2.005991943359375,-0.4008821726797148,0.41015842547118664,0.6186375097781419,0.08237925916910172,-0.027344979345798492,-0.3905576169490814
1772376412616940800,2.01594091796875,-0.2741003977200016,0.570760783098638,0.46562253853976726,0.052656255662441254,-0.03134705871343613,-0.35550200939178467
1772376412626890800,2.025890869140625,-0.14526121530644595,0.7606634694904089,0.2688847454309463,0.015704631805419922,-0.03077314794063568,-0.2921113073825836
1772376412636840400,2.03584033203125,-0.09242536838222294,0.8885229566842318,0.08405600130259991,-0.018325062468647957,-0.03011559322476387,-0.231229767203331
1772376412646790100,2.0457900390625,-0.17140655063856391,0.9178715085044503,-0.09132979169785976,-0.04375452175736427,-0.030042089521884918,-0.1837240308523178
1772376412656739300,2.0557392578125,-0.30168519127070903,0.8960764408037066,-0.31841186966598034,-0.048621803522109985,-0.002738604787737131,-0.15391488373279572
1772376412666689300,2.065689208984375,-0.48092941326498984,0.8251943938508629,-0.5712012203425169,-0.011842221021652222,0.05894260108470917,-0.1412145346403122
1772376412676639200,2.07563916015625,-0.641748993839696,0.7562196418240666,-0.7944312990576028,0.04722296819090843,0.14302271604537964,-0.1334448605775833
1772376412686588200,2.085588134765625,-0.6927240518607198,0.72216744235754,-0.9002741847544908,0.12795057892799377,0.23210439085960388,-0.11313720047473907
1772376412696538000,2.0955380859375,-0.6134514854423702,0.710710813319683,-0.7523813788354397,0.20839685201644897,0.29290637373924255,-0.07840754836797714
1772376412706487300,2.1054873046875,-0.4632769252616912,0.7250681322351098,-0.309509016764164,0.26228004693984985,0.30466264486312866,-0.03048183023929596
1772376412716437200,2.115437255859375,-0.30366693967245517,0.6748951113119721,0.31672786210179327,0.2924087643623352,0.2880430817604065,0.030276304110884666
1772376412726387200,2.12538720703125,-0.1482826089542359,0.5918032788664103,0.856006003960967,0.2978636920452118,0.24478299915790558,0.08281274884939194
1772376412736336100,2.135336181640625,-0.15259272723831235,0.5224842434465885,1.3230074296385048,0.2837728261947632,0.18791590631008148,0.11368243396282196
1772376412746286000,2.1452861328125,-0.2696162015106529,0.37258857327252626,1.7234972785323857,0.25713348388671875,0.12219680845737457,0.12452416121959686
1772376412756235000,2.155235107421875,-0.38773894226178524,0.23006664673686025,1.9527216292262075,0.22375626862049103,0.08685126900672913,0.11002948135137558
1772376412766185200,2.165185302734375,-0.5068713715121149,0.02897562685459852,2.0684265682458878,0.16860006749629974,0.038657110184431076,0.07649442553520203
1772376412776135200,2.17513525390625,-0.6536787202820181,-0.09438596439808607,2.135467137339711,0.10572382062673569,0.01744149811565876,0.03919624537229538
1772376412786084000,2.185083984375,-0.7515682358216493,-0.19446575652360915,2.16637256321311,0.02831345424056053,0.001579977571964264,-0.01013907976448536
1772376412796034300,2.195034423828125,-0.793381570808962,-0.28998189399540425,2.1166239051818847,-0.05007198080420494,-0.004769451916217804,-0.0634174644947052
1772376412805983200,2.204983154296875,-0.8687826295562088,-0.35860768645405766,2.012358059543371,-0.12056053429841995,-0.01635633409023285,-0.11763409525156021
1772376412815933200,2.21493310546875,-0.8424676002129912,-0.4094152058884501,1.8878110578984022,-0.17752236127853394,-0.043725550174713135,-0.1766996532678604
1772376412825882000,2.224882080078125,-0.7794531448300928,-0.43735739804208273,1.7309855884611605,-0.22148050367832184,-0.08349107205867767,-0.22524109482765198
1772376412835832000,2.23483203125,-0.7259254066515713,-0.3990209453850984,1.527169819790125,-0.25514543056488037,-0.11638953536748886,-0.26550933718681335
1772376412845782300,2.2447822265625,-0.6475862486258149,-0.33309242918640375,1.2996733158022165,-0.27902278304100037,-0.13981495797634125,-0.29213613271713257
1772376412855731200,2.254731201171875,-0.548297753008455,-0.27582535834908484,0.9954559757053851,-0.29017478227615356,-0.1316753476858139,-0.30079135298728943
1772376412865681200,2.26468115234375,-0.46127873718179757,-0.21115502551794052,0.7109101352840662,-0.2976241707801819,-0.11015167087316513,-0.2978927791118622
1772376412875630000,2.274630126953125,-0.3740404525812715,-0.13293869015425444,0.4922638772279024,-0.28702834248542786,-0.0940057635307312,-0.28357869386672974
1772376412885580300,2.284580322265625,-0.27142865776009856,-0.09843231717944145,0.2856207761764526,-0.262885719537735,-0.06573791056871414,-0.25586000084877014
1772376412895530200,2.2945302734375,-0.17734817911460996,-0.08297492806762456,0.11532207718193531,-0.21677345037460327,-0.021427741274237633,-0.21999534964561462
1772376412905479200,2.304479248046875,-0.1419124163351953,-0.04946282682716846,-0.043678398206830026,-0.1586606204509735,0.022492045536637306,-0.18375664949417114
1772376412915429000,2.31442919921875,-0.13828143942169843,-0.049177580145001405,-0.08922551289498805,-0.10221410542726517,0.0625532940030098,-0.14627063274383545
1772376412925378300,2.32437841796875,-0.12422266506142914,-0.08520458681583404,-0.0207394211679697,-0.06133991479873657,0.09887029230594635,-0.1135193407535553
1772376412935328300,2.334328369140625,-0.1290304306693375,-0.1877496000111103,0.18309037602841852,-0.048296041786670685,0.10985846817493439,-0.09990660101175308
1772376412945277200,2.344277099609375,-0.15128580935820937,-0.31707009966820476,0.4455412890195846,-0.061112239956855774,0.10811542719602585,-0.10471254587173462
1772376412955227100,2.35422705078125,-0.17493936440721153,-0.42622722447961564,0.7154471941918135,-0.08504622429609299,0.09731864929199219,-0.11734232306480408
1772376412965177300,2.36417724609375,-0.1920060153465718,-0.5487006347209215,0.8813917896300554,-0.10700798034667969,0.07358802855014801,-0.1354326456785202
1772376412975126300,2.374126220703125,-0.22851437579356132,-0.6381830449864268,0.8925438827633857,-0.12617412209510803,0.04690670967102051,-0.1668860763311386
1772376412985076200,2.384076171875,-0.22996786253750323,-0.6858940597102046,0.7787339637100696,-0.12263797968626022,0.02568185143172741,-0.1923072785139084
1772376412995025200,2.394025146484375,-0.11781674354188143,-0.6979115375012159,0.581592850497365,-0.10762283205986023,0.0008835922926664352,-0.2077917605638504
1772376413004975400,2.403975341796875,0.02005019679479301,-0.6808785696357488,0.34733225920200345,-0.08938443660736084,-0.030515875667333603,-0.2119700014591217
1772376413014925300,2.41392529296875,0.1830976094868034,-0.6386895332038403,0.15302958428561686,-0.06786812096834183,-0.07212148606777191,-0.20193275809288025
1772376413024874200,2.423874267578125,0.28124014993943275,-0.543283578108251,-0.0358802916765213,-0.06204245984554291,-0.12083762884140015,-0.1813792884349823
1772376413034824200,2.43382421875,0.322738354562968,-0.46504561543464656,-0.22113924391567705,-0.05321593955159187,-0.13342472910881042,-0.162482351064682
1772376413044773400,2.4437734375,0.27289346961565314,-0.45590661568939683,-0.44400224288403983,-0.06070554628968239,-0.13489824533462524,-0.14234165847301483
1772376413054723300,2.453723388671875,0.20248583524152636,-0.4015051634162664,-0.6726017396777868,-0.06957627832889557,-0.09147367626428604,-0.12327705323696136
1772376413064672300,2.46367236328125,0.16431480227932332,-0.4448851631984114,-0.9183627991527319,-0.06351758539676666,-0.02731465920805931,-0.108769491314888
1772376413074622200,2.473622314453125,0.11617898627221583,-0.4756608252122998,-1.1529290953963995,-0.039529506117105484,0.06376771628856659,-0.10079840570688248
1772376413084572400,2.483572509765625,0.03492467145211994,-0.47003772463351484,-1.3507067529469727,-0.010080273263156414,0.17662902176380157,-0.09033351391553879
1772376413094521300,2.493521240234375,0.05767981635667383,-0.5177192210018634,-1.4086264424741268,0.025320058688521385,0.2952647805213928,-0.07427886873483658
1772376413104471300,2.50347119140625,0.1898107703246176,-0.5628463567122817,-1.3251339202731847,0.050356969237327576,0.36789238452911377,-0.06108423322439194
1772376413114420200,2.513420166015625,0.30878194459863006,-0.5833487542539835,-1.0399556271672248,0.06418293714523315,0.3855232298374176,-0.04774748533964157
1772376413124370400,2.523370361328125,0.44903176148384805,-0.5994859423235058,-0.6800047094106674,0.058721061795949936,0.3809303343296051,-0.0376165546476841
1772376413134320400,2.5333203125,0.6231403741553425,-0.6338952846646309,-0.3626771278500557,0.041017334908246994,0.3942221403121948,-0.018926899880170822
1772376413144269300,2.543269287109375,0.7917481243882328,-0.6971677333965897,-0.10197510435283183,0.0038960680831223726,0.37782052159309387,0.0017698566662147641
1772376413154219300,2.55321923828125,0.9296948519628494,-0.7506970790103078,0.16291268039643764,-0.06625718623399734,0.3090832829475403,0.012821974232792854
1772376413164168200,2.563168212890625,0.9924914268113673,-0.7407908942848443,0.40651042435765267,-0.1654554009437561,0.20697608590126038,0.023291660472750664
1772376413174118400,2.573118408203125,0.9825721634086221,-0.7413909060046077,0.5360901594728231,-0.27394843101501465,0.0973484069108963,0.023416634649038315
1772376413184067300,2.5830673828125,0.8597058083269744,-0.724547323231399,0.4559223977804184,-0.3720821738243103,-0.00023088231682777405,0.015443663112819195
1772376413194017300,2.593017333984375,0.5904917578764259,-0.6353276555553078,0.10115092848837375,-0.44678375124931335,-0.045730508863925934,-0.016782725229859352
1772376413203967200,2.60296728515625,0.27797493759840725,-0.5847407931342721,-0.4256774816423654,-0.4760987460613251,-0.030683647841215134,-0.052967362105846405
1772376413213916400,2.61291650390625,0.13913323394544422,-0.5574298846215009,-1.035548332118988,-0.4613248109817505,0.02463613636791706,-0.07366802543401718
1772376413223866000,2.6228662109375,0.13782726591341196,-0.46792438574135303,-1.5735481246054173,-0.4094640016555786,0.08862311393022537,-0.0656263455748558
1772376413233815300,2.632815185546875,0.23536964851580558,-0.3250736656427383,-1.9233476507037877,-0.3243861794471741,0.15399374067783356,-0.025221433490514755
1772376413243765000,2.642764892578125,0.4491716814111918,-0.1563072907820344,-2.0921640021860597,-0.219915971159935,0.20894567668437958,0.0420319065451622
1772376413253715200,2.652715087890625,0.6279146028198301,0.029821137768030165,-2.103879574421048,-0.10638899356126785,0.25694626569747925,0.13155514001846313
1772376413263664000,2.6626640625,0.7711895396798849,0.20707623177170753,-2.0247557688236237,0.0052994610741734505,0.2800305485725403,0.2379811853170395
1772376413273614000,2.672614013671875,0.8839121018879115,0.3456543891176581,-1.83240598154068,0.11226968467235565,0.2830280363559723,0.3420464098453522
1772376413283563300,2.682563232421875,0.964530676087737,0.4115773523584008,-1.5513152500092982,0.2061479687690735,0.2740872800350189,0.4254358410835266
1772376413293513200,2.69251318359375,0.9751375564284622,0.4433481628894806,-1.2486229275226592,0.29600203037261963,0.2491198480129242,0.4970271587371826
1772376413303463200,2.702463134765625,0.9262830707579851,0.4763406241700053,-0.9380050727337598,0.3692062199115753,0.22430236637592316,0.5592633485794067
1772376413313412000,2.712412109375,0.8892711447030305,0.4977484461188316,-0.6168909583717584,0.4181623160839081,0.1851879060268402,0.6153147220611572
1772376413323362300,2.7223623046875,0.7894193161144852,0.4867445292845368,-0.2880564788907766,0.42661574482917786,0.13113638758659363,0.6577340960502625
1772376413333311200,2.732311279296875,0.6903399332031607,0.47865883798450226,0.027854221609234807,0.4042174518108368,0.05349850654602051,0.6825470924377441
1772376413343261200,2.74226123046875,0.5810150506094097,0.4180725595965981,0.30139117676019667,0.36048170924186707,-0.05011310800909996,0.689058780670166
1772376413353210000,2.752210205078125,0.4308436322338879,0.35262013647705315,0.4430547329008579,0.30329829454421997,-0.18194261193275452,0.6695176959037781
1772376413363160000,2.76216015625,0.25298728440143164,0.27225568316876886,0.4532815278828144,0.23818190395832062,-0.34631291031837463,0.6234191656112671
1772376413373110300,2.7721103515625,0.03506218022666872,0.23551000683456658,0.25077158111333847,0.18878328800201416,-0.4792338013648987,0.5631015300750732
1772376413383059200,2.78205908203125,-0.16213862728402018,0.20226035592257977,-0.2208978363752365,0.17593859136104584,-0.5408838391304016,0.49469053745269775
1772376413393009200,2.792009033203125,-0.37068946165293454,0.2735775794222951,-0.8469237028390169,0.1916409432888031,-0.5545253157615662,0.42057350277900696
1772376413402958000,2.8019580078125,-0.5662578456562012,0.4338429601803422,-1.377857210201025,0.23206213116645813,-0.49433329701423645,0.34819599986076355
1772376413412908300,2.811908203125,-0.6364837667878717,0.5798112277776003,-1.7756582584023475,0.28472256660461426,-0.3647862672805786,0.2818509042263031
1772376413422857200,2.821857177734375,-0.6414096788827329,0.758279789224267,-1.9858610977619886,0.3359452784061432,-0.19005440175533295,0.24372641742229462
1772376413432807200,2.83180712890625,-0.5518954121742398,0.9723162153974175,-1.9632365934997795,0.38832661509513855,-0.0009925467893481255,0.2418278604745865
1772376413442757000,2.841757080078125,-0.3943720966659486,1.1876353748574853,-1.6514239759683609,0.41379815340042114,0.1512574404478073,0.25393351912498474
1772376413452706300,2.851706298828125,-0.28623876194432374,1.375519999425113,-1.0346768099814654,0.4039527475833893,0.22549040615558624,0.28526589274406433
1772376413462656300,2.86165625,-0.12731120566129683,1.449963830512762,-0.24327099622488021,0.38483336567878723,0.23297202587127686,0.31325119733810425
1772376413472605200,2.871605224609375,0.015218904180824756,1.428333305723965,0.43913434458672995,0.3654530942440033,0.22389116883277893,0.3238968253135681
1772376413482555100,2.88155517578125,0.022516659973561764,1.3660320401117205,0.941943581226468,0.33961671590805054,0.20088066160678864,0.3031958043575287
1772376413492505300,2.89150537109375,-0.08835114121325313,1.2605746466010808,1.39153677598536,0.3095191717147827,0.15765011310577393,0.2647337317466736
1772376413502454300,2.901454345703125,-0.18612367930971085,1.1607494137585161,1.7458417968094349,0.2619125247001648,0.11000989377498627,0.2124931514263153
1772376413512404200,2.911404296875,-0.23048224180042742,1.0829048343166707,2.0223346791565415,0.20046480000019073,0.049101345241069794,0.15984807908535004
1772376413522353200,2.921353271484375,-0.2504919604543596,1.000577556502819,2.263785474216938,0.12775784730911255,-0.025022417306900024,0.10859287530183792
1772376413532303400,2.931303466796875,-0.22251645055301486,0.9581377601802349,2.429071313485503,0.048046376556158066,-0.09668968617916107,0.05034773796796799
1772376413542252300,2.941252197265625,-0.16170074732340872,0.8841250139862299,2.467485507553816,-0.03949518874287605,-0.15164002776145935,0.0015991039108484983
1772376413552202200,2.9512021484375,-0.12615166036263106,0.8542012926265596,2.387351063609123,-0.12193840742111206,-0.19439925253391266,-0.03721056133508682
1772376413562152200,2.961152099609375,-0.12839900089800357,0.8322717848911881,2.1979332381248473,-0.19547627866268158,-0.22195790708065033,-0.07458509504795074
1772376413572101000,2.97110107421875,-0.07931355601586401,0.7858283058851957,1.915288262888789,-0.25055041909217834,-0.23854227364063263,-0.11184365302324295
1772376413582051300,2.98105126953125,-0.055546457589790224,0.7617179469794034,1.5598521922081707,-0.2773521840572357,-0.25224000215530396,-0.1429978460073471
1772376413592000300,2.991000244140625,-0.009040580872073769,0.7221268180862068,1.192770107397437,-0.29128843545913696,-0.25262507796287537,-0.17049191892147064
1772376413601950200,3.0009501953125,0.037025004732236265,0.7235819853305816,0.8756155443161725,-0.2868273854255676,-0.2557132840156555,-0.19136203825473785
1772376413611900400,3.010900390625,0.1070184322822839,0.7305149994641542,0.626934798002243,-0.2741903066635132,-0.25105586647987366,-0.199072003364563
1772376413621849300,3.020849365234375,0.2259131803192198,0.7038891506060958,0.43411505511999127,-0.26686447858810425,-0.24661904573440552,-0.20050372183322906
1772376413631799300,3.03079931640625,0.306313654788956,0.6822887286946178,0.30390111375451084,-0.25021857023239136,-0.22614838182926178,-0.19388431310653687
1772376413641747700,3.040747802734375,0.37451822616085406,0.6604366701096296,0.2054167741268873,-0.2553808391094208,-0.2094959020614624,-0.19379588961601257
1772376413651698000,3.050697998046875,0.3807942376904189,0.6074181966274976,0.18096271634995936,-0.26468923687934875,-0.1963132917881012,-0.1893613487482071
1772376413661646800,3.060646728515625,0.37497970619276166,0.5191740959852934,0.1848223143875599,-0.27668997645378113,-0.17919716238975525,-0.18889129161834717
1772376413671596800,3.0705966796875,0.34329847364127636,0.4310764180764556,0.18191256442070006,-0.2886108160018921,-0.16564486920833588,-0.1970198005437851
1772376413681546800,3.080546630859375,0.3251930542387068,0.35944384501725435,0.1620510951310396,-0.2872462272644043,-0.1476200520992279,-0.20683248341083527
1772376413691495700,3.09049560546875,0.32440811440609396,0.2834256042197347,0.12023439914286135,-0.2804829180240631,-0.13578541576862335,-0.21658281981945038
1772376413701446000,3.10044580078125,0.3483247773706913,0.21386574578136205,0.13113047168850897,-0.2758373022079468,-0.13882353901863098,-0.22575287520885468
1772376413711394800,3.110394775390625,0.3892609641972929,0.18132365861684083,0.17748714919388292,-0.2608197331428528,-0.1346839815378189,-0.22487878799438477
1772376413721344800,3.1203447265625,0.4817994740977883,0.14426438628882168,0.2515361357450485,-0.25657784938812256,-0.1403501331806183,-0.21479791402816772
1772376413731293700,3.130293701171875,0.5703810995986685,0.0825613788306713,0.3388789036333561,-0.2487567663192749,-0.1611309051513672,-0.20487554371356964
1772376413741244000,3.140243896484375,0.6097728334622458,0.035222120028734205,0.4161117809176445,-0.24998661875724792,-0.1885382980108261,-0.19941872358322144
1772376413751193900,3.15019384765625,0.6514050762616097,-0.02521072136312723,0.4537456382632255,-0.2485477328300476,-0.21454356610774994,-0.19681736826896667
1772376413761142800,3.160142822265625,0.6196589617803693,-0.10183072744607925,0.45862113534510135,-0.24701960384845734,-0.23617428541183472,-0.20022888481616974
1772376413771093000,3.170093017578125,0.6262308144513518,-0.16686200254410505,0.40464463048577304,-0.23495618999004364,-0.2378614991903305,-0.20077025890350342
1772376413781042000,3.1800419921875,0.6509785944778472,-0.2233969597145915,0.2749602659523487,-0.22174504399299622,-0.23207978904247284,-0.2053450345993042
1772376413790992000,3.189991943359375,0.6399873179294169,-0.22640607840269802,0.2070464211553335,-0.20628796517848969,-0.22345542907714844,-0.19473028182983398
1772376413800941800,3.19994189453125,0.647992491339147,-0.2497755558133125,0.17545242849588394,-0.1936912089586258,-0.2128504514694214,-0.18436391651630402
1772376413810890800,3.209890869140625,0.7220617900259793,-0.3071317662388086,0.1628495520323515,-0.1800842434167862,-0.21395082771778107,-0.17574311792850494
1772376413820841000,3.219841064453125,0.7354444917555898,-0.3460270218223333,0.18875263957381247,-0.17546232044696808,-0.23576557636260986,-0.1742384284734726
1772376413830790000,3.229789794921875,0.7756571866132318,-0.42496407267600295,0.2248182246893644,-0.17631496489048004,-0.2665815055370331,-0.1816764920949936
1772376413840739800,3.23973974609375,0.7938732267834245,-0.508989971101284,0.19301438867151735,-0.17042671144008636,-0.30561837553977966,-0.1865261048078537
1772376413850688800,3.249688720703125,0.7717400862347334,-0.5408472908720374,0.09174714032709598,-0.1707795113325119,-0.33586665987968445,-0.20247182250022888
1772376413860639000,3.259638916015625,0.7341805362343787,-0.5808119292527437,-0.09628770636618136,-0.15962405502796173,-0.3501611649990082,-0.21855145692825317
1772376413870588700,3.269588623046875,0.6993517263721675,-0.6075307170912623,-0.32953006052970885,-0.1504528522491455,-0.3468852937221527,-0.23166674375534058
1772376413880537900,3.279537841796875,0.7419158066615462,-0.5991635785013437,-0.5898188270509243,-0.1346837431192398,-0.338533878326416,-0.22868293523788452
1772376413890487600,3.289487548828125,0.7869117172077298,-0.6033744741946458,-0.8354588904947042,-0.11699936538934708,-0.31792041659355164,-0.22926294803619385
1772376413900437000,3.29943701171875,0.8314050850592554,-0.5755962404310703,-0.9980623588114976,-0.0916532650589943,-0.327123761177063,-0.22304819524288177
1772376413910386700,3.30938671875,0.8630331261187791,-0.5676315451622009,-1.1314105065494775,-0.04888051375746727,-0.33093541860580444,-0.21273767948150635
1772376413920336600,3.319336669921875,0.7799446546740829,-0.5060793443515896,-1.3232137658655643,0.006646394729614258,-0.3213309943675995,-0.21550656855106354
1772376413930285600,3.32928564453125,0.6688575847133994,-0.4359402247205376,-1.4431944825083016,0.04861488193273544,-0.2887682318687439,-0.21432597935199738
1772376413940235800,3.33923583984375,0.5444334057305008,-0.380304554477334,-1.4911346298128365,0.0673062801361084,-0.2546156048774719,-0.20977304875850677
1772376413950184700,3.349184814453125,0.5104300138417631,-0.40868689161390065,-1.3261340372264385,0.05778460577130318,-0.2415318787097931,-0.21285808086395264
1772376413960134700,3.359134765625,0.4934616356451064,-0.44213294188082214,-1.0614040733873844,0.024244489148259163,-0.2552032172679901,-0.2275552600622177
1772376413970083800,3.369083740234375,0.4384992250209674,-0.47535541252493857,-0.7673907319188118,-0.01993095502257347,-0.28848546743392944,-0.2569566071033478
1772376413980033800,3.37903369140625,0.3143050188690424,-0.49847646813243623,-0.5539420425057411,-0.08344841748476028,-0.3255481421947479,-0.3000175356864929
1772376413989983700,3.388983642578125,0.1408856305707246,-0.49452977633327244,-0.4530687619149685,-0.15751183032989502,-0.33468908071517944,-0.35618922114372253
1772376413999932700,3.3989326171875,0.009735960991401225,-0.5146449281230568,-0.5134592254698276,-0.22228683531284332,-0.3196760416030884,-0.4139731526374817
1772376414009882600,3.408882568359375,-0.08047104635476134,-0.5052434780493378,-0.7114461418569088,-0.2595130205154419,-0.2833545207977295,-0.46687260270118713
1772376414019831600,3.41883154296875,-0.07896708066575228,-0.44876814211159943,-0.9940683207392692,-0.2635203003883362,-0.24196447432041168,-0.499454528093338
1772376414029781800,3.42878173828125,0.06901288294694385,-0.3053770315259695,-1.255555357134342,-0.24603140354156494,-0.19774097204208374,-0.5024210214614868
1772376414039730700,3.438730712890625,0.28038484828434884,-0.1393660928532481,-1.4354501519918441,-0.2152029275894165,-0.16304956376552582,-0.4790049195289612
1772376414049680600,3.4486806640625,0.43525026969499886,0.032148703932762146,-1.5472773727953433,-0.175966277718544,-0.13661953806877136,-0.43118733167648315
1772376414059630800,3.458630859375,0.5542997333696111,0.18633447251617907,-1.5716542736828327,-0.12230011820793152,-0.11039192974567413,-0.36845576763153076
1772376414069579800,3.468579833984375,0.6102949211075902,0.29250732081979514,-1.5811024855077265,-0.04394201934337616,-0.06494080275297165,-0.30269479751586914
1772376414079529700,3.47852978515625,0.5452355158936232,0.3689928868681192,-1.5729098267018795,0.055013325065374374,-0.01464620977640152,-0.2430969774723053
1772376414089478700,3.488478759765625,0.45394506982546295,0.4470291894897818,-1.4999083033770322,0.17219693958759308,0.0463036373257637,-0.18778946995735168
1772376414099428900,3.498428955078125,0.39669191791564223,0.4699886247947812,-1.288965459305048,0.27810072898864746,0.09558676183223724,-0.13055627048015594
1772376414109378800,3.50837890625,0.35169995289221406,0.47677755428254603,-0.8815273987084626,0.363601952791214,0.11681759357452393,-0.08008541911840439
1772376414119327700,3.51832763671875,0.30480504032429306,0.46448301311582324,-0.33067689247727394,0.41270318627357483,0.13259175419807434,-0.04322141408920288
1772376414129277700,3.528277587890625,0.1908447895474732,0.4354194157168269,0.19425942029654977,0.4275765120983124,0.13778109848499298,-0.01232896838337183
1772376414139226600,3.5382265625,0.024920908103697,0.4103855122253299,0.6605453911811113,0.40248021483421326,0.11222352832555771,-0.01016568299382925
1772376414149176800,3.5481767578125,-0.12213489900194108,0.3490159745052457,1.0932511640250682,0.3446487486362457,0.07412664592266083,-0.029522163793444633
1772376414159125800,3.558125732421875,-0.27243787133526054,0.28705168576240536,1.39875445227921,0.25086528062820435,0.015877189114689827,-0.07664813101291656
1772376414169075700,3.56807568359375,-0.3498418674027547,0.20928250964432954,1.587259839093685,0.15135380625724792,-0.05853293463587761,-0.1293945163488388
1772376414179026000,3.57802587890625,-0.36482100801095363,0.19434037657827138,1.5659201139450072,0.07099984586238861,-0.11179322749376297,-0.17652341723442078
1772376414188974800,3.587974853515625,-0.4002588166169822,0.24644845721721648,1.3025047398358582,0.011160106398165226,-0.12891457974910736,-0.20537427067756653
1772376414198924800,3.5979248046875,-0.3582164221141487,0.3797349378958344,0.9179460350453853,-0.023234086111187935,-0.1414753794670105,-0.20530742406845093
1772376414208873700,3.607873779296875,-0.29081374170966445,0.5503741208910942,0.5195002591997385,-0.040354952216148376,-0.13634924590587616,-0.18385159969329834
1772376414218823700,3.61782373046875,-0.22928201743150128,0.6763894415229559,0.1472895793288946,-0.04736625775694847,-0.11555075645446777,-0.15806074440479279
1772376414228774000,3.62777392578125,-0.2058746191632934,0.7687386393964291,-0.13959668673872946,-0.02883070334792137,-0.07868185639381409,-0.13264988362789154
1772376414238722800,3.637722900390625,-0.21116828685831276,0.7754325840771198,-0.32463702779114245,0.0002259812317788601,-0.01350951287895441,-0.11095444858074188
1772376414248672800,3.6476728515625,-0.2534716338522732,0.804302412469685,-0.4781996960401535,0.042183615267276764,0.06193731725215912,-0.08641141653060913
1772376414258621700,3.65762158203125,-0.2476741448209621,0.7902864543378353,-0.51274610876441,0.09451446682214737,0.13850614428520203,-0.06261341273784637
1772376414268572000,3.667572021484375,-0.15478344221562146,0.7527630716294049,-0.37431495867371556,0.14960063993930817,0.18529824912548065,-0.033304363489151
1772376414278520800,3.677520751953125,-0.08240936660673469,0.7292799047112465,-0.07553659476041794,0.1936197578907013,0.18796700239181519,-0.010472284629940987
1772376414288470800,3.687470703125,0.012653875998407602,0.6889832578971982,0.34380934577286243,0.2161998152732849,0.1595313400030136,0.01557035744190216
1772376414298420700,3.697420654296875,0.07690061312261968,0.6119044021308422,0.758072868475318,0.21681447327136993,0.1231437623500824,0.03639281168580055
1772376414308370000,3.707369873046875,0.05461460183346644,0.540411529803276,1.0774182195991278,0.20018182694911957,0.09022144228219986,0.044195715337991714
1772376414318319900,3.71731982421875,-0.05256773403994739,0.45769788302034137,1.2723960172981024,0.16473914682865143,0.07242140918970108,0.042503274977207184
1772376414328268800,3.727268798828125,-0.191793980031088,0.3469347843170166,1.4559569334477185,0.10894434154033661,0.051540203392505646,0.024867191910743713
1772376414338218800,3.73721875,-0.30647870915755626,0.19688947653919459,1.5693156016021965,0.040795646607875824,0.03634660691022873,-0.010902789421379566
1772376414348167700,3.747167724609375,-0.43213012838046994,0.03975625632703304,1.6289613842695951,-0.03150107339024544,0.027702461928129196,-0.059614408761262894
1772376414358118000,3.757117919921875,-0.5046131807891652,-0.07772066080123186,1.6044751777887343,-0.1089005246758461,0.00883183628320694,-0.11756399273872375
1772376414368067800,3.76706787109375,-0.5820184189656749,-0.13439824131280184,1.5372808794379234,-0.17295193672180176,-0.010227551683783531,-0.1789746731519699
1772376414378016800,3.777016845703125,-0.6465265104398131,-0.1536900940209627,1.4119266530632972,-0.2296072244644165,-0.03155653923749924,-0.23795756697654724
1772376414387967000,3.786967041015625,-0.6958798124779015,-0.1618871367409825,1.230311025762558,-0.28459805250167847,-0.04754207283258438,-0.2919865846633911
1772376414397916000,3.796916015625,-0.660654477578774,-0.11687865897417067,0.9954255805671215,-0.3258988857269287,-0.04853622987866402,-0.3324471712112427
1772376414407865900,3.806865966796875,-0.5635033227836713,-0.025099369943141936,0.7412514975339174,-0.35677292943000793,-0.03184768557548523,-0.3499293327331543
1772376414417814800,3.816814697265625,-0.42651269035749134,0.06120207219868898,0.4996019650310278,-0.37735170125961304,-0.012202076613903046,-0.3406442105770111
1772376414427765000,3.826764892578125,-0.25811262805853036,0.16569208198189733,0.2488876670628786,-0.38069260120391846,0.015704447403550148,-0.3068910837173462
1772376414437714700,3.836714599609375,-0.09063413758389652,0.23151509197950362,0.07403203541636466,-0.36287233233451843,0.036561526358127594,-0.25298500061035156
1772376414447663900,3.846663818359375,0.05397281506489962,0.2437792380079627,-0.08636369372308254,-0.3193764388561249,0.06395424902439117,-0.1859154850244522
1772376414457613800,3.85661376953125,0.13370218534003941,0.2567167532533407,-0.20562427939772604,-0.26316404342651367,0.08685796707868576,-0.11948239058256149
1772376414467562800,3.866562744140625,0.1822536694759503,0.22012100678384303,-0.2681552621126175,-0.2006545215845108,0.09185679256916046,-0.05155918747186661
1772376414477513000,3.876512939453125,0.16879461457449943,0.15826339328587055,-0.1995177792161703,-0.150672048330307,0.08170162886381149,-0.001076041255146265
1772376414487462700,3.886462646484375,0.0686092431826517,0.03807663267701864,0.014491466689109802,-0.11966519057750702,0.056321628391742706,0.04130009934306145
1772376414497411800,3.896411865234375,-0.02659888778589666,-0.08175298505723476,0.27513562251925466,-0.11267092823982239,0.03659186512231827,0.06551116704940796
1772376414507361800,3.90636181640625,-0.11541165516152978,-0.25778905865997076,0.5057517198324203,-0.12004398554563522,0.03432387858629227,0.0743657648563385
1772376414517311000,3.91631103515625,-0.2378351253138855,-0.3914344357788562,0.6747475195348263,-0.13328655064105988,0.023844074457883835,0.07372340559959412
1772376414527260700,3.9262607421875,-0.32383849782459434,-0.4937134915143251,0.8006547036170959,-0.1542019546031952,0.024400467053055763,0.06810009479522705
1772376414537209900,3.9362099609375,-0.33313911787234246,-0.6333440805226564,0.8594014916181564,-0.1718355417251587,0.015745459124445915,0.06530670076608658
1772376414547159600,3.94615966796875,-0.3023885902997106,-0.7185983516991138,0.9083329880475998,-0.19158935546875,-0.003992006648331881,0.06164519861340523
1772376414557109800,3.95610986328125,-0.24958836267814039,-0.8344891686797141,0.8997615590572356,-0.1922152042388916,-0.026868294924497604,0.061028674244880676
1772376414567058700,3.96605859375,-0.22545502475555984,-0.9239566736370325,0.8266244266539812,-0.19239728152751923,-0.049843139946460724,0.05431583896279335
1772376414577008600,3.976008544921875,-0.23482929456140844,-0.9640051909089088,0.7195534604668616,-0.179060161113739,-0.07436099648475647,0.044582515954971313
1772376414586957600,3.98595751953125,-0.23471604344528166,-0.9894792393833398,0.5761123732596636,-0.16283024847507477,-0.09551402926445007,0.031958047300577164
1772376414596905700,3.99590576171875,-0.2665000787841156,-1.0272051589265465,0.3979851725965738,-0.14449438452720642,-0.10600874572992325,0.023256167769432068
1772376414606856000,4.00585595703125,-0.24947872829120604,-1.0496484614029526,0.22657705105543136,-0.11531234532594681,-0.1045120358467102,0.02151932753622532
1772376414616806000,4.015805908203125,-0.19732070756331085,-1.057037110349536,0.07066168220043181,-0.08672171831130981,-0.09385885298252106,0.018661756068468094
1772376414626754800,4.0257548828125,-0.15425415764451025,-1.0467153305605053,-0.07938684044778346,-0.061077781021595,-0.07721778750419617,0.01796708069741726
1772376414636704800,4.035704833984375,-0.1611829339943826,-1.0421414467737078,-0.15021861851811408,-0.049598220735788345,-0.05674260854721069,0.014830142259597778
1772376414646653400,4.0456533203125,-0.15883976840171962,-1.0415309136599302,-0.202864167034626,-0.04274005442857742,-0.03489036485552788,0.005692620761692524
1772376414656603600,4.055603759765625,-0.1610303737811744,-1.0777598726436495,-0.2653191619038582,-0.04146599769592285,-0.02028319239616394,-0.008835721760988235
1772376414666553600,4.0655537109375,-0.14242602841313928,-1.0613494205906986,-0.36067864750921724,-0.02913529798388481,0.000498519279062748,-0.029909316450357437
1772376414676502500,4.07550244140625,-0.1506616130452603,-1.0409954916089772,-0.4953326171487569,-0.011189749464392662,0.025790980085730553,-0.045906614512205124
1772376414686452500,4.085452392578125,-0.10717395163755863,-1.0124012652873993,-0.6314923151761292,0.01445247232913971,0.04150792583823204,-0.05778677389025688
1772376414696401700,4.095401611328125,0.0028764687517657873,-0.9890411402270197,-0.6570552109777927,0.051016077399253845,0.06880266964435577,-0.05664774030447006
1772376414706351600,4.1053515625,0.13183368805442006,-0.9031237289667129,-0.7349304778188467,0.08964826166629791,0.07097648829221725,-0.04498092085123062
1772376414716300500,4.115300537109375,0.2325275934902951,-0.7864204265594482,-0.7355091544896364,0.13734839856624603,0.06897325813770294,-0.012074104510247707
1772376414726250500,4.12525048828125,0.4024603087166324,-0.7304810971945523,-0.718965431445837,0.18507438898086548,0.07682318985462189,0.025759560987353325
1772376414736200400,4.135200439453125,0.5175853654891253,-0.6928451940223574,-0.6709498808175325,0.22110268473625183,0.1028159111738205,0.05995055288076401
1772376414746149600,4.145149658203125,0.6553774870239197,-0.7113657700970768,-0.5178191742449999,0.2268960326910019,0.12778881192207336,0.0954863503575325
1772376414756099600,4.155099609375,0.7445319805093109,-0.7561541753724217,-0.2689326762259006,0.1999989002943039,0.1476709097623825,0.12129610776901245
1772376414768536600,4.16753662109375,0.7915504829242825,-0.8431199266418814,-0.013007365611195563,0.12131447345018387,0.172214537858963,0.13973721861839294
1772376414778485500,4.177485595703125,0.8048964328400791,-0.9657689857110381,0.20698738444447518,0.04181884974241257,0.17804525792598724,0.13997210562229156
1772376414788435500,4.187435546875,0.775899836262688,-1.0679317215904593,0.3348819429516792,-0.038536690175533295,0.16767242550849915,0.13348476588726044
1772376414798384400,4.19738427734375,0.763660313218832,-1.1964885433986783,0.3120376584589481,-0.096923828125,0.13407079875469208,0.12393200397491455
1772376414808334600,4.20733447265625,0.773304047615826,-1.3089739358499646,0.19567396326959133,-0.13400861620903015,0.05869214981794357,0.09656589478254318
1772376414818284500,4.217284423828125,0.745938778567314,-1.3808815264582632,0.004879588735103607,-0.16003942489624023,-0.03350169584155083,0.0633365660905838
1772376414828233500,4.2272333984375,0.7273683720014988,-1.392169228670001,-0.2831388962328434,-0.16626235842704773,-0.13019147515296936,0.025244971737265587
1772376414838183400,4.237183349609375,0.6107730600133537,-1.3446838393956422,-0.6639946548521518,-0.15817567706108093,-0.20067070424556732,-0.006535327062010765
1772376414848132400,4.24713232421875,0.4346304572962224,-1.1884446454137563,-1.1521809073776006,-0.16418197751045227,-0.2904660105705261,-0.04412528872489929
1772376414858082600,4.25708251953125,0.24088771781753748,-1.0155132598280907,-1.5679834762156009,-0.1588207632303238,-0.30340176820755005,-0.08378375321626663
1772376414868031500,4.267031494140625,0.13739870177041738,-0.9607792145997285,-2.046830822509527,-0.12577785551548004,-0.248960480093956,-0.11194097250699997
1772376414877981400,4.2769814453125,0.08844382446538657,-0.8600216693431139,-2.656861247462034,-0.03693586587905884,-0.1330069899559021,-0.12732020020484924
1772376414887931600,4.286931640625,0.07743895778302103,-0.621364012132585,-3.1812890261918305,0.09457874298095703,0.008403884246945381,-0.10441562533378601
1772376414897880600,4.296880615234375,0.1479618890998885,-0.3452019691750407,-3.4853760179072615,0.25034037232398987,0.15106302499771118,-0.044400762766599655
1772376414907830500,4.30683056640625,0.3441461034465581,-0.05101180983483791,-3.5213761365711687,0.4029625654220581,0.26799947023391724,0.0529477521777153
1772376414917779500,4.316779541015625,0.5217914388768374,0.28834640174806114,-3.263552883380651,0.521323025226593,0.32986921072006226,0.15991947054862976
1772376414927729400,4.3267294921875,0.6514659396033734,0.5622334855109453,-2.723404972949624,0.6077916026115417,0.3748501241207123,0.26789137721061707
1772376414937678600,4.3366787109375,0.6784902131944894,0.7293462479457259,-2.081231104761362,0.6882177591323853,0.4130723476409912,0.3549136221408844
1772376414947628500,4.346628662109375,0.6177972595617175,0.7919257459774612,-1.512316534051299,0.7481882572174072,0.45666933059692383,0.41530176997184753
1772376414957578500,4.35657861328125,0.45200281318388874,0.8779881186664104,-1.059685579031706,0.7950249910354614,0.47866755723953247,0.45836907625198364
1772376414967527400,4.36652734375,0.3492502947177738,0.9424281498730183,-0.5825847841441631,0.8268179893493652,0.4774441421031952,0.49131062626838684
1772376414977478400,4.376478515625,0.2807836383435875,0.8717468861892819,0.3691898707449436,0.842748761177063,0.4312164783477783,0.5196304321289062
1772376414987427600,4.386427490234375,0.3005928294567391,0.8911889610230922,0.7512088279247283,0.8313011527061462,0.35175806283950806,0.5433706641197205
1772376414997377300,4.396377197265625,0.32595969122964885,0.8560235396176576,1.0739742166250943,0.7968390583992004,0.22450503706932068,0.5588217973709106
1772376415007326500,4.406326416015625,0.2918541906733066,0.7720309589400887,1.2592325843423604,0.734298825263977,0.06835530698299408,0.563141405582428
1772376415017276400,4.4162763671875,0.18983082673195747,0.7010758467510342,1.2813678437829017,0.6623045206069946,-0.10620637983083725,0.5498051047325134
1772376415027225600,4.4262255859375,-0.04105762124918401,0.5893719600662589,1.078079898378253,0.5831922888755798,-0.2619363069534302,0.5102921724319458
1772376415037175300,4.43617529296875,-0.33318792545013126,0.5316276271060109,0.6520820987403393,0.5197975635528564,-0.37705543637275696,0.440763384103775
1772376415047125500,4.44612548828125,-0.6741962423276155,0.5425821518406272,0.0776034641623497,0.4672755002975464,-0.425595760345459,0.3492235541343689
1772376415057074400,4.456074462890625,-0.9573152648162097,0.6401625283658504,-0.4255249214291572,0.4160003364086151,-0.4256548583507538,0.2517143189907074
1772376415067024400,4.4660244140625,-1.120381089947745,0.7427142635628581,-0.8412105858892202,0.3599094748497009,-0.3850407898426056,0.1618196666240692
1772376415076973300,4.475973388671875,-1.1725842284590005,0.8032447201102971,-1.1630395705223082,0.3120846748352051,-0.26804545521736145,0.07137872278690338
1772376415086923500,4.485923583984375,-1.1313128183286636,0.927954218840599,-1.4341525133967399,0.2919081449508667,-0.08811761438846588,-0.005028128158301115
1772376415096872400,4.49587255859375,-1.003956312220916,1.1608403069123625,-1.4982026685029268,0.30226704478263855,0.12064598500728607,-0.05693766474723816
1772376415106822400,4.505822509765625,-0.7687235148925333,1.4112883551597595,-1.2487971150457857,0.3288297653198242,0.30816978216171265,-0.0710785835981369
1772376415116772400,4.5157724609375,-0.41410456928107886,1.6183952743306755,-0.681607468432188,0.3537609577178955,0.42562901973724365,-0.05443276837468147
1772376415126721300,4.52572119140625,-0.07794866087082773,1.7429817312031983,-0.0082914430052042,0.38006678223609924,0.4811209440231323,0.004832657519727945
1772376415136671500,4.53567138671875,0.15293043476007878,1.863254708790779,0.6033142684400081,0.41675421595573425,0.48959699273109436,0.08875179290771484
1772376415146620400,4.545620361328125,0.23856939440518615,1.921787854041159,1.1655518456041811,0.45339736342430115,0.47705674171447754,0.16873744130134583
1772376415156570400,4.5555703125,0.19423574716001749,1.9044383675724268,1.7557757463246584,0.47304296493530273,0.40991392731666565,0.23088788986206055
1772376415166519300,4.565519287109375,0.1013194169230759,1.8129057467788456,2.3013532805889843,0.4688597619533539,0.29959598183631897,0.2719345688819885
1772376415176469500,4.575469482421875,-0.0729589628247544,1.683747744207084,2.687782455426454,0.4273027181625366,0.18774746358394623,0.2779772877693176
1772376415186419500,4.58541943359375,-0.22609310346338896,1.495210500949621,3.0070190854787824,0.3511509597301483,0.04703828692436218,0.2545901834964752
1772376415196368400,4.595368408203125,-0.39803993499111384,1.338274264614284,3.130166157197952,0.25253862142562866,-0.06202774494886398,0.20774118602275848
1772376415206318300,4.605318359375,-0.5481708021605387,1.2244570390373468,3.078798958054185,0.15045355260372162,-0.13540783524513245,0.15408717095851898
1772376415216267500,4.615267578125,-0.6953717898905277,1.1654486774906516,2.9518589237928388,0.03236579895019531,-0.17677444219589233,0.09380252659320831
1772376415226217500,4.625217529296875,-0.7685260926242917,1.0858794662132858,2.813749260741472,-0.08491715043783188,-0.21381662786006927,0.025580598041415215
1772376415236167400,4.63516748046875,-0.786749585448578,0.9986725996643304,2.6082085679739713,-0.20212286710739136,-0.23419593274593353,-0.047418512403964996
1772376415246116400,4.645116455078125,-0.7093794185854494,0.9132494016617536,2.353163547325134,-0.314509779214859,-0.2517929673194885,-0.09935940057039261
1772376415256066600,4.655066650390625,-0.6106810708809643,0.8731424322009086,2.0341250701934097,-0.4133138656616211,-0.29296863079071045,-0.1674889177083969
1772376415266015500,4.665015380859375,-0.5311679737050086,0.8521905373260379,1.630563558769226,-0.4800572395324707,-0.3299621641635895,-0.2329879254102707
1772376415275965400,4.67496533203125,-0.46854047181308267,0.8469237028390169,1.1550731216877699,-0.5239948630332947,-0.3288295269012451,-0.27723821997642517
1772376415285914400,4.684914306640625,-0.28975108091421425,0.8764593016639352,0.6955792951613664,-0.538230299949646,-0.33002665638923645,-0.29250356554985046
1772376415295864600,4.694864501953125,-0.12751966078020632,0.8581193428531289,0.33038872318565843,-0.5398945212364197,-0.30295640230178833,-0.3045024573802948
1772376415305814500,4.704814453125,0.034953422622568904,0.8305661500170827,0.029052491483092305,-0.5205544233322144,-0.2723881006240845,-0.28910091519355774
1772376415315763500,4.714763427734375,0.22260164461843668,0.8185562710106372,-0.17851999937295912,-0.49094724655151367,-0.24037715792655945,-0.27266043424606323
1772376415325713400,4.72471337890625,0.3796032012749463,0.7274065120548009,-0.3209498637109995,-0.44575613737106323,-0.21128417551517487,-0.2421294003725052
1772376415335662300,4.734662353515625,0.47950292412582785,0.6675239980220794,-0.44786359448730945,-0.3910662531852722,-0.18051189184188843,-0.19965597987174988
1772376415345612500,4.744612548828125,0.5028269914921373,0.604139028826356,-0.4300812695592642,-0.3449082374572754,-0.16530776023864746,-0.16574370861053467
1772376415355561500,4.7545615234375,0.5110314868662506,0.45695583248138427,-0.3200134596437216,-0.3114701211452484,-0.15270541608333588,-0.13718102872371674
1772376415365511400,4.764511474609375,0.4719559793449938,0.2953182865872979,-0.22103227640986442,-0.284830778837204,-0.13211950659751892,-0.11527089774608612
1772376415375461600,4.774461669921875,0.4044141827307641,0.13386778769791124,-0.08968260901272296,-0.27358773350715637,-0.11435943096876144,-0.11405250430107117
1772376415385410600,4.78441064453125,0.36747199744377285,-0.014215864618122577,0.057091422009468075,-0.2652028501033783,-0.09932678192853928,-0.12157575786113739
1772376415395360500,4.794360595703125,0.3781482532262802,-0.1433922796294093,0.17224164975583553,-0.2582365572452545,-0.07918289303779602,-0.12917988002300262
1772376415405309400,4.804309326171875,0.37225320383831856,-0.28769465984106063,0.2847071684628725,-0.26394328474998474,-0.05892586708068848,-0.14379411935806274
1772376415415259600,4.814259765625,0.36763774593211707,-0.34967151580452915,0.3955184902220964,-0.2730734050273895,-0.0650668516755104,-0.15660393238067627
1772376415425209600,4.824209716796875,0.377106050696969,-0.4624690429449081,0.45678573661148547,-0.2829943895339966,-0.06737302243709564,-0.16554546356201172
1772376415435158500,4.834158447265625,0.4034191803440451,-0.5459758859321475,0.4750210660040378,-0.29568859934806824,-0.08933557569980621,-0.17463883757591248
1772376415445108500,4.8441083984375,0.39187399623990055,-0.6449331037685274,0.4949672909677028,-0.3082748055458069,-0.13716891407966614,-0.19575490057468414
1772376415455057400,4.854057373046875,0.3685714465856552,-0.7570686598688363,0.4317500795543194,-0.3114548623561859,-0.18378888070583344,-0.22036944329738617
1772376415465007600,4.864007568359375,0.3545160332262516,-0.825037449723482,0.24356793334484098,-0.30089348554611206,-0.2214599996805191,-0.24234043061733246
1772376415474956500,4.87395654296875,0.3322332916064188,-0.8369856616705655,0.031847090637683866,-0.2736959457397461,-0.2409583330154419,-0.267129123210907
1772376415484906500,4.883906494140625,0.33429899196457113,-0.8419464989483356,-0.15075520961284636,-0.23989856243133545,-0.2277669906616211,-0.29349854588508606
1772376415494856700,4.893856689453125,0.3665874696942046,-0.8595686648786067,-0.2567027247279882,-0.20346012711524963,-0.19076475501060486,-0.3135069012641907
1772376415504805600,4.9038056640625,0.4250836074024439,-0.8621057821407914,-0.2170984440922737,-0.1892763078212738,-0.15951189398765564,-0.32963311672210693
1772376415514755600,4.913755615234375,0.4985563649682328,-0.8870438240423798,-0.07910100924372672,-0.21330122649669647,-0.16589869558811188,-0.34511005878448486
1772376415524704500,4.92370458984375,0.5321344075843691,-0.9469131863325834,0.0501449638724327,-0.25808992981910706,-0.2091599553823471,-0.3599063456058502
1772376415534654500,4.933654541015625,0.5186052100561559,-1.0190881957054139,-0.028462124374508856,-0.3046627640724182,-0.27570784091949463,-0.38363218307495117
1772376415544603600,4.943603759765625,0.4523971462637186,-1.0720753972664474,-0.3040197716981172,-0.3348185122013092,-0.33626657724380493,-0.42663100361824036
1772376415554553600,4.9535537109375,0.37181824648715556,-1.0884598380953072,-0.7797732436299324,-0.33352741599082947,-0.37209489941596985,-0.4791485369205475
1772376415564503600,4.963503662109375,0.30635303695127364,-1.0274857294335962,-1.3126982170701027,-0.3044244050979614,-0.3613321781158447,-0.5164017081260681
1772376415574452500,4.973452392578125,0.2646905451441183,-0.9191247234359383,-1.6981471486985682,-0.26525887846946716,-0.34706857800483704,-0.532404363155365
1772376415584402700,4.983402587890625,0.27195370454750956,-0.825192348024249,-1.9786697249531744,-0.21437491476535797,-0.3232773542404175,-0.5275633931159973
1772376415594351600,4.9933515625,0.26286150308605283,-0.7590507735967635,-2.1386013437122107,-0.15259811282157898,-0.3099716901779175,-0.5022918581962585
1772376415604301600,5.003301513671875,0.13708614695621654,-0.6695604722857474,-2.2699591944158075,-0.08769530802965164,-0.2902666926383972,-0.46940580010414124
1772376415614251300,5.013251220703125,-0.044943650635983795,-0.6494251544907689,-2.270537871086597,-0.03089088387787342,-0.23568734526634216,-0.4410460591316223
1772376415624200700,5.02320068359375,-0.2605898866259493,-0.6959197791621089,-2.093534706017375,-0.001669574063271284,-0.18559160828590393,-0.4172813594341278
1772376415634150400,5.033150390625,-0.46276028097644445,-0.8385735153838991,-1.70075470084846,-0.023522408679127693,-0.21057605743408203,-0.4099305272102356
1772376415644099800,5.043099853515625,-0.715939507753402,-0.9658779990434646,-1.307727442920208,-0.05992348492145538,-0.32071971893310547,-0.42317625880241394
1772376415654049500,5.053049560546875,-1.138112999862805,-1.0480445333376527,-1.193816401579976,-0.09448599070310593,-0.47642916440963745,-0.47539445757865906
1772376415663998700,5.062998779296875,-1.6609654190346597,-1.07453272729069,-1.3175707915425299,-0.11953296512365341,-0.6609028577804565,-0.5723387002944946
1772376415673948400,5.072948486328125,-2.119958018040657,-1.089885486984253,-1.6991139479041097,-0.13205914199352264,-0.7842676639556885,-0.7159048914909363
1772376415683898600,5.082898681640625,-2.3729063586711883,-1.0973276196837425,-2.266062771499157,-0.11413063108921051,-0.8052215576171875,-0.8777769207954407
1772376415693847600,5.09284765625,-2.3906601881571112,-0.8707108211398125,-2.7766648539721963,-0.07780139148235321,-0.726875364780426,-1.0348341464996338
1772376415703797500,5.102797607421875,-2.1253755130447445,-0.5333335542410612,-3.0295822149425744,-0.006202832330018282,-0.5782368779182434,-1.1423041820526123
1772376415713746400,5.112746337890625,-1.5997113243877887,-0.1775894405245781,-3.080436203867197,0.10013505816459656,-0.39353519678115845,-1.1831046342849731
1772376415723696600,5.122696533203125,-1.0044657961130141,0.2035816676542163,-2.8434692762225864,0.21257230639457703,-0.20052064955234528,-1.1475178003311157
1772376415733645600,5.1326455078125,-0.5138847208729014,0.6172571613356471,-2.3069699514269826,0.31057503819465637,-0.04961049556732178,-1.0401194095611572
1772376415743595500,5.142595458984375,-0.1546064234145917,0.9791828862965106,-1.6537632325708864,0.39211294054985046,0.03715791925787926,-0.8801253437995911
1772376415753545500,5.15254541015625,0.0572141168073751,1.1939809444919227,-1.031555463090539,0.4667602777481079,0.06468221545219421,-0.6847718358039856
1772376415763494400,5.162494384765625,0.10196433636364527,1.194450607830286,-0.46683308337330814,0.5398141145706177,0.024160459637641907,-0.5119115710258484
1772376415773444600,5.172444580078125,-0.04770538870058953,1.0360001675397157,-0.03917114991545677,0.6304787397384644,-0.05272207409143448,-0.3916946053504944
1772376415783393500,5.1823935546875,-0.34789646895602344,0.8717664676725864,0.25665713202059265,0.7146464586257935,-0.15440738201141357,-0.33421599864959717
1772376415793343500,5.192343505859375,-0.7217212329600006,0.6920186800703406,0.5325999792695045,0.7732690572738647,-0.26011356711387634,-0.33631375432014465
1772376415803292400,5.20229248046875,-1.09851412605457,0.517481320592761,0.7817635406643152,0.7796069979667664,-0.34957316517829895,-0.3898979425430298
1772376415813242600,5.21224267578125,-1.4168636710740625,0.35854455808997154,1.0005120900511741,0.7365266680717468,-0.4156632125377655,-0.4901353120803833
1772376415823192600,5.222192626953125,-1.613047191300988,0.2955471269071102,1.1636229233682156,0.6386812329292297,-0.4425857663154602,-0.6226511001586914
1772376415833141500,5.2321416015625,-1.6876248779013752,0.26504940505176783,1.2924573930740355,0.48451775312423706,-0.4647406041622162,-0.7786598801612854
1772376415843091700,5.242091796875,-1.6194306087277828,0.32683775270581245,1.3314280519813297,0.2989158630371094,-0.4619726240634918,-0.9226577877998352
1772376415853040600,5.25204052734375,-1.3806377808302641,0.5003948689743876,1.132578965806961,0.12090513110160828,-0.4378475844860077,-1.0333582162857056
1772376415862990600,5.261990478515625,-1.0866449706930668,0.7522106984436512,0.7063450193256139,-0.012793176807463169,-0.4107849895954132,-1.089840292930603
1772376415872940500,5.2719404296875,-0.7628528692934662,0.9936591554164886,0.16686697098016737,-0.08623916655778885,-0.39342063665390015,-1.1047556400299072
1772376415882889500,5.281889404296875,-0.4395624338056892,1.1053811622798442,-0.29391046561598777,-0.10173796862363815,-0.37677356600761414,-1.101421594619751
1772376415892839700,5.291839599609375,-0.1690613574855961,1.203182780340314,-0.7857897274404764,-0.05360373109579086,-0.33395710587501526,-1.0709363222122192
1772376415902788600,5.30178857421875,0.004092922736285254,1.3199609015494584,-1.1824661555260418,0.03786958009004593,-0.2794789671897888,-1.0189288854599
1772376415912738600,5.311738525390625,0.13389059318476357,1.3612950747177004,-1.3974141435861587,0.16200163960456848,-0.20548328757286072,-0.946298360824585
1772376415922687500,5.3216875,0.24940054848846047,1.405964822049439,-1.4416075055778026,0.29361939430236816,-0.11000463366508484,-0.8589857220649719
1772376415932637700,5.3316376953125,0.32125666463784874,1.3994248988866804,-1.2511790417462587,0.4109193980693817,-0.03454103320837021,-0.7676345109939575
1772376415942587600,5.341587646484375,0.2636591197371483,1.3329863873392342,-0.812310654619336,0.49064451456069946,-0.0020569339394569397,-0.6969804167747498
1772376415952536600,5.35153662109375,0.14996460722442714,1.1528750271216035,-0.23145897787809372,0.5171850323677063,-0.011588120833039284,-0.6603536605834961
1772376415962486500,5.361486572265625,-0.08738794047059491,0.9339625193446874,0.2882967173874378,0.505943238735199,-0.04667871072888374,-0.6518629193305969
1772376415972435700,5.371435791015625,-0.363755424606055,0.7540291460424661,0.5747329016000032,0.48397427797317505,-0.06783246248960495,-0.6725034713745117
1772376415982385700,5.3813857421875,-0.6344472194589674,0.6232105167821049,0.7499146964609622,0.4506044089794159,-0.10158603638410568,-0.7063668370246887
1772376415992334600,5.39133447265625,-0.7583787195540964,0.503818413682282,0.8679974705278873,0.41407355666160583,-0.08602572232484818,-0.7552822232246399
1772376416002284500,5.401284423828125,-0.9233626532666385,0.44927959876507517,0.9738041158676147,0.35986679792404175,-0.06251947581768036,-0.8098057508468628
1772376416012234800,5.41123486328125,-1.0524677566073835,0.40904958744645115,1.061378938946128,0.3037942051887512,-0.050284117460250854,-0.8616801500320435
1772376416022183700,5.42118359375,-1.135639595486596,0.38880905571132895,1.0823533379137515,0.2521783113479614,-0.03152662143111229,-0.9037335515022278
1772376416032133600,5.431133544921875,-1.1955373801536857,0.37348026141524315,1.0576783308625222,0.19498211145401,-0.03255540132522583,-0.9555459022521973
1772376416042082600,5.44108251953125,-1.2480099101908504,0.3618234336301684,1.0027098923563957,0.15419459342956543,-0.05116861313581467,-1.0102362632751465
1772376416052032800,5.45103271484375,-1.276262921859324,0.38723318469673396,0.8757745342701673,0.128676176071167,-0.07555730640888214,-1.0629417896270752
1772376416061981700,5.460981689453125,-1.2311406084544956,0.4767585573211312,0.7347346629858017,0.12407512962818146,-0.10597636550664902,-1.103927493095398
1772376416071931600,5.470931640625,-1.2003382045641542,0.5842684994474053,0.6524608689248561,0.12988029420375824,-0.14137883484363556,-1.1240284442901611
1772376416081881600,5.480881591796875,-1.141395747860521,0.6748632548689841,0.5260556721925735,0.14492332935333252,-0.1578618586063385,-1.1240767240524292
1772376416091830500,5.49083056640625,-1.155653698054701,0.6810317143708468,0.48966801551580424,0.1479896903038025,-0.15704560279846191,-1.1298549175262451
1772376416101780700,5.50078076171875,-1.1929445871815085,0.6750391959577798,0.5460854837864637,0.14811213314533234,-0.15453480184078217,-1.1414588689804077
1772376416111729700,5.510729736328125,-1.19127738462165,0.7248956982776522,0.5922574523746967,0.12429149448871613,-0.15097762644290924,-1.1563968658447266
1772376416121679600,5.5206796875,-1.1265319407276808,0.7202510873422027,0.5922194584518671,0.10239747911691666,-0.1343327760696411,-1.1505417823791504
1772376416131629800,5.5306298828125,-1.0271831662904471,0.7292319739162921,0.5854693996697664,0.08945585042238235,-0.12308784574270248,-1.1411701440811157
1772376416141578800,5.540578857421875,-0.9859597600203007,0.8056967894375324,0.564328411963582,0.0882691964507103,-0.11352169513702393,-1.1127222776412964
1772376416151528700,5.55052880859375,-0.9528674916271119,0.8609712251529097,0.533492544195056,0.08775893598794937,-0.10950165241956711,-1.071866750717163
1772376416161477600,5.5604775390625,-0.8948189150232821,0.8494964759364724,0.49049979016482825,0.09775926172733307,-0.11872699856758118,-1.0263019800186157
1772376416171427800,5.570427734375,-0.8492994189944117,0.7342877960011363,0.44418928988873957,0.10929074883460999,-0.12109508365392685,-0.9766518473625183
1772376416181376800,5.580376708984375,-0.8891030215945094,0.6333081324264407,0.3831359785109758,0.1309029459953308,-0.12847694754600525,-0.9423102140426636
1772376416191326700,5.59032666015625,-0.9466780624024569,0.5210679469078779,0.3465951770991087,0.1543092131614685,-0.1354576200246811,-0.9226036071777344
1772376416201276400,5.6002763671875,-0.9904960152104496,0.41328970923423763,0.33343349770903585,0.17799203097820282,-0.14314450323581696,-0.9153926968574524
1772376416211225600,5.6102255859375,-1.0227100394643842,0.3617679040506482,0.3595294774740934,0.19656971096992493,-0.15459716320037842,-0.9047105312347412
1772376416221175600,5.620175537109375,-1.0928900025624781,0.3291314166009426,0.3926496567875147,0.19779904186725616,-0.1695038378238678,-0.8925952911376953
1772376416231124700,5.630124755859375,-1.1281990702223033,0.2695668824762106,0.4093663983106613,0.19087429344654083,-0.1790829598903656,-0.8837078213691711
1772376416241074700,5.64007470703125,-1.1121149275142699,0.19078356087952852,0.4178057253539562,0.17245134711265564,-0.18596488237380981,-0.878269612789154
1772376416251023600,5.650023681640625,-1.080038412034884,0.0912213628873229,0.38475218153595925,0.1529652625322342,-0.1862085610628128,-0.8791868090629578
1772376416260973600,5.6599736328125,-1.1093277079485355,0.0432893988892436,0.38126024776697154,0.1310611218214035,-0.1928439438343048,-0.8859919309616089
1772376416270923500,5.669923583984375,-1.1747409681014715,0.0019327216282486914,0.35551615017950533,0.10871002078056335,-0.19355075061321259,-0.8970954418182373
1772376416280872700,5.679872802734375,-1.1271589865848421,-0.038515900877118106,0.26450959908664223,0.10139576345682144,-0.17081524431705475,-0.9056253433227539
1772376416290822400,5.689822509765625,-0.9983373763605952,-0.0882470232516527,0.1806307079166174,0.1171579509973526,-0.13151365518569946,-0.9100954532623291
1772376416300771800,5.699771728515625,-0.846686679212749,-0.0679807725533843,0.22661972115337847,0.1371692270040512,-0.10424436628818512,-0.9112495183944702
1772376416310721500,5.709721435546875,-0.6592758096367121,-0.10243658438473939,0.38151685287654397,0.16525918245315552,-0.07694963365793228,-0.903423011302948
1772376416320670700,5.719670654296875,-0.37175212244838474,-0.17469839525818823,0.5840846673130988,0.17618276178836823,-0.06814225018024445,-0.8963087201118469
1772376416330620400,5.729620361328125,-0.1090032494239509,-0.25817718119472266,0.7964853089779615,0.17117202281951904,-0.05546853691339493,-0.8840909600257874
1772376416340570600,5.739570556640625,0.05308744706511497,-0.32511019826084375,1.0086696775436401,0.14281781017780304,-0.03851877152919769,-0.8705205917358398
1772376416350519600,5.74951953125,0.1945699475504458,-0.3945481838852167,1.3163608312308788,0.05879694223403931,-0.05378800258040428,-0.8749398589134216
1772376416360469500,5.759469482421875,0.31026714165508745,-0.5308604421257972,1.534556422910094,-0.07357325404882431,-0.07657844573259354,-0.8876475691795349
1772376416370418400,5.76941845703125,0.3936155792102217,-0.6623185383334755,1.544066594055295,-0.245417982339859,-0.08109063655138016,-0.9142935276031494
1772376416380368600,5.77936865234375,0.45353857138380405,-0.7313350836753845,1.400882111957669,-0.4345567524433136,-0.08410964906215668,-0.9552472829818726
1772376416390318600,5.789318603515625,0.3653101067021489,-0.7291475105032325,1.1509481507122516,-0.6234997510910034,-0.12578518688678741,-1.0224175453186035
1772376416400267500,5.799267578125,0.10399199713319539,-0.6009226971283554,0.6487555846661329,-0.7852440476417542,-0.21125099062919617,-1.102054476737976
1772376416410217500,5.809217529296875,-0.254154647680372,-0.31678865237832066,-0.12222177356779575,-0.8847943544387817,-0.3241482377052307,-1.1823680400848389
1772376416420166400,5.81916650390625,-0.7187354220822453,-0.020623978094756603,-1.0371487530529497,-0.9128999710083008,-0.4680849313735962,-1.270020604133606
1772376416430116600,5.82911669921875,-1.0472431538268923,0.2613876676738262,-2.110169614475965,-0.8537205457687378,-0.576055645942688,-1.3482574224472046
1772376416440065500,5.8390654296875,-1.1943977085992694,0.49423897669315336,-3.179007052734494,-0.6796600818634033,-0.5919747948646545,-1.400768756866455
1772376416450015500,5.849015380859375,-1.2237716871216893,0.734454092478752,-4.138468754994869,-0.3997200131416321,-0.4591293931007385,-1.4285521507263184
1772376416459965700,5.858965576171875,-1.0287767921574413,0.9486673365235329,-4.6249838594377035,-0.06753461807966232,-0.23595796525478363,-1.4077049493789673
1772376416469914600,5.86891455078125,-0.6398487862415612,1.225279169075191,-4.417213215661048,0.24052520096302032,-0.015932653099298477,-1.3166043758392334
1772376416479864600,5.878864501953125,-0.11352174976170062,1.496961728531122,-3.5793677222907543,0.4743403494358063,0.14131881296634674,-1.1430219411849976
1772376416489813500,5.8888134765625,0.36054493812695143,1.6587962583020328,-2.3936761749774216,0.6004208326339722,0.20114246010780334,-0.9263153076171875
1772376416499763700,5.898763671875,0.5896390865698456,1.6168267098397016,-1.260734805598855,0.6385535001754761,0.14862045645713806,-0.714078962802887
1772376416509712600,5.908712646484375,0.5612127641610801,1.3262258071631192,-0.4386281486302614,0.6249176263809204,0.06660895049571991,-0.5530173778533936
1772376416519662600,5.91866259765625,0.2777485814966261,1.0072650714427231,0.003587795358896255,0.6001067757606506,-0.050113238394260406,-0.47131913900375366
1772376416529612500,5.928612548828125,-0.16467209128439425,0.7199807459682226,0.18291911111474035,0.5643921494483948,-0.20601947605609894,-0.46203935146331787
1772376416539561500,5.9385615234375,-0.6052583882451057,0.4212371611073613,0.24621464846134183,0.5157070755958557,-0.3970082998275757,-0.5095205307006836
1772376416549511700,5.94851171875,-1.0899708271801472,0.16397008049488065,0.11917232286930084,0.4580940902233124,-0.5968292951583862,-0.5968263745307922
1772376416559460600,5.958460693359375,-1.6454660904772578,0.06449760661274194,-0.1949561703890562,0.3843645751476288,-0.7889910936355591,-0.7264636754989624
1772376416569410600,5.96841064453125,-2.244596643491834,0.13245412150770425,-0.6900736834824085,0.29365357756614685,-0.9412240982055664,-0.8870466947555542
1772376416579360800,5.97836083984375,-2.6523914085716007,0.30586423052102324,-1.2990478773802518,0.19979773461818695,-1.0522291660308838,-1.0515940189361572
1772376416589309700,5.988309814453125,-2.7667858495146036,0.5103431392759085,-2.01659350515604,0.12197031080722809,-1.0706182718276978,-1.199124813079834
1772376416599259600,5.998259765625,-2.741722427667677,0.7011459893777966,-2.7549299920260903,0.08974289894104004,-1.0000789165496826,-1.3266977071762085
1772376416609208600,6.00820849609375,-2.579148477706313,0.9592430910736321,-3.410124085307121,0.11861369758844376,-0.823707640171051,-1.4244979619979858
1772376416619158500,6.018158447265625,-2.243871544087678,1.3082377305299042,-3.7409547070413827,0.21342328190803528,-0.5963817238807678,-1.4741535186767578
1772376416629107700,6.028107666015625,-1.7703595674723385,1.6734741874739527,-3.6234704833894966,0.32985880970954895,-0.36298680305480957,-1.4551379680633545
1772376416639057700,6.0380576171875,-1.2540811929285525,2.02363436357826,-3.0793045694887637,0.4496444761753082,-0.15148663520812988,-1.349639892578125
1772376416649007600,6.048007568359375,-0.8365990004405379,2.3050419059738516,-2.2804256433725354,0.5497399568557739,-0.018269997090101242,-1.1733812093734741
1772376416658956500,6.05795654296875,-0.5386347293891013,2.3773709368646143,-1.311619189661741,0.6106864213943481,0.00004075933247804642,-0.9807785153388977
1772376416668906800,6.06790673828125,-0.4023414681099355,2.1973811572000383,-0.43811669197678565,0.6620708107948303,-0.05249621719121933,-0.8109732270240784
1772376416678855700,6.077855712890625,-0.5249380663394928,1.9590429412022232,0.22035949171483515,0.7049233913421631,-0.1576952040195465,-0.705639123916626
1772376416688805600,6.0878056640625,-0.8078837780877948,1.6944968094974755,0.6960159330129623,0.7345311045646667,-0.307949423789978,-0.6533098816871643
1772376416698754600,6.097754638671875,-1.0904568571314215,1.3731062162816523,1.0206441929757595,0.7429409027099609,-0.46579521894454956,-0.6578826308250427
1772376416708704800,6.107704833984375,-1.3593328347340226,1.0899386784762144,1.2350678649008273,0.7214694023132324,-0.6088751554489136,-0.7007725834846497
1772376416718654700,6.11765478515625,-1.6008564027696848,0.8423755380153656,1.3721049302846193,0.6670615673065186,-0.7537176609039307,-0.7742780447006226
1772376416728603600,6.127603759765625,-1.8003078387513756,0.6494952971175313,1.3762971212774515,0.589550256729126,-0.87026047706604,-0.8684559464454651
1772376416738553600,6.1375537109375,-1.9665859039276836,0.542864183652401,1.3277812199115753,0.4919262230396271,-0.9593197703361511,-0.9791901707649231
1772376416748502500,6.14750244140625,-2.0944582506030796,0.5703241452470421,1.1832961766093968,0.3964223265647888,-1.0197311639785767,-1.0951935052871704
1772376416758452700,6.15745263671875,-2.131782457477599,0.6678507457584142,0.9031886108964681,0.3044757843017578,-1.0417146682739258,-1.1957675218582153
1772376416768401700,6.167401611328125,-2.0179729768157,0.8138771732836961,0.5727870282292366,0.22962629795074463,-1.0200823545455933,-1.2715017795562744
1772376416778351600,6.1773515625,-1.837888504604995,0.9393933122217655,0.2862947299152612,0.16856195032596588,-0.9802528023719788,-1.3204609155654907
1772376416788301800,6.1873017578125,-1.6742245674498377,1.086917869350314,0.07523556598722934,0.11968255788087845,-0.9461478590965271,-1.3544588088989258
1772376416798250800,6.197250732421875,-1.4879834723055363,1.15617319188416,-0.059013329982757566,0.08666115254163742,-0.9265742897987366,-1.3749468326568604
1772376416808200700,6.20720068359375,-1.3307196114510298,1.2124302088961005,-0.2039922942817211,0.07729774713516235,-0.9070807695388794,-1.3788915872573853
1772376416818149600,6.217149658203125,-1.2102397131145,1.244184360553324,-0.2754261298984289,0.08731833845376968,-0.9174127578735352,-1.379688024520874
1772376416828099800,6.227099853515625,-1.0799848552167415,1.2282529241889715,-0.3038824090540409,0.10526138544082642,-0.9243100881576538,-1.3808104991912842
1772376416838049500,6.237049560546875,-0.9662582305327058,1.194120352962613,-0.27540684067606924,0.12754350900650024,-0.9113919138908386,-1.3904939889907837
1772376416847998700,6.246998779296875,-0.922918855021894,1.1867308272331953,-0.1283463939279318,0.13081094622612,-0.9048442840576172,-1.4047386646270752
1772376416857948400,6.256948486328125,-0.9012588118776679,1.1678776582032442,0.08848784627020359,0.10930246859788895,-0.9031485915184021,-1.4283908605575562
1772376416867897600,6.266897705078125,-0.8514438106119632,1.1349357580661772,0.3098907095581293,0.053026940673589706,-0.9046719074249268,-1.458074927330017
1772376416877847600,6.27684765625,-0.7988777570724487,1.1047075008019804,0.3898831146836281,-0.01085669919848442,-0.9021664261817932,-1.4873853921890259
1772376416887796700,6.286796630859375,-0.7196490297958255,1.0803107261702418,0.35449615948200225,-0.06217102333903313,-0.889118492603302,-1.5123368501663208
1772376416897746700,6.29674658203125,-0.6090016664266586,1.0925789638519285,0.21083061586916446,-0.09431120753288269,-0.8588805198669434,-1.5298548936843872
1772376416907696600,6.306696533203125,-0.456262589520216,1.09196112421453,0.06264028830826282,-0.09768330305814743,-0.8333154916763306,-1.5400718450546265
1772376416917645600,6.3166455078125,-0.34463103741928935,1.0873773035556078,-0.04874444942474365,-0.08496394753456116,-0.8057788610458374,-1.5393739938735962
1772376416927595500,6.326595458984375,-0.2460786009915173,1.0517688145577906,-0.038895840105414387,-0.06820813566446304,-0.8033072352409363,-1.5311057567596436
1772376416937544700,6.336544677734375,-0.13848229575604198,0.9891624285191297,0.042052258309721945,-0.05216570943593979,-0.8262062072753906,-1.5235852003097534
1772376416947494400,6.346494384765625,0.03343596726432443,0.9144114311784506,0.13684241959452628,-0.04823994264006615,-0.8503522872924805,-1.5144755840301514
1772376416957443800,6.35644384765625,0.13757716360986233,0.8197393433153629,0.20496026253104208,-0.05925840139389038,-0.874259889125824,-1.499544382095337
1772376416967393500,6.3663935546875,0.1501993292957544,0.7199269699543714,0.27705285431742666,-0.0888218879699707,-0.9058838486671448,-1.4918752908706665
1772376416977343500,6.376343505859375,0.17395517567545174,0.6172738202095032,0.2624900759577751,-0.13764970004558563,-0.9322376847267151,-1.4965060949325562
1772376416987292400,6.38629248046875,0.12370572851523756,0.5020283153951168,0.14737082787156106,-0.19320644438266754,-0.945834219455719,-1.5170092582702637
1772376416997242600,6.39624267578125,0.06940130687579513,0.4498305106461048,-0.05692249518334865,-0.247556671500206,-0.954429566860199,-1.547956109046936
1772376417007191600,6.406191650390625,0.05493979693353176,0.4489928907781839,-0.3907780176967382,-0.2873634696006775,-0.9463449716567993,-1.5747482776641846
1772376417017141500,6.4161416015625,0.04233838177472353,0.4250289546057582,-0.7768266687840223,-0.3214240074157715,-0.9115653038024902,-1.6056923866271973
1772376417027090400,6.42609033203125,0.12359101609438657,0.39948008732944723,-1.0826128656327725,-0.3369765877723694,-0.8998796343803406,-1.6197190284729004
1772376417037040600,6.43604052734375,0.28723376433104275,0.4060091968372464,-1.3706161530315875,-0.3300175666809082,-0.8975713849067688,-1.6326053142547607
1772376417046990600,6.445990478515625,0.39618016900122166,0.38780923101902004,-1.6996324188202618,-0.2777053415775299,-0.8568644523620605,-1.6269413232803345
1772376417056939500,6.455939453125,0.46466859881579875,0.43876755710095167,-2.0463491764724253,-0.19642284512519836,-0.8058079481124878,-1.5993313789367676
1772376417066889500,6.465889404296875,0.5759745722241699,0.464979564461112,-2.2475889571756125,-0.09730850905179977,-0.7501026391983032,-1.5523567199707031
1772376417076838400,6.47583837890625,0.621299860855192,0.4489332695454359,-2.310457209020853,0.008368199691176414,-0.7034505009651184,-1.48677659034729
1772376417086788600,6.48578857421875,0.6376822558574378,0.40649902618080375,-2.228715329879522,0.10092929750680923,-0.6897293925285339,-1.4255757331848145
1772376417096737500,6.495737548828125,0.5891016186922788,0.31842560593038793,-2.0680951443344355,0.18734842538833618,-0.7098857760429382,-1.370358943939209
1772376417106687500,6.5056875,0.4730035887017846,0.22452596374452113,-1.9111743978291749,0.26105913519859314,-0.7268854975700378,-1.3362281322479248
1772376417116637700,6.5156376953125,0.3285360810562968,0.12168956638723612,-1.7602677970468996,0.32281818985939026,-0.7532607913017273,-1.3186182975769043
1772376417126586600,6.525586669921875,0.19137188216149806,0.06251870775520801,-1.6559879228830336,0.37271302938461304,-0.7821741700172424,-1.3194955587387085
1772376417136536600,6.53553662109375,0.0035039164677262303,0.02733955008536577,-1.5998901880860328,0.4153056740760803,-0.7943119406700134,-1.3219666481018066
1772376417146485500,6.545485595703125,-0.16923749950379133,0.00940729529261589,-1.567692384314537,0.45767658948898315,-0.7938206195831299,-1.3320963382720947
1772376417156435500,6.555435546875,-0.2973650630492717,0.019097206918895243,-1.5053437724292278,0.4887102544307709,-0.7724819779396057,-1.349151849746704
1772376417166385700,6.5653857421875,-0.4372228849422186,0.0476376572266221,-1.3573492597013712,0.5224048495292664,-0.7708651423454285,-1.359318733215332
1772376417176334600,6.57533447265625,-0.5183487510770559,0.09739245273768901,-1.1841150917768477,0.5531930923461914,-0.7825993299484253,-1.3693642616271973
1772376417186284500,6.585284423828125,-0.610312529829517,0.13667875346541403,-1.0927443835467099,0.590123176574707,-0.7769667506217957,-1.3762234449386597
1772376417196233500,6.5952333984375,-0.6722678315483033,0.16802929275780915,-0.9517530275791883,0.6223286986351013,-0.7801321744918823,-1.3784937858581543
1772376417206183700,6.60518359375,-0.6840531080186366,0.14312310729920863,-0.7220207273632288,0.6383199095726013,-0.8148767948150635,-1.387176275253296
1772376417216132600,6.615132568359375,-0.6788063664715737,0.1298728728428483,-0.5527268214970826,0.6633804440498352,-0.8547524213790894,-1.3953019380569458
1772376417226082600,6.62508251953125,-0.791861156308651,0.22537673535495995,-0.46366029855608937,0.6923170685768127,-0.9015412330627441,-1.4036061763763428
1772376417236032800,6.63503271484375,-0.8772131157059222,0.2704749372318387,-0.33401743507683274,0.7085665464401245,-0.9340079426765442,-1.4220571517944336
1772376417245981700,6.644981689453125,-0.9069210023578256,0.24785949305891988,-0.13496259719729423,0.6957969665527344,-0.9790159463882446,-1.4543370008468628
1772376417255931600,6.654931640625,-0.9353523662678896,0.23351298779845236,0.0982861867070198,0.6486701369285583,-1.0530508756637573,-1.4951013326644897
1772376417265880600,6.664880615234375,-0.9653546327564865,0.25857611738443376,0.2884475240349769,0.5793435573577881,-1.1479480266571045,-1.5448178052902222
1772376417275830500,6.67483056640625,-1.1126103098157794,0.3567585514560342,0.4205272592723369,0.48832815885543823,-1.2791876792907715,-1.6192442178726196
1772376417285779700,6.68477978515625,-1.3489308293156326,0.5156543974265456,0.401893870472908,0.37960222363471985,-1.4408354759216309,-1.7094875574111938
1772376417295729700,6.694729736328125,-1.5274340236842632,0.7063193003624677,0.12254501417279243,0.2820332646369934,-1.5585960149765015,-1.8104400634765625
1772376417305679600,6.7046796875,-1.6427841579169034,0.9477090128853917,-0.469862075805664,0.21915893256664276,-1.5774365663528442,-1.8983659744262695
1772376417315628500,6.714628662109375,-1.6604340886369346,1.2776862326607108,-1.1211088927656412,0.18959856033325195,-1.5211716890335083,-1.9637459516525269
1772376417325578800,6.724578857421875,-1.5230284822016953,1.6093997747093438,-1.5245955853879452,0.1758611798286438,-1.4430084228515625,-1.9982751607894897
1772376417335527700,6.734527587890625,-1.1632656343631447,1.8516475653663276,-1.7493962744206188,0.1867569386959076,-1.3360282182693481,-1.9857814311981201
1772376417345477600,6.7444775390625,-0.7386997672244906,2.0338126432433725,-1.9443746566414832,0.2205657809972763,-1.1854884624481201,-1.9196157455444336
1772376417355427600,6.754427490234375,-0.3414103948723525,2.1910320804342627,-1.9220254621893167,0.2601492702960968,-1.029571294784546,-1.815090537071228
1772376417365376800,6.764376708984375,-0.09753679311182349,2.313336271588504,-1.607470852473378,0.27572956681251526,-0.9004825949668884,-1.6914846897125244
1772376417375326700,6.77432666015625,0.03135905139241368,2.2968919172659517,-1.1415221507191657,0.2559508681297302,-0.8178912997245789,-1.5629029273986816
1772376417385275600,6.784275634765625,0.0548428758976981,2.230440838497877,-0.6968079601734877,0.22718821465969086,-0.7606184482574463,-1.4348832368850708
1772376417395225600,6.7942255859375,-0.06961140596251934,2.134271790075302,-0.42698505710959433,0.2015555053949356,-0.7504778504371643,-1.3261091709136963
1772376417405174500,6.804174560546875,-0.2345710454840213,1.9379814484730362,-0.19526421342492103,0.19566193222999573,-0.8055717349052429,-1.2478532791137695
1772376417415124700,6.814124755859375,-0.3381904829777777,1.651211210000515,-0.09420973104834555,0.22270305454730988,-0.8884631991386414,-1.1945679187774658
1772376417425074700,6.82407470703125,-0.41433056005667895,1.394619836692512,-0.05631225433051586,0.2729491889476776,-0.9806951284408569,-1.174083948135376
1772376417435023600,6.834023681640625,-0.6642434419814497,1.2293249373346566,-0.05631400789618492,0.32745087146759033,-1.0412896871566772,-1.1894080638885498
1772376417444973800,6.843973876953125,-0.8845357867442071,1.1261676374599336,0.03923544732332229,0.3457576632499695,-1.0752136707305908,-1.225487470626831
1772376417454922800,6.8539228515625,-1.0495325799383222,1.0538464976146817,0.20508418117165564,0.32206934690475464,-1.1038895845413208,-1.2599223852157593
1772376417464872700,6.863872802734375,-1.0990593388471752,1.0131351325199007,0.3345458428651094,0.26309630274772644,-1.1104660034179688,-1.3212488889694214
1772376417474821600,6.873821533203125,-1.2004326779145746,0.9355091642647981,0.37447745575904845,0.20899932086467743,-1.0938527584075928,-1.3928606510162354
1772376417484771600,6.883771484375,-1.2209797183156013,0.9604290859878063,0.3434428505480289,0.16711045801639557,-1.0599355697631836,-1.4628461599349976
1772376417494721500,6.893721435546875,-1.1278065637733787,1.0255004008352755,0.3058914107888937,0.13985559344291687,-1.0206660032272339,-1.515893578529358
1772376417504670700,6.903670654296875,-0.9289258403517305,1.0882233989909291,0.2954500962734222,0.13636791706085205,-0.9780959486961365,-1.5458866357803345
1772376417514620400,6.913620361328125,-0.7025213693842292,1.1006558873236179,0.3217389682620764,0.1511150598526001,-0.929438591003418,-1.54525887966156
1772376417524569600,6.923569580078125,-0.5073691649664193,1.1135463485568762,0.42606618869900703,0.1618870198726654,-0.905527651309967,-1.5426543951034546
1772376417534519600,6.93351953125,-0.37441564256921406,1.0680655771031975,0.6430880604237318,0.15985704958438873,-0.9024701714515686,-1.5441101789474487
1772376417544468700,6.94346875,-0.3240439207362011,1.0387442055508493,0.7405781283169984,0.15620079636573792,-0.8805617094039917,-1.5391497611999512
1772376417554418700,6.953418701171875,-0.3460114589270204,0.9622773442029953,0.8712047421365976,0.1351117640733719,-0.8751716017723083,-1.547752022743225
1772376417564368600,6.96336865234375,-0.362749681629613,0.9064613489568233,0.9625988312423228,0.09052912145853043,-0.8661091327667236,-1.5771254301071167
1772376417574317600,6.973317626953125,-0.40177064595203843,0.8481967915147542,1.0396920077949763,0.03466455265879631,-0.8774840831756592,-1.6110562086105347
1772376417584267500,6.983267578125,-0.33561142627000806,0.7731088173046707,1.0851321549773216,-0.04008425399661064,-0.8968257904052734,-1.6590650081634521
1772376417594216700,6.993216796875,-0.2786578418286517,0.7173679331213235,1.0186018734931945,-0.11824245005846024,-0.9074695110321045,-1.7146434783935547
1772376417604166400,7.00316650390625,-0.2145450515487231,0.7820189767301082,0.8575374513119459,-0.18602202832698822,-0.9004390239715576,-1.7568676471710205
1772376417614116600,7.01311669921875,-0.10485330840395762,0.8797565896436571,0.6428261946171522,-0.24844755232334137,-0.8715003132820129,-1.769640326499939
1772376417624065500,7.0230654296875,0.0659027972355485,0.959049614328146,0.3691027769833803,-0.3032093048095703,-0.821370542049408,-1.7415701150894165
1772376417634015500,7.033015380859375,0.20726663977727292,1.047497128587961,0.10426350755095481,-0.3415452837944031,-0.7594265937805176,-1.6949238777160645
1772376417643964400,7.04296435546875,0.3737948803223669,1.0465826440915464,-0.15644377664327622,-0.36583223938941956,-0.7015190720558167,-1.6309622526168823
1772376417653914000,7.0529140625,0.523871058162488,0.9682844756633042,-0.42287995987832544,-0.35665324330329895,-0.6432444453239441,-1.5589534044265747
1772376417663863300,7.06286328125,0.6873471811279654,0.8883332793310285,-0.6648474722892046,-0.3110191822052002,-0.5857388377189636,-1.4810631275177002
1772376417673813200,7.072813232421875,0.790057614018023,0.8385922200843692,-0.7810521775245666,-0.2479693442583084,-0.5499495267868042,-1.3848176002502441
1772376417683763200,7.08276318359375,0.9030646922558545,0.7979249863922595,-0.7665086883872747,-0.17954367399215698,-0.519559383392334,-1.289503574371338
1772376417693712100,7.092712158203125,0.9375373090915381,0.6416895918026566,-0.6648994947373866,-0.12623754143714905,-0.5114418864250183,-1.1931833028793335
1772376417703662000,7.102662109375,0.9267068491280078,0.4682476263463497,-0.5158358914732932,-0.0899658203125,-0.5067123770713806,-1.0985997915267944
1772376417713611300,7.112611328125,0.8582307673383504,0.301274856904149,-0.35905776830911634,-0.0666806623339653,-0.5056591629981995,-1.0214382410049438
1772376417723561200,7.122561279296875,0.7152667961236089,0.11367927841097115,-0.2320177808046341,-0.05992182344198227,-0.48114368319511414,-0.9767144918441772
1772376417733510100,7.13251025390625,0.5853276531115174,-0.03306903364807367,-0.1591232249855995,-0.06436598300933838,-0.434304803609848,-0.9369916319847107
1772376417743460000,7.142460205078125,0.507815082103014,-0.11670768632143735,-0.10368132374882698,-0.07172456383705139,-0.4066295027732849,-0.9032368659973145
1772376417753410300,7.152410400390625,0.502772119499743,-0.2672486686617136,-0.025893735191226005,-0.08551221340894699,-0.3565707802772522,-0.8814095258712769
1772376417763359200,7.162359130859375,0.41121180698163806,-0.37500294093787667,0.021051555857062337,-0.09416802227497101,-0.3211265206336975,-0.869596540927887
1772376417773309200,7.17230908203125,0.3439540149405598,-0.3918254809230566,0.014093407282233237,-0.10004295408725739,-0.2861136496067047,-0.8470240831375122
1772376417783258000,7.182258056640625,0.25943636920927093,-0.42500002077221866,0.054256490844488144,-0.10053830593824387,-0.28309497237205505,-0.8383374214172363
1772376417793208300,7.192208251953125,0.23945273484466595,-0.5252841032981872,0.040374680486321445,-0.08445750921964645,-0.303913950920105,-0.8326841592788696
1772376417803157200,7.2021572265625,0.23084141223533078,-0.5741349357068538,-0.06572948649525642,-0.04674768075346947,-0.31494981050491333,-0.8223785161972046
1772376417813107200,7.212107177734375,0.17630703603122383,-0.5404164982393383,-0.1553548123627901,0.0029268364887684584,-0.34775999188423157,-0.8158025145530701
1772376417823057200,7.22205712890625,0.10492821853738278,-0.5982832885354757,-0.1894581574946642,0.05162353441119194,-0.3577689528465271,-0.8179109692573547
1772376417833006300,7.23200634765625,0.03753752083163708,-0.638359862858057,-0.17931962531805037,0.09684170037508011,-0.3527321219444275,-0.8151876926422119
1772376417842956300,7.241956298828125,0.021988434848375617,-0.6627832332357764,-0.1309106914579868,0.12231164425611496,-0.3291040360927582,-0.8164963722229004
1772376417852905200,7.2519052734375,-0.03990636885482818,-0.6734270845860243,-0.027233459362387656,0.12997739017009735,-0.2869144082069397,-0.8126668930053711
1772376417862855200,7.261855224609375,-0.0816385283647105,-0.6947495663389563,0.07822130379974841,0.12332853674888611,-0.22173859179019928,-0.8109244108200073
1772376417872805400,7.271805419921875,-0.1094285986965522,-0.6913271906748414,0.1637690049648285,0.11113383620977402,-0.16643378138542175,-0.8065513968467712
1772376417882754300,7.28175439453125,-0.1072074520483613,-0.7175932663097977,0.30100188518166543,0.09418574720621109,-0.13247235119342804,-0.8093120455741882
1772376417892704300,7.291704345703125,-0.012837598534859716,-0.7381596689984202,0.32691724768280983,0.0925460234284401,-0.10941215604543686,-0.7976171970367432
1772376417902653200,7.301653076171875,0.07445804227609187,-0.7418287128999829,0.38585751242935656,0.09868594259023666,-0.12639619410037994,-0.7828867435455322
1772376417912603400,7.311603271484375,0.14180208782851694,-0.7507216289296745,0.4602437681108713,0.10001251101493835,-0.17688144743442535,-0.7744545340538025
1772376417922552300,7.32155224609375,0.125988396092318,-0.8247375899940729,0.41213878563344475,0.10995488613843918,-0.18682196736335754,-0.7635312676429749
1772376417932502300,7.331502197265625,0.06527213464919478,-0.8034513485983014,0.30851182242035863,0.12060607969760895,-0.20650741457939148,-0.7508172392845154
1772376417942452200,7.3414521484375,0.045966618741862475,-0.8383554887190461,0.26614392229020595,0.11677911132574081,-0.2002766877412796,-0.751592755317688
1772376417952401200,7.351401123046875,-0.006553878622874617,-0.8673290697470307,0.18689327544271944,0.12705685198307037,-0.17876705527305603,-0.7499663233757019
1772376417962351400,7.361351318359375,-0.028259331811405716,-0.8498933662995696,0.14695406376421452,0.13240687549114227,-0.14491482079029083,-0.7404436469078064
1772376417972300300,7.37130029296875,-0.005441241205856204,-0.7964119514808058,0.140815414878726,0.14453129470348358,-0.120186947286129,-0.7217122316360474
1772376417982250200,7.381250244140625,0.05763732892181724,-0.7561638199836015,0.17315175033807753,0.1625393182039261,-0.1067209392786026,-0.6877633333206177
1772376417992199200,7.39119921875,0.10548822704032063,-0.7592217462494969,0.22330957369208335,0.18661527335643768,-0.09192412346601486,-0.6469700336456299
1772376418002149400,7.4011494140625,0.10616904891133308,-0.7897267746284604,0.2813829924762249,0.20422382652759552,-0.07727141678333282,-0.6105483770370483
1772376418012099300,7.411099365234375,0.0928915611218661,-0.8116676805406808,0.4029898490160703,0.2080947309732437,-0.06075236201286316,-0.5746521353721619
1772376418022048300,7.42104833984375,0.04623246660381555,-0.858022019958496,0.49937049436271186,0.20060193538665771,-0.04699260741472244,-0.5397610068321228
1772376418031998200,7.430998291015625,-0.010948606450483202,-0.9328370224460959,0.6103162561565637,0.17614200711250305,-0.03746461123228073,-0.5179017186164856
1772376418041947400,7.440947509765625,-0.05377440641596913,-0.9774696526378392,0.6316378611266613,0.1643465906381607,0.00577287282794714,-0.49827662110328674
1772376418051897300,7.4508974609375,-0.0763005648702383,-0.9886226225540041,0.6237164204776287,0.14948639273643494,0.02255478873848915,-0.4761602580547333
1772376418061846300,7.46084619140625,-0.024614728231355545,-1.0209893531516194,0.6712754595100879,0.1376294642686844,0.032988253980875015,-0.4577977657318115
1772376418071796200,7.470796142578125,0.00935140038691461,-1.0240689067274331,0.7269003160983324,0.13200119137763977,0.03551549091935158,-0.4278305768966675
1772376418081746400,7.480746337890625,0.024546923692151904,-1.003593397192657,0.783324798631668,0.12243299186229706,0.0024297088384628296,-0.41090965270996094
1772376418091695400,7.4906953125,0.067026905894652,-1.0474518281415104,0.7971008105278015,0.10699795186519623,0.006479465402662754,-0.3958451449871063
1772376418101645300,7.500645263671875,0.1006340650074184,-1.0404019096300006,0.7715303159415722,0.09184083342552185,-0.0015997663140296936,-0.37912821769714355
1772376418111594200,7.51059423828125,0.17778503616191446,-1.0468936097368597,0.8239332878738641,0.067626953125,-0.01023177057504654,-0.37664756178855896
1772376418121544400,7.52054443359375,0.22454963688105342,-1.0125576248928905,0.821503430378437,0.044067833572626114,-0.04503422603011131,-0.3705483675003052
1772376418131493400,7.530493408203125,0.2783025621175766,-0.9473296581789851,0.8150286814063787,0.012988250702619553,-0.11401893198490143,-0.3670302927494049
1772376418141443300,7.540443359375,0.3229205061968416,-0.8326400336816906,0.6881289791554213,-0.014251358807086945,-0.20882585644721985,-0.3709757626056671
1772376418151393300,7.550393310546875,0.22978914496973155,-0.7188473580241203,0.4563946914672851,-0.04936201870441437,-0.3044215738773346,-0.39259234070777893
1772376418161342500,7.560342529296875,0.07238616790547966,-0.5659665345594287,0.008082768690586089,-0.06676604598760605,-0.349556565284729,-0.40836358070373535
1772376418171292400,7.57029248046875,-0.0902444806791842,-0.358187415215373,-0.5391185673832893,-0.06612910330295563,-0.32961615920066833,-0.42082837224006653
1772376418181241300,7.580241455078125,-0.12272804258950054,-0.21799948458522556,-0.9536433713704348,-0.050550948828458786,-0.26596367359161377,-0.42736563086509705
1772376418191191300,7.59019140625,-0.03849237387105822,-0.11534458127468823,-1.1958335866212844,-0.022980745881795883,-0.17636211216449738,-0.4124901294708252
1772376418201141200,7.600141357421875,0.12088796768076718,0.023795301607251167,-1.3179296879827975,0.013225194066762924,-0.08724156767129898,-0.3698899447917938
