time,seconds_elapsed,accel_x,accel_y,accel_z,gyro_x,gyro_y,gyro_z
1772376384603518000,0.06651806640625,0.06033064139271155,-0.3219330295294523,0.020066051951050757,0.7165977954864502,-0.29784756898880005,0.3119853138923645
1772376384613467600,0.076467529296875,-0.20925903743719682,-0.22538579544425008,0.24316373645812273,0.6124681830406189,-0.26540493965148926,0.3098617196083069
1772376384623417600,0.08641748046875,-0.07083829914266243,-0.15835516322255133,0.5296773698210716,0.5205917954444885,-0.27478983998298645,0.31472671031951904
1772376384633366800,0.09636669921875,0.04171765606049448,-0.15865969912707806,0.7537135042220353,0.4353786110877991,-0.2806682288646698,0.30751219391822815
1772376384643316700,0.106316650390625,-0.20352696005860343,-0.27860066828131674,0.715461222717166,0.36048397421836853,-0.26920562982559204,0.28021439909935
1772376384653266700,0.1162666015625,-0.5337051274998114,-0.4892179336607456,0.5049830735474825,0.3102759122848511,-0.2867031395435333,0.2615392506122589
1772376384663217000,0.126216796875,-0.5921910726075992,-0.7367395730674267,0.3264642432183027,0.28701773285865784,-0.35322344303131104,0.26938366889953613
1772376384673165800,0.136165771484375,-0.28187844784297045,-0.8314303656309843,0.28702859714776274,0.2576175034046173,-0.39751553535461426,0.2854851484298706
1772376384683115800,0.14611572265625,-0.0530643767167814,-0.7592600324332713,0.31110651508867737,0.23683707416057587,-0.39558079838752747,0.2981416583061218
1772376384693065700,0.156065673828125,-0.16998174199983476,-0.639874359074235,0.20084172129631042,0.21451179683208466,-0.3949544131755829,0.2958279252052307
1772376384703015000,0.166014892578125,-0.31117800942230966,-0.5586129569262266,0.1293409579232335,0.19261310994625092,-0.3866247534751892,0.29324087500572205
1772376384712964900,0.17596484375,-0.38228429358508437,-0.5209878674089908,0.09828794027268886,0.16500012576580048,-0.36805427074432373,0.29072150588035583
1772376384722914800,0.185914794921875,-0.4229985447566956,-0.4449883313119411,0.19656915854364632,0.13601206243038177,-0.35468795895576477,0.2946043610572815
1772376384732864500,0.195864501953125,-0.4348911175264045,-0.39679391698539257,0.3542036062762141,0.106968954205513,-0.35452577471733093,0.28935182094573975
1772376384742814000,0.20581396484375,-0.5228430668216199,-0.4098404455631971,0.44851533639430996,0.08081607520580292,-0.36768829822540283,0.27317166328430176
1772376384752763600,0.215763671875,-0.5663426378628239,-0.4390127640336752,0.4335919080287218,0.06208047270774841,-0.39211878180503845,0.24394027888774872
1772376384762713600,0.225713623046875,-0.5852270422812551,-0.3295189546138048,0.3236544464945793,0.04311906918883324,-0.38268449902534485,0.20784030854701996
1772376384772663800,0.235663818359375,-0.676604034121707,-0.1969692637771368,0.1472381414026022,0.04892635717988014,-0.34357357025146484,0.17908215522766113
1772376384782612700,0.24561279296875,-0.6358448843624442,-0.04721884729266167,-0.06858779853582382,0.036955613642930984,-0.33289188146591187,0.18292517960071564
1772376384792562700,0.255562744140625,-0.27969094773605463,0.011491115829348563,0.2014937554642558,0.003729482414200902,-0.3103333115577698,0.19158364832401276
1772376384802512600,0.2655126953125,-0.12520478056711143,-0.009252396991848945,0.3387999931782484,-0.008750374428927898,-0.2981395125389099,0.20012520253658295
1772376384812461600,0.275461669921875,-0.1036282418547198,-0.2417810499280691,0.1964312113776803,-0.012217809446156025,-0.290738582611084,0.19689585268497467
1772376384822411800,0.285411865234375,-0.11523082783506251,-0.4772521860569715,0.16751666706055401,-0.010028097778558731,-0.307524710893631,0.1799795925617218
1772376384832361700,0.29536181640625,-0.04083739349409006,-0.6193827751874923,0.1406876968458295,-0.004642120562493801,-0.31478527188301086,0.16164585947990417
1772376384842311700,0.305311767578125,0.0453639401409775,-0.59827510522902,0.11698241160959005,-0.010505951941013336,-0.3350970149040222,0.15727442502975464
1772376384852260900,0.3152607421875,0.0987926292586606,-0.45298634432852264,0.13304624218195676,-0.02787082828581333,-0.3668597340583801,0.1571580469608307
1772376384862210800,0.3252109375,0.21957316364273427,-0.3183598472177982,0.13992051186561583,-0.045559849590063095,-0.37410011887550354,0.1665673851966858
1772376384872160800,0.335160888671875,0.29409754915330555,-0.2722159356802702,0.11096592779904603,-0.05123904347419739,-0.4037805199623108,0.18004058301448822
1772376384882109700,0.345109619140625,0.3447711765423417,-0.23254969572424888,-0.01591799236088991,-0.032667119055986404,-0.4269716143608093,0.2035817950963974
1772376384892060000,0.355059814453125,0.44464412098415196,-0.25507132413387296,-0.14765665907561779,-0.007270948030054569,-0.43607297539711,0.23578554391860962
1772376384902009600,0.365009521484375,0.49997949310652906,-0.28292145408987995,-0.19840601858198642,0.008002137765288353,-0.43130818009376526,0.26169782876968384
1772376384911959600,0.37495947265625,0.48128282981254156,-0.2321878766745329,-0.15094605600982902,0.015188944526016712,-0.4458850026130676,0.2900386452674866
1772376384921908700,0.38490869140625,0.633223669013381,-0.2851186718732118,-0.12646540248692034,0.0010638851672410965,-0.44898349046707153,0.3334682881832123
1772376384931858700,0.394858642578125,0.5792506712853909,-0.19558628498613834,-0.13054799562543629,-0.007239850703626871,-0.4643595218658447,0.32172828912734985
1772376384941808600,0.40480859375,0.5247995346516371,-0.11350304506123066,-0.1579918828681111,-0.01717844046652317,-0.4838595390319824,0.32762792706489563
1772376384951758600,0.414758544921875,0.6633911360010505,-0.20971593262553215,-0.13572569052428007,-0.044175438582897186,-0.4798080623149872,0.3320455849170685
1772376384961707800,0.424707763671875,0.6572099631480872,-0.2717079861581325,-0.10812076750099658,-0.0777483731508255,-0.45320194959640503,0.34346500039100647
1772376384971657700,0.43465771484375,0.6520744268905371,-0.43346974295377727,-0.18657529553472996,-0.11562465131282806,-0.4153813421726227,0.3603728711605072
1772376384981607700,0.444607666015625,0.5755116674201562,-0.6836205618202686,-0.27700404673963785,-0.13889537751674652,-0.4010854959487915,0.354188472032547
1772376384991556600,0.454556640625,0.4360732034504413,-0.8113099531441926,-0.3665238664060831,-0.15837399661540985,-0.4170072078704834,0.3227727711200714
1772376385001506800,0.4645068359375,0.36232670697718855,-0.8051572757333516,-0.38895635522752997,-0.1740533709526062,-0.46551817655563354,0.28585436940193176
1772376385011456800,0.474456787109375,0.3913037586038932,-0.7511673268705606,-0.4428770382463932,-0.17654848098754883,-0.511131227016449,0.26214903593063354
1772376385021406700,0.48440673828125,0.48940757448133076,-0.746589935952425,-0.6032920566082001,-0.194549560546875,-0.502293050289154,0.24091383814811707
1772376385031355600,0.494355712890625,0.5638292302697897,-0.7501514278262853,-0.7598810869410634,-0.2139778584241867,-0.46238693594932556,0.23931008577346802
1772376385041305900,0.504305908203125,0.7318959324285388,-0.7466197465687989,-0.8586401518568396,-0.23487810790538788,-0.4267238974571228,0.2429385781288147
1772376385051255800,0.514255859375,0.9173169433616101,-0.6873176627725363,-0.9666258948013186,-0.23704272508621216,-0.36507678031921387,0.24679936468601227
1772376385061205500,0.52420556640625,1.189903612050414,-0.5546838007837533,-1.0688634494826197,-0.19755613803863525,-0.32422786951065063,0.2682725191116333
1772376385071155000,0.534155029296875,1.4833748094663024,-0.42680619341135023,-0.9905822321891784,-0.16595107316970825,-0.3286822736263275,0.29307425022125244
1772376385081104600,0.544104736328125,1.7759633788287639,-0.2968669773340225,-0.7821382191956042,-0.14369000494480133,-0.3554205596446991,0.320657342672348
1772376385091054600,0.5540546875,1.9661109798923133,-0.17501169899106025,-0.5744885714501142,-0.131816565990448,-0.4104505181312561,0.343227356672287
1772376385101003500,0.56400341796875,1.884946608377993,-0.02650222247838974,-0.40454029332846403,-0.1467333883047104,-0.4970308542251587,0.34798842668533325
1772376385110953700,0.57395361328125,1.602037575378269,-0.01721300060749054,-0.42262715416103597,-0.15991362929344177,-0.6122013926506042,0.3328499495983124
1772376385120903700,0.583903564453125,1.3365652687393128,-0.15824059693217277,-0.7691507273286581,-0.13571567833423615,-0.7310499548912048,0.29412513971328735
1772376385130853600,0.593853515625,1.2906618879593907,-0.309773805180192,-1.1623308377310633,-0.11175362020730972,-0.8146833181381226,0.24384653568267822
1772376385140802600,0.603802490234375,1.5334489000596105,-0.4438742325901985,-1.3516207990519702,-0.08900929242372513,-0.8579527735710144,0.2239888310432434
1772376385150752800,0.613752685546875,1.8686247113913297,-0.5817179381817579,-1.2818477362543343,-0.10330034792423248,-0.8820485472679138,0.22043856978416443
1772376385160702700,0.62370263671875,1.9926810069099068,-0.828008574488759,-1.0126508561342955,-0.15163332223892212,-0.8864602446556091,0.21162641048431396
1772376385170651600,0.633651611328125,1.8495389026492832,-1.0668564935743807,-0.9569467968299984,-0.1788814663887024,-0.8857505321502686,0.205144003033638
1772376385180601900,0.643601806640625,1.4298393263727425,-0.9276245484948158,-1.0833543316498397,-0.21503600478172302,-0.872828483581543,0.18737740814685822
1772376385190551800,0.6535517578125,1.0242679364308713,-0.6195517020136118,-0.8958557837903499,-0.2427869439125061,-0.8672749400138855,0.1704098880290985
1772376385200501800,0.663501708984375,0.656621057344228,-0.3161246355116367,-0.6568031359128653,-0.2998029887676239,-0.8772733211517334,0.1408143937587738
1772376385210450700,0.67345068359375,0.18861622677780687,-0.09476210423409938,-0.34527883380353447,-0.37041884660720825,-0.8652797341346741,0.11052945256233215
1772376385220401000,0.68340087890625,-0.2186052319260314,-0.0654950932174921,-0.09478533897921443,-0.4445948600769043,-0.8398844003677368,0.09862349927425385
1772376385230350800,0.693350830078125,-0.4663572094898671,-0.12634265289008617,-0.0417751949340105,-0.4829976558685303,-0.8157463073730469,0.09722746908664703
1772376385240300500,0.703300537109375,-0.6045745706994086,0.12933657400906085,-0.3605146891191602,-0.46570008993148804,-0.8000065088272095,0.08998478204011917
1772376385250249700,0.713249755859375,-0.6836418968692421,1.1942810964822768,-0.6679232264727354,-0.3676813840866089,-0.7385311722755432,0.06835805624723434
1772376385260199700,0.72319970703125,-0.7429076672431081,3.0780992853522298,-0.5537263539284467,-0.20206178724765778,-0.6189829111099243,0.03899002447724342
1772376385270149600,0.733149658203125,-0.9762892106816172,5.094185425508022,-0.0460538951665163,-0.050601158291101456,-0.5068134665489197,0.009262757375836372
1772376385280098600,0.7430986328125,-1.2927385481029747,6.436346468427777,0.37856297150701285,0.04108787328004837,-0.3893490433692932,0.10602445900440216
1772376385290048800,0.753048828125,-1.1528269501961768,5.456711162188649,0.20375439387261865,0.0711728036403656,-0.20388038456439972,0.23534835875034332
1772376385299998700,0.762998779296875,-1.1021670225389302,1.5100941818267106,0.1744295151889324,0.034336578100919724,-0.04610680043697357,0.14251184463500977
1772376385309948700,0.77294873046875,-1.3465125161275266,-2.352130697146058,0.5208318000644445,-0.027151014655828476,-0.08604223281145096,-0.03955249488353729
1772376385319897600,0.782897705078125,-1.8452628327652811,-4.051189699992538,0.6964981635719537,-0.06852158904075623,-0.2633505165576935,-0.22175660729408264
1772376385329847800,0.792847900390625,-2.116074600736052,-4.059102372813225,0.5770680665493011,-0.09034805744886398,-0.43209826946258545,-0.34565508365631104
1772376385339797800,0.8027978515625,-1.6071350446477533,-3.2309096739292142,0.5995932020902633,-0.1811303198337555,-0.491455078125,-0.3647412657737732
1772376385349746700,0.81274658203125,-0.5590918264843523,-1.7125480144947767,1.0793155776530503,-0.3655552864074707,-0.4591759741306305,-0.2704051733016968
1772376385359696600,0.822696533203125,0.636576048181206,0.13852934976816175,1.7582964969739316,-0.5501891374588013,-0.46278902888298035,-0.09311643987894058
1772376385369646800,0.832646728515625,1.193494768410176,1.484826469579339,2.089778714484721,-0.6126804351806641,-0.5427523255348206,0.059763383120298386
1772376385379596800,0.8425966796875,0.6560949145782738,1.8046908761411904,1.655713928247243,-0.535754382610321,-0.6283356547355652,0.09893094003200531
1772376385389545700,0.852545654296875,-0.3550015517208725,1.1967758359074592,0.9185048379719257,-0.4048435091972351,-0.6907473802566528,0.03793523460626602
1772376385399496000,0.862495849609375,-0.9986352633286267,0.2500333299666643,0.6037216801971197,-0.3057507872581482,-0.7528335452079773,-0.048949409276247025
1772376385409446000,0.87244580078125,-1.2476355239205061,-0.1716723254352808,0.7937900785446167,-0.2712777554988861,-0.8126036524772644,-0.13698525726795197
1772376385419394800,0.882394775390625,-1.3279958855755627,0.005078326177597046,1.0835060150802134,-0.26957204937934875,-0.8646915555000305,-0.20358934998512268
1772376385429344800,0.8923447265625,-1.1489344728022812,0.22772388300299642,1.2493220157027243,-0.2747337818145752,-0.8801448345184326,-0.22387626767158508
1772376385439294700,0.902294677734375,-1.1176998149745165,0.4329349054247141,1.1094126097530126,-0.29318028688430786,-0.8331151008605957,-0.22004319727420807
1772376385449244700,0.91224462890625,-1.0015799384783952,0.3493307395428419,0.971692238280177,-0.32930073142051697,-0.8914098143577576,-0.21080975234508514
1772376385459193600,0.922193603515625,-0.8137274626147002,-0.027535072657465933,1.0467769976198673,-0.35818466544151306,-0.9463812708854675,-0.19323594868183136
1772376385469143600,0.9321435546875,-0.8632067291200161,-0.2878694318860769,0.7620733362883328,-0.3765293061733246,-0.8718700408935547,-0.19543786346912384
1772376385479093800,0.94209375,-1.1417466801900416,-0.4334469466000795,0.4698953935533762,-0.4202742278575897,-0.7565311193466187,-0.17942020297050476
1772376385489043700,0.952043701171875,-0.9009553719516843,-0.4149158491313457,0.39643618958890436,-0.48149949312210083,-0.6030166745185852,-0.1537443995475769
1772376385498992600,0.96199267578125,-0.48517377283647656,-0.18314941273927687,0.6007248364686966,-0.5348861217498779,-0.41902869939804077,-0.12361252307891846
1772376385508942800,0.97194287109375,-0.29289785450734196,0.024628829821944236,0.7101333056926726,-0.5454290509223938,-0.32131919264793396,-0.10592033714056015
1772376385518892800,0.981892822265625,-0.1510564575817436,0.18041092768609523,0.793920865317434,-0.5427518486976624,-0.28501754999160767,-0.09182694554328918
1772376385528841700,0.991841796875,0.2228069579321891,0.1985942346304655,0.8794045613355934,-0.5128317475318909,-0.24285171926021576,-0.0658416822552681
1772376385538791700,1.001791748046875,0.5996756562093273,0.1251034664839506,0.7259978143006562,-0.46658051013946533,-0.2205091416835785,-0.04259903356432915
1772376385548742000,1.011741943359375,0.7399591196358204,0.09942892700135707,0.6740199359126389,-0.44486507773399353,-0.26465263962745667,-0.04096917808055878
1772376385558691800,1.02169189453125,0.7593107397072016,-0.10898527537584304,0.8116647579312324,-0.4250255227088928,-0.27364352345466614,-0.046927519142627716
1772376385568640800,1.031640869140625,0.6138515176106244,-0.35724399688541886,0.689091686707735,-0.38991013169288635,-0.2625064551830292,-0.03715451806783676
1772376385578590700,1.0415908203125,0.4190478709021583,-0.5706780732512474,0.6167306532435118,-0.35952675342559814,-0.24183960258960724,-0.0330834686756134
1772376385588540700,1.051540771484375,0.16933401868082582,-0.6085416476994753,0.5613018306840211,-0.3304937779903412,-0.23006097972393036,-0.05008402094244957
1772376385598489900,1.06148974609375,-0.04946721074134111,-0.5532476305007934,0.5433342853821814,-0.3214060366153717,-0.24697326123714447,-0.07195174694061279
1772376385608439800,1.071439697265625,-0.030865203460864722,-0.41080139954984185,0.6144435652196407,-0.31457236409187317,-0.26213890314102173,-0.08933313190937042
1772376385618389200,1.08138916015625,0.06822067312332801,-0.17167933969795704,0.6090596071589738,-0.3114621043205261,-0.2792215347290039,-0.09498992562294006
1772376385628339500,1.09133935546875,0.23784066000552848,-0.08532499832510948,0.5616630652118474,-0.30205368995666504,-0.30281636118888855,-0.10487238317728043
1772376385638288400,1.101288330078125,0.40067704202905297,-0.06597147855758667,0.4857786068618297,-0.2734528183937073,-0.331213116645813,-0.11673498153686523
1772376385648238300,1.11123828125,0.5695235694538802,0.00795242030918598,0.4255703680060804,-0.24611946940422058,-0.3891488313674927,-0.12211856245994568
1772376385658188500,1.1211884765625,0.6681874303668737,0.08392799100875854,0.48205870955586433,-0.24136202037334442,-0.43164002895355225,-0.12788675725460052
1772376385668138500,1.131138427734375,0.6951686685338616,0.10073299533724785,0.4517471579223871,-0.24122540652751923,-0.44834575057029724,-0.11629243195056915
1772376385678087400,1.14108740234375,0.6812080207858234,0.04470364960134029,0.37127602936923504,-0.24270766973495483,-0.44670864939689636,-0.09975938498973846
1772376385688037400,1.151037353515625,0.6063064725259318,-0.04613981988430023,0.2775660645365715,-0.23889242112636566,-0.44643089175224304,-0.09268257021903992
1772376385697987600,1.160987548828125,0.49829468182474373,-0.17253157261312008,0.17222645218670368,-0.24001483619213104,-0.453084796667099,-0.08683301508426666
1772376385707936500,1.1709365234375,0.48995337179582565,-0.23929624737501143,0.07328216689713299,-0.23838365077972412,-0.4561687409877777,-0.07984701544046402
1772376385717886500,1.180886474609375,0.47452973882313815,-0.2522632809758186,-0.0621264205019921,-0.23054760694503784,-0.4469861090183258,-0.07773943245410919
1772376385727836400,1.19083642578125,0.4989750653043389,-0.20379881753623486,-0.10656177455596626,-0.2359282672405243,-0.4326215386390686,-0.07729495316743851
1772376385737786600,1.20078662109375,0.5020284980582073,-0.15138357064425945,-0.17013437527827918,-0.23034058511257172,-0.4271165430545807,-0.07966363430023193
1772376385747735600,1.210735595703125,0.4771157367283478,-0.11159516561329363,-0.24114633222110568,-0.2322186380624771,-0.41649240255355835,-0.08368953317403793
1772376385757685500,1.220685546875,0.47496743612065906,-0.11575579242408275,-0.29721418333649635,-0.2387164682149887,-0.39039871096611023,-0.09792974591255188
1772376385767635500,1.230635498046875,0.5220775988744571,-0.10604922192394733,-0.31043022326231,-0.2322993129491806,-0.36633360385894775,-0.10369841754436493
1772376385777584600,1.240584716796875,0.5180462975317612,-0.06772212161719798,-0.36397827357649803,-0.21631738543510437,-0.3572307527065277,-0.11082468926906586
1772376385787534600,1.25053466796875,0.466810835008882,-0.049265842950344085,-0.41442777335345743,-0.20522107183933258,-0.3439703583717346,-0.12056786566972733
1772376385797484300,1.260484375,0.5432396293686702,-0.1226858839482069,-0.38252683363668616,-0.19973739981651306,-0.3217729330062866,-0.12955671548843384
1772376385807434500,1.2704345703125,0.6005606223503127,-0.14002806389331818,-0.36680918615348634,-0.18971778452396393,-0.2871987223625183,-0.1276557445526123
1772376385817383400,1.280383544921875,0.5828386127747595,-0.16158698475062847,-0.3802320737630129,-0.17897549271583557,-0.25047069787979126,-0.12668606638908386
1772376385827333400,1.29033349609375,0.5984833411522209,-0.19605214893221853,-0.3241056973934173,-0.17186857759952545,-0.20284460484981537,-0.1318635195493698
1772376385837283300,1.300283447265625,0.5269476525962352,-0.2540425656080246,-0.2552935155171901,-0.16823574900627136,-0.15133364498615265,-0.14437520503997803
1772376385847232500,1.310232421875,0.427190480021201,-0.2975684036016464,-0.2625502817124128,-0.17884258925914764,-0.1090298742055893,-0.15936774015426636
1772376385857182500,1.320182373046875,0.3989298330355435,-0.23779519516229627,-0.29848091533668336,-0.19832462072372437,-0.04222175478935242,-0.17372044920921326
1772376385867132400,1.33013232421875,0.45509939095973967,-0.1907645639181137,-0.3091331691890955,-0.22776372730731964,0.012553078122437,-0.17988726496696472
1772376385877082600,1.34008251953125,0.5272425438895821,-0.13210779228806496,-0.34099363076500594,-0.25292831659317017,0.07124840468168259,-0.17982354760169983
1772376385887031600,1.350031494140625,0.5611501472536474,-0.12208499544560908,-0.4539660030156374,-0.25583726167678833,0.12678943574428558,-0.17227189242839813
1772376385896981500,1.3599814453125,0.6043959992621094,-0.13610241488218305,-0.5703952011892571,-0.24567744135856628,0.16825629770755768,-0.15744978189468384
1772376385906931500,1.369931396484375,0.7055253735058009,-0.18207506150603292,-0.5804887251803651,-0.23430466651916504,0.18506911396980286,-0.15262387692928314
1772376385916881700,1.379881591796875,0.8014534527793526,-0.2818213838934898,-0.45704584885239596,-0.2265568971633911,0.1570064276456833,-0.15381190180778503
1772376385926830600,1.38983056640625,0.9794755856327712,-0.2873345943570137,-0.2972498391717672,-0.21549731492996216,0.08018860965967178,-0.1521138697862625
1772376385936780500,1.399780517578125,1.2831385067172347,-0.24965631334781646,-0.15071951724495739,-0.21284502744674683,-0.027233276516199112,-0.15092365443706512
1772376385946730500,1.40973046875,1.6043237866193054,-0.2816466118484735,-0.12741112237181515,-0.21177522838115692,-0.09431856870651245,-0.14908473193645477
1772376385956679700,1.4196796875,1.7407967883795499,-0.2426964112073183,-0.25921675337553024,-0.21956883370876312,-0.12506940960884094,-0.13709598779678345
1772376385966629600,1.429629638671875,1.7673381738245486,-0.16761223638951778,-0.46604514786601065,-0.2500162124633789,-0.0822010412812233,-0.12211598455905914
1772376385976579300,1.439579345703125,1.6229776336848736,-0.19369886380434034,-0.6147177059859037,-0.28860244154930115,0.0014009438455104828,-0.09755189716815948
1772376385986528500,1.449528564453125,1.4941341038897633,-0.3116793465405702,-0.6732593268036842,-0.32681429386138916,0.08206942677497864,-0.07825276255607605
1772376385996478500,1.459478515625,1.4848023580513894,-0.4310024760574102,-0.6644915715236216,-0.34974536299705505,0.11094335466623306,-0.08719837665557861
1772376386006428400,1.469428466796875,1.6155702800378202,-0.48113867210149763,-0.653306087577343,-0.35290226340293884,0.14818315207958221,-0.10748367011547089
1772376386016378400,1.47937841796875,1.9227543609857558,-0.3689455405950546,-0.5702993030667305,-0.3273860812187195,0.1667567640542984,-0.122481569647789
1772376386026327300,1.489327392578125,2.2179016749203204,-0.2259130341887474,-0.4193716594964266,-0.27917301654815674,0.16222593188285828,-0.11246888339519501
1772376386036277500,1.499277587890625,2.2192286857403816,-0.14700783977806567,-0.37994916516840455,-0.22179849445819855,0.10883839428424835,-0.10327719897031784
1772376386046227500,1.5092275390625,2.0517647717803715,-0.09345569781064987,-0.4767518353193998,-0.1499200463294983,0.07917584478855133,-0.10222498327493668
1772376386056177400,1.519177490234375,1.9247651162862776,-0.24358429995775221,-0.6463385866522788,-0.05362198129296303,0.04923883080482483,-0.11237552762031555
1772376386066126600,1.529126708984375,1.9370783621534704,-0.4444926567494869,-0.5931675529569387,0.05071773752570152,-0.017016887664794922,-0.10810115188360214
1772376386076076500,1.53907666015625,2.001461840867251,-0.476199462133646,-0.1424970752221998,0.12158431857824326,-0.1047210544347763,-0.07689715176820755
1772376386086026500,1.549026611328125,2.097875950092077,-0.20159107835888862,0.5060036487668752,0.1666969358921051,-0.19861052930355072,0.023331180214881897
1772376386095975400,1.558975341796875,2.0585380653075873,0.3096995709002018,1.010500984624028,0.20953276753425598,-0.32360920310020447,0.14874807000160217
1772376386105925600,1.568925537109375,1.921261053688079,1.003591351366043,1.2484838113129137,0.30459296703338623,-0.4783732295036316,0.2885938286781311
1772376386115875600,1.57887548828125,1.696069757902622,1.5648603757590054,1.082569026491046,0.4496799111366272,-0.6087110638618469,0.40490150451660156
1772376386125825300,1.5888251953125,1.0926048289455472,1.919037386289239,0.5845914477914571,0.5747459530830383,-0.6078277230262756,0.43476006388664246
1772376386135774500,1.5987744140625,0.1211008432464674,1.994480457547307,0.08888532115519046,0.6818180680274963,-0.5071225762367249,0.43486544489860535
1772376386145724400,1.608724365234375,-0.699480832644552,2.2378537451028824,-0.32143848747815934,0.7438044548034668,-0.2953386604785919,0.3997626006603241
1772376386155674400,1.61867431640625,-1.4428044602774084,2.478042557403445,-0.1655891695966944,0.7927792072296143,-0.050920285284519196,0.38671597838401794
1772376386165623600,1.62862353515625,-1.7390474604941903,2.611501764300465,0.2660726471522823,0.8742426037788391,0.2027018666267395,0.3914009928703308
1772376386175573500,1.638573486328125,-2.029032277099043,2.2076737108945843,0.5262486009487882,0.9690815806388855,0.34930816292762756,0.34842249751091003
1772376386185523500,1.6485234375,-2.4341392643995583,1.2438853776067496,0.7372901196222752,1.083126187324524,0.3920082449913025,0.28117474913597107
1772376386195473400,1.658473388671875,-2.4392234357960523,-0.02668517782986164,0.780066673618555,1.1825331449508667,0.39380690455436707,0.31499719619750977
1772376386205422300,1.66842236328125,-1.6577321362018584,-0.38220892679393287,0.763840857417509,1.2633241415023804,0.49960365891456604,0.4634564220905304
1772376386215372500,1.67837255859375,-1.0279138917177915,-0.10044891769886016,0.41877237842902537,1.3210062980651855,0.6363580822944641,0.5722075700759888
1772376386225322500,1.688322509765625,-0.9971664328850806,-0.2324310377806425,-0.02429382571391761,1.329861044883728,0.7491096258163452,0.6158573031425476
1772376386235271400,1.698271484375,-1.1891687219046057,0.04308160135746002,-0.24059257079586385,1.4872857332229614,0.8225995898246765,0.5856412053108215
1772376386245221400,1.708221435546875,-1.5956503585591912,0.640413288256526,-1.1450731211990117,1.703260064125061,0.7935817837715149,0.5743177533149719
1772376386255171600,1.718171630859375,-1.3018437917090953,1.2177297766089439,-1.1886292082004248,1.7216293811798096,0.7506186366081238,0.6042913794517517
1772376386265121500,1.72812158203125,-0.5069183524589985,1.047877652338147,-0.5508037444800138,1.6025581359863281,0.6541285514831543,0.5792430639266968
1772376386275070500,1.738070556640625,-0.1478838462944608,0.9544985268950462,-0.2495999069854617,1.4519778490066528,0.5717271566390991,0.5072265267372131
1772376386285020700,1.748020751953125,0.012819167829025537,1.0008733245790005,-0.028663784426450727,1.3328442573547363,0.35735762119293213,0.44041046500205994
1772376386294970600,1.757970703125,0.00924697189806029,1.0998182674556969,0.06437953319102525,1.2224808931350708,0.10814283788204193,0.3545059561729431
1772376386304919600,1.76791943359375,-0.1215798041361384,0.9895067119121551,0.2763713017940521,1.110995888710022,-0.04506295919418335,0.2969062924385071
1772376386314869500,1.777869384765625,-0.10654330731751396,0.3867547535300255,0.39782764394730324,1.02646005153656,-0.1467369943857193,0.2601688802242279
1772376386324819500,1.7878193359375,-0.15096702573262155,0.10267010087966918,0.36928690137863157,0.9432325959205627,-0.16725026071071625,0.23370212316513062
1772376386334769400,1.797769287109375,-0.1514163404027,0.09387187739610671,0.5409127573236823,0.8354257941246033,-0.20105601847171783,0.24558088183403015
1772376386344718300,1.80771826171875,-0.013155578442849218,0.04246200815439224,0.9965718279927969,0.7264204621315002,-0.21404744684696198,0.24089691042900085
1772376386354668300,1.817668212890625,-0.30405429502222686,-0.098116090837121,1.3623340623766182,0.6314055323600769,-0.1941322386264801,0.21120978891849518
1772376386364618500,1.827618408203125,-0.9793754862591624,-0.44475043090283867,1.4256658400803803,0.5505183935165405,-0.1669861078262329,0.15622803568840027
1772376386374567400,1.8375673828125,-1.5295685514949262,-0.8504466162681579,1.2804326087594031,0.4744681417942047,-0.17015710473060608,0.09906050562858582
1772376386384517400,1.847517333984375,-1.658250753248483,-1.212954817292094,1.1586132785126566,0.4081394672393799,-0.21865859627723694,0.03284446895122528
1772376386394467600,1.857467529296875,-1.5317060019150375,-1.4205261391043662,0.9382219303548336,0.351642906665802,-0.24204815924167633,-0.004569855518639088
1772376386404417500,1.86741748046875,-1.1477733931336551,-1.4981132366538046,0.6650035396337509,0.2978784739971161,-0.20093801617622375,-0.014188926666975021
1772376386414366500,1.877366455078125,-0.8411543256573378,-1.4332014962822197,0.4754775775998831,0.25816699862480164,-0.12965548038482666,-0.02605559676885605
1772376386424316400,1.88731640625,-0.7240832128509879,-1.2800725432753561,0.4412997059270739,0.20674404501914978,-0.07977581769227982,-0.03665071725845337
1772376386434266600,1.8972666015625,-0.6269366976983844,-1.1772364381790161,0.4552583809137344,0.15381230413913727,-0.01962953433394432,-0.04557841271162033
1772376386444215600,1.907215576171875,-0.6556224016956984,-1.0673434003084898,0.4814399931356311,0.09293990582227707,0.014631233178079128,-0.0476202592253685
1772376386454165500,1.91716552734375,-0.6702303343713283,-1.0616846438944338,0.48823067618906496,0.04420652613043785,0.05039701238274574,-0.05520240589976311
1772376386464115500,1.927115478515625,-0.7730093024529516,-1.1032289526820183,0.4692658634781837,0.004669500514864922,0.046743687242269516,-0.06070609390735626
1772376386474065700,1.937065673828125,-0.7419602303251623,-0.9264783010691404,0.4701765485823154,-0.030585262924432755,0.04314001649618149,-0.060829486697912216
1772376386484014600,1.9470146484375,-0.6892571064025164,-0.7553589333415031,0.5604109462589025,-0.06035194545984268,0.04058711230754852,-0.081339031457901
1772376386493964500,1.956964599609375,-0.809434806922078,-0.7560790643095969,0.6025844928607345,-0.09535956382751465,0.03966985642910004,-0.11740545928478241
1772376386503914500,1.96691455078125,-0.8141931073650718,-0.902314166149497,0.5786366310402751,-0.14390499889850616,0.08855990320444107,-0.16746649146080017
1772376386513863700,1.97686376953125,-1.0555278017651288,-1.148073472058773,0.5600204856365919,-0.2029442936182022,0.08808083087205887,-0.233462393283844
1772376386523813400,1.9868134765625,-0.9694495008546858,-1.1520879683971403,0.47839609539508815,-0.2850993573665619,0.10024800896644592,-0.2521575093269348
1772376386533763300,1.996763427734375,-0.471448322083801,-1.0599503674477337,0.5152855641141534,-0.3657887279987335,0.11202731728553772,-0.27538055181503296
1772376386543713500,2.006713623046875,-0.3036887496454641,-0.9368512265235185,0.3421437506482005,-0.4348450303077698,0.13675931096076965,-0.28992512822151184
1772376386553662500,2.016662353515625,-0.11836255912268534,-0.7808405806005001,0.034683483107388016,-0.48771172761917114,0.17306682467460632,-0.2695128917694092
1772376386563612400,2.0266123046875,0.2733149464307353,-0.7595318351119756,-0.2801505280718207,-0.516185998916626,0.2525416910648346,-0.23671181499958038
1772376386573562400,2.036562255859375,0.49933659209311004,-0.674714201787114,-0.569071222576499,-0.5285733938217163,0.3300459384918213,-0.211136594414711
1772376386583511600,2.046511474609375,0.6092843923581763,-0.55541737575531,-0.7898527390956879,-0.5183442234992981,0.3470017611980438,-0.1613440066576004
1772376386593461500,2.05646142578125,0.8361650660026818,-0.6404454369604587,-0.9433318207144736,-0.48617053031921387,0.3574770390987396,-0.1185763031244278
1772376386603411500,2.066411376953125,0.9519507421083748,-0.6823848825454711,-0.9715393858060241,-0.44039586186408997,0.32858678698539734,-0.08472193032503128
1772376386613362200,2.076362060546875,1.0882817050494253,-0.5201385571032762,-1.0058709867358206,-0.4044293165206909,0.268865704536438,-0.07478862255811691
1772376386623311000,2.08631103515625,1.1404920770190656,-0.1699456477731466,-0.9886477569952606,-0.3945053219795227,0.22467906773090363,-0.05798407644033432
1772376386633261300,2.09626123046875,1.2669722386837006,0.01940145056247711,-0.9774480253279209,-0.39532962441444397,0.19612471759319305,0.006681689992547035
1772376386643211000,2.1062109375,1.4017711697518824,-0.12106968092322348,-1.1263093840181826,-0.3906344771385193,0.18642760813236237,0.047534581273794174
1772376386653160200,2.11616015625,1.2817385767914353,-0.1024257707297802,-1.3456284267693757,-0.3736831843852997,0.18570031225681305,0.05514509603381157
1772376386663110100,2.126110107421875,1.1713456265747546,0.07418693371713161,-1.5254939955323934,-0.3345291316509247,0.19227005541324615,0.09420248121023178
1772376386673060000,2.13606005859375,1.3711647268250584,-0.011827800437808036,-1.6600936046361923,-0.2619404196739197,0.22306327521800995,0.2167474776506424
1772376386683010000,2.146010009765625,1.9016991518668829,-0.3954413333326578,-1.8278806130707264,-0.16832764446735382,0.2326439917087555,0.2675155997276306
1772376386692959000,2.155958984375,1.915227911003679,-0.36049861476719375,-1.8699989223539828,-0.06589435040950775,0.23876617848873138,0.3205487132072449
1772376386702909000,2.165908935546875,2.0538811794124543,-0.438821040853858,-1.6301742671906947,0.010102413594722748,0.2527658939361572,0.379077285528183
1772376386712859100,2.175859130859375,2.079629222522676,-0.4640758936196565,-1.2368559173613787,0.03368610888719559,0.21571528911590576,0.4241902828216553
1772376386722808000,2.18580810546875,1.8739602272003888,-0.40003567538559437,-0.8051460236869752,0.015253838151693344,0.13194048404693604,0.4302431046962738
1772376386732758000,2.195758056640625,1.5170473619654774,-0.34556232692003247,-0.6035824178569018,-0.029030507430434227,0.022578459233045578,0.40401986241340637
1772376386742708200,2.205708251953125,1.1940157235443591,-0.3073895403921604,-0.7169348024010658,-0.05895085260272026,-0.10409479588270187,0.36014240980148315
1772376386752658200,2.215658203125,1.034265964158252,-0.30701661542654035,-1.131855327707529,-0.0633092075586319,-0.1908639818429947,0.30271244049072266
1772376386762607000,2.225607177734375,1.092588097006455,-0.4939104753911495,-1.6874354928091166,-0.01827222853899002,-0.2671206593513489,0.2427508383989334
1772376386772557000,2.23555712890625,1.3756982786014675,-0.6938865197688341,-2.2484283306092023,0.06377812474966049,-0.338253915309906,0.17387160658836365
1772376386782507300,2.24550732421875,1.7081185076147316,-0.733090987432003,-2.704816884596646,0.14897771179676056,-0.3619392514228821,0.13693515956401825
1772376386792456200,2.255456298828125,1.9860724024251102,-0.6921282779246568,-2.908853894802928,0.20512405037879944,-0.33477169275283813,0.12730108201503754
1772376386802406100,2.26540625,2.0161296870365737,-0.5343342557162046,-2.9938971535772083,0.2759771943092346,-0.31286850571632385,0.12773464620113373
1772376386812356000,2.275356201171875,1.7226827472791075,-0.3703501466959715,-3.022185967211425,0.34304553270339966,-0.29845893383026123,0.12000232934951782
1772376386822306000,2.28530615234375,1.2053341131553053,-0.27185119402110575,-2.5304502055108546,0.31232941150665283,-0.3051815330982208,0.10016337782144547
1772376386832255200,2.295255126953125,0.5155527271503583,-0.22476035702228545,-1.3384900993220508,0.22193628549575806,-0.34436869621276855,0.07017071545124054
1772376386842205000,2.305204833984375,-0.06288987915515899,-0.2961749034166336,-0.23652765944451093,0.09417087584733963,-0.40948858857154846,0.0674324482679367
1772376386852155100,2.315155029296875,-0.4198965966859832,-0.34975101078152654,0.6905471462130546,-0.12307022511959076,-0.4708484709262848,0.10401175916194916
1772376386862104000,2.32510400390625,-0.7854379913933575,-0.05605506469905376,1.465243817231059,-0.37651875615119934,-0.5260400772094727,0.13071580231189728
1772376386872054000,2.335053955078125,-1.375436412794888,1.3286673550963402,1.3943395584464073,-0.40622058510780334,-0.5301040410995483,0.1352526694536209
1772376386882004000,2.34500390625,-1.6133946895644067,4.107735178557038,0.41078444841504097,-0.23135584592819214,-0.43231332302093506,0.14381366968154907
1772376386891953000,2.354952880859375,-1.2921418973840773,6.468837702187895,-0.155567578330636,-0.03401750698685646,-0.28971001505851746,0.2060420960187912
1772376386901903000,2.364903076171875,-0.7205237668037414,7.362720140078664,-0.6035116907082497,0.00844579841941595,0.012015477754175663,0.369623064994812
1772376386911853000,2.37485302734375,0.24042444768734275,4.643250753012299,-0.8039324101135135,-0.05549962818622589,0.3220739960670471,0.4002475440502167
1772376386921803000,2.384802978515625,-0.07270027535595,-0.5485118341505527,-0.5082894216164946,-0.055578991770744324,0.26545068621635437,0.1750197410583496
1772376386931752200,2.394752197265625,-2.278915384940058,-3.7796056324750182,-0.49285979729443785,0.011614024639129639,-0.08106188476085663,-0.16512183845043182
1772376386941702100,2.4047021484375,-3.891394567094743,-4.621467960271239,-0.10578194928988814,-0.03080880083143711,-0.3837178945541382,-0.46891075372695923
1772376386951652000,2.414652099609375,-3.568009877452254,-4.002858507543802,1.066600472986698,-0.1904015839099884,-0.4705941081047058,-0.579455554485321
1772376386961601000,2.42460107421875,-2.041816939870268,-2.329779164606333,1.9887895524293182,-0.4130921959877014,-0.46996667981147766,-0.48450344800949097
1772376386971551200,2.43455126953125,-0.5334745701469481,-0.04938450089395046,2.572557408878207,-0.6412842869758606,-0.42792364954948425,-0.26876401901245117
1772376386981501200,2.444501220703125,0.48007966456785794,1.664534801954031,2.809954544633627,-0.7550273537635803,-0.4074239432811737,-0.07359107583761215
1772376386991451100,2.454451171875,0.22621464748382566,2.0120494319856164,1.9903110629081724,-0.7013819217681885,-0.42699554562568665,-0.020081497728824615
1772376387001400000,2.464400146484375,-0.9943724182523787,1.1641641906380653,0.7416179927587508,-0.5629944801330566,-0.47368237376213074,-0.08489377796649933
1772376387011350300,2.474350341796875,-1.6587934818230567,0.0002712181568145752,0.18814941298365592,-0.45420172810554504,-0.45986858010292053,-0.15975922346115112
1772376387021300000,2.484300048828125,-1.5622556000880896,-0.220287011000514,0.35154110906869174,-0.42596423625946045,-0.423893541097641,-0.23413439095020294
1772376387031249200,2.494249267578125,-1.348675247119367,-0.026346739655733108,0.8141169733889401,-0.4449109435081482,-0.41157016158103943,-0.29560109972953796
1772376387041199000,2.50419921875,-1.104366724540293,-0.01470890883207321,0.966905734656006,-0.4632292091846466,-0.42790335416793823,-0.31071242690086365
1772376387051149000,2.514149169921875,-0.5512209469787777,-0.16037643991708755,1.0466695917226374,-0.4964662492275238,-0.5320115089416504,-0.299319863319397
1772376387061099000,2.52409912109375,-0.17025148058561607,-0.4221837943077087,1.2615250791937112,-0.5251175761222839,-0.6053882241249084,-0.2735457718372345
1772376387071048000,2.5340478515625,-0.10722327067200094,-0.4591489586114883,0.9933148720234631,-0.5481225848197937,-0.598794162273407,-0.23404823243618011
1772376387080998100,2.543998046875,-0.2919130447210744,-0.17864099540412426,0.6223061152882874,-0.5804951786994934,-0.47534945607185364,-0.17583845555782318
1772376387090948000,2.553947998046875,-0.537437592026405,0.11811726085841655,0.3520205631487071,-0.6427081823348999,-0.32494208216667175,-0.10531877726316452
1772376387100897000,2.56389697265625,-0.4759603926807642,0.209399121761322,0.30696736945733427,-0.6909699440002441,-0.1774652600288391,-0.04556196928024292
1772376387110847000,2.573846923828125,-0.42617794197779146,0.2311982811152935,0.33815599618628617,-0.7103059887886047,-0.03818235918879509,-0.019562317058444023
1772376387120797200,2.583797119140625,-0.43374373758956786,0.23545184690654278,0.443752067515254,-0.7016667127609253,0.06362176686525345,-0.008322980254888535
1772376387130747100,2.5937470703125,-0.3504135298108682,0.28971885914504525,0.6655052055455744,-0.6945248246192932,0.05402666702866554,-0.02482587657868862
1772376387140696000,2.603696044921875,-0.23272828542785717,0.12441256161034106,0.9838422564096748,-0.6820902228355408,-0.01398247480392456,-0.041342802345752716
1772376387150646300,2.613646240234375,0.1964901384906843,-0.2840484122931957,1.0580531555242836,-0.6476645469665527,-0.04972967505455017,-0.05470513179898262
1772376387160596200,2.62359619140625,0.3776548071535304,-0.5948521450430154,0.8509750971216707,-0.6137814521789551,-0.06981523334980011,-0.09297662228345871
1772376387170545200,2.633545166015625,0.393293690312095,-0.7773702741414308,0.7822615533143281,-0.6012052893638611,-0.120004802942276,-0.1170068234205246
1772376387180495000,2.6434951171875,0.5661870089096949,-0.8514116619080304,0.9156604083262383,-0.5930398106575012,-0.18518966436386108,-0.1312805712223053
1772376387190445300,2.6534453125,0.4963258294371888,-0.7635141827464104,0.9131541245937347,-0.5723345279693604,-0.2012164294719696,-0.15399210155010223
1772376387200394200,2.663394287109375,0.21340806514173744,-0.6405950745642185,0.738344670176506,-0.5492217540740967,-0.19990135729312897,-0.1649954915046692
1772376387210344200,2.67334423828125,0.11307554036416113,-0.4603057274311781,0.7464128988850861,-0.5297492742538452,-0.21293647587299347,-0.16329878568649292
1772376387220294000,2.6832939453125,0.11463851536456494,-0.18527298076450824,0.6501397325009107,-0.5114328265190125,-0.20149339735507965,-0.15075024962425232
1772376387230244000,2.693244140625,0.2071562747379765,0.009940963777899742,0.4580985727757215,-0.5103718042373657,-0.18210552632808685,-0.12815159559249878
1772376387240193000,2.703193115234375,0.43261835028883067,-0.06671966657638549,0.42323644516579806,-0.5328419804573059,-0.19943365454673767,-0.13398870825767517
1772376387250143000,2.71314306640625,0.3867231528153643,-0.09003098405897617,0.432193220211938,-0.5214621424674988,-0.19076044857501984,-0.15021876990795135
1772376387260093200,2.72309326171875,0.24304553517224264,-0.15474223342239857,0.28737434184551236,-0.47311699390411377,-0.19423027336597443,-0.14480456709861755
1772376387270042000,2.7330419921875,0.21323537545595317,-0.3607330080449581,0.072222355645895,-0.4270549416542053,-0.18377354741096497,-0.15463514626026154
1772376387279992000,2.742991943359375,0.15277245858623645,-0.2885445546686649,-0.06746953509561718,-0.4011751413345337,-0.15639837086200714,-0.16335566341876984
1772376387289942000,2.75294189453125,0.18928776936382055,-0.16188801352381704,-0.07098492280542851,-0.3862050473690033,-0.10149755328893661,-0.16898579895496368
1772376387299892200,2.762892333984375,0.24815800108145922,-0.1797925035268068,-0.17795765278246253,-0.3616565763950348,-0.06044918671250343,-0.16112680733203888
1772376387309841200,2.772841064453125,0.3165331432472914,-0.19790742141008377,-0.29945224458687003,-0.35243940353393555,-0.049881722778081894,-0.16882683336734772
1772376387319791000,2.782791015625,0.3826868465039879,-0.2725409298509359,-0.30180969443321226,-0.346954345703125,-0.05760622024536133,-0.18189789354801178
1772376387329741000,2.792740966796875,0.5394928075231611,-0.4196943155795336,-0.3660135787963867,-0.33247873187065125,-0.05952940136194229,-0.18360066413879395
1772376387339690200,2.802690185546875,0.716904041936621,-0.5431687195569277,-0.5241337276866659,-0.33206379413604736,-0.05592294782400131,-0.18880526721477509
1772376387349640200,2.81264013671875,0.8815664886098354,-0.5426034868896007,-0.5791396121263503,-0.3423578143119812,-0.051873065531253815,-0.19539064168930054
1772376387359590100,2.822590087890625,1.0532030851446093,-0.45483752515316006,-0.5825882547428831,-0.35819268226623535,-0.06445729732513428,-0.20020510256290436
1772376387369540000,2.8325400390625,1.135389712378755,-0.3081114249259233,-0.6002116262495517,-0.3614691197872162,-0.07939349859952927,-0.20655426383018494
1772376387379489300,2.8424892578125,1.1093549612816422,-0.21536124503612517,-0.6944511679142713,-0.35276004672050476,-0.08956170827150345,-0.21775846183300018
1772376387389439200,2.852439208984375,1.0959361653253434,-0.2549614340186119,-0.7657675146311521,-0.35041019320487976,-0.0788097009062767,-0.23442524671554565
1772376387399389000,2.862388916015625,1.08843375380598,-0.36286183676719663,-0.7682125696957111,-0.3434452414512634,-0.06419108062982559,-0.24522356688976288
1772376387409338000,2.872338134765625,1.0810466392293572,-0.41697862688004966,-0.8357347848266362,-0.34845441579818726,-0.039505086839199066,-0.25998660922050476
1772376387419288000,2.8822880859375,0.9898609321773052,-0.4592115024536848,-0.9451099363029003,-0.36743155121803284,0.0010577850043773651,-0.2657552659511566
1772376387429238000,2.892238037109375,1.0262213355209677,-0.3811182089477777,-1.0744371579617262,-0.37979698181152344,0.0792861133813858,-0.25749677419662476
1772376387439187000,2.90218701171875,1.1079229557171464,-0.32891748158931733,-1.1868623446583748,-0.3841310143470764,0.17475885152816772,-0.2410927712917328
1772376387449137200,2.91213720703125,1.2504473664708435,-0.27883096990585327,-1.107654952430725,-0.3789992928504944,0.2589685022830963,-0.22938452661037445
1772376387459087000,2.922087158203125,1.456880039642006,-0.1571498790860176,-0.7910428256630897,-0.3499513864517212,0.2929176986217499,-0.19244249165058136
1772376387469037000,2.932037109375,1.6142565670907496,0.025112813946604726,-0.3716425245940685,-0.3141734004020691,0.30494338274002075,-0.16018809378147125
1772376387478986000,2.941986083984375,1.4925665623120963,0.06605740327537059,-0.030436073062289504,-0.29035142064094543,0.27861908078193665,-0.13172714412212372
1772376387488936200,2.951936279296875,1.4576453249260781,-0.03323708369135856,0.34416999577879903,-0.28076356649398804,0.15886789560317993,-0.12052632123231888
1772376387498886100,2.96188623046875,1.6629231289736925,-0.219787244784832,0.6130781220853329,-0.27788761258125305,-0.07225187122821808,-0.15315723419189453
1772376387508835000,2.9718349609375,1.9786326078131793,-0.5321621723741292,0.5882417869925498,-0.2903192341327667,-0.3205912709236145,-0.19515438377857208
1772376387518785000,2.981784912109375,1.9782257805779575,-0.6797948660522699,0.23351881475104017,-0.31076592206954956,-0.4282407760620117,-0.19654269516468048
1772376387528735200,2.9917353515625,1.5769196468651294,-0.3557183947533369,-0.4394762898921966,-0.3316144645214081,-0.2609545588493347,-0.15813671052455902
1772376387538685200,3.001685302734375,0.6877043240025639,-0.18159984520971775,-1.1069558642506598,-0.40324097871780396,0.005537841469049454,-0.11544384807348251
1772376387548634000,3.011634033203125,-0.3548950226064771,-0.35357144585251804,-1.3217302493095398,-0.5102682113647461,0.2784472703933716,-0.10334112495183945
1772376387558584300,3.021584228515625,-0.8288814118005334,-0.14032617005705833,-1.4841057540893554,-0.5245928168296814,0.5389894247055054,-0.09817459434270859
1772376387568534000,3.031533935546875,-0.428610027962923,0.04363806619644165,-1.706269664877653,-0.43965810537338257,0.7481683492660522,-0.12888777256011963
1772376387578483200,3.041483154296875,0.4976457894619554,0.025101123508810996,-1.6031658487558365,-0.32626283168792725,0.878351628780365,-0.15025058388710022
1772376387588433200,3.05143310546875,1.7207829050071537,0.009199205499887467,-1.2886205913901327,-0.2140241265296936,0.9188956022262573,-0.1356315314769745
1772376387598383000,3.061383056640625,2.69210879419297,0.21032675800025463,-0.8457821315884589,-0.08666057884693146,0.8328328728675842,-0.055789437144994736
1772376387608332000,3.07133203125,3.1293118784561753,0.46799219028055666,-0.7515255657237022,0.07456353306770325,0.6969451308250427,0.020517190918326378
1772376387618281700,3.08128173828125,2.9850618129536506,0.507552047252655,-0.6483411586463451,0.25379639863967896,0.5938557982444763,0.08665706217288971
1772376387628231400,3.0912314453125,2.6541809223368764,0.49085868660509585,0.15323822206761686,0.3987230360507965,0.3862747251987457,0.24011783301830292
1772376387638181400,3.101181396484375,2.5257991648346185,1.2159382170170545,1.0421604437351226,0.48067304491996765,0.14328819513320923,0.4670540690422058
1772376387648130300,3.11113037109375,1.8147941908739507,2.2104694790929553,0.786736068379879,0.5682658553123474,-0.13138262927532196,0.5669907331466675
1772376387658080500,3.12108056640625,0.9392143023930489,2.97871244392693,-0.11972177344560622,0.744104266166687,-0.28943830728530884,0.5627379417419434
1772376387668030500,3.131030517578125,0.4807255977885797,3.5895419103026387,-0.954366424947977,0.9826862215995789,-0.21541130542755127,0.5265973210334778
1772376387677979400,3.1409794921875,-0.02614902512654662,3.521089720845222,-1.1702443873345851,1.2137477397918701,0.06891921907663345,0.4625517725944519
1772376387687929600,3.1509296875,-1.0863608199894428,2.5561627389162775,-0.5526356360822916,1.3702099323272705,0.2246880829334259,0.42325901985168457
1772376387697879600,3.160879638671875,-1.2191435889296234,1.9356956756234167,0.48826516298055644,1.5190316438674927,0.24156346917152405,0.46176353096961975
1772376387707829500,3.17082958984375,-0.9370417075943202,1.181249765473604,1.0315595547437668,1.6277340650558472,0.19157062470912933,0.43552055954933167
1772376387717778400,3.1807783203125,-1.3561249786034226,-0.12497019549310207,1.2308856107801198,1.6952390670776367,0.11468010395765305,0.36381226778030396
1772376387727728600,3.190728759765625,-1.5579466508477926,-0.738158207693696,1.050243285490945,1.7167072296142578,0.0861935093998909,0.41644981503486633
1772376387737678600,3.2006787109375,-1.3883724667355417,-0.7068629057198762,0.8702596433062106,1.6209149360656738,0.11795863509178162,0.5212808847427368
1772376387747627500,3.21062744140625,-1.503023951179534,-0.31454116571247576,0.9874655614733695,1.5484939813613892,0.2829130291938782,0.643546462059021
1772376387757577500,3.220577392578125,-1.6444498991720378,0.5917056637108326,-0.23155790820792316,1.6237456798553467,0.4681665003299713,0.6942011117935181
1772376387767527700,3.230527587890625,-2.624201379136741,1.556394160708785,-1.4686680925913154,1.7361396551132202,0.5978007316589355,0.5807636380195618
1772376387777477400,3.240477294921875,-3.473978133319318,2.6982442282080648,-1.5470955864876508,1.722035527229309,0.6623826622962952,0.481747567653656
1772376387787426600,3.250426513671875,-2.688272577030957,3.221806914541125,-0.8125720820344984,1.6331511735916138,0.6475318074226379,0.4216293692588806
1772376387797376500,3.26037646484375,-1.6592583228558302,2.978795446035266,-0.5018704944849014,1.56924569606781,0.4536116123199463,0.3072969615459442
1772376387807326500,3.270326416015625,-0.8387365969911217,2.465474752253294,-0.4264436437092721,1.4950937032699585,0.27763831615448,0.22979380190372467
1772376387817275600,3.280275634765625,-0.2192920999453403,1.4745938293784855,0.15634616148769856,1.387181043624878,0.08385232836008072,0.19705556333065033
1772376387827225300,3.290225341796875,0.16727505859071387,0.36325463547706605,0.889339241503179,1.2944393157958984,-0.06850273907184601,0.15501175820827484
1772376387837175600,3.300175537109375,0.1913790973535739,-0.051177229529619214,1.5847908186316488,1.1758309602737427,-0.17373383045196533,0.1731705218553543
1772376387847124500,3.31012451171875,0.17394122021533548,-0.6658154405385256,2.097864551915228,1.022794246673584,-0.24007965624332428,0.21240949630737305
1772376387857074400,3.320074462890625,-0.28702841448467226,-1.1636018805801869,2.0125471523746845,0.903803288936615,-0.21968969702720642,0.19893468916416168
1772376387867024400,3.3300244140625,-1.1086313231822102,-1.366262633997202,1.4782470911890266,0.8000640273094177,-0.2586405277252197,0.22568798065185547
1772376387876974600,3.339974609375,-1.233584056083858,-1.7965654373526572,1.3599556428074835,0.6980777382850647,-0.2674819529056549,0.23886503279209137
1772376387886923500,3.349923583984375,-1.6399217542231082,-2.0393775838941335,1.3548448756650089,0.6334956288337708,-0.24413810670375824,0.21008940041065216
1772376387896873500,3.35987353515625,-2.0242621400877834,-1.7260189059644937,1.1858058213427662,0.6045675873756409,-0.30857089161872864,0.15392813086509705
1772376387906823700,3.36982373046875,-2.03213375024572,-1.2204489724397658,1.056977196855843,0.5584862232208252,-0.35849106311798096,0.10212104767560959
1772376387916772600,3.379772705078125,-1.6602392967171966,-0.8314853106886148,1.2102823832124472,0.49014896154403687,-0.36793118715286255,0.08907794952392578
1772376387926722600,3.38972265625,-1.1254224451158195,-0.6776251207977533,1.185657060521841,0.43923333287239075,-0.2957631051540375,0.10534407943487167
1772376387936672500,3.399672607421875,-0.8621136731863022,-0.7229138768106699,0.9103680010065436,0.4083702266216278,-0.09822392463684082,0.12285862863063812
1772376387946622700,3.409622802734375,-1.0127085046056656,-1.0292506932795047,0.7702338463902473,0.38130900263786316,0.11703608930110931,0.1459055095911026
1772376387956571600,3.419571533203125,-1.2570879735291003,-1.3234656948000192,0.8110416575968266,0.36487647891044617,0.2504034638404846,0.14236323535442352
1772376387966521600,3.429521484375,-1.6720144901849328,-1.2488649195849895,0.9796908358186482,0.35147416591644287,0.3256533145904541,0.11579510569572449
1772376387976471600,3.439471435546875,-1.9019284305781126,-1.0289449883311987,1.2186848853766918,0.32236820459365845,0.3436421751976013,0.07824533432722092
1772376387986420700,3.449420654296875,-2.200337084396183,-0.7393056241631507,1.3293769646704197,0.26585057377815247,0.3455424904823303,-0.003390772268176079
1772376387996370400,3.459370361328125,-2.489818335393071,-0.6444570106893778,1.423003342872858,0.17261090874671936,0.3755933344364166,-0.10065153986215591
1772376388006320400,3.4693203125,-2.5860645407050846,-0.7673188357263803,1.412581902101636,0.08706038445234299,0.38126885890960693,-0.16387884318828583
1772376388016269600,3.47926953125,-2.190238153577596,-0.8585428289622068,1.3053534072652457,0.0023976988159120083,0.4371427595615387,-0.2266058772802353
1772376388026219500,3.489219482421875,-1.7711317208886146,-0.9264028977453708,1.1802984560981393,-0.07908687740564346,0.5417081117630005,-0.2897607982158661
1772376388036169500,3.49916943359375,-1.3068775480926036,-1.1061147372514009,0.9043053399667144,-0.17058910429477692,0.6647505760192871,-0.3493865728378296
1772376388046119400,3.509119384765625,-0.9235225200034678,-1.300325057709217,0.6878221051633358,-0.26183605194091797,0.7296296954154968,-0.42598283290863037
1772376388056068400,3.519068359375,-0.5023955047396943,-1.1801993796378374,0.5425397740036249,-0.33477818965911865,0.7145817875862122,-0.4432070851325989
1772376388066018600,3.5290185546875,0.347235411231406,-0.9898346286922692,0.579707182881236,-0.39004698395729065,0.7307108044624329,-0.43347716331481934
1772376388075968500,3.538968505859375,0.8015043061837553,-0.8781360027045011,0.44619040057808157,-0.44265586137771606,0.7320740818977356,-0.422928124666214
1772376388085917400,3.54891748046875,0.9900424992892891,-0.833448719716072,0.08669453311264515,-0.5035576820373535,0.7343549132347107,-0.4060348570346832
1772376388095867600,3.55886767578125,1.201760492452234,-0.8622440215677022,-0.35919425417035816,-0.5445969700813293,0.7340196371078491,-0.3702031075954437
1772376388105817600,3.568817626953125,1.4597361597254872,-0.8129442763477563,-0.784511085806787,-0.5352247953414917,0.6860002279281616,-0.32309871912002563
1772376388115766500,3.5787666015625,1.6987734639033674,-0.7292319739162921,-1.0848419398590923,-0.5022023916244507,0.669014036655426,-0.2880699038505554
1772376388125716500,3.588716552734375,1.7640704042002557,-0.6465040063470602,-1.0602958198845387,-0.4604475200176239,0.6239833831787109,-0.24898026883602142
1772376388135666700,3.598666748046875,1.9225325349286198,-0.45102468886673447,-1.0999418938353658,-0.42659154534339905,0.5231651663780212,-0.2112525999546051
1772376388145616600,3.60861669921875,2.0001672710120677,-0.14939152004420755,-1.1549188079088926,-0.4434877932071686,0.5183915495872498,-0.14714016020298004
1772376388155565600,3.618565673828125,1.9467375863805412,-0.2123059491187334,-1.1155275855019688,-0.47563454508781433,0.5262582898139954,-0.044106971472501755
1772376388165515500,3.628515625,1.9061995320260523,-0.5173404508173466,-1.2789625362068413,-0.503873348236084,0.5033767819404602,0.03970358148217201
1772376388175465500,3.638465576171875,1.7875769519940017,-0.56916240799129,-1.6061325896069407,-0.5194560885429382,0.435405433177948,0.10258161276578903
1772376388185414700,3.64841455078125,1.6664210540920494,-0.2763186948239803,-1.9564915031537413,-0.4940961003303528,0.38199320435523987,0.17189082503318787
1772376388195364400,3.6583642578125,1.8002672144800425,-0.14180033426284788,-2.3771184234082696,-0.3762909173965454,0.3481617271900177,0.2385185956954956
1772376388205314600,3.668314453125,2.046652104941755,0.1967892310351133,-2.568494104962051,-0.17078198492527008,0.381503701210022,0.2784164845943451
1772376388215263500,3.678263427734375,2.3356916035205124,0.40554420967400073,-2.10415605327487,0.0034345677122473717,0.44335535168647766,0.3435100018978119
1772376388225213400,3.68821337890625,2.5296947109684345,0.3022352263689041,-1.0196661417238413,0.06460278481245041,0.38803958892822266,0.40981724858283997
1772376388235163400,3.698163330078125,2.2011574608683584,0.28440380160212514,-0.22804244743287563,0.0008653498371131718,0.278147429227829,0.42733100056648254
1772376388245113600,3.708113525390625,1.260423547692597,0.2075619694620371,-0.24014088150560856,-0.1371934562921524,0.11595242470502853,0.4010794162750244
1772376388255062500,3.7180625,0.5351441838596016,-0.14837152934670447,-1.1149525620929897,-0.20396395027637482,-0.04139139875769615,0.3412435054779053
1772376388265012500,3.728012451171875,0.4882197164036333,-0.650452451711893,-2.5401965234994885,-0.12416310608386993,-0.12019921094179153,0.24793918430805206
1772376388274962400,3.73796240234375,0.9374427626758813,-1.0019558591186999,-3.8652988795906302,0.10723576694726944,-0.14230291545391083,0.1552198976278305
1772376388284911600,3.74791162109375,1.544278044848889,-1.035154948887229,-4.74588110640347,0.3535598814487457,-0.09085394442081451,0.11223431676626205
1772376388294861600,3.757861572265625,2.042342278918624,-0.8450462185293436,-4.787160042253136,0.526613712310791,-0.00564929936081171,0.13053077459335327
1772376388304811500,3.7678115234375,2.0844424680233002,-0.426056836348772,-4.165397386191785,0.6348130702972412,0.04967346414923668,0.14391574263572693
1772376388314761700,3.77776171875,1.368004216967523,0.21041969698071478,-3.116771838095784,0.6390767693519592,-0.03503795713186264,0.07919426262378693
1772376388324710700,3.787710693359375,0.20802476466819642,0.5219324547827243,-1.514013985618949,0.49764010310173035,-0.27559956908226013,-0.050274964421987534
1772376388334660600,3.79766064453125,-0.7348734869346022,0.20607611481845378,0.3320104791685939,0.20377197861671448,-0.5375931262969971,-0.16179083287715912
1772376388344610600,3.807610595703125,-1.3345242644309996,-0.32298166179955,1.7618433758005498,-0.12281471490859985,-0.6388956904411316,-0.24946866929531097
1772376388354559500,3.8175595703125,-1.891110391704738,-0.037438627034425735,1.9754779431745408,-0.2629052698612213,-0.5777056217193604,-0.2901223599910736
1772376388364509700,3.827509765625,-1.8774290723547338,1.7695032429039477,1.0489093334734438,-0.12638311088085175,-0.46408066153526306,-0.2705817222595215
1772376388374459400,3.83745947265625,-1.480510652206838,4.53216996666193,0.12470394577234983,0.11404653638601303,-0.2959105670452118,-0.19560150802135468
1772376388384408600,3.84740869140625,-1.2652626582868396,6.440619907963275,-0.597158083897829,0.18725796043872833,-0.03352200984954834,-0.08740753680467606
1772376388394358500,3.857358642578125,-1.1993130262348801,6.473749439626932,-1.0539505425110458,0.06977473944425583,0.30626991391181946,0.0159516092389822
1772376388404308500,3.86730859375,-1.1549465726986528,3.2007933526068926,-0.9654773092880844,-0.03469481319189072,0.511210024356842,-0.012117262929677963
1772376388414258400,3.877258544921875,-1.9485560339793562,-1.2094605454355478,-0.5059913738071918,-0.14349718391895294,0.5382794737815857,-0.1667822003364563
1772376388424207400,3.887207275390625,-3.218024765653908,-3.4608997482985258,0.2159393371850252,-0.2173224687576294,0.4562546908855438,-0.3510449230670929
1772376388434157600,3.897157470703125,-3.8498391523912545,-3.8052848481327293,0.9636211600273847,-0.3077511787414551,0.3824393153190613,-0.5010245442390442
1772376388444107500,3.907107421875,-3.574776887369156,-3.1719635639637707,1.8899311187922954,-0.4523355960845947,0.33196303248405457,-0.5707888603210449
1772376388454056400,3.917056396484375,-2.760285381579399,-1.8334972839087247,2.729455943551659,-0.6496580243110657,0.31695932149887085,-0.5237241387367249
1772376388464006400,3.92700634765625,-1.6622820545911787,-0.12249591433405875,3.326082112529874,-0.8434975147247314,0.29857826232910156,-0.38042694330215454
1772376388473956600,3.93695654296875,-0.7317537474788725,1.3018442301005124,3.028260026428103,-0.8863235712051392,0.2539849579334259,-0.24096466600894928
1772376388483905500,3.946905517578125,-0.5112053090631962,1.6974731949597597,1.7880343403726815,-0.7654063701629639,0.24009494483470917,-0.18154774606227875
1772376388493855500,3.95685546875,-0.7784810118623078,1.122228252184391,0.5217211501196026,-0.5943805575370789,0.27161505818367004,-0.2017235904932022
1772376388503805700,3.9668056640625,-1.0861246000807732,0.3563064237743616,0.029696634605526923,-0.49848490953445435,0.27680715918540955,-0.256371408700943
1772376388513755600,3.976755615234375,-1.1495517279177903,-0.1810872195124626,0.32101123850941654,-0.4729633033275604,0.22560788691043854,-0.32879340648651123
1772376388523704600,3.98670458984375,-0.964954527522996,-0.5503256055742501,0.667301002921164,-0.46530523896217346,0.17705558240413666,-0.37443220615386963
1772376388533654500,3.996654541015625,-0.7045980295278131,-0.6531091037005186,0.7792527268871664,-0.4789970815181732,0.15101014077663422,-0.3707575798034668
1772376388543604700,4.006604736328125,-0.4151930586375296,-0.5893091239631175,0.9252760856725275,-0.5283465385437012,0.08516086637973785,-0.32410115003585815
1772376388553553700,4.0165537109375,-0.002177709365263581,-0.6102513742268085,1.1123663449920713,-0.5721850991249084,-0.01487119123339653,-0.28625524044036865
1772376388563503600,4.026503662109375,0.3186652599051595,-0.601195961111784,0.8951381370402872,-0.612187922000885,-0.10410236567258835,-0.248409703373909
1772376388573453300,4.036453369140625,0.5889696628756821,-0.4322995301306247,0.5630402718491851,-0.6522165536880493,-0.1756463199853897,-0.20183099806308746
1772376388583402800,4.04640283203125,0.668521265431121,-0.08048281899094581,0.3009446020364761,-0.6578000783920288,-0.17181295156478882,-0.11750862002372742
1772376388593352400,4.0563525390625,0.6782303932145237,0.12119009243249892,0.06403948758170008,-0.6568011045455933,-0.08252247422933578,-0.04308577999472618
1772376388603302400,4.066302490234375,0.3765538601743057,0.38156595271527766,-0.12893150033950804,-0.6722508072853088,0.050340596586465836,-0.017981108278036118
1772376388613252900,4.0762529296875,0.025705286247306502,0.4549076677799225,-0.12784136701524257,-0.6838800311088562,0.15692642331123352,-0.017348073422908783
1772376388623201800,4.086201904296875,-0.0029802031208761037,0.285730081769824,0.09945113883316516,-0.6661385297775269,0.2104562371969223,0.016957435756921768
1772376388633152000,4.096152099609375,0.3776639037754386,-0.06753332104682921,0.30148630769774315,-0.6334373354911804,0.21528001129627228,0.04838939383625984
1772376388643102000,4.10610205078125,0.5052037305608391,-0.46791854052245613,0.43530236520841714,-0.6183967590332031,0.14765265583992004,0.04276452213525772
1772376388653051000,4.11605078125,0.6997990317482501,-0.6972223861932754,0.6070699677117168,-0.613093912601471,0.03624650463461876,0.013220212422311306
1772376388663000800,4.126000732421875,0.7990529675088822,-0.7378413968294858,0.7804168022304773,-0.5903937220573425,-0.1119808778166771,-0.030186500400304794
1772376388672951000,4.135950927734375,0.7502934666454791,-0.7261778470426797,0.7432669290095567,-0.5349187254905701,-0.21659117937088013,-0.06392130255699158
1772376388682900000,4.14589990234375,0.7121611582584678,-0.5360919130384921,0.6317126799285412,-0.4826580584049225,-0.28748536109924316,-0.07325547933578491
1772376388692850000,4.155849853515625,0.7525799701474607,-0.35918110242784024,0.5631155290424823,-0.4452824592590332,-0.31057390570640564,-0.07310713827610016
1772376388702800000,4.1657998046875,0.7595939405627549,-0.2574199330866337,0.582192423825711,-0.43932172656059265,-0.31144091486930847,-0.05038413405418396
1772376388712750000,4.17575,0.7564360610537231,-0.269528888553381,0.6991628527365624,-0.457235187292099,-0.34057217836380005,-0.013868466019630432
1772376388722699000,4.185698974609375,0.7241768824838102,-0.254563959133625,0.7358322489641607,-0.443966805934906,-0.3726457357406616,-0.0012948450166732073
1772376388732649000,4.19564892578125,0.547488482452184,-0.1598912867486477,0.5953782147437334,-0.41729283332824707,-0.3836296796798706,-0.023160729557275772
1772376388742599000,4.205598876953125,0.3567697304371744,-0.07782792056798934,0.5629372498661279,-0.3964245319366455,-0.35216614603996277,-0.022141989320516586
1772376388752548000,4.215548095703125,0.30557143985321744,-0.13646306488811968,0.6450386099696159,-0.3947286307811737,-0.3504396378993988,-0.02878577634692192
1772376388762497800,4.225497802734375,0.2266793058535084,-0.13214578621089457,0.6182955644726753,-0.39822855591773987,-0.34876346588134766,-0.06161827594041824
1772376388772447700,4.23544775390625,0.029755721548735164,-0.1494376972734928,0.3618739217083901,-0.3684307038784027,-0.34187838435173035,-0.09815631061792374
1772376388782396700,4.245396728515625,-0.07347272103317082,-0.2002542767971754,-0.002222425289824605,-0.32656311988830566,-0.32842665910720825,-0.11978747695684433
1772376388792347000,4.255346923828125,0.030740755097288637,-0.22620237252414224,-0.03597206161320209,-0.31441670656204224,-0.3156738579273224,-0.1308840662240982
1772376388802296800,4.265296875,0.21264062443319706,-0.2630705061942339,-0.05044014742672443,-0.31709831953048706,-0.29634159803390503,-0.13222040235996246
1772376388812246800,4.275246826171875,0.4069409247294068,-0.3443354154735803,-0.06077683252394199,-0.3347178101539612,-0.27433454990386963,-0.14166957139968872
1772376388822196000,4.285196044921875,0.4838542146705091,-0.3519166643828153,-0.08936462910473346,-0.3366384208202362,-0.2713325619697571,-0.13828563690185547
1772376388832146000,4.29514599609375,0.520558864874579,-0.37121056291759014,-0.1744908899873495,-0.3433637022972107,-0.2816171646118164,-0.14790284633636475
1772376388842095900,4.305095947265625,0.4973736945223063,-0.4328986650675535,-0.24241050693802535,-0.355829119682312,-0.28752103447914124,-0.17341797053813934
1772376388852044800,4.315044921875,0.47382082336880266,-0.4164069644719362,-0.32133973981142044,-0.38024765253067017,-0.29274746775627136,-0.19593073427677155
1772376388861995000,4.3249951171875,0.6315383462749421,-0.35060382821857927,-0.31089374912083145,-0.39683735370635986,-0.27067041397094727,-0.19878046214580536
1772376388871945000,4.334945068359375,0.7901498223461211,-0.327627441778779,-0.3569254324555397,-0.4144783914089203,-0.25235000252723694,-0.19749629497528076
1772376388881894000,4.344893798828125,0.8031962047934532,-0.33140696031749245,-0.43104101796951144,-0.4196946620941162,-0.24348266422748566,-0.2113102376461029
1772376388891843800,4.35484375,0.7003745666138828,-0.3363075918406248,-0.469108627089858,-0.42060041427612305,-0.21839356422424316,-0.22992093861103058
1772376388901794000,4.3647939453125,0.5231694126991555,-0.3255582342892885,-0.4822171149879694,-0.43458107113838196,-0.16736938059329987,-0.24925148487091064
1772376388911744000,4.374743896484375,0.3786467408003285,-0.34525779101550574,-0.5503284916510806,-0.44777223467826843,-0.1251436173915863,-0.25153782963752747
1772376388921693700,4.384693603515625,0.3961212784208357,-0.4260702803522348,-0.7198503975868225,-0.45142117142677307,-0.08781961351633072,-0.26020291447639465
1772376388931644000,4.394643798828125,0.5675511368697509,-0.48535190588235855,-0.896394712972641,-0.46119818091392517,-0.018409915268421173,-0.2700664699077606
1772376388941592800,4.4045927734375,0.7374374922037125,-0.45532034023404117,-0.9427963986635207,-0.45956552028656006,0.07349836081266403,-0.2670142352581024
1772376388951542800,4.414542724609375,0.8168947675392031,-0.3526251049131155,-0.8874719863265752,-0.4371963143348694,0.15435592830181122,-0.24317017197608948
1772376388961493000,4.424492919921875,0.8540927176855504,-0.14605390005409716,-0.8269061662048101,-0.3932216465473175,0.18811362981796265,-0.21451935172080994
1772376388971442000,4.43444189453125,0.9642404609695077,-0.1147428159892559,-0.69611354816854,-0.3474951684474945,0.18884599208831787,-0.19142761826515198
1772376388981392000,4.444391845703125,0.9116024381723254,-0.11819207966029643,-0.5801122565507888,-0.32037684321403503,0.1922382265329361,-0.1836717128753662
1772376388991341800,4.454341796875,0.6496969571694732,-0.10868015494942665,-0.5833423245131969,-0.3103410005569458,0.21000178158283234,-0.17238390445709229
1772376389001292000,4.4642919921875,0.398789292053692,-0.14892273348867893,-0.46417117068767544,-0.3089316189289093,0.22412815690040588,-0.16845621168613434
1772376389011241000,4.474240966796875,0.3004307342302054,-0.3362789502680302,-0.22099135987758636,-0.29189085960388184,0.20779739320278168,-0.18322157859802246
1772376389021191000,4.48419091796875,0.5087704831317067,-0.5800064580887556,-0.21564415363073347,-0.2575163245201111,0.17025083303451538,-0.21393457055091858
1772376389031140900,4.494140869140625,0.8245031967163086,-0.6188455995708704,-0.39929391710758205,-0.23664644360542297,0.15505802631378174,-0.22315816581249237
1772376389041090000,4.504090087890625,1.152386220691353,-0.4526309550195932,-0.5593477009415626,-0.24949367344379425,0.19488897919654846,-0.19940334558486938
1772376389051040000,4.5140400390625,1.4655655965313314,-0.2560936529189348,-0.5987047288179397,-0.29025736451148987,0.28570306301116943,-0.1495010256767273
1772376389060990000,4.523989990234375,1.6246806382104753,-0.12038637483417987,-0.5934323413729667,-0.32740435004234314,0.3987882435321808,-0.10159426927566528
1772376389070939000,4.53393896484375,1.5686352181226013,-0.02378594925701618,-0.6707645873785019,-0.3193245828151703,0.49501729011535645,-0.07988258451223373
1772376389080889000,4.54388916015625,1.5851193199336528,-0.047051089510321616,-0.8206079428434372,-0.28091293573379517,0.5194896459579468,-0.08627104759216309
1772376389090838800,4.5538388671875,1.903276776447147,-0.15191490104198455,-0.4645744907915592,-0.2404664158821106,0.4765903353691101,-0.07614517956972122
1772376389100788700,4.563788818359375,2.1173498813688756,-0.12246142754256725,-0.22094342908263206,-0.2207261323928833,0.3807525932788849,-0.028894811868667603
1772376389110738000,4.573738037109375,2.246708813340217,0.00018996961414813993,-0.2996247150769457,-0.16006144881248474,0.31440046429634094,0.009564165025949478
1772376389120687900,4.58368798828125,2.38723985831961,-0.049532384932041165,-0.3137456314206123,-0.08116290718317032,0.26081663370132446,0.03678671270608902
1772376389130637800,4.593637939453125,2.4911688732191917,-0.14198445865809917,0.044524164848588406,-0.016278453171253204,0.09164996445178986,0.12114261090755463
1772376389140586800,4.603586669921875,2.831337816663086,0.5547697255015372,0.39716855898406356,0.0458904430270195,-0.027717340737581253,0.2697175443172455
1772376389150537000,4.613536865234375,2.792999610440433,1.5386480761379002,0.264538277191855,0.1248403787612915,-0.1494392454624176,0.38642364740371704
1772376389160487000,4.62348681640625,2.299469220408052,2.2586159626245497,-0.10210895986557006,0.2557640075683594,-0.26147302985191345,0.40539488196372986
1772376389170435800,4.633435791015625,1.740511249436438,2.6659032165735956,-0.46036706569697705,0.4441853165626526,-0.2983338534832001,0.4192662239074707
1772376389180385800,4.6433857421875,1.177041646259278,2.9767689086437223,-0.6838672300577163,0.631429135799408,-0.2232891321182251,0.4116344749927521
1772376389190336000,4.6533359375,0.3627009471170604,3.2555905261993408,-0.808299080890417,0.7930579781532288,-0.12107886373996735,0.4255066215991974
1772376389200285000,4.663284912109375,-0.10486063319388776,3.1839807494938372,-0.7750818709433078,0.9434108734130859,-0.015286685898900032,0.43085363507270813
1772376389210235000,4.67323486328125,-0.3892596490230411,2.5621727929860354,-0.506252070569992,1.1122726202011108,0.02095574140548706,0.4243108034133911
1772376389220184800,4.683184814453125,-0.4260824091814458,1.6761960136532783,-0.06996959914988837,1.3202941417694092,-0.027492808178067207,0.40556973218917847
1772376389230135000,4.693135009765625,-0.35369916388541456,0.7280968324065208,0.38719372946918007,1.5248597860336304,-0.14548414945602417,0.3381776511669159
1772376389240084000,4.703083984375,-0.5060271757729351,-0.5160533336162567,0.8910024985402822,1.6712685823440552,-0.32649075984954834,0.3067411184310913
1772376389250034000,4.713033935546875,-0.45100770119931544,-1.304575700891018,1.2599568069636822,1.7200284004211426,-0.48367637395858765,0.37794631719589233
1772376389259984100,4.722984130859375,-0.42010494220703837,-1.5437871925920248,1.4634434898108244,1.696100115776062,-0.47272536158561707,0.5298877954483032
1772376389269933000,4.73293310546875,-0.6521081830296666,-0.7778536737442017,1.0635516068100928,1.7882473468780518,-0.09609019011259079,0.7272456288337708
1772376389279883000,4.742883056640625,-1.1669313903290777,0.6785586022555827,-0.2755873848747462,1.9423201084136963,0.25451064109802246,0.7785094976425171
1772376389289832700,4.752832763671875,-2.8102029664367434,0.9252297623127699,-0.87782576771155,2.0569212436676025,0.4454222619533539,0.6669318079948425
1772376389299782000,4.762781982421875,-3.6199569223105907,1.4389537761986255,-1.268933309623599,1.9600086212158203,0.4946807324886322,0.5899431705474854
1772376389309731800,4.77273193359375,-2.9713123968034982,2.1220476837962865,-0.8235235380291939,1.7617032527923584,0.455353319644928,0.5030546188354492
1772376389319681800,4.782681884765625,-2.0457785369776187,2.624291103246808,-0.3129962743580341,1.572116732597351,0.3962720036506653,0.40264570713043213
1772376389329631700,4.7926318359375,-1.4569301623940467,2.340444351005554,0.3772961664415896,1.4734904766082764,0.30550986528396606,0.3479830026626587
1772376389339581000,4.802580810546875,-0.9732179865427315,2.2267250328451396,0.5102025617614389,1.4389950037002563,0.0355595201253891,0.2839409410953522
1772376389349531000,4.81253076171875,-0.7434773568898438,1.9385417127043008,0.5488929424226283,1.3493164777755737,-0.04795853793621063,0.24986207485198975
1772376389359480800,4.822480712890625,-0.6701908791437745,1.130965685391426,0.8896370554059744,1.2344281673431396,-0.0603758841753006,0.20931069552898407
1772376389369429800,4.8324296875,-0.8089600290171801,0.845754074537754,1.0907704531252385,1.1175545454025269,0.012581417337059975,0.1867595762014389
1772376389379380000,4.8423798828125,-0.8346729277487843,0.6628004766315221,1.6143714256420731,0.9995052218437195,-0.03282152861356735,0.22157005965709686
1772376389389330000,4.852329833984375,-0.5445964142724872,0.029989480072259902,2.0016852743595837,0.9035602807998657,-0.10134439915418625,0.25248005986213684
1772376389399278800,4.86227880859375,-0.6065578900037333,-0.5244423917770386,1.7220695838168263,0.8333745002746582,-0.09333299100399017,0.2687508165836334
1772376389409228800,4.872228759765625,-0.8502540163055062,-0.8299263908088207,1.2106076696440577,0.7735468745231628,-0.0997442901134491,0.2692762613296509
1772376389419179000,4.882178955078125,-1.0158730330511927,-1.0016992540091276,0.8428250353485345,0.7044336199760437,-0.15387417376041412,0.2911291718482971
1772376389429129000,4.89212890625,-0.9226042361147702,-1.1314976003110409,0.7216536476165056,0.6314433217048645,-0.19232302904129028,0.3022737205028534
1772376389439078000,4.902077880859375,-0.886888998806849,-1.1755442473083735,0.720560007160902,0.5723341703414917,-0.18975727260112762,0.306813508272171
1772376389449028000,4.912028076171875,-0.7703622950755059,-1.124035593867302,0.689052523741126,0.5284292697906494,-0.17125602066516876,0.2883479595184326
1772376389458978000,4.92197802734375,-0.8027475842431188,-1.0961176593720912,0.7143114681601523,0.46710824966430664,-0.1526768058538437,0.25616738200187683
1772376389468927000,4.931927001953125,-0.859323019554466,-1.2534440640687943,1.001640509559214,0.39497867226600647,-0.12977229058742523,0.2239295244216919
1772376389478877000,4.941876953125,-0.8994315233852713,-1.4829747042328119,1.1258508265957237,0.33281409740448,-0.10614144057035446,0.19629427790641785
1772376389488827000,4.951826904296875,-0.9808422708760947,-1.7251596587866544,1.087744091041386,0.28161218762397766,-0.07716304808855057,0.16744132339954376
1772376389498776000,4.961776123046875,-1.0799529987737535,-1.8779034118682145,1.0604749758437275,0.23583142459392548,-0.05979776754975319,0.13402992486953735
1772376389508725800,4.971725830078125,-1.3068857313990592,-1.8385007912844418,0.9568073883593082,0.18373973667621613,-0.06231791526079178,0.08773992210626602
1772376389518675700,4.98167578125,-1.5871747911587357,-1.668104477134347,0.9506675704300404,0.11751320213079453,-0.07885105907917023,0.0308492723852396
1772376389528625000,4.991625,-1.8233898775227366,-1.4670347923010587,1.064677688230574,0.03728707507252693,-0.11486338824033737,-0.041032105684280396
1772376389538574800,5.001574951171875,-1.759683859679103,-1.3329752814233302,1.3116183128789067,-0.05879092589020729,-0.16200897097587585,-0.13481280207633972
1772376389548524800,5.01152490234375,-1.729956829935312,-1.220877426984906,1.4159861575871706,-0.16040250658988953,-0.13257676362991333,-0.24520589411258698
1772376389558475000,5.02147509765625,-1.7726938556388019,-1.234725335073471,1.295905195440352,-0.27572470903396606,-0.06314028799533844,-0.31071752309799194
1772376389568424000,5.031423828125,-1.3419072142891586,-1.3182733868539334,1.2215437819391488,-0.40443873405456543,0.048518337309360504,-0.34156277775764465
1772376389578374000,5.041373779296875,-0.8916491989459842,-1.409556416800618,1.1153475527599452,-0.5285765528678894,0.20313557982444763,-0.3511606454849243
1772376389588323800,5.05132373046875,-0.6405733011238277,-1.439957984805107,0.7299807464569806,-0.6140115261077881,0.34677502512931824,-0.3435855507850647
1772376389598272800,5.061272705078125,-0.4089107269650325,-1.2652210111021995,0.2639738847747445,-0.6578253507614136,0.47668012976646423,-0.3254809081554413
1772376389608223000,5.071222900390625,-0.19144666443075983,-1.0267425098508596,-0.1130868654757738,-0.6709467768669128,0.5787699818611145,-0.2726805508136749
1772376389618172400,5.08117236328125,0.13773849165141583,-1.0497381855130195,-0.42812750514298675,-0.6611806750297546,0.5885294675827026,-0.22338363528251648
1772376389628121600,5.09112158203125,0.39155722190830855,-1.0075830513507127,-0.7440370365992188,-0.6604917049407959,0.5307119488716125,-0.21623384952545166
1772376389638071600,5.101071533203125,0.49054958412330596,-0.7849076839089393,-0.8839943733438849,-0.6844539642333984,0.5141631364822388,-0.2307479828596115
1772376389648021500,5.111021484375,0.6420157550171017,-0.6272171220749616,-0.8982628449320793,-0.6757680177688599,0.48072558641433716,-0.2560991644859314
1772376389657971700,5.1209716796875,0.9666698800735175,-0.21699147658646106,-1.0834203826233744,-0.6148239374160767,0.36560237407684326,-0.27256011962890625
1772376389667920600,5.130920654296875,1.384347156742215,0.27136194919943807,-1.3863178722932934,-0.598427951335907,0.31371065974235535,-0.2561957836151123
1772376389677870600,5.14087060546875,1.7409433572433888,0.24977847842276094,-1.6327289201095698,-0.6282187104225159,0.4070281386375427,-0.14018572866916656
1772376389687820500,5.150820556640625,2.0916551758810877,-0.33190088131427764,-2.0143530327528714,-0.6084164977073669,0.4704957902431488,-0.032138098031282425
1772376389697769700,5.160769775390625,2.2212904405757783,-0.3627700668305158,-2.550522102680802,-0.49882999062538147,0.5413863658905029,0.07860461622476578
1772376389707719700,5.1707197265625,2.5379922914534805,-0.026360768181085584,-2.766230553719401,-0.2686649560928345,0.6448951959609985,0.26549914479255676
1772376389717669400,5.18066943359375,3.0541777270168065,0.18070085054337978,-2.7424942888230084,0.047929033637046814,0.755128800868988,0.44544801115989685
1772376389727618600,5.19061865234375,3.2080107366397974,0.6040116030544043,-2.1759663209885356,0.24174350500106812,0.771196186542511,0.590054452419281
1772376389737568500,5.200568603515625,3.0764918501555916,0.9995318468421697,-0.841367530016601,0.0853833556175232,0.6537002921104431,0.6600018739700317
1772376389747518500,5.2105185546875,2.4412957120254632,1.2384691977769136,0.20429273853302002,-0.23957794904708862,0.39536648988723755,0.630923330783844
1772376389757467400,5.22046728515625,1.9356758018791675,0.9900707755357027,-0.3371095558732748,-0.36386823654174805,0.06773778051137924,0.6112082004547119
1772376389767417300,5.230417236328125,2.5083184532016514,0.02660685189664364,-2.1784978852927686,-0.1585129350423813,-0.2283679097890854,0.575855553150177
1772376389777367600,5.240367431640625,3.3184462108239527,-0.8892641304403544,-4.130228749915958,0.1931094080209732,-0.36117666959762573,0.533926784992218
1772376389787317500,5.2503173828125,4.138930235026777,-1.666720329299569,-4.747162086124718,0.4095674157142639,-0.2711831331253052,0.5156252384185791
1772376389797266400,5.260266357421875,4.4029888754755255,-2.169776234176755,-3.8510985048025845,0.49542802572250366,-0.2015996128320694,0.4571406841278076
1772376389807216400,5.27021630859375,3.2993960579171775,-1.5912579688191413,-2.8642244794815777,0.5757433772087097,-0.30067533254623413,0.3143704831600189
1772376389817166600,5.28016650390625,1.5835630304023622,-0.33924656790196894,-2.270605675625801,0.6058790683746338,-0.4956578016281128,0.12289322912693024
1772376389827115500,5.290115478515625,-0.042101285083219406,0.5847217961728572,-1.642531059938669,0.5140596628189087,-0.7880619168281555,-0.09197086840867996
1772376389837065500,5.3000654296875,-1.4164789095401764,0.6925216611564159,-0.30362755751013754,0.330281138420105,-1.1063101291656494,-0.2796350419521332
1772376389847015700,5.310015625,-2.5266233406990763,0.495088286998868,1.2088532271921635,0.17940109968185425,-1.4207687377929688,-0.4244302809238434
1772376389856964600,5.319964599609375,-3.3399268057480453,1.3477870661079883,1.8806430659651756,0.12233077734708786,-1.6431691646575928,-0.4882683753967285
1772376389866914600,5.32991455078125,-3.425328376440704,3.5014170521259307,1.6142267564743755,0.22237269580364227,-1.5015350580215454,-0.43232759833335876
1772376389876864500,5.339864501953125,-2.685519186669588,5.880525772568583,0.5087766206115484,0.4499993622303009,-1.021367073059082,-0.21998918056488037
1772376389886814700,5.349814697265625,-1.2672796971976756,7.105145893213153,-0.9308718598529696,0.53147953748703,-0.3027496039867401,0.156148761510849
1772376389896763600,5.359763671875,0.1655769311696291,5.182633524289727,-1.054705744792521,0.17546331882476807,0.4550861418247223,0.4192899465560913
1772376389906713600,5.369713623046875,0.23393070175386965,0.007085574346780777,0.9458233452692627,-0.24458536505699158,0.7061260938644409,0.3435158133506775
1772376389916663300,5.379663330078125,-2.378194820468128,-4.109437890821695,0.9638046999007462,-0.20991669595241547,0.48758983612060547,0.01211156602948904
1772376389926612700,5.38961279296875,-5.461120795324445,-5.5843771726369855,-0.7607192913308739,-0.044161293655633926,0.13860121369361877,-0.40047013759613037
1772376389936562400,5.3995625,-6.4290960589081045,-4.7647354444772,-0.3012728110775351,-0.12352271378040314,0.04558374360203743,-0.6813559532165527
1772376389946512400,5.409512451171875,-4.590422249144315,-2.551227620601654,1.3993150087714195,-0.39216911792755127,0.1661282628774643,-0.6971367597579956
1772376389956461300,5.41946142578125,-1.903699239642918,0.4521732743799686,2.781039415794611,-0.7466351389884949,0.3018489181995392,-0.4990529417991638
1772376389966411500,5.42941162109375,0.12425116050355135,3.0444191340684887,4.051062858742475,-0.9437876343727112,0.3099159002304077,-0.20760565996170044
1772376389976361500,5.439361572265625,0.6998421402376145,3.643485097414255,3.299184168732166,-0.8751371502876282,0.20817339420318604,-0.08527670055627823
1772376389986310400,5.449310302734375,-0.5197255193229764,3.4462674118340013,1.3924217421263456,-0.6960089206695557,0.15674881637096405,-0.08887596428394318
1772376389996260600,5.459260498046875,-1.4214846088729798,1.3006594042301176,0.24837094971239565,-0.557644784450531,0.10562289506196976,-0.1551274061203003
1772376390006210600,5.46921044921875,-1.8295820101611315,-0.37753158263266084,0.03650426879376173,-0.5147508382797241,0.1192934438586235,-0.23349758982658386
1772376390016160500,5.479160400390625,-1.9646115351147948,-0.9798848970860242,0.3325096608623862,-0.5351518392562866,0.1185796931385994,-0.3128242790699005
1772376390026109400,5.489109375,-1.6843816581964492,-1.19533791205883,0.8398582944974303,-0.5623522996902466,0.07868341356515884,-0.36499348282814026
1772376390036059600,5.4990595703125,-1.2337269716858863,-1.1996733109146356,1.236226679547131,-0.6184508800506592,-0.00021275412291288376,-0.3865986764431
1772376390046009600,5.509009521484375,-0.8358262625023722,-1.0287322223633528,1.4035355490759014,-0.6915546655654907,-0.04736801236867905,-0.3723824620246887
1772376390055958500,5.51895849609375,-0.3129293831342831,-0.5240156907975674,1.2873062939211726,-0.7626374363899231,-0.03470505401492119,-0.3113735616207123
1772376390065908500,5.528908447265625,0.1524122195722535,-0.028863106390833854,0.9648089085072279,-0.8077290058135986,-0.024768533185124397,-0.23433469235897064
1772376390075858700,5.538858642578125,0.4015663920842111,0.12414309701919556,0.6936626478850841,-0.8060413599014282,-0.09761635214090347,-0.1768769919872284
1772376390085807600,5.5488076171875,0.6103719318665564,0.025660510957241058,0.5616584621019661,-0.8245921730995178,-0.13431604206562042,-0.14921420812606812
1772376390095757600,5.558757568359375,0.7705142707668244,0.33546763388514517,0.6866783419556916,-0.8411816358566284,-0.05133652314543724,-0.11477454751729965
1772376390105707500,5.56870751953125,0.6026936523236334,0.4050649017244577,0.5241678126193583,-0.8355868458747864,0.006338759325444698,-0.07894517481327057
1772376390115656700,5.57865673828125,0.35297632950358093,0.28419512728750707,0.46178281424641604,-0.8106309771537781,0.031206374987959862,-0.03924895077943802
1772376390125606700,5.588606689453125,0.19278227868238462,0.07463701557219028,0.5500127402327954,-0.7846640944480896,0.018290309235453606,-0.03388960659503937
1772376390135556400,5.598556396484375,0.03504566748328507,-0.2579594467908144,0.5670359173566103,-0.7555673718452454,-0.001875357236713171,-0.05960069224238396
1772376390145505500,5.608505615234375,-0.009975633232481776,-0.5361018499106168,0.6496621781170367,-0.7430193424224854,-0.06251127272844315,-0.0912904441356659
1772376390155455500,5.61845556640625,0.22884081300264222,-0.7434913854151963,0.8351509935893118,-0.6979567408561707,-0.10592567920684814,-0.076859250664711
1772376390165405400,5.628405517578125,0.5764010540079325,-0.7684446248859167,0.6077702249355614,-0.6402079463005066,-0.11888276040554047,-0.08512943238019943
1772376390175355400,5.63835546875,0.4918884680442512,-0.6659726769268512,0.5655787773508578,-0.5980048775672913,-0.1623583287000656,-0.10794952511787415
1772376390185304600,5.6483046875,0.34922377203702926,-0.5480927319556474,0.7419435714513063,-0.5979872941970825,-0.20991545915603638,-0.09680579602718353
1772376390195254500,5.658254638671875,0.2518966761531308,-0.5327502013951539,0.8918627686314284,-0.5893399119377136,-0.2185550481081009,-0.07495062798261642
1772376390205204500,5.66820458984375,0.022646515164617447,-0.47325873250663275,0.7080570839405059,-0.56158846616745,-0.19463880360126495,-0.05523977801203728
1772376390215153400,5.6781533203125,-0.15464648143034426,-0.47566345556080336,0.5681558612972497,-0.5290501117706299,-0.18911094963550568,-0.05084934085607529
1772376390225103600,5.688103515625,-0.17422294149985537,-0.49630759966075416,0.5206166960090398,-0.524408757686615,-0.1634170413017273,-0.04227769002318382
1772376390235053600,5.698053466796875,-0.08499017688017338,-0.347974648758769,0.5455032999843359,-0.5201100707054138,-0.0887596532702446,-0.02658335492014885
1772376390245002500,5.70800244140625,-0.17360935791246593,-0.08971884936988353,0.45874973016083237,-0.4986163079738617,-0.019919071346521378,-0.04073565825819969
1772376390254952400,5.717952392578125,-0.3906792334973812,0.013740940582752227,0.35105807479210194,-0.4669803977012634,0.0006829025223851204,-0.07535934448242188
1772376390264902700,5.727902587890625,-0.43389870895557103,0.007677695021033286,0.33345096030049026,-0.41743043065071106,0.013010675087571144,-0.10687705874443054
1772376390274851600,5.7378515625,-0.3158317169796675,0.03184475255012512,0.2799725411564112,-0.3785187304019928,0.017052022740244865,-0.13788743317127228
1772376390284801500,5.747801513671875,-0.15291039661904796,-0.03946867155730724,0.1896978845346719,-0.368011474609375,0.008136557415127754,-0.16085587441921234
1772376390294751500,5.75775146484375,-0.021661522715259344,-0.1827653818577528,0.06345401584394275,-0.3709861934185028,-0.003122872207313776,-0.18433579802513123
1772376390304701400,5.767701416015625,0.11580680109211243,-0.23598025469481942,0.0019435718158259986,-0.35539206862449646,-0.006127983331680298,-0.19694480299949646
1772376390314650600,5.777650634765625,0.3704529860159382,-0.34876550687551494,-0.09808978735208511,-0.3302493095397949,-0.013499421998858452,-0.20686085522174835
1772376390324600600,5.7876005859375,0.5437326005173847,-0.484524807408452,-0.1607804176080972,-0.32458022236824036,-0.016716785728931427,-0.219193696975708
1772376390334550500,5.797550537109375,0.5910571001416072,-0.5026929167836904,-0.10974164670109748,-0.33624494075775146,-0.01704387739300728,-0.22913596034049988
1772376390344499700,5.807499755859375,0.5506149073770269,-0.4478910670161247,0.007791713322140276,-0.34565627574920654,-0.023114021867513657,-0.23842106759548187
1772376390354449400,5.817449462890625,0.503256286287494,-0.35285657558143135,0.0161953845301643,-0.35093170404434204,-0.01973969116806984,-0.24891914427280426
1772376390364399400,5.8273994140625,0.48369800119549033,-0.20064415289759635,-0.09569090951681136,-0.35560980439186096,0.004139808006584644,-0.2576729357242584
1772376390374348500,5.8373486328125,0.5096174553498626,-0.03658580959737301,-0.1923293655494228,-0.36230984330177307,0.0396721325814724,-0.2747654616832733
1772376390384298500,5.847298583984375,0.556521537604928,0.0336754751086235,-0.21993688238859174,-0.36573997139930725,0.08636506646871567,-0.28853267431259155
1772376390394248400,5.85724853515625,0.5362221152894199,0.0004436521142721176,-0.298175119056832,-0.3629806339740753,0.1306644082069397,-0.2965494692325592
1772376390404197400,5.867197265625,0.461155147334747,-0.09613865328431129,-0.4024351377427578,-0.34943339228630066,0.17592324316501617,-0.3038060665130615
1772376390414147600,5.877147705078125,0.3914736352780834,-0.21089666684269903,-0.45559214291274547,-0.347382128238678,0.24063646793365479,-0.30702218413352966
1772376390424097500,5.88709765625,0.38292562369592487,-0.2727718159973621,-0.4118997161805629,-0.34820690751075745,0.289441853761673,-0.30399683117866516
1772376390434047500,5.897047607421875,0.3653714449679479,-0.2834340797871351,-0.2793968053613789,-0.3513302505016327,0.3184806704521179,-0.29612746834754944
1772376390443996400,5.906996337890625,0.4046574899673462,-0.2496288408190012,-0.1717828183387406,-0.3493576645851135,0.33528682589530945,-0.2794853746891022
1772376390453946600,5.916946533203125,0.449007832618989,-0.26562720493972297,-0.073660279494524,-0.34325358271598816,0.3461054861545563,-0.27931302785873413
1772376390463896600,5.926896484375,0.48018100605048236,-0.32109131800830365,0.03760346220731735,-0.3440999388694763,0.3429940938949585,-0.2787713408470154
1772376390473845500,5.936845458984375,0.5137159767098725,-0.27057167560458184,0.15191139391064643,-0.3362222909927368,0.3448391854763031,-0.2798305153846741
1772376390483795700,5.946795654296875,0.4098166993614286,-0.16300269676744936,0.3145838358104229,-0.3225102126598358,0.32984107732772827,-0.2830428183078766
1772376390493745700,5.95674560546875,0.2713135800130665,-0.0718611211180687,0.5535270319640636,-0.3014525771141052,0.3302239179611206,-0.28459402918815613
1772376390503694600,5.966694580078125,0.09835315099600701,0.06476210276782512,0.8835609503626823,-0.27839118242263794,0.3264155983924866,-0.27816593647003174
1772376390513644500,5.97664453125,0.011139525912702083,0.10286883832216262,1.247099663478136,-0.2568489909172058,0.28282397985458374,-0.264106810092926
1772376390523594500,5.986594482421875,0.07856847326960414,0.05723579891622066,1.3041232809484005,-0.23164138197898865,0.27714425325393677,-0.2500743567943573
1772376390533543700,5.996543701171875,0.2623819759408012,0.051398178803920745,1.0127180761516095,-0.20008285343647003,0.3382830023765564,-0.22882647812366486
1772376390543493600,6.00649365234375,0.2421233970923349,0.16132044276893137,0.5969149227917194,-0.1729433685541153,0.5002660751342773,-0.2046806663274765
1772376390553443300,6.016443359375,-0.12345062124300747,0.26771453260779376,0.07257891399860382,-0.15723198652267456,0.7611203789710999,-0.17748084664344788
1772376390563393500,6.0263935546875,-0.659602265112102,0.44673429819643495,-0.16093288648976012,-0.16389627754688263,1.1243633031845093,-0.14948968589305878
1772376390573342500,6.036342529296875,-1.0418675982683896,0.4670715683043003,-0.20454643929945304,-0.17147411406040192,1.5069670677185059,-0.129737988114357
1772376390583292400,6.04629248046875,-1.0925684424579143,0.30833120515644546,-0.25752399624930694,-0.1763671338558197,1.8133056163787842,-0.14735080301761627
1772376390593242400,6.056242431640625,-0.7706598167173564,0.1157055235415697,-0.0815092211629264,-0.16905060410499573,2.0008327960968018,-0.20049865543842316
1772376390603191600,6.066191650390625,-0.030139994458854198,-0.03874620250165462,0.4507154767870903,-0.1371944099664688,2.062572717666626,-0.24701982736587524
1772376390613141500,6.0761416015625,0.8029500480126589,-0.010081833553314209,0.5004243873298168,-0.09177468717098236,2.0364294052124023,-0.2948719561100006
1772376390623091700,6.086091796875,1.5224892607584595,-0.20609014334380626,0.34162615651488304,-0.11294948309659958,2.0086734294891357,-0.3419917821884155
1772376390633040600,6.09604052734375,2.2152035218775272,-0.6359200684905052,0.8117185339450835,-0.11216038465499878,1.9515522718429565,-0.35773026943206787
1772376390642990800,6.105990966796875,2.620546656021476,-0.6583025806903838,0.8822948759496212,-0.06461603194475174,1.7959693670272827,-0.3593534827232361
1772376390652940800,6.11594091796875,2.334347057043761,-0.3625537937313318,0.9558312368035315,-0.013933655805885792,1.6155835390090942,-0.3478277921676636
1772376390662889700,6.1258896484375,1.6650570722624658,-0.11109773748517036,1.3369278184413909,0.0263581071048975,1.4352864027023315,-0.2643052041530609
1772376390672840000,6.13583984375,0.7236313043650239,0.49084874973297116,1.7547148390948772,0.05734416842460632,1.2918387651443481,-0.10035796463489532
1772376390682790000,6.145789794921875,-0.36826384194120765,1.5046055212825535,1.8930676632523535,0.11021270602941513,1.2076038122177124,0.07507617771625519
1772376390692738800,6.15573876953125,-1.4841086766988039,2.591260355782509,1.567567296630144,0.17626109719276428,1.13542902469635,0.20363493263721466
1772376390702688800,6.165688720703125,-2.183560137118399,3.3397283605664967,0.9266659325957298,0.31774285435676575,1.1919265985488892,0.2092009335756302
1772376390712639000,6.175638916015625,-2.286494295761734,3.435180785152316,-0.12747720987796782,0.5865926146507263,1.4418456554412842,0.10970988869667053
1772376390722588700,6.185588623046875,-1.9037509698301553,2.6906916208714247,-0.7284685883283615,0.8464683890342712,1.7924177646636963,0.0072074830532073975
1772376390732537900,6.195537841796875,-1.2002618513923138,1.2990034537166357,-0.27618832817627115,0.926272988319397,2.105923891067505,-0.09059446305036545
1772376390742487600,6.205487548828125,-0.9139157566159963,0.19202479311227796,0.018473850856162606,0.8578521013259888,2.4490091800689697,-0.15257714688777924
1772376390752437800,6.215437744140625,-0.8107046807274222,-0.18964111284613608,0.1592945264318958,0.7261196374893188,2.6636016368865967,-0.18079882860183716
1772376390762386700,6.22538671875,-0.8135405617404728,-0.4718021039575338,1.0826567047744988,0.6013686656951904,2.6544532775878906,-0.2130582183599472
1772376390772336600,6.235336669921875,-0.995846874719113,-0.8134931424021721,1.67723704713881,0.5191157460212708,2.5340394973754883,-0.24635685980319977
1772376390782286800,6.245286865234375,-1.3270555359855294,-0.9511340188980102,1.614462903317809,0.5266783237457275,2.408792734146118,-0.26387566328048706
1772376390792235800,6.25523583984375,-1.887915687316656,-0.7970254072040319,0.9163017019044607,0.6338615417480469,2.4225265979766846,-0.2598786950111389
1772376390802185700,6.265185791015625,-2.5286861184477805,-0.34617022968530653,0.5280571482080966,0.7077285647392273,2.530095100402832,-0.2722911536693573
1772376390812135700,6.2751357421875,-2.9570035932049152,0.035461774003505704,1.1377760229934006,0.6760590076446533,2.746724843978882,-0.304670512676239
1772376390822084600,6.285084716796875,-3.1971728240221737,0.1461655437350273,1.7560551477879285,0.582545280456543,2.9774181842803955,-0.3473527431488037
1772376390832034800,6.295034912109375,-3.5026916021063923,0.14732640420794485,1.9556717112034558,0.46203115582466125,3.1812703609466553,-0.410748153924942
1772376390841984800,6.30498486328125,-3.453424590112269,0.12244272284209727,2.4004550214625895,0.3239544928073883,3.3068902492523193,-0.47019872069358826
1772376390851933700,6.31493359375,-2.9734838956236835,0.1419827050924301,2.7726865979909894,0.22973676025867462,3.3740170001983643,-0.538845419883728
1772376390861884000,6.3248837890625,-2.392384966123104,0.20393267304897308,2.641139362195134,0.2132187783718109,3.401430368423462,-0.6097976565361023
1772376390871833900,6.334833740234375,-1.693149486541748,0.29068215121924873,2.2548590943090616,0.24306638538837433,3.403069496154785,-0.6529992818832397
1772376390881783800,6.34478369140625,-0.9522574699699878,0.2764309230268001,2.025790810959786,0.275806725025177,3.396786689758301,-0.6547231078147888
1772376390891732700,6.354732666015625,-0.33415508998185395,0.2019920603752136,1.8518695375539362,0.27976369857788086,3.447514057159424,-0.6366751194000244
1772376390901683000,6.364682861328125,-0.17650690598487853,0.03270049259662628,1.6030723252534866,0.253903865814209,3.454711675643921,-0.637444794178009
1772376390911633000,6.3746328125,-0.40582463405057784,-0.10206512072384356,1.2707180010832846,0.23145492374897003,3.433638572692871,-0.6185227036476135
1772376390921581800,6.384581787109375,-0.5712175869554281,-0.07008008292019367,1.1932986613161862,0.20822229981422424,3.3659591674804688,-0.5893911719322205
1772376390931531800,6.39453173828125,-0.5379747311104088,0.049457566130161286,1.3684633589118718,0.16406284272670746,3.3026392459869385,-0.5758993029594421
1772376390941481700,6.404481689453125,-0.4211893033776432,-0.015622516545653341,1.5044408322401344,0.10539181530475616,3.296034097671509,-0.5699897408485413
1772376390951431000,6.414430908203125,-0.4051006306249648,-0.1572375573694706,1.3119364389173687,0.061215128749608994,3.336390733718872,-0.5658363103866577
1772376390961380600,6.424380615234375,-0.5254753150213509,-0.16516484323740005,1.0800754561096428,0.04279511049389839,3.3649027347564697,-0.5576444268226624
1772376390971330800,6.434330810546875,-0.5238167341593652,-0.1809872662693262,0.9925596697419882,0.04308505356311798,3.4107534885406494,-0.545072078704834
1772376390981279700,6.44427978515625,-0.4025039651952684,-0.2827683093547821,1.0665694933265446,0.049674514681100845,3.441089630126953,-0.5279951095581055
1772376390991229700,6.454229736328125,-0.22924429750330744,-0.591100683555007,1.1029507202625275,0.057770296931266785,3.4058403968811035,-0.5176646113395691
1772376391001179600,6.4641796875,-0.13488755919970571,-0.8775555724680423,1.1295011657968164,0.059579383581876755,3.324648141860962,-0.5176606178283691
1772376391011129900,6.4741298828125,-0.034458661375567315,-1.0564245314091443,1.163718784958124,0.052698299288749695,3.216416358947754,-0.5365847945213318
1772376391021078800,6.484078857421875,0.09375599593147635,-1.1223521708250046,1.201817629466951,0.05712101235985756,3.08142352104187,-0.532167911529541
1772376391031028700,6.49402880859375,0.25411446180045605,-1.0982827284514904,1.1026678116679192,0.05351584404706955,3.0063674449920654,-0.5102829337120056
1772376391040978700,6.503978759765625,0.14470701548978684,-1.1684966668844223,0.9884589564248919,0.0335858128964901,2.968996524810791,-0.4903968572616577
1772376391050927900,6.513927978515625,-0.0828853500880301,-1.2379653399080037,0.7150532264381647,0.007195218466222286,2.9402852058410645,-0.4712444841861725
1772376391060877800,6.5238779296875,-0.2935050266202539,-1.130801434740424,0.44678105994760986,-0.028899403288960457,2.9439446926116943,-0.45238956809043884
1772376391070827800,6.533827880859375,-0.41310353901237246,-0.8773924908608197,0.30160160464048386,-0.03773874416947365,2.9846506118774414,-0.44020408391952515
1772376391080776700,6.543776611328125,-0.33719511526487767,-0.5955962414085865,0.12846651317626237,-0.009627215564250946,3.045363426208496,-0.4175128936767578
1772376391090727000,6.553726806640625,-0.07045622275620698,-0.3245961112588644,-0.19614114238992333,0.03558693826198578,3.0814285278320312,-0.38745126128196716
1772376391100676900,6.5636767578125,0.2518951052505523,-0.04930383687317371,-0.39963454723879693,0.09716055542230606,3.0622506141662598,-0.3636215627193451
1772376391110625800,6.573625732421875,0.45599655899517233,0.1382359197795391,-0.4643739997833967,0.170846626162529,3.015857219696045,-0.36763226985931396
1772376391120575700,6.58357568359375,0.6393333110000938,0.31554829692840575,-0.556836594903469,0.21196956932544708,2.9345932006835938,-0.36855292320251465
1772376391130526000,6.59352587890625,0.6462178098168224,0.41107963196933267,-0.3489168980449438,0.2257252335548401,2.8299145698547363,-0.38015463948249817
1772376391140475000,6.603474853515625,0.48771147462055087,0.4512117358714342,-0.04275938366577029,0.22702698409557343,2.6911659240722656,-0.4378490746021271
1772376391150424800,6.6134248046875,0.3631621348880231,0.4671452180624008,0.12857567263916134,0.21018019318580627,2.5396885871887207,-0.5140648484230042
1772376391160374800,6.623374755859375,0.46786059979014094,0.36196810279786584,0.07995850285589695,0.1660366952419281,2.376746416091919,-0.5774086713790894
1772376391170324700,6.63332470703125,0.6728897628389299,0.23133155210614204,-0.22240765641629695,0.1138511449098587,2.22530198097229,-0.6237090229988098
1772376391180273700,6.643273681640625,0.8152362597424536,0.1193961947530508,-0.6047828796878457,0.08214088529348373,2.0836148262023926,-0.6609272360801697
1772376391190223600,6.6532236328125,0.9998325833544135,-0.010915361768007278,-0.9675473935604095,0.08957943320274353,1.9445250034332275,-0.6798272728919983
1772376391200173800,6.663173828125,1.1040971138186753,-0.11559972507953643,-1.269377253998816,0.09637768566608429,1.8085764646530151,-0.6897289156913757
1772376391210122800,6.673122802734375,1.0925702690888195,-0.30058570559620856,-1.443613292442262,0.08469836413860321,1.6603935956954956,-0.6759929060935974
1772376391220072700,6.68307275390625,1.0938030988194047,-0.6243249077647924,-1.6016501834958792,0.05567629635334015,1.5049158334732056,-0.6583427786827087
1772376391230022700,6.693022705078125,1.292875910747051,-0.8138175520509481,-1.686929881374538,0.03285481780767441,1.3528387546539307,-0.6149315237998962
1772376391239971800,6.702971923828125,1.9544056367903946,-0.733933867996931,-1.8645429950356482,0.04404888302087784,1.253449559211731,-0.5104562640190125
1772376391249921800,6.712921875,2.7649375912994145,-0.5494236882984638,-2.1552727847889064,0.05700391158461571,1.1644797325134277,-0.37458983063697815
1772376391259871700,6.722871826171875,3.1225369774937626,-0.43524318236708637,-2.1182243261158464,0.05204350873827934,1.031685471534729,-0.28301358222961426
1772376391269820700,6.732820556640625,2.808650476297736,-0.5637503198146819,-1.8641054804012178,0.027624929323792458,0.8669270277023315,-0.2467651665210724
1772376391279771000,6.74277099609375,2.387557984358072,-0.6678565909773111,-1.6554063236027956,-0.012771761044859886,0.6912015080451965,-0.2224462479352951
1772376391289720800,6.752720947265625,2.1287232160374523,-0.6452040296643972,-1.5830708629712462,-0.048003729432821274,0.507756769657135,-0.20703521370887756
1772376391299669800,6.762669677734375,1.8046347620397805,-0.5700169789940118,-1.6039438473910093,-0.0750712975859642,0.33383896946907043,-0.20573905110359192
1772376391309619700,6.77261962890625,1.4223948555856942,-0.5106634572714567,-1.59298552326411,-0.08995702117681503,0.18751820921897888,-0.21425527334213257
1772376391319570000,6.78256982421875,1.0546137556601316,-0.48050563489496706,-1.3877122492611407,-0.10562147200107574,0.09031229466199875,-0.21652455627918243
1772376391329518800,6.792518798828125,0.7394845609266311,-0.6414268492132424,-1.098648931415379,-0.1106562614440918,0.053881846368312836,-0.20777010917663574
1772376391339468800,6.80246875,0.3683995240848511,-1.0146925910949707,-1.0063079168483615,-0.10969220101833344,0.07257803529500961,-0.20859302580356598
1772376391349418800,6.812418701171875,-0.16598901910185812,-1.3695523231923579,-0.9954793565809726,-0.09966922551393509,0.13874375820159912,-0.2024431824684143
1772376391359368700,6.82236865234375,-0.6617886692404746,-1.490712605008483,-1.0042737806722521,-0.10093662142753601,0.25105005502700806,-0.20074808597564697
1772376391369318000,6.83231787109375,-1.115342584323883,-1.6561322997897863,-1.031596379622817,-0.0964837446808815,0.33933550119400024,-0.1728755682706833
1772376391379267600,6.842267578125,-1.2983425055898725,-1.5737117907345295,-1.2524813565164803,-0.08168642222881317,0.47059711813926697,-0.13670824468135834
1772376391389217800,6.8522177734375,-1.4366688801318406,-1.4649205766260622,-1.4047253433823585,-0.08631540834903717,0.5777836441993713,-0.11460880935192108
1772376391399166700,6.862166748046875,-1.6022911117479204,-1.2039853288948534,-1.213458675161004,-0.1187785416841507,0.601050615310669,-0.11054696142673492
1772376391409116700,6.87211669921875,-1.6671432308867573,-0.974791957861185,-0.9029097939550876,-0.18103329837322235,0.5864402055740356,-0.12503330409526825
1772376391419066600,6.882066650390625,-1.6392081991262732,-0.8680787190705538,-0.6598477643057704,-0.24973540008068085,0.5288506746292114,-0.12181168794631958
1772376391429015800,6.892015869140625,-1.300675770843029,-0.7238193012177944,-0.50264703181535,-0.33698800206184387,0.5041560530662537,-0.10483934730291367
1772376391438965800,6.9019658203125,-1.0075934996794909,-0.7096300323456526,-0.380686831793189,-0.4200780987739563,0.49768614768981934,-0.049235470592975616
1772376391448915700,6.911915771484375,-0.6319518955118953,-0.6829623901724815,-0.45734220145046706,-0.48746243119239807,0.5127145051956177,0.025302458554506302
1772376391458864600,6.92186474609375,-0.4200707476764917,-0.7412029822170734,-0.6820474672846496,-0.5432146191596985,0.5425983667373657,0.09748770296573639
1772376391468814800,6.93181494140625,-0.3855356600638479,-0.7204074469476938,-0.6121531161949039,-0.6052869558334351,0.5797268152236938,0.1382627934217453
1772376391478764800,6.941764892578125,-0.5774084774848074,-0.5031780699521303,-0.5060884044408798,-0.6550904512405396,0.6128876805305481,0.1749880462884903
1772376391488713700,6.951713623046875,-0.6230334066495299,-0.36276480613350864,-0.6299789880037308,-0.6967760324478149,0.6551224589347839,0.21830134093761444
1772376391498663700,6.96166357421875,-0.6830551099572331,-0.44884734482765193,-0.709646106697619,-0.7250598669052124,0.6787217855453491,0.2520845830440521
1772376391508614000,6.97161376953125,-0.9347949515808374,-0.4243073623329401,-0.954114496013522,-0.6833145618438721,0.6383511424064636,0.25198984146118164
1772376391518562800,6.981562744140625,-1.2412884929813444,-0.06087853933274746,-1.5374387003481387,-0.5537040829658508,0.5375507473945618,0.23174317181110382
1772376391528512800,6.9915126953125,-1.2280369433507323,0.40726796472668647,-2.2758447453230617,-0.3543376624584198,0.4337006211280823,0.2125384360551834
1772376391538463000,7.001462890625,-0.8094495660997927,0.721432698342204,-2.757794733807444,-0.18116028606891632,0.43614301085472107,0.1919652372598648
1772376391548412700,7.01141259765625,-0.1507074614809826,1.0851315704554318,-2.5718510141745208,-0.14476226270198822,0.6368367671966553,0.2150866836309433
1772376391558361900,7.02136181640625,0.36110198748782274,1.84506906375885,-1.292493925692141,-0.13978055119514465,0.8303652405738831,0.22071659564971924
1772376391568311800,7.031311767578125,-0.0867489301810041,2.5492472604393956,-0.16651625784635543,-0.07382944226264954,0.6772900223731995,0.1502273678779602
1772376391578261800,7.04126171875,-1.650891768787801,2.502456283169985,-0.6833873375862837,0.031552642583847046,0.4007529318332672,0.04707169160246849
1772376391588211000,7.0512109375,-2.8485382500499483,2.0322177752673625,-1.5506658461898564,0.005680731497704983,0.48232054710388184,0.04284479469060898
1772376391598160600,7.06116064453125,-2.2451208134964107,0.7105483162343501,-0.8671713949672877,-0.15710605680942535,0.7783857583999634,0.029284510761499405
1772376391608110600,7.071110595703125,-1.8927571359984576,-0.7009358537584542,0.10218494771122932,-0.3507958650588989,0.9830032587051392,-0.04076721891760826
1772376391618059800,7.081059814453125,-2.023674987849593,-1.3362550337463617,0.2433256490215659,-0.47555485367774963,1.1084065437316895,-0.08270348608493805
1772376391628010000,7.091010009765625,-1.952806677161157,-1.325927700999379,-0.22387056857571005,-0.5272049903869629,1.1663151979446411,-0.115998774766922
1772376391637960000,7.1009599609375,-1.726748535413295,-0.9410469246476888,-0.5753484031498431,-0.5650396347045898,1.13942551612854,-0.11663579940795898
1772376391647908900,7.110908935546875,-1.1250269429922104,-0.2789040351420641,-0.6137969378791749,-0.6217495799064636,1.0982537269592285,-0.0926530584692955
1772376391657859000,7.120859130859375,-0.4213051848422736,0.5201829807668924,-0.4687323411233723,-0.721315324306488,1.1156377792358398,-0.054938700050115585
1772376391667809000,7.13080908203125,0.36021088386699557,1.0175912351459264,0.023059534678608176,-0.8087165355682373,1.1436656713485718,-0.02470702864229679
1772376391677758000,7.140758056640625,0.9162347010828554,1.0819324821531773,0.6376398780204355,-0.8308785557746887,1.1396666765213013,-0.040071602910757065
1772376391687708000,7.1507080078125,1.176933217448741,0.43493806194067,1.5497132216401397,-0.8092305660247803,1.0549430847167969,-0.11983096599578857
1772376391697658000,7.160658203125,1.3968176389977336,-0.6645254007279873,2.4939871455103155,-0.7475796937942505,0.9725866913795471,-0.20717386901378632
1772376391707607000,7.17060693359375,1.7580524590849875,-1.3923936850756407,3.0191397313833237,-0.6947360634803772,0.9252868294715881,-0.18649804592132568
1772376391717557000,7.180556884765625,2.5433280995234844,-1.4531336927205323,3.112243547016382,-0.6721617579460144,0.9546281695365906,-0.05751875787973404
1772376391727507000,7.1905068359375,2.966389261187613,-0.9733364983558654,2.618639361095428,-0.6703415513038635,0.9895389080047607,0.12210524827241898
1772376391737457200,7.20045703125,2.9088708459377286,-0.276515094178915,1.7854225504390895,-0.6295624375343323,1.0545072555541992,0.26140642166137695
1772376391747406000,7.210406005859375,2.3696702993594108,0.2632055307507515,0.7883271369636058,-0.5932388305664062,1.1168830394744873,0.3110145330429077
1772376391757356000,7.22035595703125,1.6209575260341167,0.5485439828544855,0.25733283932507034,-0.5992940664291382,1.2314972877502441,0.2797149121761322
1772376391767306000,7.230305908203125,0.6821740893390029,0.7185434066414833,0.21107794169373809,-0.6324670314788818,1.2853639125823975,0.24259936809539795
1772376391777255200,7.240255126953125,0.16252875911276787,0.7028489939033985,0.33582543434686957,-0.6747348308563232,1.2930684089660645,0.22577086091041565
1772376391787204900,7.250204833984375,-0.00941317704413086,0.4984498723864555,0.6219646814394741,-0.7128044366836548,1.3554571866989136,0.2232920527458191
1772376391797154800,7.26015478515625,0.027514029869437216,0.17830197270810602,0.8203186045080423,-0.7061984539031982,1.4365382194519043,0.23650719225406647
1772376391807104000,7.27010400390625,0.17013483193600548,-0.16501345206797122,0.645549482101202,-0.6528950333595276,1.5107158422470093,0.2511351704597473
1772376391817054000,7.280053955078125,0.150078917786479,-0.2648790169209242,0.41977680623121555,-0.5953667163848877,1.5978188514709473,0.22630147635936737
1772376391827004000,7.29000390625,0.014603809056361204,-0.27740941267013547,0.34455293068177995,-0.5237424969673157,1.6407020092010498,0.20081958174705505
1772376391836952800,7.299952880859375,0.13956588974166662,-0.168430567035079,0.26754202558510004,-0.4542217254638672,1.6746950149536133,0.1563248187303543
1772376391846903000,7.309903076171875,0.11299047416290267,-0.2128507235199213,0.4501128347188234,-0.40229421854019165,1.6432363986968994,0.09927590191364288
1772376391856853000,7.31985302734375,0.18982916449783369,-0.4446972394108772,0.6937432388406246,-0.3747502267360687,1.5257095098495483,0.05183408409357071
1772376391866802000,7.329802001953125,0.4454012960270047,-0.5659095436751842,0.7579711616665125,-0.3663884699344635,1.398481845855713,0.011545367538928986
1772376391876752000,7.339751953125,0.6633220893528312,-0.6172393334180116,0.4623433707386255,-0.357574462890625,1.321532964706421,-0.01725884899497032
1772376391886702000,7.3497021484375,0.9300437384657562,-0.645383477884531,0.09191603062059729,-0.3605125844478607,1.2241114377975464,-0.03281053900718689
1772376391896651000,7.359651123046875,1.2917964449472725,-0.5750035352349281,0.030046215228177606,-0.38365569710731506,1.1488767862319946,-0.03443746268749237
1772376391906601000,7.36960107421875,1.428528682165593,-0.5157517203211784,-0.11198325161542742,-0.39096882939338684,1.112842321395874,-0.02164567820727825
1772376391916551000,7.379551025390625,1.320123252504319,-0.5133411520481109,-0.46090369332432746,-0.3749927878379822,1.1160069704055786,-0.00909473281353712
1772376391926500000,7.3895,1.1065184957467018,-0.40121231794953344,-0.704194563293457,-0.3641434907913208,1.1165218353271484,-0.0024762789253145456
1772376391936450000,7.399449951171875,1.1087565569970756,-0.24315000019371508,-0.6062625968515872,-0.37092551589012146,1.0807726383209229,0.0015512197278439999
1772376391946400000,7.40939990234375,1.138380564757809,-0.08331833467781544,-0.4656242921054363,-0.3679986894130707,1.04118812084198,0.0027658874168992043
1772376391956350200,7.41935009765625,1.095376631746441,0.10583587143421172,-0.506045149821043,-0.3573998510837555,1.011808156967163,-0.0017521653790026903
1772376391966299100,7.429299072265625,0.9196704476851969,0.16359657100737093,-0.5637678554713725,-0.33060213923454285,1.0047616958618164,-0.009787917137145996
1772376391976249000,7.4392490234375,0.6940090501699596,0.1797363894253969,-0.7151046643644571,-0.3048381805419922,1.0128263235092163,-0.008501611649990082
1772376391986198800,7.44919873046875,0.3934662338674068,0.17741817561089993,-0.8133587023675442,-0.2978527545928955,1.024561882019043,-0.01832129992544651
1772376391996148000,7.45914794921875,0.12288875870970077,0.07776946837902068,-0.7024211238801479,-0.31363651156425476,1.042399525642395,-0.03029141202569008
1772376392006098000,7.469097900390625,0.01600761600625701,-0.057849546900391575,-0.6521124938786029,-0.31645581126213074,1.0755891799926758,-0.03219015151262283
1772376392016047900,7.4790478515625,0.07750798616493121,-0.2041366711884737,-0.6261152983129025,-0.33322733640670776,1.0814331769943237,-0.0399966761469841
1772376392025996800,7.488996826171875,0.2686096365503035,-0.3304033362329006,-0.421351435136795,-0.3456859886646271,1.0895055532455444,-0.05509702116250992
1772376392035947000,7.498947021484375,0.42783191972989587,-0.35465281134843823,-0.43964580124020575,-0.34093889594078064,1.0788882970809937,-0.06719362735748291
1772376392045897000,7.50889697265625,0.5732490562504157,-0.33599604167342184,-0.5640121856212615,-0.3396429121494293,1.0580229759216309,-0.07423695921897888
1772376392055846000,7.518845947265625,0.7232673664234578,-0.2709785028398037,-0.7019207731425762,-0.3436203598976135,1.0353288650512695,-0.07957766950130463
1772376392065795800,7.5287958984375,0.9208376648336648,-0.1736632069915533,-0.785339061063528,-0.3523764908313751,0.9946030974388123,-0.09126962721347809
1772376392075746000,7.53874609375,1.0512415027480573,-0.24854922888875006,-0.739823510557413,-0.37424343824386597,0.9616714715957642,-0.11598215997219086
1772376392085695000,7.548695068359375,1.0711378241553902,-0.3444757007271051,-0.7073135720968245,-0.3921861946582794,0.9379099011421204,-0.1277245432138443
1772376392095645000,7.55864501953125,1.0614180288475006,-0.2776800463050604,-0.7428209388077258,-0.405401349067688,0.931352972984314,-0.14096152782440186
1772376392105595000,7.568594970703125,0.9404645216498524,-0.23455869745910166,-0.7745382655858993,-0.433798611164093,0.9224321842193604,-0.163366436958313
1772376392115544000,7.5785439453125,0.7784129881273955,-0.30780162832438945,-0.818098005849123,-0.4661102294921875,0.9296607971191406,-0.1880938857793808
1772376392125494000,7.588493896484375,0.7734005667928606,-0.30372225005626674,-0.8585316499810666,-0.49715709686279297,0.9270095825195312,-0.21547836065292358
1772376392135444000,7.59844384765625,0.8784816012717783,-0.2650923674106598,-0.8733926075696945,-0.5174469351768494,0.9253544807434082,-0.2318165898323059
1772376392145393000,7.608392822265625,1.04463888961263,-0.29800562597513197,-0.8904794245142489,-0.5337291359901428,0.9301251173019409,-0.24448123574256897
1772376392155343000,7.618343017578125,1.1249015630468726,-0.3080406977772713,-0.9555741202373057,-0.5438227653503418,0.9238903522491455,-0.26204317808151245
1772376392165293000,7.62829296875,1.1529550335552543,-0.3124257809937,-0.9962802246350795,-0.541831910610199,0.8939476013183594,-0.27948859333992004
1772376392175242000,7.638241943359375,1.2187801624447108,-0.3348141384124756,-0.9508358396690338,-0.5393828749656677,0.8583323955535889,-0.29249733686447144
