time,seconds_elapsed,accel_x,accel_y,accel_z,gyro_x,gyro_y,gyro_z
1772376657134527000,0.07652685546875,-0.4577108155671507,0.3208811823889613,-0.12354103947281837,-0.3974943459033966,0.47112271189689636,1.1730703115463257
1772376657144476000,0.086475830078125,-0.3057720952581614,-0.295240691306442,-0.19698036969304084,-0.24795226752758026,0.8327541947364807,1.248483419418335
1772376657154425000,0.096425048828125,-0.17409231912381945,-0.7160992283597588,-0.05912263557612896,-0.05371604487299919,1.1089400053024292,1.4025732278823853
1772376657164374000,0.1063740234375,0.05055953602269292,-0.5633506529726088,0.3883791398614645,0.10180696845054626,1.5464222431182861,1.6121962070465088
1772376657174324000,0.116323974609375,0.4799843144346028,0.1256846273727715,0.7385235338747501,0.19145740568637848,2.023548126220703,1.806077480316162
1772376657184273000,0.12627294921875,0.6293336027722806,0.694746351468563,0.8256634726673364,0.2687162160873413,2.3022632598876953,1.963727593421936
1772376657194222000,0.13622216796875,0.24057182026878,0.9207423877656459,0.49417467928528785,0.2840268611907959,2.903285264968872,1.9550374746322632
1772376657204171000,0.1461708984375,-0.23241441543940453,0.8706580680392682,0.4803063129305839,0.02124555967748165,2.846961259841919,1.92525315284729
1772376657214120200,0.1561201171875,-0.7165935877479612,0.5364243598632514,1.2560446019560099,-0.6012840270996094,2.5140979290008545,1.8942216634750366
1772376657224069000,0.166069091796875,-0.9636008478917181,0.6954759809173643,1.8050094405710697,-1.0769085884094238,2.7046456336975098,1.8462262153625488
1772376657234018000,0.17601806640625,-1.3083058273300527,1.0046550350748003,1.9901321992099283,-1.0853080749511719,2.5788590908050537,1.6885795593261719
1772376657243967000,0.185967041015625,-1.8015438102871177,1.2932150795735418,0.4693067800104618,-0.7701716423034668,2.294461488723755,1.4758294820785522
1772376657253917000,0.1959169921875,-2.0422870416000483,1.6367748344995081,-1.4005653010934591,-0.21028324961662292,2.092817544937134,1.3487125635147095
1772376657263865900,0.205865966796875,-1.7105194312766194,1.8128256672799585,-2.155098305004835,0.39752334356307983,2.152801036834717,1.4124683141708374
1772376657273815000,0.21581494140625,-1.292480043297261,1.7746663247555494,-2.112238237443566,0.5376617312431335,1.583961844444275,1.689510703086853
1772376657283764200,0.22576416015625,-1.192367079554498,1.641290996749699,-1.0658458552271126,0.007054596208035946,0.17785708606243134,1.830864429473877
1772376657293713200,0.235713134765625,-1.3184355916783213,1.320614397022128,0.37028409572243687,-0.43650275468826294,-0.030358921736478806,1.6674818992614746
1772376657303662000,0.245662109375,-1.9947977068029343,1.86492205748111,0.34139059419333934,-0.7080804705619812,0.3505074679851532,1.3038160800933838
1772376657313611000,0.255611083984375,-2.561347155816853,1.8768200005456803,-0.4562210884660482,-0.8272591829299927,0.5199830532073975,0.93083256483078
1772376657323561000,0.26556103515625,-2.3554655406571925,1.1083137086004018,-0.07660276268720627,-0.7991958856582642,0.5037822723388672,0.716620147228241
1772376657333510100,0.27551025390625,-1.6569862862706184,0.5211192387036979,0.22837270230054854,-0.7011131048202515,0.5550734400749207,0.6392965912818909
1772376657343459000,0.285458984375,-0.44703225822970266,0.3705287181332707,0.10774725801348685,-0.5666719675064087,0.5579416155815125,0.6308953762054443
1772376657353408000,0.295407958984375,0.04501593042090535,0.43902211638391014,0.059140171232819554,-0.4365840256214142,0.5548992156982422,0.6509408950805664
1772376657363357200,0.305357177734375,0.161949680583179,0.33212460706755514,-0.10477321063876151,-0.3188331425189972,0.6075434684753418,0.68033766746521
1772376657373306000,0.31530615234375,-0.15168080002516507,0.27481135900095105,-0.35163784744143484,-0.18951168656349182,0.7441813945770264,0.6935224533081055
1772376657383255000,0.325255126953125,-0.5209358449608087,0.138705144726485,-0.5992670388758182,-0.02136102132499218,0.9065055847167969,0.707152247428894
1772376657393204000,0.335203857421875,-0.99362846801728,0.1417139711536467,-0.6933592810243367,0.15330995619297028,1.0193250179290771,0.7284905314445496
1772376657403154200,0.345154296875,-1.38698145076856,0.2759820102155208,-0.5691840353012084,0.28170549869537354,1.0897996425628662,0.7407365441322327
1772376657413103000,0.35510302734375,-1.6535476901240647,0.36260420874431726,-0.31117841128110885,0.3339866101741791,1.1379836797714233,0.7471290230751038
1772376657423052000,0.365052001953125,-1.6102371023163198,0.3091144644886255,0.018217793735861777,0.3231840133666992,1.1493940353393555,0.7600775957107544
1772376657433001000,0.3750009765625,-1.3964540663823484,0.18990093282610176,0.36700083626806734,0.2697361409664154,1.071838617324829,0.7904489040374756
1772376657442950000,0.384949951171875,-1.1232071802191435,0.03245236305445433,0.5799503439873457,0.2050732523202896,0.943096935749054,0.8370260000228882
1772376657452899000,0.394899169921875,-0.8284938737876713,-0.19271102181077002,0.47387598762214184,0.16065286099910736,0.8761354684829712,0.8797596096992493
1772376657462848000,0.404847900390625,-0.6738369805611669,-0.34443346902057526,0.1690104127496481,0.12687145173549652,0.8371574282646179,0.8956853151321411
1772376657472798200,0.414798095703125,-0.6348049468554556,-0.3730988608822226,-0.011748889982700347,0.09176795929670334,0.8416341543197632,0.8690184950828552
1772376657482747100,0.4247470703125,-0.7568050404965877,-0.3543582123160362,-0.05011632229983806,0.07306510955095291,0.8883542418479919,0.8025470972061157
1772376657492696000,0.434696044921875,-1.0146519668236373,-0.3698952425353229,-0.10216682753264904,0.03780033439397812,0.871090292930603,0.7102072238922119
1772376657502645000,0.44464501953125,-1.2171771111622451,-0.3754655900135636,-0.1609890188574791,-0.05432932823896408,0.763108491897583,0.598570704460144
1772376657512594000,0.454593994140625,-1.078904366503656,-0.43908553700894115,-0.18217443022727967,-0.20080120861530304,0.6320204138755798,0.5099868774414062
1772376657522542800,0.46454296875,-0.629864713974297,-0.6173661746680736,-0.1801864712804556,-0.3663182556629181,0.5142229199409485,0.46393686532974243
1772376657532492300,0.4744921875,0.08694412395954132,-0.9509168690159916,-0.2699789704084396,-0.4777873754501343,0.4747156798839569,0.42958587408065796
1772376657542442000,0.48444189453125,0.8333744854360818,-1.2661093382440507,-0.41485096720159054,-0.5003491640090942,0.37840938568115234,0.3768070638179779
1772376657552391200,0.49439111328125,1.3497916839286683,-1.461046511671692,-0.6815005009263754,-0.44898006319999695,0.28411000967025757,0.24611850082874298
1772376657562340000,0.504340087890625,1.802560001592338,-1.5363336617156862,-0.8802244994163513,-0.34771254658699036,0.18165315687656403,0.027887623757123947
1772376657572289000,0.5142890625,1.948332454356551,-1.612419853182882,-0.885226837748289,-0.23495031893253326,0.07221759855747223,-0.255919486284256
1772376657582238000,0.524238037109375,1.3602014342620967,-1.6947081141605973,-0.6964467256456613,-0.1326596438884735,-0.1827814131975174,-0.5127115845680237
1772376657592187000,0.534186767578125,0.8494663730591535,-1.7212250958167015,-0.5907657525122165,-0.03697682544589043,-0.5533432960510254,-0.7070802450180054
1772376657602136000,0.544135986328125,0.6428463606223463,-1.7884497893057762,-0.44310909343659877,0.05332111194729805,-0.8531742095947266,-0.7758014798164368
1772376657612085000,0.5540849609375,0.6602098756164312,-1.803571662852913,-0.43550271008610725,0.14786165952682495,-1.1273002624511719,-0.7389692664146423
1772376657622035000,0.564034912109375,0.5619289496064186,-1.4428456690706313,-0.4916664958566427,0.2548600435256958,-1.4462207555770874,-0.6863321661949158
1772376657631983900,0.57398388671875,0.0838601864695549,-1.686506103004515,-0.34992519830465313,0.136541485786438,-1.7075190544128418,-0.7085317969322205
1772376657641933000,0.58393310546875,-0.16654080776572228,-2.250694814236462,-0.16565817971229552,-0.04240483418107033,-1.9142554998397827,-0.6441690325737
1772376657651882000,0.593882080078125,0.11897373155727982,-2.1996460333921015,0.41634968132674693,-0.32169097661972046,-2.143136978149414,-0.6130959391593933
1772376657661831200,0.6038310546875,0.6349333955407143,-2.0892228341676295,1.128227784860134,-0.6559035778045654,-2.3694441318511963,-0.5984624028205872
1772376657671780000,0.613780029296875,1.1047848038218915,-1.9255188572630284,1.6150293050289153,-1.0305285453796387,-2.605541229248047,-0.6130173206329346
1772376657681729000,0.62372900390625,1.3744827653318643,-1.6793416182026266,1.6619243271946906,-1.4632277488708496,-2.740791082382202,-0.6798431873321533
1772376657691679000,0.633678955078125,1.0590629901539534,-1.3407058756753802,1.4678086992830037,-1.9361158609390259,-2.673347234725952,-0.8291734457015991
1772376657701628000,0.6436279296875,0.15055793347507715,-0.9499549651812762,1.2809510796755552,-2.350024938583374,-2.4763307571411133,-0.9628399014472961
1772376657711576800,0.653576904296875,-0.8631790373954922,-0.850405407474935,1.0049164624899625,-2.6528966426849365,-2.163550615310669,-0.9866694808006287
1772376657721526300,0.6635263671875,-0.7379962951302528,-0.9396606579210609,0.6304623876065015,-2.8030784130096436,-1.7935514450073242,-0.8918787837028503
1772376657731475200,0.67347509765625,-0.0629284210672602,-1.1196242802310734,0.1600520302683115,-2.78353214263916,-1.3862885236740112,-0.6935410499572754
1772376657741424000,0.683424072265625,0.42957668103799224,-1.4701025093086062,-0.3153022132128477,-2.6009790897369385,-1.0729279518127441,-0.4525465667247772
1772376657751373000,0.693373046875,1.0604937536094337,-1.816712591715902,-1.0534843863040209,-2.2365126609802246,-0.9188440442085266,-0.2070254683494568
1772376657761323000,0.703322998046875,1.1505005530752241,-2.201493268693983,-1.5892992359668014,-1.7221752405166626,-0.9697213172912598,0.1136883795261383
1772376657771272000,0.71327197265625,0.9324589829139411,-2.307554327186197,-2.023954389312863,-1.1868200302124023,-0.8695706129074097,0.4251970052719116
1772376657781221000,0.72322119140625,0.6524326657436788,-2.1665575643911956,-2.4423849685668944,-0.674395740032196,-0.5494325757026672,0.6888129115104675
1772376657791170000,0.733170166015625,0.5284858950141818,-1.803476385784894,-2.658309692704677,-0.23606236279010773,-0.127944216132164,0.916504442691803
1772376657801119000,0.743118896484375,0.600446019527316,-1.2520115470476447,-2.3168927950263023,0.15673337876796722,0.21815434098243713,1.0756362676620483
1772376657811068200,0.753068115234375,0.422386988729611,-0.823084489024803,-1.4940864653557537,0.5220231413841248,0.5641208291053772,1.2002801895141602
1772376657821017000,0.76301708984375,0.11515883117793127,-0.7178253945652395,-1.009385716858506,0.8456035852432251,0.9828925728797913,1.327077031135559
1772376657830966000,0.772966064453125,0.09631805583867244,-0.7579535529445857,-0.8598667710423469,1.0300663709640503,1.140925407409668,1.3611382246017456
1772376657840916200,0.782916259765625,0.1343805229930207,-0.7879888449199497,-0.7503928353667259,1.051843523979187,0.6204971671104431,1.2756590843200684
1772376657850865200,0.792865234375,0.22230039664953946,-0.5789280152022839,-0.6946171721309423,0.9260767698287964,0.14593173563480377,1.1892138719558716
1772376657860814000,0.80281396484375,-0.6376416315861045,-0.5200429147090763,-0.6192991885572672,0.7931088805198669,-0.07959619909524918,1.1386429071426392
1772376657870763000,0.812762939453125,-0.5197790030758828,-0.19242139121443033,-0.4857540569424629,0.7411295771598816,-0.2472071498632431,1.1048691272735596
1772376657880712000,0.8227119140625,0.36101891231425104,0.27510612243013455,-0.39965924328863617,0.752677857875824,-0.41946762800216675,1.062193512916565
1772376657890661600,0.83266162109375,0.7112544186770916,0.2533152377141639,-0.43479076242446896,0.7942132353782654,-0.46344324946403503,1.0733453035354614
1772376657900610600,0.842610595703125,0.45411830750051885,-0.2571576106223278,-0.694716540852189,0.8713253140449524,-0.4294767379760742,1.1403701305389404
1772376657910560500,0.852560546875,0.5589051448058336,-0.5779091204833239,-0.9677753570973873,1.003159761428833,-0.3533455729484558,1.2549934387207031
1772376657920509700,0.862509765625,1.1660959624182432,-0.34802864396832883,-1.2217583014726638,1.1228110790252686,-0.27908971905708313,1.3616666793823242
1772376657930459000,0.872458984375,1.3498659182086585,-0.21877890799250452,-1.1452286040216684,1.2078889608383179,-0.17984241247177124,1.4544817209243774
1772376657940407800,0.88240771484375,1.1746304934643208,-0.11703089039381592,-1.0008382532656193,1.2282570600509644,-0.016165340319275856,1.494486927986145
1772376657950356700,0.892356689453125,0.8956768470268696,-0.02878598603401333,-0.7827250791728496,1.2037935256958008,0.13864636421203613,1.4923062324523926
1772376657960305700,0.9023056640625,0.627991832774505,0.1459913562119007,-0.5254863478720188,1.1397613286972046,0.26033470034599304,1.466348648071289
1772376657970254600,0.912254638671875,0.2271016046524979,0.17177279013507066,-0.30795711114704605,1.061193823814392,0.3848147988319397,1.4294806718826294
1772376657980204500,0.92220458984375,-0.09732052001263945,0.08383395604975521,-0.07953121735453605,0.9515098333358765,0.48527270555496216,1.403601050376892
1772376657990153700,0.93215380859375,-0.18240334361232816,0.06881758870370686,0.10630115085840225,0.7968752980232239,0.5363084673881531,1.3625675439834595
1772376658000102700,0.9421025390625,-0.3647959466349333,0.19352723356448112,0.2410802081823349,0.5947073101997375,0.5410507321357727,1.3265889883041382
1772376658010051800,0.9520517578125,-0.5655380800142884,0.5013026314690708,0.2090297039270401,0.36053746938705444,0.5471992492675781,1.2922857999801636
1772376658020000800,0.962000732421875,-0.4279568978164345,0.833529456802085,0.04483984320163727,0.1352771669626236,0.5678512454032898,1.2693612575531006
1772376658029949700,0.97194970703125,-0.34149960752576586,0.8887881104264408,-0.28547581474781036,-0.038282811641693115,0.5523075461387634,1.2503057718276978
1772376658039898600,0.981898681640625,-0.3659722969379276,0.7404525291759521,-0.635004707211256,-0.15555377304553986,0.5106117129325867,1.2393308877944946
1772376658049848600,0.9918486328125,-0.4657837204508483,0.5286231115277856,-1.0009259315490722,-0.2442682385444641,0.5179080963134766,1.253838300704956
1772376658059797800,1.0017978515625,-0.4579352719727903,0.43323863761164244,-1.2549749268978834,-0.29925188422203064,0.6236486434936523,1.2672274112701416
1772376658069746700,1.01174658203125,-0.2892985879063606,0.42303010893873866,-1.1668553294181823,-0.31752339005470276,0.7820817232131958,1.2926100492477417
1772376658079695600,1.021695556640625,-0.2888449258547276,0.3494228748057037,-0.7526970206558704,-0.33744674921035767,0.9447321891784668,1.3234177827835083
1772376658089644500,1.03164453125,-0.2779725995108485,0.24501579406559465,-0.2021843680769205,-0.3573712408542633,0.9468841552734375,1.3602406978607178
1772376658099593700,1.04159375,0.00166983290836215,0.3238909586641937,0.3875245688587427,-0.37581950426101685,0.694373607635498,1.4155281782150269
1772376658109542700,1.051542724609375,0.2439905426710844,0.4635396678511053,0.8625555717349052,-0.36752596497535706,0.32597315311431885,1.493080735206604
1772376658119491600,1.06149169921875,0.41215193737596273,0.5016263104654848,1.1093974121838808,-0.32453563809394836,-0.01357189193367958,1.572526216506958
1772376658129441800,1.07144189453125,0.7527949280723929,0.3210389302339405,1.1201607982605695,-0.24471189081668854,-0.2421838790178299,1.6348137855529785
1772376658139390700,1.081390625,1.0946288821190595,0.14542531982697546,1.0398241097420453,-0.12607765197753906,-0.2924979329109192,1.6668167114257812
1772376658149339600,1.091339599609375,1.391042854988575,0.004648921784386038,0.9253373143404722,0.030977580696344376,0.04314417764544487,1.6506258249282837
1772376658159288600,1.10128857421875,1.5085921067006884,-0.08313501400016247,0.6249310569643974,0.23483005166053772,0.650155782699585,1.5546318292617798
1772376658169237500,1.111237548828125,1.5148701640568674,-0.02533047528527677,0.06803016465306282,0.4517941176891327,1.1251758337020874,1.2910006046295166
1772376658179186700,1.121186767578125,0.6151154731318355,0.26413806236051024,-0.37461131127178665,0.5316841006278992,1.0864651203155518,0.8568113446235657
1772376658189135600,1.131135498046875,-0.27014848175644873,0.6535677341882139,-0.4221089755058288,0.4779435098171234,0.8394439220428467,0.4810330867767334
1772376658199085800,1.1410859375,-0.2279262006420642,0.4062139986943453,0.3014829466968775,0.4229050278663635,0.8839924931526184,0.39635521173477173
1772376658209034800,1.15103466796875,0.45357298511005933,-0.07140190610848367,0.8579314190655947,0.41501566767692566,0.9372076392173767,0.47039175033569336
1772376658218983700,1.160983642578125,0.9558917348191142,-0.11517090520821512,1.0688766012251376,0.3587297797203064,0.7628454566001892,0.5855873227119446
1772376658228932600,1.1709326171875,1.114107708766684,0.1257156070329249,1.3376789290696383,0.297273188829422,0.5636743307113647,0.6735005378723145
1772376658238881500,1.180881591796875,1.028857748439163,0.8141868237547576,1.6650129408597945,0.31239673495292664,0.40104785561561584,0.7439584732055664
1772376658248830500,1.19083056640625,0.9822276608198881,1.1277458465620875,1.4748714772760867,0.3114326298236847,0.2239762395620346,0.8159207701683044
1772376658258779600,1.200779541015625,1.209786416389048,0.8501949795946478,1.1920207503348588,0.2899020314216614,0.09504383057355881,0.8402261137962341
1772376658268728800,1.210728759765625,1.3269349783457816,0.37989305106699467,1.0674538749456406,0.243089959025383,0.006066379137337208,0.7955965995788574
1772376658278678500,1.220678466796875,1.1778070776738225,0.11129136036112904,0.9183172064453363,0.1789914071559906,-0.08796557784080505,0.7288644313812256
1772376658288627700,1.230627685546875,0.8540792006168514,0.12095979080796242,0.791264359459281,0.135231152176857,-0.1845518946647644,0.6626202464103699
1772376658298576600,1.24057666015625,0.5559086664035916,0.29202056021615863,0.553080457240343,0.13832281529903412,-0.279397189617157,0.5982841849327087
1772376658308525600,1.250525634765625,0.3288597600527107,0.492519167163223,0.18788637813329695,0.18185777962207794,-0.33927249908447266,0.5473600029945374
1772376658318474800,1.260474853515625,0.2502729839414358,0.5798870694927871,-0.2096563113927841,0.24242684245109558,-0.27782031893730164,0.49658045172691345
1772376658328423700,1.270423583984375,0.2620337835576385,0.530262183971703,-0.5936749179571866,0.29836228489875793,-0.10117977112531662,0.43450164794921875
1772376658338372600,1.28037255859375,0.35751879523880775,0.500480939822644,-0.8148685224086045,0.35147905349731445,0.11534268409013748,0.3841170370578766
1772376658348322600,1.290322509765625,0.4131760927919298,0.5621355780944228,-0.7936427790284156,0.39163777232170105,0.3086432218551636,0.36470621824264526
1772376658358271500,1.300271484375,0.514987750211358,0.6877510857537389,-0.5337374588668347,0.39811643958091736,0.4275730848312378,0.3733726739883423
1772376658368220700,1.310220703125,0.6987251189064234,0.8310714691907167,-0.007166238367557525,0.36273911595344543,0.44435691833496094,0.41407036781311035
1772376658378169900,1.320169921875,0.897791428028047,1.0101707297563551,0.6702221510648727,0.29933297634124756,0.40124672651290894,0.470578134059906
1772376658388118800,1.330118896484375,1.1061150295123456,1.1030934897340834,1.1937246316432952,0.23192794620990753,0.32890719175338745,0.5208116173744202
1772376658398067700,1.340067626953125,1.1458631755981594,1.1349736058585345,1.4970090748041867,0.17221640050411224,0.2904820442199707,0.5688417553901672
1772376658408016600,1.3500166015625,1.192286342468485,1.129327124404162,1.563771996000409,0.1218051016330719,0.2749041020870209,0.6199843883514404
1772376658417965600,1.359965576171875,1.3146940670624374,0.9446062245644629,1.5349176574379204,0.07402745634317398,0.22469687461853027,0.6748337745666504
1772376658427915500,1.36991552734375,1.4031788445927202,0.7297834703192114,1.4481781161397695,0.03509458154439926,0.18086197972297668,0.7201036214828491
1772376658437864700,1.37986474609375,1.4162532840907573,0.5951408988565207,1.2866741334974765,0.016104910522699356,0.17364373803138733,0.7505030632019043
1772376658447813600,1.389813720703125,1.2861185454413293,0.5774373382531106,1.0895727677732705,0.007272536866366863,0.1987730711698532,0.7768079042434692
1772376658457762800,1.3997626953125,1.1004445826604963,0.6042648471631109,0.8929957181841135,0.009741020388901234,0.20986486971378326,0.8016219139099121
1772376658467711700,1.409711669921875,0.9382418771643191,0.6559316137753427,0.7301496732831001,0.009049675427377224,0.20562870800495148,0.8200693726539612
1772376658477660700,1.41966064453125,0.7567984646253287,0.6813187146186829,0.6823766992390156,0.0019907006062567234,0.18393166363239288,0.8424468636512756
1772376658487609600,1.429609619140625,0.7414525730639696,0.6644568655364215,0.6488502772122621,-0.01209616381675005,0.14505228400230408,0.8794178366661072
1772376658497559800,1.439559814453125,0.739508818585053,0.6050448916248977,0.6725421184450388,-0.027637040242552757,0.06998709589242935,0.9258902668952942
1772376658507508700,1.4495087890625,0.7443265210650861,0.4982162097610533,0.6956593746602535,-0.060784921050071716,-0.02544238418340683,0.9671550989151001
1772376658517457700,1.459457763671875,0.7598455041710287,0.4082103601433337,0.7698340334177016,-0.10578302294015884,-0.07361071556806564,0.9926135540008545
1772376658527406600,1.469406494140625,0.7690558155868202,0.3406767468355596,0.8334434590190648,-0.20623832941055298,-0.10315651446580887,1.0014525651931763
1772376658537355800,1.479355712890625,0.8126194283075631,0.3198081463299691,0.890378229162097,-0.3185630142688751,-0.16130158305168152,0.9956832528114319
1772376658547304700,1.4893046875,0.8589244486909359,0.2152352805688977,0.9363584745705127,-0.4241600036621094,-0.16954074800014496,0.9807603359222412
1772376658557253600,1.499253662109375,0.7699319408342242,0.06683890904188156,0.8046171775072812,-0.5413619875907898,-0.11049340665340424,0.948125958442688
1772376658567202600,1.50920263671875,0.555125553201884,-0.045498453240841626,0.5144429758101702,-0.6469426155090332,-0.11359832435846329,0.8894229531288147
1772376658577152800,1.51915283203125,0.34112456366829574,-0.14180895596072077,0.1982020204424858,-0.6992268562316895,-0.09646354615688324,0.8199346661567688
1772376658587101700,1.529101806640625,0.11723105260841547,-0.3277954918220639,-0.2027244663029909,-0.7120107412338257,-0.06109819561243057,0.7303775548934937
1772376658597050600,1.539050537109375,-0.1038968661956489,-0.3783041744403541,-0.6519359682679176,-0.6885320544242859,-0.03585409000515938,0.6125239133834839
1772376658606999600,1.54899951171875,-0.24402517559304832,-0.40899551917165516,-1.0390279909282922,-0.638419508934021,-0.06207922473549843,0.4791260063648224
1772376658616948500,1.558948486328125,-0.2361953587502241,-0.4121681578584015,-1.3219020987451076,-0.5618709325790405,-0.10965552926063538,0.3518886864185333
1772376658626897700,1.568897705078125,-0.14099647053405642,-0.3631989597670734,-1.5401479593068361,-0.46483907103538513,-0.17531384527683258,0.2507268488407135
1772376658636846800,1.578846923828125,0.06613821342661977,-0.3076737641610205,-1.6515128232955931,-0.3568499982357025,-0.22701725363731384,0.18145537376403809
1772376658646796800,1.588796875,0.271709885854274,-0.28385420489534735,-1.6338924109309911,-0.26126158237457275,-0.2554630935192108,0.14488554000854492
1772376658656745700,1.598745849609375,0.48920478191822764,-0.14295534951686859,-1.5571470249027013,-0.19076985120773315,-0.28101664781570435,0.1368129700422287
1772376658666694700,1.608694580078125,0.6424287197321653,0.08263882798105478,-1.3648124351888895,-0.12924574315547943,-0.2872552275657654,0.16847571730613708
1772376658676643600,1.6186435546875,0.6877331847708672,0.2980225771099329,-1.2564689648479221,-0.06855976581573486,-0.24582895636558533,0.23214603960514069
1772376658686592500,1.628592529296875,0.7070972259324043,0.42180253990516064,-1.2922481342375278,-0.004506613593548536,-0.20976316928863525,0.31352710723876953
1772376658696541700,1.638541748046875,0.7566635131340473,0.4643935812667012,-1.157799331781268,0.04809854179620743,-0.17879432439804077,0.39551758766174316
1772376658706491000,1.648490966796875,0.79426186077483,0.4232711511529982,-0.9364303707629442,0.08348269015550613,-0.17822331190109253,0.45139530301094055
1772376658716440600,1.658440673828125,0.7458958162084222,0.3375796576030552,-0.754913527661562,0.09267805516719818,-0.12261252105236053,0.4792570471763611
1772376658726389800,1.6683896484375,0.6432841675177217,0.17199191277846693,-0.6149123517751693,0.08128263056278229,-0.04228413105010986,0.48798152804374695
1772376658736338700,1.678338623046875,0.5669145559992641,0.10877587040886283,-0.5846311952799559,0.06408819556236267,0.035871658474206924,0.49509111046791077
1772376658746287600,1.68828759765625,0.43959392492249605,-0.0008479951314628124,-0.5381108516454697,0.045400261878967285,0.08784990757703781,0.501904308795929
1772376658756236500,1.698236572265625,0.38433651340715586,-0.060034781984984874,-0.581917260146141,0.042989570647478104,0.15969373285770416,0.4927635192871094
1772376658766185700,1.708185791015625,0.2810165703166276,-0.14890066778734326,-0.6244155086576938,0.045408595353364944,0.21613001823425293,0.4510289430618286
1772376658776134700,1.718134765625,0.3209023713074624,-0.30040245798379184,-0.6519844835847616,0.047580935060977936,0.2428303360939026,0.3993449807167053
1772376658786083600,1.72808349609375,0.2307905770972371,-0.319530498432368,-0.7188374211519957,0.06530651450157166,0.26859205961227417,0.3517480492591858
1772376658796033500,1.738033447265625,0.24588388213701545,-0.2633516612231731,-0.7153583468645811,0.10231566429138184,0.2753852605819702,0.3200865387916565
1772376658805982500,1.747982421875,0.30079496443271636,-0.27407062363624574,-0.5917068327546119,0.1578190177679062,0.21089290082454681,0.28927281498908997
1772376658815931600,1.757931640625,0.29543402192145585,-0.39520065644457936,-0.41304537908434863,0.2613174617290497,0.005684093572199345,0.25598862767219543
1772376658825880800,1.767880859375,0.2771975234851241,-0.4871852587893605,-0.2027069306463003,0.533062756061554,-0.31890541315078735,0.23322880268096924
1772376658835829800,1.777829833984375,0.348266105986014,-0.3980868794053793,-0.38025545463860033,0.756613552570343,-0.46609458327293396,0.23059919476509094
1772376658845778700,1.78777880859375,0.1883781071729958,-0.138602561134845,-0.9397790966689586,0.8706791400909424,-0.5104914903640747,0.14162839949131012
1772376658855727600,1.7977275390625,-0.4196109116123989,-0.13094985442459584,-1.3893687842965126,0.8682655096054077,-0.5653219819068909,0.006782962009310722
1772376658865677600,1.807677490234375,-0.6557545036427677,-0.036229689636081454,-1.6135007802873849,0.7530829310417175,-0.5295196771621704,-0.12596166133880615
1772376658875626500,1.81762646484375,-0.7203939298789948,-0.04822875498756766,-1.3610101202964782,0.6181285977363586,-0.33871641755104065,-0.28315848112106323
1772376658885575400,1.827575439453125,-0.8704599881839007,0.02255918394103646,-0.946041079673171,0.49780794978141785,-0.10369144380092621,-0.41821590065956116
1772376658895524600,1.837524658203125,-0.8104868732582777,0.2655615923576057,-0.5359966359704733,0.40073996782302856,0.15523652732372284,-0.49208346009254456
1772376658905473500,1.8474736328125,-0.4554250061849132,0.5039703893736005,0.007390110251307487,0.3276630640029907,0.345552921295166,-0.4734593629837036
1772376658915422500,1.85742236328125,0.1197749649375677,0.7203725217647851,0.46581835337281224,0.25794658064842224,0.4699307978153229,-0.3702935576438904
1772376658925371400,1.867371337890625,0.7422012725394219,0.6112896312333643,0.9070125530987977,0.20250503718852997,0.5234039425849915,-0.21345512568950653
1772376658935320300,1.8773203125,1.0929518157523124,0.4711985851064324,1.3205372401326894,0.15611064434051514,0.47473281621932983,-0.04292572662234306
1772376658945270500,1.8872705078125,1.245687020201236,0.48032267954349517,1.6386849059045314,0.10809241980314255,0.3743520975112915,0.1348802149295807
1772376658955219500,1.897219482421875,1.334590899926424,0.5021856979139149,1.8774971691548823,0.06856871396303177,0.25668567419052124,0.2861637473106384
1772376658965168400,1.90716845703125,1.2128654585082084,0.49179450615048403,1.975783355861902,0.036296043545007706,0.15853635966777802,0.43097373843193054
1772376658975117600,1.91711767578125,1.1041514012891798,0.44179815696850416,1.854679772669077,0.032557498663663864,0.0597437284886837,0.5469269752502441
1772376658985066500,1.92706640625,0.7939129742719233,0.3707560971483588,1.5356220063149928,0.06893078237771988,-0.019795257598161697,0.6135336756706238
1772376658995015400,1.937015380859375,0.3335830622475594,0.45225715327113863,1.2295838805317878,0.13560062646865845,-0.07464998215436935,0.6482077836990356
1772376659004964400,1.94696435546875,0.019996639976650476,0.49548649253621696,0.9921662865102291,0.2228204756975174,-0.1423262357711792,0.6694542169570923
1772376659014914600,1.95691455078125,-0.17816417167261242,0.46476212231814856,0.7902636579841374,0.3470846116542816,-0.287180095911026,0.6709138751029968
1772376659024863500,1.966863525390625,-0.1775415097296238,0.34248072751760483,0.5102589681237936,0.4823509454727173,-0.35696953535079956,0.6334248781204224
1772376659034812400,1.9768125,-0.3400522582616657,0.21265739290490746,0.24295009370744228,0.5544131398200989,-0.41049134731292725,0.5266621708869934
1772376659044761300,1.98676123046875,-0.6062151775132865,0.2670888019248843,0.1552285556346178,0.5426227450370789,-0.43813586235046387,0.3822489082813263
1772376659054710300,1.996710205078125,-0.7670824696872383,0.27741993406414983,0.29485154585838314,0.4682129919528961,-0.5180394649505615,0.23880228400230408
1772376659064659500,2.006659423828125,-0.6295505334585905,0.3123988929867744,0.4140373127311468,0.34524309635162354,-0.6451042890548706,0.15007808804512024
1772376659074608400,2.0166083984375,-0.2866407303413376,0.44556642346084113,0.5491746819734573,0.2089502513408661,-0.724125862121582,0.12114284187555313
1772376659084557600,2.0265576171875,0.1022428519109264,0.608461860461533,0.5036275672852992,0.09126053750514984,-0.7179103493690491,0.15193617343902588
1772376659094507500,2.036507568359375,0.3104761082306504,0.7937617292329668,0.22333237004578113,0.022434599697589874,-0.6164087057113647,0.22840990126132965
1772376659104456400,2.04645654296875,0.4508594883676618,0.9310632907718419,-0.09902326880991458,-0.0016059100162237883,-0.4352182447910309,0.3217507004737854
1772376659114405400,2.0564052734375,0.48818815222159023,0.9951873878970742,-0.4016226523160934,0.01230298075824976,-0.21036916971206665,0.41563695669174194
1772376659124354300,2.066354248046875,0.3829941588874906,1.0456716667264698,-0.5707751038849354,0.057923149317502975,0.025248251855373383,0.506065309047699
1772376659134303200,2.07630322265625,0.21426362252514808,1.113630519708991,-0.657573097372055,0.12480763345956802,0.23786331713199615,0.5732206702232361
1772376659144252400,2.08625244140625,0.045845613577542826,1.0875777945637701,-0.6232897194981575,0.19288741052150726,0.34672418236732483,0.6149836182594299
1772376659154201600,2.09620166015625,-0.10657294440395199,0.9800131996408105,-0.46561669332087036,0.26031893491744995,0.3704063296318054,0.6299329996109009
1772376659164151600,2.106151611328125,-0.23133726946087552,0.7985027862802148,-0.2982008562862873,0.31896036863327026,0.34762629866600037,0.6297528147697449
1772376659174100500,2.1161005859375,-0.3375719126880169,0.5763175404429436,-0.18429624468684194,0.3646157383918762,0.3104722797870636,0.6102979183197021
1772376659184049400,2.12604931640625,-0.408807266590558,0.3893783800318837,-0.04623042077720165,0.38641735911369324,0.2591765522956848,0.586040735244751
1772376659193998300,2.135998291015625,-0.4921121207322925,0.23588790023624895,0.12033435238599777,0.3761726915836334,0.21753644943237305,0.5509802103042603
1772376659203947300,2.145947265625,-0.5903421933379024,0.13535364234149455,0.27521102584302426,0.3401385545730591,0.19260047376155853,0.5105012059211731
1772376659213896400,2.155896484375,-0.6994683384891599,0.08724807534217834,0.4565577730745077,0.2684294879436493,0.18389247357845306,0.4564208686351776
1772376659223845400,2.165845458984375,-0.8695861279588192,0.08501900111585856,0.5957289278775453,0.19477321207523346,0.1771904081106186,0.4010196626186371
1772376659233794600,2.175794677734375,-0.9988218719419092,0.1254693771868944,0.6818634890198707,0.11429647356271744,0.1584489494562149,0.34983184933662415
1772376659243744300,2.185744140625,-1.0196193799726665,0.1782429359972477,0.6993523839592933,0.05642877146601677,0.15008430182933807,0.32383066415786743
1772376659253693400,2.195693359375,-1.0171475830316543,0.2300865204811096,0.6508055029332638,0.025772858411073685,0.16752028465270996,0.3025831878185272
1772376659263642400,2.205642333984375,-1.0099537990700453,0.3567518294543028,0.5546984138309955,0.014453593641519547,0.18490324914455414,0.29229575395584106
1772376659273591600,2.215591552734375,-0.9803626706656068,0.4533405645936727,0.4577461060762405,0.028455428779125214,0.20572569966316223,0.29371893405914307
1772376659283540500,2.22554052734375,-0.9419967727184295,0.48646249747276304,0.3431523431688547,0.056312642991542816,0.21814016997814178,0.29581141471862793
1772376659293489400,2.235489501953125,-0.8722907838076353,0.49505409246832127,0.2706996858984232,0.1027483195066452,0.2103661298751831,0.296596497297287
1772376659303438300,2.245438232421875,-0.7857367551442235,0.44396863287538285,0.2656061621516943,0.17483437061309814,0.1719001680612564,0.29969730973243713
1772376659313388300,2.25538818359375,-0.7052477256081998,0.3969008844912052,0.22581834164261816,0.261254221200943,0.14171643555164337,0.3025261163711548
1772376659323337200,2.265337158203125,-0.6921003670044243,0.41673868064433334,0.2621808638781309,0.3414885699748993,0.15520919859409332,0.3153674304485321
1772376659333286400,2.275286376953125,-0.6810252846300602,0.4661109065786004,0.46160453507006166,0.39292487502098083,0.2015806883573532,0.3376288115978241
1772376659343235600,2.285235595703125,-0.6271499020576476,0.44574528715908524,0.7215332361072302,0.405402809381485,0.27643468976020813,0.3652699887752533
1772376659353184500,2.2951845703125,-0.6031475335709751,0.4467258226290345,1.0449988820314406,0.36655423045158386,0.34552136063575745,0.345222532749176
1772376659363133400,2.305133544921875,-0.679867346766591,0.4997594936802983,1.3334762166827916,0.29911506175994873,0.40617233514785767,0.277401864528656
1772376659373082400,2.315082275390625,-1.0962938927218318,0.6339958224296569,1.533363413733244,0.21409203112125397,0.44152578711509705,0.20701317489147186
1772376659383031300,2.32503125,-1.136993932705,0.5457619509205222,1.58542327131629,0.12712222337722778,0.4807713031768799,0.14348116517066956
1772376659392981500,2.3349814453125,-1.1444125383984296,0.3564075460612774,1.4524585699379444,0.03569217398762703,0.5691989660263062,0.0941048339009285
1772376659402930400,2.344930419921875,-1.02857878536731,0.1648351728916168,1.235424423253536,-0.05889919027686119,0.5711162090301514,0.08222625404596329
1772376659412879400,2.35487939453125,-0.8648018893569708,-0.10658610527962445,1.105737720632553,-0.1705940216779709,0.4889765679836273,0.09993015229701996
1772376659422828500,2.36482861328125,-1.0501444282263517,-0.27651801678836346,1.4415841247022152,-0.3040763735771179,0.4540348947048187,0.12210298329591751
1772376659432777500,2.374777587890625,-0.7332500504512339,-0.48367315901517866,1.455311036759615,-0.43962594866752625,0.42115071415901184,0.15348541736602783
1772376659442726400,2.384726318359375,-0.403159214233607,-0.6590645049735904,1.4486445646077393,-0.5414519906044006,0.35279878973960876,0.20234271883964539
1772376659452675300,2.39467529296875,-0.2004353324525058,-0.7511196883365512,1.3330109372586012,-0.6006274223327637,0.2800023555755615,0.25951868295669556
1772376659462625500,2.40462548828125,-0.09614720191694795,-0.8185258758723736,1.0393377875298262,-0.6124663949012756,0.23533011972904205,0.333387553691864
1772376659472574500,2.414574462890625,0.04002316363491118,-0.8403966391578316,0.6487842262387276,-0.5974006652832031,0.22014211118221283,0.4095158576965332
1772376659482523400,2.4245234375,0.2768481255255639,-0.9296043241351842,0.26176936046779153,-0.5517172813415527,0.20248056948184967,0.49800994992256165
1772376659492472300,2.434472412109375,0.4675144167009741,-1.0073916204318403,-0.1254044952571392,-0.4885422885417938,0.15577085316181183,0.5910491347312927
1772376659502421500,2.44442138671875,0.5825568001586944,-1.0942787535071372,-0.5063870951265096,-0.39873364567756653,0.11419302225112915,0.6777322292327881
1772376659512370400,2.454370361328125,0.6232557441633194,-1.126806812146306,-0.948103857421875,-0.2755475342273712,0.13952182233333588,0.767762303352356
1772376659522319400,2.4643193359375,0.6538995234258472,-1.1529492614015937,-1.4117080418765544,-0.13400939106941223,0.19901852309703827,0.8617345690727234
1772376659532268500,2.4742685546875,0.6849637931227683,-1.1773916287407278,-1.937864251834154,0.025252437219023705,0.20785675942897797,0.9293192028999329
1772376659542218500,2.484218505859375,0.505672224855423,-1.0510133200153708,-2.310485266071558,0.18922226130962372,0.1656905561685562,0.9694682955741882
1772376659552167400,2.49416748046875,0.11515168905109166,-0.783214908516407,-2.5124755728811023,0.33544790744781494,0.15285491943359375,1.0004645586013794
1772376659562116400,2.504116455078125,-0.13691716533116996,-0.545413575874269,-2.471588266697526,0.46158167719841003,0.1543487161397934,1.0518181324005127
1772376659572065300,2.514065185546875,-0.059775911853089926,-0.5264554851651191,-2.3232038778692483,0.5546942949295044,0.14253413677215576,1.0997565984725952
1772376659582014200,2.52401416015625,0.05830773899666965,-0.6364221727937459,-2.1066367641746995,0.6167784333229065,0.19967691600322723,1.1333709955215454
1772376659591963600,2.533963623046875,0.049408320160955185,-0.7402396901428699,-1.8207745804578064,0.6364389657974243,0.295392781496048,1.1633517742156982
1772376659601912600,2.54391259765625,0.094862130542472,-0.6764554924964904,-1.5252777224332092,0.5905683636665344,0.39040982723236084,1.2047123908996582
1772376659611861500,2.553861572265625,0.2547988638680428,-0.7783426263049245,-1.0463894596070051,0.45883694291114807,0.4130469560623169,1.2400966882705688
1772376659621811500,2.5638115234375,0.41280090280398724,-1.0345827019572258,-0.38864451279938217,0.25735968351364136,0.33220240473747253,1.226158618927002
1772376659631760400,2.573760498046875,0.45131059313602745,-1.3567699985086916,0.24579262365698812,0.033669065684080124,0.11776253581047058,1.1504290103912354
1772376659641709300,2.583709228515625,0.2487876772871241,-1.4805083141192792,0.6074456691563129,-0.14564400911331177,-0.2063927799463272,1.0164693593978882
1772376659651658500,2.593658447265625,-0.02149286988377571,-1.3865306382611393,0.4484311652421951,-0.21934513747692108,-0.5766353011131287,0.8650050759315491
1772376659661607400,2.603607421875,-0.20685816857423633,-1.2238891760215163,-0.21925766795277593,-0.168850839138031,-0.8783437609672546,0.7177966237068176
1772376659671556400,2.613556396484375,-0.1699232898108661,-0.9504150569736957,-1.2021055064976214,0.0031459564343094826,-1.032243251800537,0.5962784886360168
1772376659681505500,2.623505615234375,-0.036218492388632145,-0.6841445856943726,-2.267871282225847,0.25891852378845215,-0.9978957772254944,0.5002086758613586
1772376659691455500,2.63345556640625,0.03917481231042184,-0.3929968627899885,-3.1830963678747413,0.5282160043716431,-0.8067801594734192,0.4264971911907196
1772376659701404400,2.643404296875,0.06273771166759542,-0.07139350360631942,-3.5674078199058767,0.7507556080818176,-0.5593768954277039,0.4158986806869507
1772376659711353300,2.653353271484375,0.08564922531079501,0.3385176691055298,-3.261959476709366,0.8742426633834839,-0.3165466785430908,0.4711020290851593
1772376659721302500,2.663302490234375,0.254791648675967,0.7442974411010742,-2.387342295780778,0.8616306185722351,-0.28344985842704773,0.5276272296905518
1772376659731251500,2.67325146484375,0.2729579862192273,1.0971285899803043,-1.1567968767404555,0.784524142742157,-0.24894249439239502,0.647831916809082
1772376659741200400,2.683200439453125,0.280095509948954,1.5997922806695102,-0.05964870527684688,0.6525204181671143,-0.12258957326412201,0.8241710662841797
1772376659751149300,2.6931494140625,1.1031154823701828,1.2470794974729418,0.8891945723354816,0.4923222064971924,-0.05476444959640503,0.9976480007171631
1772376659761098500,2.703098388671875,1.4223479477040468,0.9354828607797622,1.4199480469554662,0.35570502281188965,-0.00433534849435091,1.1233464479446411
1772376659771048200,2.713048095703125,1.4785248852171002,0.9112970985502004,1.7620225317597389,0.2636677622795105,0.05380065739154816,1.1835030317306519
1772376659780997600,2.72299755859375,1.2500272413626312,0.9753417006984353,1.9566630603283643,0.2148245871067047,0.13602203130722046,1.1966451406478882
1772376659790946600,2.732946533203125,1.0373545778233557,0.9731099961236118,1.9760206717491149,0.20095351338386536,0.22521208226680756,1.1875126361846924
1772376659800895500,2.7428955078125,0.9607597792468965,0.8176140217244625,1.9693068533241747,0.18731676042079926,0.3052588105201721,1.1682428121566772
1772376659810844400,2.752844482421875,1.0013284479353577,0.6545154633671045,2.051345669585466,0.15039975941181183,0.3108093738555908,1.1436359882354736
1772376659820793300,2.76279345703125,1.0571825832348316,0.506684909029305,2.2575345971286294,0.07849393039941788,0.27656570076942444,1.112928867340088
1772376659830742300,2.7727421875,1.1884382156729698,0.36113632814884183,2.475502809792757,-0.015247202478349209,0.22262629866600037,1.0742195844650269
1772376659840692500,2.7826923828125,1.3564201621577143,0.1683423042297363,2.59064251614511,-0.12500014901161194,0.15072545409202576,1.0153379440307617
1772376659850641400,2.792641357421875,1.515294965340197,-0.0063327101528644555,2.623844528523087,-0.25036871433258057,0.02516140043735504,0.9443084597587585
1772376659860590300,2.80259033203125,1.6671066982686518,-0.13000029861479998,2.5732600041896103,-0.37372562289237976,-0.17622463405132294,0.8607922792434692
1772376659870539500,2.81253955078125,1.7632482741624116,-0.2317126603782177,2.3610914177149533,-0.47935032844543457,-0.41454559564590454,0.7653525471687317
1772376659880488400,2.822488525390625,1.8185538356684148,-0.2633040226891637,1.9800778381854294,-0.55124831199646,-0.6690607666969299,0.6652251482009888
1772376659890437600,2.832437744140625,1.8236507204160093,-0.25757600043118,1.3736901536494492,-0.562225341796875,-0.9080211520195007,0.5674239993095398
1772376659900386600,2.842386474609375,1.7564901782043276,-0.19017565811425446,0.5348784455955028,-0.522942841053009,-1.0821177959442139,0.4684762954711914
1772376659910335500,2.85233544921875,1.6835194884091615,-0.07282733580172061,-0.40386546280682084,-0.4182240962982178,-1.1326797008514404,0.37093135714530945
1772376659920285400,2.862285400390625,1.6129695960201322,0.05657032074481248,-1.3656015397399663,-0.2678723633289337,-1.015284538269043,0.27416282892227173
1772376659930234400,2.872234375,1.494408536916971,0.16664748301059007,-2.2804519468575717,-0.10880600661039352,-0.7684776782989502,0.1907733976840973
1772376659940183600,2.88218359375,1.485123114438355,0.31979280263036486,-2.765843015706539,0.015584813430905342,-0.47265005111694336,0.14323368668556213
1772376659950132700,2.8921328125,1.6186787674471734,0.47682548507750033,-2.8020921406954526,0.08520276844501495,-0.17277385294437408,0.14923804998397827
1772376659960081700,2.90208154296875,1.9187243748173117,0.6387523693069815,-2.4284815308988095,0.08801916986703873,0.10198932886123657,0.21491096913814545
1772376659970030600,2.912030517578125,2.2867897715769705,0.8181973745703697,-1.815236235553026,0.048479218035936356,0.3481208086013794,0.32457515597343445
1772376659979979500,2.9219794921875,2.6174621340095996,0.9547782206192612,-1.1811486431866884,-0.0260824803262949,0.5458235740661621,0.45212653279304504
1772376659989928400,2.931928466796875,2.8114526742368935,1.0317661832317708,-0.6288777487635612,-0.10493814200162888,0.6621723175048828,0.5840203762054443
1772376659999878700,2.941878662109375,2.928727054530382,1.0886004156097768,-0.14053367532789707,-0.1702459156513214,0.7301081418991089,0.7041453719139099
1772376660009827600,2.95182763671875,2.9365424044564366,1.0159405453294514,0.16450667158961296,-0.2041519582271576,0.7334951162338257,0.7947083115577698
1772376660019776500,2.961776611328125,2.801242245867848,0.8593158591613173,0.30184768835604187,-0.20579759776592255,0.7266217470169067,0.8456898927688599
1772376660029725400,2.971725341796875,2.6242472641050814,0.6615966537997127,0.2501987496614456,-0.17323645949363708,0.7060168385505676,0.8676282167434692
1772376660039674600,2.981674560546875,2.430115269580483,0.4863572835326194,0.18681378046572208,-0.11248110234737396,0.6758511662483215,0.8603278398513794
1772376660049623600,2.99162353515625,2.2522961119532585,0.40371290259361264,0.10968611712157726,-0.05476880446076393,0.6483971476554871,0.8404508233070374
1772376660059572500,3.001572509765625,2.1283916459955274,0.3022057080134749,0.09662380645275115,0.008175420574843884,0.5876945853233337,0.8129212856292725
1772376660069522700,3.011522705078125,2.006881527828425,0.2659156664922833,0.12024199792742729,0.04812523350119591,0.5403262972831726,0.7793089747428894
1772376660079471600,3.0214716796875,1.9494678881272673,0.21939064668267963,0.19992519097328185,0.0678209662437439,0.48517948389053345,0.749344527721405
1772376660089420500,3.031420654296875,1.9395088041707873,0.1606812680825591,0.29205168600678444,0.06672987341880798,0.4255659282207489,0.7077872157096863
1772376660099369500,3.041369384765625,1.8962413248524068,0.13722323560565708,0.38867198532819747,0.03672068566083908,0.38813671469688416,0.6568995118141174
1772376660109318400,3.051318359375,1.8516043107464908,0.13182020751833914,0.44845980681478975,-0.0018426841124892235,0.3301791548728943,0.6213780045509338
1772376660119267600,3.061267578125,1.825934447439015,0.11869710657298564,0.3919038068562746,-0.03494805097579956,0.29913660883903503,0.5959958434104919
1772376660129216500,3.071216552734375,1.8099923435501752,0.1638920468226075,0.3030459582298994,-0.07082109898328781,0.29069995880126953,0.5761925578117371
1772376660139166700,3.081166748046875,1.7897896596074103,0.24359657491743564,0.11309329521656036,-0.08679503202438354,0.3116990029811859,0.5701467394828796
1772376660149115600,3.09111572265625,1.7713225672855972,0.29635289033204315,-0.17270634465813636,-0.06841948628425598,0.37263932824134827,0.5927793383598328
1772376660159064600,3.101064697265625,1.774778552958369,0.3891793503284454,-0.5048948107421398,-0.037994153797626495,0.4409357011318207,0.6296215653419495
1772376660169013500,3.111013427734375,1.768477114726603,0.48607554398179054,-0.7417699684500694,-0.004643919877707958,0.5105549693107605,0.6776455640792847
1772376660178962400,3.12096240234375,1.750907701896876,0.5806456327751278,-0.8525152392357588,0.02024494856595993,0.58589768409729,0.7344123721122742
1772376660188911400,3.130911376953125,1.7384943566560744,0.6043313365280628,-0.8770984763503075,0.03698424622416496,0.6722397804260254,0.7751049399375916
1772376660198860500,3.140860595703125,1.6683246957562863,0.5175979327097535,-0.9071469931334256,0.07105132937431335,0.695919394493103,0.8347575068473816
1772376660208809700,3.150809814453125,1.518883345220983,0.46380730581134555,-0.8854922106862068,0.09161306172609329,0.6888225674629211,0.8865975141525269
1772376660218759400,3.160759521484375,1.3550138024911285,0.5342284572541713,-0.7643512180924416,0.08426100760698318,0.6571828126907349,0.9268612861633301
1772376660228708600,3.17070849609375,1.2415312156960367,0.48439124415665863,-0.659911769452691,0.0932273417711258,0.6056285500526428,0.9702193737030029
1772376660238657500,3.180657470703125,1.1740078315213323,0.3624316286563873,-0.6793366008907556,0.12218732386827469,0.5575515627861023,0.9934486746788025
1772376660248606500,3.1906064453125,1.0319494308441877,0.3237105605959892,-0.785700880113244,0.16827253997325897,0.5117446780204773,1.0032871961593628
1772376660258555600,3.2005556640625,0.8266863859742879,0.30029665952175855,-0.9689549222707747,0.22550128400325775,0.48159027099609375,1.002655267715454
1772376660268504600,3.210504638671875,0.6799374893933534,0.2644944015175104,-1.0996288823634386,0.28813937306404114,0.47227931022644043,1.0053099393844604
1772376660278453500,3.22045361328125,0.558033951461874,0.26021950067728755,-1.180090074044466,0.3479493260383606,0.4631781578063965,1.0081000328063965
1772376660288402400,3.23040234375,0.3982713691268116,0.27038082920759915,-1.1485475193113088,0.40727975964546204,0.4731420874595642,1.0194885730743408
1772376660298352400,3.240352294921875,0.2604133427489549,0.27964287081062794,-1.095148522078991,0.44432371854782104,0.526653528213501,1.0165247917175293
1772376660308301600,3.250301513671875,0.09176043820008635,0.27252368645519015,-0.965213397654891,0.4689568877220154,0.5640192627906799,0.9797641038894653
1772376660318250800,3.260250732421875,-0.12659074589964,0.13131313477903603,-0.832626297417283,0.4941364824771881,0.5616871118545532,0.9559963345527649
1772376660328199700,3.27019970703125,-0.3339144496263936,0.11170622477233409,-0.5975052899003028,0.4768024981021881,0.5207846760749817,0.9627647995948792
1772376660338148600,3.280148681640625,-0.24812344122473148,0.1479059576615691,-0.2954161940038204,0.4142901301383972,0.46673819422721863,0.9761260151863098
1772376660348097500,3.29009765625,-0.15727520423242822,-0.030828853505849838,-0.011926000115275382,0.3481188416481018,0.3898053467273712,0.9572063684463501
1772376660358046500,3.30004638671875,-0.3111498793063685,-0.16246464436799288,0.07349135266840458,0.3135753273963928,0.33942386507987976,0.9310482740402222
1772376660367996400,3.309996337890625,-0.427365471261926,-0.09798574245572089,-0.06911854441165924,0.29637929797172546,0.2510351538658142,0.9358859062194824
1772376660377945600,3.319945556640625,-0.26710469361376016,-0.23673136532306668,-0.2606745509684086,0.30808576941490173,0.15609237551689148,0.9416260719299316
1772376660387894500,3.32989453125,-0.2712608269125223,-0.42020664901584387,-0.5322293923914432,0.3600434958934784,0.10266297310590744,0.927850604057312
1772376660397843700,3.33984375,-0.4835203065410256,-0.4140852435261011,-0.8829705832540988,0.4259302616119385,0.0789559856057167,0.9141889810562134
1772376660407792600,3.349792724609375,-0.7161993277333676,-0.4057128442391753,-1.1733645651817322,0.4849088788032532,0.048092346638441086,0.9054961204528809
1772376660417741600,3.359741455078125,-0.840225228113681,-0.5139972778692842,-1.321535603520274,0.4964354932308197,-0.02753680758178234,0.8861951231956482
1772376660427690500,3.3696904296875,-0.9479037317398935,-0.6312073607549071,-1.2958581414282322,0.4573115408420563,-0.16543635725975037,0.8344975709915161
1772376660437639400,3.379639404296875,-1.1635711931809782,-0.7236506666526198,-1.1458885292351246,0.3909227252006531,-0.33833324909210205,0.7397540211677551
1772376660447589600,3.389589599609375,-1.4831905389405786,-0.8091410846725106,-1.116310552573204,0.3152884244918823,-0.4886993169784546,0.5950983166694641
1772376660457538600,3.39953857421875,-1.8332997155100106,-0.8486685006797313,-1.2641297087341545,0.270426869392395,-0.5361770987510681,0.40693604946136475
1772376660467487500,3.409487548828125,-2.1275828138306734,-0.8101409093648195,-1.6083932280153035,0.27076613903045654,-0.4355032444000244,0.20223110914230347
1772376660477436400,3.4194365234375,-2.2994252351358533,-0.6909554347530007,-1.9446160641819237,0.3172416388988495,-0.19788731634616852,0.020786501467227936
1772376660487385600,3.429385498046875,-2.24644650914222,-0.4065466647148132,-2.075289439752698,0.3741512596607208,0.10261978209018707,-0.1082143560051918
1772376660497334500,3.43933447265625,-1.9732430237293241,-0.004497603680193424,-1.787061695948243,0.39747968316078186,0.3855956792831421,-0.1838708370923996
1772376660507283500,3.449283447265625,-1.5074106418311595,0.4709358425170183,-1.1250362953424453,0.38894397020339966,0.6395451426506042,-0.23833008110523224
1772376660517232600,3.459232666015625,-1.0889471832208335,0.8982657675415276,-0.24410160183012483,0.3976808488368988,0.7647705078125,-0.29971328377723694
1772376660527182600,3.4691826171875,-0.9898708690494298,1.0821648296043276,0.3817483235448599,0.44537192583084106,0.8882290720939636,-0.2814807593822479
1772376660537131500,3.479131591796875,-0.5594435259988532,1.360928579492867,0.9703618664592504,0.4562283158302307,0.8887690901756287,-0.1820434182882309
1772376660547080400,3.48908056640625,0.12511804299857468,1.4399255438402294,1.6097510723650454,0.4384298622608185,0.783393144607544,-0.04762141779065132
1772376660557029400,3.499029296875,0.4357572328364476,1.3805571168094872,2.1265163536429403,0.42430707812309265,0.704643964767456,0.08790252357721329
1772376660566978600,3.508978515625,0.4997290985420346,1.4728577993661165,2.4268811099648473,0.4207261800765991,0.6347008347511292,0.21638274192810059
1772376660576927700,3.518927734375,0.44797315580900754,1.598806192241609,2.6357728667259215,0.41371211409568787,0.5345339775085449,0.34900936484336853
1772376660586876700,3.528876708984375,0.45109936153814195,1.6228122139900922,2.819391066020727,0.40014782547950745,0.419795960187912,0.4539203345775604
1772376660596826600,3.53882666015625,0.38151853337697683,1.5036308310315012,2.9416461573362347,0.38163691759109497,0.3331548869609833,0.5262579917907715
1772376660606775600,3.548775634765625,0.23722046401426194,1.3481243352383374,2.974644171574712,0.33495622873306274,0.27523404359817505,0.5882854461669922
1772376660616724500,3.558724365234375,0.27428539889808745,1.1740797277137636,3.0789415813952683,0.22442153096199036,0.1661096066236496,0.6295296549797058
1772376660626673400,3.56867333984375,0.23670162777192888,0.9058984543770551,3.2466204532802103,0.05016503855586052,0.02821805328130722,0.6325867176055908
1772376660636622300,3.578622314453125,0.10029369060453026,0.6132987790986896,3.3465403786689043,-0.1737808883190155,-0.1026788055896759,0.5747620463371277
1772376660646571500,3.588571533203125,-0.07307183034839108,0.3838596166104078,3.3322944111734625,-0.41612720489501953,-0.2481800764799118,0.46714526414871216
1772376660656520700,3.598520751953125,-0.27446829945063217,0.15532704757302998,3.1268998488783835,-0.6788339018821716,-0.4128771126270294,0.31240394711494446
1772376660666469600,3.6084697265625,-0.38920448476970193,-0.04019377096146345,2.7431109594166276,-0.9174922704696655,-0.5600796341896057,0.12706899642944336
1772376660676419600,3.618419677734375,-0.41167310435045507,-0.16714344983398913,2.119727131894231,-1.1036555767059326,-0.6242662668228149,-0.06842388212680817
1772376660686368500,3.628368408203125,-0.3177265177503228,-0.2465019409701228,1.251303544908762,-1.1996493339538574,-0.5879079699516296,-0.26549991965293884
1772376660696317400,3.6383173828125,-0.20875950868353246,-0.19016484445929527,0.1604401528030634,-1.1725854873657227,-0.41521093249320984,-0.4280264377593994
1772376660706266600,3.6482666015625,-0.06895995631646365,0.03785305305421352,-0.9897785145908593,-1.0320634841918945,-0.1530139446258545,-0.5291197896003723
1772376660716215600,3.658215576171875,0.1910772465964779,0.392615462256968,-1.8631664459854362,-0.8348481059074402,0.12534023821353912,-0.5443688035011292
1772376660726164500,3.66816455078125,0.5791566728590056,0.7603416901901364,-2.2831226273715495,-0.6415612101554871,0.3690599501132965,-0.453339546918869
1772376660736113700,3.67811376953125,1.0775196341469884,1.0469389101833104,-2.173146002870798,-0.5125941038131714,0.5476060509681702,-0.2815074920654297
1772376660746062600,3.6880625,1.5762123753786086,1.2658382662177086,-1.584316771379113,-0.46457621455192566,0.6635861396789551,-0.04708486795425415
1772376660756012500,3.698012451171875,1.909078740724176,1.387816294157505,-0.804129101729393,-0.49566009640693665,0.7146714329719543,0.204682394862175
1772376660765961700,3.707961669921875,2.058576059230417,1.3869444797590373,-0.0728413643270731,-0.5586550831794739,0.7036827206611633,0.4343706965446472
1772376660775910700,3.71791064453125,2.0870006280735134,1.26564888112545,0.4724690434336662,-0.6122520565986633,0.630347490310669,0.6246083378791809
1772376660785859600,3.727859619140625,2.0080802360937,1.0282529144138097,0.7325017893671989,-0.6185376048088074,0.5190497040748596,0.7613736391067505
1772376660795808500,3.73780859375,1.8069696347281337,0.7494953020051122,0.6866781958252192,-0.5650096535682678,0.3959939777851105,0.8412431478500366
1772376660805757400,3.74775732421875,1.4683219095021485,0.46878450970202684,0.42290041814446444,-0.463742733001709,0.28137391805648804,0.8640168905258179
1772376660815706400,3.757706298828125,1.073318383064866,0.2149611398026347,0.11944938624501228,-0.3488054573535919,0.19270822405815125,0.8455864191055298
1772376660825656600,3.767656494140625,0.7130876254536211,-0.019111235444247723,-0.08413315819203854,-0.24750067293643951,0.10491446405649185,0.7947498559951782
1772376660835605500,3.77760546875,0.46018071281202133,-0.18276830446720121,-0.16081190872490406,-0.18255099654197693,0.019328828901052475,0.7249815464019775
1772376660845554700,3.7875546875,0.26601459682211276,-0.33315000459253785,-0.13101882800757883,-0.1621013879776001,-0.05429159477353096,0.6467362642288208
1772376660855503600,3.797503662109375,0.13764689524467102,-0.4825608138591051,-0.0749976655781269,-0.17345094680786133,-0.09923440963029861,0.5686304569244385
1772376660865452500,3.80745263671875,0.08249059688309207,-0.5566068778008222,-0.060464113312959665,-0.21044278144836426,-0.0987129658460617,0.4814838171005249
1772376660875401500,3.8174013671875,-0.011782353860884904,-0.5986243570581078,-0.13271744861900805,-0.25630730390548706,-0.04602556675672531,0.4031301736831665
1772376660885350400,3.827350341796875,-0.09350477938307448,-0.5786898225322366,-0.31007308038771153,-0.285525381565094,0.03418032079935074,0.34153977036476135
1772376660895299000,3.837299072265625,-0.12643473335402086,-0.5413543636113405,-0.4817062428563833,-0.2969651520252228,0.1342768669128418,0.29862773418426514
1772376660905249000,3.8472490234375,-0.11605740571916102,-0.4566711703211069,-0.6322779125958681,-0.28754928708076477,0.2398056983947754,0.2801922559738159
1772376660915198200,3.8571982421875,-0.07700900540053844,-0.3791021929502487,-0.6879378404974937,-0.26351168751716614,0.3241960406303406,0.28425222635269165
1772376660925147100,3.867147216796875,-0.017023670314159245,-0.31097792027294635,-0.6521680234581232,-0.23529869318008423,0.37526029348373413,0.30327466130256653
1772376660935096300,3.877096435546875,0.02297591151576489,-0.26628040815144777,-0.5617635299116372,-0.2005048394203186,0.39689311385154724,0.3209662139415741
1772376660945045200,3.887045166015625,-0.02565341449617408,-0.23535803114324808,-0.40020986290872096,-0.16454337537288666,0.3900940418243408,0.3363587558269501
1772376660954994200,3.896994140625,-0.10339876221409067,-0.25949995423108335,-0.2557937931895256,-0.13153010606765747,0.3602847456932068,0.34236446022987366
1772376660964943000,3.906943115234375,-0.18955369029100982,-0.31756022127270694,-0.14966682985424995,-0.10386092215776443,0.2992410957813263,0.33553266525268555
1772376660974892000,3.91689208984375,-0.26796123737785965,-0.3971148195028305,-0.009894786548614502,-0.08074069768190384,0.21904437243938446,0.31843194365501404
1772376660984842000,3.926842041015625,-0.31817791477963325,-0.4796282675385475,0.12244096927642821,-0.06927046179771423,0.12999385595321655,0.2841655910015106
1772376660994791200,3.936791259765625,-0.37628366493079807,-0.5273936427980661,0.2094301014214754,-0.06306351721286774,0.041178859770298004,0.23976297676563263
1772376661004740400,3.946740234375,-0.44086226435787973,-0.5567167679160833,0.2480073770970106,-0.06627901643514633,-0.04146089404821396,0.1940157264471054
1772376661014689300,3.956689208984375,-0.4917937389655038,-0.5245359152793884,0.24514614244699476,-0.06678254157304764,-0.11035855859518051,0.15130926668643951
1772376661024638200,3.96663818359375,-0.5105423881750554,-0.5185837288767099,0.1722825662881136,-0.05691898614168167,-0.1608790010213852,0.11128142476081848
1772376661034587100,3.976587158203125,-0.5571517983324825,-0.5104705650478601,0.06746493198573589,-0.03939268738031387,-0.17981764674186707,0.07611590623855591
1772376661044536000,3.9865361328125,-0.6128916596025228,-0.4566331763982773,-0.09078852442800998,-0.008452079258859158,-0.16373774409294128,0.04393240064382553
1772376661054486300,3.996486328125,-0.6663641604624688,-0.37756343907564877,-0.21194529911279678,0.026575405150651932,-0.135383740067482,0.021243853494524956
1772376661064435200,4.006435302734375,-0.6472101818550378,-0.2880307599276304,-0.25998189252912995,0.05757486820220947,-0.09960150718688965,0.012574732303619385
1772376661074384100,4.016384033203125,-0.6016772052900865,-0.22369126648604867,-0.19628420412242412,0.08449091017246246,-0.057593196630477905,0.019107479602098465
1772376661084333000,4.0263330078125,-0.5113073446655646,-0.17491759096682072,-0.08654664907455444,0.09899448603391647,-0.016134437173604965,0.043602436780929565
1772376661094282200,4.0362822265625,-0.3865055280093103,-0.15124503895640373,0.029631168153882025,0.10851789265871048,0.02359204739332199,0.07909749448299408
1772376661104231200,4.046231201171875,-0.26886187601201234,-0.15221943694651127,0.13211188394129275,0.10688004642724991,0.05765707418322563,0.1167556568980217
1772376661114180000,4.05618017578125,-0.21753385810116305,-0.14514906016886234,0.2740437356293201,0.08640936017036438,0.09813722968101501,0.15664856135845184
1772376661124129000,4.06612890625,-0.21510668575316666,-0.17757511973828077,0.38118309087753294,0.040638409554958344,0.13490189611911774,0.19599489867687225
1772376661134079200,4.076079345703125,-0.17495978614073246,-0.246316939792037,0.4415004891961813,-0.007014090660959482,0.16795039176940918,0.24233880639076233
1772376661144028200,4.086028076171875,-0.16622151268348098,-0.35729046637564893,0.49551732606589793,-0.04795486479997635,0.1989075094461441,0.3024871051311493
1772376661153977000,4.09597705078125,-0.130450855393894,-0.451344422340393,0.4486445157319307,-0.055901750922203064,0.22343774139881134,0.3750472962856293
1772376661163926000,4.105926025390625,-0.11234140827017836,-0.5532777333781123,0.36139351778030393,-0.04137926548719406,0.2368110716342926,0.4597296714782715
1772376661173875200,4.115875244140625,-0.0719994929757202,-0.6674772362709045,0.22038579519987106,-0.006277935579419136,0.2528112530708313,0.5370575785636902
1772376661183824100,4.12582421875,-0.08790075796409509,-0.8134963572725653,0.1248556292027235,0.03279836103320122,0.28076884150505066,0.6116620898246765
1772376661193773300,4.135773193359375,-0.14179056178750468,-0.952242272400856,0.12076748310625553,0.05419691279530525,0.31168752908706665,0.6753878593444824
1772376661203722200,4.14572216796875,-0.11801551751699298,-1.1453016692578792,0.18253800284266472,0.04745671898126602,0.3317229747772217,0.738481342792511
1772376661213672200,4.155672119140625,-0.024340254104952327,-1.3736360853746532,0.38730888028144833,-0.03086012788116932,0.3117178976535797,0.776195228099823
1772376661223621000,4.16562109375,0.038916809828206896,-1.6365212981298565,0.6655296093344688,-0.1775592863559723,0.21205495297908783,0.7668270468711853
1772376661233570000,4.175570068359375,0.03469072113235015,-1.8649284872218965,0.9461229127377271,-0.38367533683776855,-0.001899348571896553,0.6857908368110657
1772376661243519000,4.18551904296875,-0.15942717636823653,-1.9805249974310397,1.0747498771727084,-0.6164845824241638,-0.33933916687965393,0.5239641070365906
1772376661253468200,4.19546826171875,-0.5531491385623812,-1.9581655738458037,0.8803969333738088,-0.8029525279998779,-0.7128204107284546,0.30224335193634033
1772376661263417300,4.205417236328125,-0.8692015856206416,-1.8242559928327797,0.17327216184735297,-0.8733829855918884,-0.9918131232261658,0.07088630646467209
1772376661273366300,4.2153662109375,-0.9928163479167967,-1.553076122201979,-1.0478905118197201,-0.7662731409072876,-1.1023532152175903,-0.13233397901058197
1772376661283315200,4.225315185546875,-0.9106874422192573,-1.1603311883464456,-2.5009476321727035,-0.46876367926597595,-1.0056909322738647,-0.270914763212204
1772376661293265200,4.23526513671875,-0.5746695175075903,-0.6606446137718855,-3.789186530768871,-0.052805520594120026,-0.7196670770645142,-0.31071171164512634
1772376661303214000,4.245214111328125,-0.059391113786585625,-0.13022855441272257,-4.487862622901797,0.3686908483505249,-0.3185926079750061,-0.2449588030576706
1772376661313163300,4.255163330078125,0.6100127066327259,0.43589726236164567,-4.338120974245667,0.6746716499328613,0.06542661041021347,-0.06493266671895981
1772376661323112200,4.2651123046875,1.3287864514313636,0.9502002451792358,-3.302639862143993,0.8095719814300537,0.34312987327575684,0.21066243946552277
1772376661333061000,4.27506103515625,2.028976747519523,1.3897215432569383,-1.6683704345941544,0.7915452718734741,0.5028084516525269,0.5537938475608826
1772376661343010300,4.28501025390625,2.590860542809963,1.6543071301892398,-0.00234627086520195,0.6780933141708374,0.579976499080658,0.9123916625976562
1772376661352959200,4.294959228515625,2.951162465961277,1.683589631035924,1.315689215579629,0.5218032598495483,0.5752954483032227,1.2289589643478394
1772376661362909200,4.3049091796875,3.0171099791213867,1.5426049970701337,2.233700132554769,0.3668603301048279,0.5055320858955383,1.4603937864303589
1772376661372858400,4.3148583984375,2.82476545253545,1.2776456083893775,2.7374077793389557,0.23324576020240784,0.41289132833480835,1.6050149202346802
1772376661382807300,4.324807373046875,2.4188420342855155,0.9039867755368352,2.843367569413781,0.1406412571668625,0.31408703327178955,1.666160225868225
1772376661392756200,4.334756103515625,1.9828098934978247,0.4606143549889326,2.674187645316124,0.07445521652698517,0.1832898110151291,1.6563161611557007
1772376661402705200,4.344705078125,1.6024537549637257,-0.01110913077443838,2.369573999378085,0.01881725899875164,0.0040606604889035225,1.5772935152053833
1772376661412654000,4.354654052734375,1.3341834881693124,-0.44129766010046,2.02774676733315,-0.02515524998307228,-0.2287261188030243,1.4458065032958984
1772376661422603000,4.36460302734375,1.0595660443052648,-0.8072910728916526,1.6340508163630962,-0.05413790047168732,-0.5126233696937561,1.2606496810913086
1772376661432554200,4.37455419921875,0.3797407831147313,-1.207654665057361,0.5610206025898457,-0.07875945419073105,-0.8457239866256714,1.0424044132232666
1772376661442503200,4.384503173828125,0.07857954265289008,-1.2162117732614277,-0.15618015727102755,-0.1095312163233757,-1.1839579343795776,0.8050848841667175
1772376661452453000,4.394453125,-0.13682546845972537,-1.1388932635203004,-1.1135767436951398,-0.13849742710590363,-1.4628673791885376,0.5702118873596191
1772376661462402000,4.404402099609375,-0.2387180821608752,-1.0239990563616157,-2.312334693330526,-0.1336105316877365,-1.5680828094482422,0.3449692130088806
1772376661472351000,4.41435107421875,-0.3217360456526279,-0.7942103497833013,-3.5443969466745853,-0.07255665957927704,-1.4793941974639893,0.11436491459608078
1772376661482300200,4.424300048828125,-0.34287849466353654,-0.45269232981801033,-4.461222453257442,0.04406556114554405,-1.228506326675415,-0.09573213011026382
1772376661492249300,4.434249267578125,-0.08226049618795514,-0.09319587783068418,-4.8523055913805955,0.1723058968782425,-0.8631044030189514,-0.25519996881484985
1772376661502198300,4.4441982421875,0.4097770249381661,0.26502660869807004,-4.618768638184666,0.2769066095352173,-0.44737136363983154,-0.33703145384788513
1772376661512147200,4.454147216796875,1.0020466061420739,0.6577753419458866,-3.890024155524373,0.32650527358055115,-0.03672393038868904,-0.3267449140548706
1772376661522097200,4.46409716796875,1.540097690424323,1.0924641053006052,-2.8968086522221563,0.3292989432811737,0.31507113575935364,-0.24329689145088196
1772376661532046000,4.474046142578125,1.9949664874985813,1.472875627283752,-1.854769204518199,0.29653438925743103,0.5771903991699219,-0.09649883955717087
1772376661541995300,4.483995361328125,2.311377100344747,1.737508268228173,-0.9290069427639246,0.25955453515052795,0.7486372590065002,0.08716233819723129
1772376661551944200,4.493944091796875,2.4863094504892826,1.837246991831064,-0.2020405756920576,0.23037901520729065,0.8370985388755798,0.27616703510284424
1772376661561893000,4.50389306640625,2.4993600707203147,1.8069617436826229,0.34115736995935436,0.22807830572128296,0.8413198590278625,0.4408217668533325
1772376661571842300,4.51384228515625,2.3358190292924643,1.6609391155496238,0.7287181791752576,0.2541934549808502,0.7868817448616028,0.5553041100502014
1772376661581791200,4.523791259765625,2.0357517946124077,1.4696449747994542,0.9694511813551187,0.30656397342681885,0.6975513100624084,0.6095351576805115
1772376661591740200,4.533740234375,1.7373334961831568,1.2933175170347093,1.1707418154627085,0.35496756434440613,0.5850012898445129,0.6098850965499878
1772376661601690000,4.543690185546875,1.4466875853210688,1.133655362866819,1.36749714422822,0.4000633955001831,0.4583152234554291,0.5680937170982361
1772376661611639300,4.553639404296875,1.21337969164066,0.9801789115965366,1.5590835459232328,0.40006014704704285,0.33146044611930847,0.48807016015052795
1772376661621588200,4.563588134765625,1.0735441546447575,0.8509995739758014,1.7176976523429155,0.3712785542011261,0.2055738866329193,0.3862471282482147
1772376661631537200,4.573537109375,0.9042457187339663,0.7872492785990238,1.8126035489618777,0.30227750539779663,0.11659733951091766,0.2828391492366791
1772376661641486000,4.583486083984375,0.780613201585412,0.7945555099591612,1.8505208994239568,0.2087414264678955,0.05398882180452347,0.18025843799114227
1772376661651435300,4.593435302734375,0.6934121802553534,0.8519821552723645,1.8225965351879596,0.09299656748771667,0.02267357148230076,0.08601974695920944
1772376661661384200,4.60338427734375,0.6778050804745406,0.9336261269971727,1.6621365086406468,-0.01642366498708725,0.021563831716775894,0.01842046156525612
1772376661671334100,4.613334228515625,0.6849003724977374,1.0602607485711575,1.4499649995565413,-0.11578124016523361,0.05125430226325989,-0.028411494567990303
1772376661681283300,4.623283447265625,0.6802182790961117,1.172766014766693,1.239842824217677,-0.2049100399017334,0.10079096257686615,-0.054846301674842834
1772376661691232300,4.633232177734375,0.7083975679412484,1.2319058937385678,1.012961237257719,-0.2736242711544037,0.1546434611082077,-0.06370140612125397
1772376661701181200,4.64318115234375,0.6714241472657769,1.2252949511662126,0.8219482515364885,-0.3361121416091919,0.20789577066898346,-0.06126115471124649
1772376661711130000,4.653130126953125,0.6096384299602359,1.1930007012829185,0.6436380955219269,-0.3801252245903015,0.26274964213371277,-0.061533037573099136
1772376661721079000,4.6630791015625,0.529172562104091,1.1152534447357059,0.455040938770771,-0.40451207756996155,0.31255102157592773,-0.061076570302248
1772376661731028000,4.673028076171875,0.4803795973625034,1.0354515937462447,0.2897445781081915,-0.40824824571609497,0.34557169675827026,-0.06238650530576706
1772376661740977400,4.682977294921875,0.40838586284071204,0.9814908709779381,0.16863222708702086,-0.3895573914051056,0.36534592509269714,-0.06448481231927872
1772376661750927000,4.692927001953125,0.3250041806031018,0.9391814230367541,0.10190554624795913,-0.35425615310668945,0.3616907000541687,-0.060993585735559464
1772376661760876300,4.702876220703125,0.2795624259855598,0.8997752953216434,0.10789631109535694,-0.3134187161922455,0.3372308909893036,-0.04290193319320679
1772376661770825200,4.7128251953125,0.20221563999801873,0.8447723700240254,0.1427145264983177,-0.2679422199726105,0.2976363003253937,-0.029785048216581345
1772376661780774100,4.722774169921875,0.08123970177285372,0.771355251635611,0.18874094913601874,-0.22635935246944427,0.26000556349754333,-0.019084468483924866
1772376661790723000,4.73272314453125,-0.03575447333976626,0.6718626117482781,0.2798451153844595,-0.19595716893672943,0.22332920134067535,-0.016890592873096466
1772376661800672000,4.742672119140625,-0.16887721482403575,0.5626607710123062,0.4055319347143173,-0.18022987246513367,0.17498163878917694,-0.029288405552506447
1772376661810621200,4.75262109375,-0.32015703283287583,0.425405971224606,0.5348860443800687,-0.1814832240343094,0.12846963107585907,-0.05534100905060768
1772376661820571100,4.762571044921875,-0.4107517151892185,0.309480959713459,0.6229845990717411,-0.19372683763504028,0.08841516077518463,-0.08663395047187805
1772376661830520000,4.77252001953125,-0.5007750273983925,0.20777093603760002,0.6661965488106012,-0.21720384061336517,0.040790021419525146,-0.12312459945678711
1772376661840469200,4.78246923828125,-0.5582178931940347,0.14746552041769026,0.6678285339266061,-0.23687848448753357,-0.0021742242388427258,-0.16595834493637085
1772376661850418200,4.792418212890625,-0.5900570927862078,0.11096446649432182,0.6450444551885127,-0.253061980009079,-0.023234235122799873,-0.2042708396911621
1772376661860367000,4.8023671875,-0.584628491866216,0.07523468920439481,0.600434913611412,-0.26184695959091187,-0.024929337203502655,-0.23039379715919495
1772376661870316300,4.81231640625,-0.5280495494235307,0.03654986150115728,0.5875502975970507,-0.27937427163124084,-0.028554026037454605,-0.24954909086227417
1772376661880265200,4.82226513671875,-0.4253890200898051,-0.0036918402552604673,0.6277689107388258,-0.3059781789779663,-0.03640848770737648,-0.26144811511039734
1772376661890214400,4.83221435546875,-0.37171252109035846,-0.044428047530353065,0.6271060629159212,-0.3317018151283264,-0.03973059356212616,-0.266120970249176
1772376661900164600,4.84216455078125,-0.3575540126826614,-0.07111702475249766,0.5853624321639538,-0.36127355694770813,-0.04195380210876465,-0.27190083265304565
1772376661910113500,4.852113525390625,-0.3395739001601934,-0.1266661857560277,0.5002069451868534,-0.3890978991985321,-0.04783987998962402,-0.27824583649635315
1772376661920062500,4.8620625,-0.3007292787853628,-0.21707710904330013,0.3501373797506094,-0.41165807843208313,-0.053816281259059906,-0.2821737229824066
1772376661930011400,4.872011474609375,-0.20153810606263578,-0.3610322832524776,0.14754443087279795,-0.4219745099544525,-0.07655441761016846,-0.28244516253471375
1772376661939960600,4.881960693359375,-0.11383600334264338,-0.46491453640088437,-0.09931962140798568,-0.4186391532421112,-0.10729661583900452,-0.2835035026073456
1772376661949909500,4.891909423828125,-0.04043868563324213,-0.5507318482875824,-0.35920389878153797,-0.3859405815601349,-0.1330985128879547,-0.2792004942893982
1772376661959858700,4.901858642578125,0.0011865063708275557,-0.6245576936073601,-0.5821873092591762,-0.3502504825592041,-0.18918894231319427,-0.2760164141654968
1772376661969807600,4.9118076171875,0.02136785526461899,-0.6708918670199812,-0.7754255698144435,-0.316081702709198,-0.2571760416030884,-0.27372118830680847
1772376661979757600,4.921757568359375,0.04127067947797477,-0.7256107146792113,-0.9470634084582328,-0.2853453755378723,-0.3067867159843445,-0.26388055086135864
1772376661989706500,4.93170654296875,0.07125687161460519,-0.8536544723987579,-1.144113920778036,-0.2786226272583008,-0.32974177598953247,-0.2528335750102997
1772376661999655400,4.941655517578125,0.06539177897349,-1.0067116753436625,-1.2166507492005825,-0.32711881399154663,-0.3501240015029907,-0.2449338287115097
1772376662009604400,4.951604248046875,0.09754121355861425,-1.185264700203389,-1.2518787144482135,-0.41972196102142334,-0.40957656502723694,-0.24396777153015137
1772376662019553500,4.961553466796875,-0.01719363831989467,-1.2376567123502493,-1.388202078604698,-0.5248603820800781,-0.5519393086433411,-0.27347081899642944
1772376662029502700,4.971502685546875,-0.3925178471013903,-1.213691899394989,-1.7691244727194309,-0.6193154454231262,-0.7171659469604492,-0.33498242497444153
1772376662039451600,4.98145166015625,-0.8357350770875811,-1.1213017849892377,-2.4718442872852084,-0.6589600443840027,-0.818127453327179,-0.42121636867523193
1772376662049400600,4.991400634765625,-1.239554508795589,-1.0388210701793432,-3.3163135827094314,-0.6512089371681213,-0.8180352449417114,-0.5240703225135803
1772376662059350500,5.0013505859375,-1.4744079514175652,-0.9547390576526522,-4.121652644750475,-0.5629169344902039,-0.6811516880989075,-0.6410808563232422
1772376662069299500,5.011299560546875,-1.4232701771154999,-0.8542207279793917,-4.693264199459552,-0.40587249398231506,-0.44308897852897644,-0.7464421391487122
1772376662079248400,5.021248291015625,-1.0402592132236808,-0.7538342079922556,-4.825639702773094,-0.19293439388275146,-0.16698125004768372,-0.8155919313430786
1772376662089197600,5.031197509765625,-0.4212553543511778,-0.5593386408522725,-4.444127526071667,0.026781808584928513,0.07041643559932709,-0.8253071308135986
1772376662099146500,5.041146484375,0.24001535542979835,-0.30644758336693045,-3.5657471932172773,0.2057582139968872,0.21344974637031555,-0.769174337387085
1772376662109095700,5.051095703125,0.8240216968096792,-0.05371975361928343,-2.494346626472473,0.33300715684890747,0.2751066982746124,-0.6458529829978943
1772376662119044600,5.061044677734375,1.1457502167429774,0.13157470832467077,-1.566868208450079,0.41717371344566345,0.27677756547927856,-0.4924237132072449
1772376662128994600,5.07099462890625,1.1720677303042262,0.23632979878485202,-0.8885375697314739,0.471611887216568,0.24898649752140045,-0.3403014838695526
1772376662138943500,5.080943603515625,0.8920039306677877,0.2347973285205662,-0.44601475175023075,0.5190755128860474,0.21271798014640808,-0.2301371544599533
1772376662148892700,5.090892578125,0.4813591829843819,0.14763152463436127,-0.19570435840785502,0.5758216381072998,0.18188205361366272,-0.17062987387180328
1772376662158841600,5.100841552734375,0.08825184555724262,0.05490545627251267,-0.016997896552085875,0.6423383951187134,0.14665350317955017,-0.15911996364593506
1772376662168790500,5.11079052734375,-0.28330358527526256,-0.025087971766293047,0.11559271081686019,0.703752875328064,0.11900302767753601,-0.17015956342220306
1772376662178739500,5.120739501953125,-0.5950071164090186,-0.05908201130479574,0.2825163804203272,0.7545619606971741,0.09868205338716507,-0.2048027664422989
1772376662188688600,5.130688720703125,-0.8736850877102464,-0.0403878322288394,0.4888403325200081,0.7768055200576782,0.07899066805839539,-0.252102792263031
1772376662198637600,5.140637451171875,-1.1251669359847902,-0.018283260187506676,0.7277893738925456,0.7657699584960938,0.05261658877134323,-0.31703972816467285
1772376662208587500,5.15058740234375,-1.3638064730167387,0.03513268817961216,0.9314128348618745,0.7163301706314087,0.03340889886021614,-0.4049416184425354
1772376662218536700,5.16053662109375,-1.546781698232889,0.09572568856924772,1.1006786836773157,0.6410530209541321,-0.0006601237691938877,-0.5142540335655212
1772376662228485600,5.170485595703125,-1.6816595397561787,0.21051175917834042,1.1805500927716492,0.5365133285522461,-0.043988652527332306,-0.6365200281143188
1772376662238434600,5.1804345703125,-1.7222852723941207,0.36458120790570975,1.1831833638846874,0.43288254737854004,-0.0947040244936943,-0.7584235668182373
1772376662248383500,5.190383544921875,-1.6450272606685756,0.524200984236598,1.0137708000749348,0.3377315402030945,-0.12005079537630081,-0.8613590002059937
1772376662258332400,5.20033251953125,-1.499253931121528,0.7274447982385754,0.7399006674468517,0.2636195123195648,-0.10590089112520218,-0.9311457872390747
1772376662268281300,5.21028125,-1.3332976452454923,0.9595452888906002,0.40743455346524715,0.22469207644462585,-0.05264072120189667,-0.9625891447067261
1772376662278230500,5.22023046875,-1.1763175697684287,1.1739955565616487,0.1216658932507038,0.2275560349225998,0.029923662543296814,-0.9607393145561218
1772376662288180500,5.230180419921875,-1.0270955610722303,1.339283149395883,-0.12001169630289077,0.2752681076526642,0.12596336007118225,-0.9392818212509155
1772376662298129700,5.240129638671875,-0.8853387006249278,1.4606532745704055,-0.13245149115920066,0.3393789231777191,0.20428317785263062,-0.8926543593406677
1772376662308078600,5.25007861328125,-0.8278274457681923,1.538723187200725,0.07891220867335796,0.40842363238334656,0.2600651681423187,-0.8453145027160645
1772376662318027500,5.260027587890625,-0.74907035459131,1.5345207670748233,0.37745091861188407,0.465316504240036,0.2746281325817108,-0.7995871901512146
1772376662327976400,5.2699765625,-0.7335871003858745,1.4387167525723576,0.6987316217124462,0.5076554417610168,0.2710375189781189,-0.7655114531517029
1772376662337925400,5.27992529296875,-0.7881221889760345,1.3405880945146083,1.0777268471568822,0.526326060295105,0.24834074079990387,-0.7555922269821167
1772376662347874600,5.28987451171875,-0.8483892453469336,1.265650926952064,1.3997545692324638,0.5215213298797607,0.21946334838867188,-0.7659223675727844
1772376662357824500,5.299824462890625,-0.9331777987077832,1.1944625905290245,1.7161013230621813,0.4916664958000183,0.1931971162557602,-0.7920764684677124
1772376662367773400,5.3097734375,-0.9994174266822635,1.1351032235875724,1.9601690226227044,0.4371863901615143,0.1793929934501648,-0.8248470425605774
1772376662377722600,5.31972265625,-1.0288924544263631,1.1223109620317817,2.1274913361549377,0.35881543159484863,0.16877444088459015,-0.8591266870498657
1772376662387671600,5.329671630859375,-1.0481786811113356,1.1080284619182348,2.2693489535629747,0.26467785239219666,0.16188141703605652,-0.8964429497718811
1772376662397620500,5.339620361328125,-0.9770338185038417,1.0893953653797506,2.357373273974657,0.1664082407951355,0.1492588371038437,-0.9238463640213013
1772376662407569700,5.349569580078125,-0.855957488644123,1.0747612753495572,2.400261398586631,0.06914440542459488,0.12860901653766632,-0.9487778544425964
1772376662417518600,5.3595185546875,-0.8321830836944282,1.106155653783679,2.3998306059539316,-0.027833804488182068,0.0835624411702156,-0.9732789397239685
1772376662427467500,5.369467529296875,-0.8390328765239566,1.1201388786897062,2.379610240224004,-0.12655484676361084,0.0288698710501194,-0.989812970161438
1772376662437417500,5.37941748046875,-0.7992664641290903,1.1467504067614673,2.269700835740566,-0.22565212845802307,-0.033736784011125565,-1.0025173425674438
1772376662447366400,5.389366455078125,-0.7800679157275706,1.1799459893986581,2.1043770025491715,-0.3158802092075348,-0.09969498217105865,-1.0030219554901123
1772376662457315300,5.3993154296875,-0.7582909682054072,1.2344105700358747,1.8727116884440183,-0.3974464237689972,-0.15524372458457947,-0.9979258179664612
1772376662467264800,5.4092646484375,-0.7164623625837266,1.2800085381284356,1.6212228989720343,-0.45452046394348145,-0.1947425752878189,-0.9801760911941528
1772376662477213700,5.419213623046875,-0.6511131806429475,1.2844126183062792,1.2795271843522786,-0.4882288873195648,-0.1957806795835495,-0.9516424536705017
1772376662487162600,5.42916259765625,-0.5715011531371623,1.2754811238318682,1.0001046782940626,-0.5000507235527039,-0.1641676425933838,-0.9019882082939148
1772376662497111600,5.439111572265625,-0.4701743931578472,1.217988719806075,0.7744429885178804,-0.48587867617607117,-0.11124929785728455,-0.8441193103790283
1772376662507060500,5.449060546875,-0.3355046048946678,1.1090791400149465,0.6542144345939159,-0.4475729763507843,-0.06256624311208725,-0.7670131921768188
1772376662517010400,5.459010498046875,-0.15971348249632863,0.9018599926412105,0.6204822608619928,-0.3954397439956665,-0.03296494111418724,-0.6859819889068604
1772376662526959600,5.468959716796875,-0.06174244441939517,0.667737348511815,0.7147329084426164,-0.336743026971817,-0.036960434168577194,-0.6098833680152893
1772376662536908500,5.478908447265625,-0.059795840396266425,0.44558863529264925,0.9152905521005391,-0.2890103757381439,-0.07252535223960876,-0.5387628078460693
1772376662546857500,5.488857421875,-0.07795746523179113,0.2271674181640148,1.1316454843491315,-0.2689531445503235,-0.13313600420951843,-0.4844300150871277
1772376662556806700,5.498806640625,-0.13681888345531187,-0.013519406786561012,1.3364473414480686,-0.27497509121894836,-0.19455701112747192,-0.4447270929813385
1772376662566755600,5.508755615234375,-0.171322708280012,-0.22105273467600345,1.4126573054254055,-0.29653605818748474,-0.24367372691631317,-0.4169095456600189
1772376662576704500,5.51870458984375,-0.17666169468779117,-0.3997904684528708,1.4158739293843507,-0.3298548758029938,-0.2994222044944763,-0.3978511393070221
1772376662586653400,5.5286533203125,-0.21649105278365313,-0.553903171800077,1.2751496999204157,-0.359640896320343,-0.34258148074150085,-0.39755669236183167
1772376662596603600,5.538603759765625,-0.2958514436159283,-0.6343000660732389,1.0811959845721721,-0.384786456823349,-0.3698980510234833,-0.4121537506580353
1772376662606552600,5.548552490234375,-0.345376047100313,-0.7449830852776765,0.8309709314256906,-0.40738627314567566,-0.3708202838897705,-0.43132883310317993
1772376662616501500,5.55850146484375,-0.33215843627192077,-0.8472831838011741,0.5717459947437048,-0.4308561682701111,-0.35188546776771545,-0.4537590444087982
1772376662626450400,5.568450439453125,-0.28070986072132365,-0.925119287675619,0.31718320465385913,-0.4410025477409363,-0.30368557572364807,-0.48019811511039734
1772376662636399600,5.578399658203125,-0.22636914392579346,-0.9748504100501537,0.08322305760979652,-0.44502127170562744,-0.23430359363555908,-0.5044179558753967
1772376662646348500,5.5883486328125,-0.13054132842263205,-1.0201835897266864,-0.05846329488456249,-0.45149555802345276,-0.15857037901878357,-0.5210539698600769
1772376662656297500,5.59829736328125,0.027901019893027842,-1.0592869351029395,-0.2159311538785696,-0.44086793065071106,-0.08869969844818115,-0.5253930687904358
1772376662666247700,5.60824755859375,0.2068205582438968,-1.0761436696186661,-0.32597792100608347,-0.4322446286678314,-0.044088978320360184,-0.5149722099304199
1772376662676196600,5.618196533203125,0.3667786083521321,-1.1107254459172486,-0.40711598903536794,-0.4105193614959717,-0.040911294519901276,-0.49492043256759644
1772376662686145500,5.6281455078125,0.530840970240347,-1.0925441847994923,-0.49513212614059443,-0.3822658360004425,-0.07296080887317657,-0.46509242057800293
1772376662696094500,5.638094482421875,0.6241326000630856,-1.098197388255596,-0.7080237661927938,-0.3342263996601105,-0.11808834224939346,-0.4271647334098816
1772376662706043400,5.64804345703125,0.6242400790255517,-1.1135719213895499,-0.9460650450706481,-0.27136334776878357,-0.1491508185863495,-0.3903884291648865
1772376662715992600,5.65799267578125,0.5517539578769356,-1.1078928528398275,-1.1571592803120612,-0.21261613070964813,-0.1585075706243515,-0.3620252311229706
1772376662725941800,5.667941650390625,0.4567650956822559,-1.1123299585044384,-1.3107324699550866,-0.16719192266464233,-0.12149973958730698,-0.3412435054779053
1772376662735890700,5.677890625,0.40980267083607613,-1.1228674268707632,-1.4189461764365434,-0.12863440811634064,-0.04075402766466141,-0.3228605091571808
1772376662745840600,5.687840576171875,0.4006664841024205,-1.1552037623301148,-1.4082465032458304,-0.1012982502579689,0.06185910478234291,-0.3050382733345032
1772376662755789600,5.69778955078125,0.4470379573181271,-1.1628709359571336,-1.2901970469266175,-0.0811394527554512,0.15189099311828613,-0.2828432321548462
1772376662765738500,5.707738525390625,0.5287491125276312,-1.1750588018789887,-1.114134377577901,-0.06288617849349976,0.2156381458044052,-0.2538045644760132
1772376662775687400,5.7176875,0.6328771936632692,-1.223584493986517,-0.8491565764576197,-0.052388790994882584,0.2356179803609848,-0.21541669964790344
1772376662785636600,5.72763671875,0.730408908741176,-1.2704685563668607,-0.5941174010276794,-0.0519871711730957,0.2160394787788391,-0.17519748210906982
1772376662795585500,5.73758544921875,0.7939733261570334,-1.379421683038771,-0.3401952469289303,-0.07619716972112656,0.1555148810148239,-0.14269866049289703
1772376662805534700,5.74753466796875,0.8847124584853648,-1.5847851195432245,-0.1688788953244686,-0.13714131712913513,0.054423898458480835,-0.12054397910833359
1772376662815483600,5.757483642578125,0.8892677837021649,-1.718520951424539,-0.15768471661508082,-0.21806785464286804,-0.08580191433429718,-0.1140834167599678
1772376662825433600,5.76743359375,0.7594158805821091,-1.7303756398692727,-0.43831484489738937,-0.29165950417518616,-0.22278371453285217,-0.13333815336227417
1772376662835382500,5.777382568359375,0.4759594428326934,-1.6568581298463045,-0.943752676475048,-0.3494165241718292,-0.35448238253593445,-0.18051685392856598
1772376662845331500,5.78733154296875,0.1946304272997193,-1.4136243968918918,-1.4727590151667593,-0.40384238958358765,-0.4417465329170227,-0.24364922940731049
1772376662855280600,5.79728076171875,0.04174883665004745,-1.1783736255154014,-2.1353677686184644,-0.42725345492362976,-0.4391036033630371,-0.2944210469722748
1772376662865229600,5.8072294921875,0.024959397500159682,-0.9589309563845395,-2.8865877024590967,-0.40193507075309753,-0.3401966094970703,-0.3379916250705719
1772376662875178500,5.817178466796875,0.15276840346562676,-0.820533708563447,-3.522488481727242,-0.3120800256729126,-0.1608196496963501,-0.3548172116279602
1772376662885127400,5.82712744140625,0.41519272984396666,-0.629539281412214,-3.8314579847872254,-0.17465099692344666,0.04227638244628906,-0.33057913184165955
1772376662895076600,5.83707666015625,0.7553598831895738,-0.38207507128119467,-3.7310645966678857,-0.0018669695127755404,0.22540251910686493,-0.2562284767627716
1772376662905026600,5.847026611328125,1.0931303871896116,-0.12041676997244358,-3.252147692269087,0.16378916800022125,0.35013261437416077,-0.13994894921779633
1772376662914975500,5.8569755859375,1.3365624922603367,0.15962006859183311,-2.503904728412628,0.2959863543510437,0.38374170660972595,0.010677584446966648
1772376662924924400,5.86692431640625,1.4961556728452443,0.36262232892289753,-1.7122183441489933,0.38412338495254517,0.35201504826545715,0.16761232912540436
1772376662934873300,5.876873291015625,1.453488789768517,0.427691597943753,-1.057646766680479,0.44559741020202637,0.3010250926017761,0.3107154071331024
1772376662944822300,5.886822265625,1.2367426662452519,0.4545702525191009,-0.6189484754234552,0.5033783912658691,0.2658580541610718,0.41303500533103943
1772376662954771500,5.896771484375,0.9640074559312313,0.409218660403043,-0.30874563117623327,0.5587114095687866,0.25411805510520935,0.4687877297401428
1772376662964720400,5.906720458984375,0.715092827796191,0.38866774754449723,-0.005590367352962493,0.6107456088066101,0.246733620762825,0.4851670563220978
1772376662974670300,5.91667041015625,0.6019410073254257,0.35841961653605103,0.2909165444970131,0.644606351852417,0.2347392737865448,0.4895378351211548
1772376662984619300,5.926619384765625,0.6143968034684658,0.3749402509652078,0.6254764158874749,0.6536672711372375,0.2066902369260788,0.49322304129600525
1772376662994568400,5.936568359375,0.6916996772490441,0.3994254345327615,0.914149565371871,0.6342355012893677,0.15513090789318085,0.5084254741668701
1772376663004517400,5.946517333984375,0.7445906518939882,0.4461930309265852,1.1197674150288104,0.5825080871582031,0.1198529377579689,0.5283154845237732
1772376663014466600,5.956466552734375,0.7725794596683233,0.4659212292253971,1.199547638708353,0.4808824062347412,0.10938350856304169,0.5471885204315186
1772376663024415500,5.96641552734375,0.7183183657139539,0.4787114449545741,1.1598761380553244,0.34196656942367554,0.1469588279724121,0.5607648491859436
1772376663034364400,5.976364501953125,0.6296797127962112,0.4605015422642231,0.9398878177404403,0.16437099874019623,0.23897716403007507,0.5635862350463867
1772376663044313300,5.986313232421875,0.5154499608956277,0.3978983710959553,0.6011953765898943,-0.03932761773467064,0.3669966161251068,0.5541605353355408
1772376663054263300,5.99626318359375,0.35053368559181686,0.34919542272537946,0.1526888080239296,-0.2365272343158722,0.49089592695236206,0.5205743312835693
1772376663064212200,6.006212158203125,0.13966564205540344,0.31312633047848937,-0.49924073050320145,-0.385576456785202,0.5897830724716187,0.4670548737049103
1772376663074161400,6.016161376953125,-0.07927475837543606,0.3009045622870326,-1.304308574387431,-0.4502377510070801,0.6440744996070862,0.40213340520858765
1772376663084110600,6.026110595703125,-0.23276900103073567,0.3903653452426195,-2.0928870557636023,-0.4256482422351837,0.6566937565803528,0.32887518405914307
1772376663094059500,6.0360595703125,-0.3390650373226031,0.622758973622322,-2.6932810528427362,-0.3220866918563843,0.6465290188789368,0.2552124261856079
1772376663104008400,6.046008544921875,-0.3388156291387975,0.887662832723558,-3.0541864948451516,-0.15898586809635162,0.6236581802368164,0.20141585171222687
1772376663113957400,6.055957275390625,-0.1820188012741506,1.122233512881398,-3.1332933493077753,0.04472491145133972,0.5971426963806152,0.18094545602798462
1772376663123906300,6.06590625,0.047857839315943417,1.3074062481418252,-2.89613119135201,0.2515467405319214,0.5824117064476013,0.19333893060684204
1772376663133856500,6.0758564453125,0.27282990286014974,1.5147113202333449,-2.3460797265440223,0.4417901933193207,0.579669177532196,0.2343428134918213
1772376663143805400,6.085805419921875,0.4480901697847992,1.6893863346159457,-1.6082985354691743,0.574295163154602,0.5935651659965515,0.29078221321105957
1772376663153754400,6.09575439453125,0.5320270747523754,1.7842372861772775,-0.7315642162561417,0.6388149857521057,0.6128251552581787,0.35501500964164734
1772376663163703600,6.10570361328125,0.5742155266623944,1.8157357095077633,0.17218495113253593,0.6381801962852478,0.6275320053100586,0.4056316614151001
1772376663173652500,6.115652587890625,0.5257163572356105,1.7791683123499153,0.9744698862999677,0.5903967022895813,0.6407625675201416,0.44523152709007263
1772376663183601400,6.125601318359375,0.41553186213783916,1.7098405091017483,1.626607514619827,0.5127251148223877,0.6443915963172913,0.45959335565567017
1772376663193550300,6.13555029296875,0.2580008747797459,1.5909306365609168,2.138831645336747,0.42886966466903687,0.6164201498031616,0.4477883577346802
1772376663203499300,6.145499267578125,0.12408793276585638,1.48405051677078,2.5043571483552456,0.3277377188205719,0.5500174164772034,0.4148612916469574
1772376663213449500,6.155449462890625,0.03303177037760615,1.3899620740145444,2.719490429854393,0.22797276079654694,0.4652678966522217,0.36353471875190735
1772376663223398400,6.1653984375,-0.055330769012495874,1.2789455850720406,2.8222452864080667,0.13724416494369507,0.3506145477294922,0.30682146549224854
1772376663233347300,6.175347412109375,-0.1178685467943549,1.212800503513217,2.7788369373142716,0.06618782877922058,0.2302473932504654,0.2434331774711609
1772376663243296500,6.185296630859375,-0.12115487498864531,1.1674220233902335,2.6778233714699744,0.02354537323117256,0.12212841212749481,0.17956869304180145
1772376663253245400,6.195245361328125,-0.12590733021274209,1.1447241616308688,2.5315789172798393,0.00428432784974575,0.023648712784051895,0.11891786009073257
1772376663263194400,6.2051943359375,-0.10757314355559647,1.1268296085000038,2.4282237567454574,-0.015956426039338112,-0.05154440551996231,0.059345975518226624
1772376663273143600,6.2151435546875,-0.04028802511617541,1.1205965593293308,2.407489596274495,-0.053586360067129135,-0.1094665676355362,-0.003689182922244072
1772376663283093500,6.225093505859375,0.05075958863943815,1.0833543316498397,2.392810498058796,-0.11123613268136978,-0.13469871878623962,-0.05512530356645584
1772376663293042400,6.23504248046875,0.18644947719797492,1.0451543648540973,2.346128826382756,-0.1826554536819458,-0.12671242654323578,-0.09307428449392319
1772376663302991400,6.244991455078125,0.2451302142255008,1.0085425440326332,2.234473455014825,-0.26162099838256836,-0.09377717226743698,-0.1380692571401596
1772376663312940300,6.254940185546875,0.3324224940355867,0.9406889049902558,2.0829630431205035,-0.3376787304878235,-0.042598411440849304,-0.16940639913082123
1772376663322889200,6.26488916015625,0.48097369079813357,0.8849427601099014,1.9535411289155482,-0.40415772795677185,0.004211658611893654,-0.1945762187242508
1772376663332838700,6.274838623046875,0.6728698890946805,0.7981374600991606,1.845443742290139,-0.455628365278244,0.021906234323978424,-0.20528079569339752
1772376663342787600,6.28478759765625,0.8746796517055481,0.7709145221307874,1.7565952460139989,-0.487338125705719,0.0006916038691997528,-0.198806032538414
1772376663352736500,6.294736572265625,1.0728572683591395,0.7239639703854918,1.6395692875236272,-0.5087864398956299,-0.04422500357031822,-0.1753784716129303
1772376663362686500,6.3046865234375,1.1860974247004836,0.6913853506028652,1.5308037923783062,-0.5208794474601746,-0.11199265718460083,-0.13210830092430115
1772376663372635400,6.314635498046875,1.212692440028861,0.6791667972818016,1.3721604598641395,-0.5259525179862976,-0.1788340061903,-0.08339562267065048
1772376663382584300,6.324584228515625,1.2180196994662285,0.5702279913961887,1.1279308477401733,-0.5197022557258606,-0.22341318428516388,-0.03384174406528473
1772376663392533200,6.334533203125,1.1585601600859314,0.429411991995573,0.9066022187322378,-0.5103758573532104,-0.252072274684906,0.005224699154496193
1772376663402482400,6.344482421875,1.078321525114402,0.27693068924248215,0.7258148589491844,-0.49536585807800293,-0.2718460261821747,0.033470600843429565
1772376663412431400,6.354431396484375,0.9654375617995857,0.11326295269504189,0.579179359614849,-0.48016056418418884,-0.30469104647636414,0.0486101396381855
1772376663422380500,6.364380615234375,0.9105347358755767,-0.03441767177805304,0.4519593393683433,-0.4653123915195465,-0.3573112487792969,0.0527607798576355
1772376663432329500,6.37432958984375,0.8889894051522016,-0.15231924405917524,0.3120674690753221,-0.45105916261672974,-0.3987888991832733,0.05109656602144241
1772376663442279400,6.384279541015625,0.8423475540298968,-0.23730419677495956,0.11937982814013957,-0.43962857127189636,-0.43650752305984497,0.052566543221473694
1772376663452228400,6.394228271484375,0.8430711190640926,-0.27901991660669445,-0.054235448056459426,-0.44144511222839355,-0.4593198895454407,0.05724705010652542
1772376663462177500,6.404177490234375,0.8479610830627381,-0.3118545569770038,-0.22464403716623782,-0.44164174795150757,-0.4755997061729431,0.06884805858135223
1772376663472126500,6.41412646484375,0.8092042130365967,-0.3000749795950949,-0.4282219054281711,-0.43420591950416565,-0.4694616496562958,0.0851745679974556
1772376663482075400,6.424075439453125,0.8270969395365566,-0.30481720568612214,-0.6640940235733985,-0.4086845815181732,-0.43970173597335815,0.11224637925624847
1772376663492024300,6.4340244140625,0.8591142721746117,-0.37820451345816253,-0.8804173916399478,-0.3704410791397095,-0.39046576619148254,0.14280162751674652
1772376663501973500,6.443973388671875,0.9079544370587914,-0.44447614400610325,-1.0334534056663514,-0.3228893280029297,-0.3531423807144165,0.18300408124923706
1772376663511922400,6.45392236328125,0.9383353276014328,-0.5367573912099004,-1.0691384670317172,-0.27575695514678955,-0.3427853584289551,0.2185269296169281
1772376663521872600,6.46387255859375,0.895685980181396,-0.6376292104959488,-1.0335048435926437,-0.2386351078748703,-0.3583909273147583,0.24259240925312042
1772376663531821600,6.473821533203125,0.8205810548365116,-0.7309174427852034,-1.0041612602084875,-0.21519635617733002,-0.39918041229248047,0.25702089071273804
1772376663541770500,6.4837705078125,0.7517844358555972,-0.8408402912721037,-1.0563789387017488,-0.19265249371528625,-0.4458375871181488,0.2643170654773712
1772376663551719400,6.493719482421875,0.6234326351001859,-0.9294710531443356,-1.1948568505436181,-0.1845516860485077,-0.4918799102306366,0.26217588782310486
1772376663561668400,6.50366845703125,0.47673331328202034,-0.9683059568427502,-1.3454121536701917,-0.1793077439069748,-0.5393670201301575,0.24722595512866974
1772376663571617300,6.5136171875,0.3055222486829385,-0.9897579101942479,-1.6092828703314066,-0.1686313897371292,-0.5696759223937988,0.21958208084106445
1772376663581566200,6.523566162109375,0.10658336533326655,-1.0138114243462681,-1.8954922600507735,-0.15924079716205597,-0.5763351917266846,0.18183887004852295
1772376663591515400,6.533515380859375,-0.004937136741774157,-1.0341770437657833,-2.2034008558809757,-0.1461241990327835,-0.5551718473434448,0.13158608973026276
1772376663601465300,6.54346533203125,-0.15029287106441333,-1.0380033240556716,-2.466477207294106,-0.14495263993740082,-0.48932141065597534,0.0768876001238823
1772376663611414500,6.55341455078125,-0.22423713686577976,-1.0323471979901193,-2.6333973697662354,-0.1596708595752716,-0.37479910254478455,0.020287174731492996
1772376663621363500,6.563363525390625,-0.20724183412957936,-1.0332492613963782,-2.65379192301929,-0.1880882978439331,-0.25697481632232666,-0.019087139517068863
1772376663631312400,6.5733125,-0.1700502406587824,-1.056391798183322,-2.5905145058512686,-0.2214483916759491,-0.1723446249961853,-0.056412409991025925
1772376663641261300,6.58326123046875,-0.26769268610216673,-0.9911781522557139,-2.496500005114078,-0.24779655039310455,-0.13441118597984314,-0.10378845781087875
1772376663651210200,6.593210205078125,-0.44470377874951805,-0.8656438931390643,-2.429808395588398,-0.24925994873046875,-0.12361819297075272,-0.1572389006614685
1772376663661159400,6.603159423828125,-0.6504547897994518,-0.6992920320741832,-2.4501433276087043,-0.21303585171699524,-0.12111210823059082,-0.21705150604248047
1772376663671108600,6.613108642578125,-0.7700698880001902,-0.5438381432510913,-2.4995062011927365,-0.13479004800319672,-0.08651604503393173,-0.2657924294471741
1772376663681058300,6.623058349609375,-0.7040609269764274,-0.464517938298732,-2.4381302337318655,-0.02177075482904911,-0.008422424085438251,-0.2961640954017639
1772376663691007500,6.633007568359375,-0.43720421677436677,-0.4227247693166136,-2.2091174799621105,0.11983644217252731,0.07430841028690338,-0.30530086159706116
1772376663700956400,6.642956298828125,-0.12909021629886702,-0.344327670558542,-1.755049185615778,0.2549739181995392,0.13784699141979218,-0.2923426330089569
1772376663710905300,6.6529052734375,0.11637369599356315,-0.1687416788108647,-1.1403595366805792,0.3736877739429474,0.17310084402561188,-0.2578733563423157
1772376663720854500,6.6628544921875,0.2931150591882877,0.0062185822539031505,-0.483771358692646,0.4558120667934418,0.17557711899280548,-0.19755107164382935
1772376663730803500,6.672803466796875,0.4283054189931601,0.17709172013550994,0.14479425538182258,0.503189206123352,0.15478289127349854,-0.11252006143331528
1772376663740752400,6.68275244140625,0.4103834298660978,0.2502580786332488,0.649639381763339,0.5374826192855835,0.12443956732749939,-0.03400135785341263
1772376663750702300,6.692702392578125,0.21219607726978137,0.28417174641191956,0.9823772984236478,0.5573609471321106,0.09079798310995102,0.02484917640686035
1772376663760651300,6.7026513671875,0.018818796402891167,0.2562818689674139,1.2372761886000632,0.5780330300331116,0.06118939816951752,0.05892697721719742
1772376663770600200,6.71260009765625,-0.20884313184637576,0.14448139004036784,1.4071528627902268,0.5904316306114197,0.022728823125362396,0.06388125568628311
1772376663780549600,6.722549560546875,-0.38741259638424963,0.06990165761336684,1.5061048199295997,0.6055467128753662,-0.03345666825771332,0.04821820557117462
1772376663790498600,6.73249853515625,-0.5435490606440231,0.037462884692847725,1.5766419989675282,0.6168203949928284,-0.09046828746795654,0.019877377897500992
1772376663800447500,6.742447509765625,-0.7224280660551041,0.025841566612571476,1.6705483631551266,0.5980356931686401,-0.16842159628868103,-0.028855863958597183
1772376663810396400,6.752396484375,-0.846238570119068,0.04986658532246947,1.784122719886899,0.5540570616722107,-0.25924763083457947,-0.08875275403261185
1772376663820345300,6.762345458984375,-0.9801507084153592,0.0714905342400074,1.7946417758136988,0.4668009281158447,-0.3417438566684723,-0.16428744792938232
1772376663830295300,6.77229541015625,-1.0503189810756592,0.1190606791883707,1.7220470797240732,0.3556613624095917,-0.4058844745159149,-0.26291871070861816
1772376663840244500,6.782244384765625,-1.0679211271312088,0.17890812190771102,1.444680337151885,0.24177885055541992,-0.4351307153701782,-0.36142754554748535
1772376663850193400,6.792193359375,-1.0413714853145182,0.3320329832613468,1.0374603032201528,0.12903420627117157,-0.4217619299888611,-0.45423153042793274
1772376663860142600,6.802142578125,-0.9266323225870728,0.562150191141665,0.6479144576668739,0.03356550261378288,-0.3822813332080841,-0.5306928157806396
1772376663870091500,6.812091552734375,-0.6945622270733117,0.7771154225975274,0.2266974625647068,-0.03792812302708626,-0.3062600791454315,-0.5716279745101929
1772376663880040400,6.82204052734375,-0.44928135233074423,0.9900184608265757,-0.18351532344222068,-0.07708768546581268,-0.21000447869300842,-0.5816097855567932
1772376663889989400,6.8319892578125,-0.19854356388915329,1.2102698159918188,-0.49554655216038224,-0.08201480656862259,-0.09966492652893066,-0.5493701100349426
1772376663899938300,6.841938232421875,0.045743888502428304,1.4079587723456322,-0.7311380997985601,-0.04947692155838013,0.036817386746406555,-0.4879559576511383
1772376663909888500,6.851888427734375,0.328687253030017,1.558773457060754,-0.838836842495203,0.02017938904464245,0.18444252014160156,-0.38346603512763977
1772376663919837400,6.86183740234375,0.5679233677156269,1.6376070475399493,-0.7322282331228256,0.11767934262752533,0.3151705861091614,-0.24606701731681824
1772376663929786400,6.871786376953125,0.7241647536545992,1.6695511688113212,-0.4102461037546396,0.2204081118106842,0.41015326976776123,-0.09554354846477509
1772376663939735300,6.8817353515625,0.7028226904183625,1.6177961393937468,0.07270224811732769,0.29853901267051697,0.4547603726387024,0.04108121991157532
1772376663949684500,6.8916845703125,0.5690186156064272,1.433506908969581,0.622865356606245,0.34240633249282837,0.47837090492248535,0.1475733071565628
1772376663959633400,6.90163330078125,0.35540070710629224,1.192173310548067,1.2075994277387856,0.33409953117370605,0.4580463767051697,0.2143583744764328
1772376663969582300,6.911582275390625,0.13651861273394897,0.9146656982004642,1.668469803315401,0.2999125123023987,0.4097456932067871,0.23695102334022522
1772376663979531500,6.921531494140625,-0.10372667899420485,0.6554615120455622,1.9658178421646355,0.24034631252288818,0.3468204736709595,0.22286398708820343
1772376663989481500,6.9314814453125,-0.35742560053002087,0.48985009408444163,2.175465970250964,0.16624705493450165,0.2608155608177185,0.17848826944828033
1772376663999430400,6.941430419921875,-0.5815222694791853,0.33833412923216816,2.2512726141244173,0.09252889454364777,0.17961856722831726,0.11426853388547897
1772376664009379300,6.95137939453125,-0.7077944144163281,0.23457477181106803,2.2302105368733405,0.017962247133255005,0.09549996256828308,0.03638678044080734
1772376664019328300,6.961328369140625,-0.8112351343423128,0.13288286831378937,2.1632687519788742,-0.058927055448293686,0.028872281312942505,-0.04473833739757538
1772376664029277400,6.97127734375,-0.8611673322468996,0.10301555331647395,2.0279004965901373,-0.1414024978876114,-0.029263459146022797,-0.13445889949798584
1772376664039226600,6.9812265625,-0.8624144096985459,0.0857964152291417,1.8380951330929993,-0.22496719658374786,-0.05183308944106102,-0.21456854045391083
1772376664049175600,6.991175537109375,-0.8184734150327742,0.11975421441048383,1.6453589768409729,-0.32057175040245056,-0.048019710928201675,-0.28355613350868225
1772376664059124500,7.00112451171875,-0.7084732635259627,0.18748598063886165,1.4156769455075262,-0.41494300961494446,-0.03508010134100914,-0.3337164521217346
1772376664069074400,7.011074462890625,-0.5777879783216864,0.28148265345841644,1.1680559373795985,-0.5039003491401672,-0.01812082529067993,-0.36208203434944153
1772376664079023400,7.0210234375,-0.38848888384625313,0.31399288417994975,0.8553162681311368,-0.5581313371658325,-0.00180059764534235,-0.37047797441482544
1772376664088972300,7.03097216796875,-0.20460764970108866,0.3348202758923173,0.4830787002533674,-0.5845027565956116,0.009351124055683613,-0.35932040214538574
1772376664098921500,7.04092138671875,-0.09339563818648457,0.3608174714580178,0.10982757141888141,-0.5651684403419495,0.019484372809529305,-0.3311980664730072
1772376664108870400,7.050870361328125,0.01425369414417073,0.3707698334127664,-0.23591595728695391,-0.522628664970398,0.04213881865143776,-0.2813359797000885
1772376664118819600,7.060819580078125,0.11688764599822461,0.35196196482926606,-0.44009062239825725,-0.4587440490722656,0.06970914453268051,-0.21661290526390076
1772376664128768500,7.0707685546875,0.20942688655108213,0.3126917384535074,-0.5386252309083939,-0.36765623092651367,0.1006084680557251,-0.1386035829782486
1772376664138717400,7.080717529296875,0.2191345895623788,0.24325302217677233,-0.540557075753808,-0.27162396907806396,0.13318173587322235,-0.053783755749464035
1772376664148667400,7.09066748046875,0.1505543167458847,0.1390438751615584,-0.3984048593133688,-0.19160263240337372,0.15297675132751465,0.016915448009967804
1772376664158616300,7.1006162109375,0.012468180700577794,-0.02801774160787463,-0.08335223694741725,-0.14650751650333405,0.15432512760162354,0.06405258178710938
1772376664168565500,7.1105654296875,-0.13101338464748113,-0.26050708544701334,0.25752280893921853,-0.13087156414985657,0.1482834815979004,0.08843435347080231
1772376664178514400,7.120514404296875,-0.23909221270289271,-0.47763183302432294,0.4966133046090603,-0.12900042533874512,0.13456302881240845,0.08966340869665146
1772376664188463400,7.13046337890625,-0.353997708440572,-0.6307080329306424,0.6867389861017466,-0.14222568273544312,0.1189153641462326,0.07150837779045105
1772376664198412500,7.14041259765625,-0.48123606806136665,-0.7315908120021224,0.8330547519624233,-0.16871975362300873,0.09762037545442581,0.043027639389038086
1772376664208361500,7.150361572265625,-0.5546993636790662,-0.8348039337173104,0.9098831400990486,-0.20496857166290283,0.07138025015592575,0.005911695770919323
1772376664218310400,7.160310302734375,-0.5285622847186401,-0.9296836729817092,0.9117869278937578,-0.23686492443084717,0.03456488251686096,-0.03173065185546875
1772376664228260600,7.170260498046875,-0.420670759396255,-0.9891593597792089,0.8272276532441377,-0.2522127330303192,-0.008313608355820179,-0.05977986380457878
1772376664238209500,7.18020947265625,-0.314070260265097,-0.9857827229529619,0.662865943083167,-0.2574598789215088,-0.0393732413649559,-0.08268590271472931
1772376664248158500,7.190158447265625,-0.22473617242909966,-0.9606799920089543,0.4897796591967344,-0.24981209635734558,-0.060095299035310745,-0.08815205097198486
1772376664258107400,7.200107421875,-0.1454870599515736,-0.9048479224108159,0.44856560527682304,-0.2576754689216614,-0.0723552256822586,-0.08783398568630219
1772376664268056300,7.210056396484375,-0.04924889181554317,-0.8853766214825213,0.39773207461833954,-0.27925586700439453,-0.08554106950759888,-0.07282334566116333
1772376664278005200,7.220005126953125,0.02694233092870563,-0.9356295757740736,0.23278759613335132,-0.29522210359573364,-0.09554698318243027,-0.05872597545385361
1772376664287954400,7.229954345703125,0.03473652846887707,-0.9783763922192156,-0.025441315248608588,-0.29408198595046997,-0.10120034217834473,-0.050056587904691696
1772376664297903600,7.239903564453125,0.017508512955345213,-0.9991945777118205,-0.308708806297183,-0.2843014895915985,-0.09345903247594833,-0.04745831713080406
1772376664307853600,7.249853515625,0.03397434845734387,-1.0110039657101035,-0.549744006294012,-0.2631823420524597,-0.07920712977647781,-0.041279517114162445
1772376664317802500,7.259802490234375,0.06797869019415229,-0.9939332961827516,-0.7767781534671783,-0.2404050976037979,-0.06374093145132065,-0.02843916229903698
1772376664327751400,7.26975146484375,0.12862776815257965,-0.9668160105459391,-0.9550526536464691,-0.20664100348949432,-0.055952515453100204,-0.011986685916781425
1772376664337700400,7.279700439453125,0.13672463843375443,-0.9326265945658088,-1.1119161170065401,-0.16238391399383545,-0.04910200461745262,0.015352064743638039
1772376664347649300,7.289649169921875,0.15929777783490717,-0.9107705904580652,-1.2712111914277076,-0.10663516819477081,-0.029745884239673615,0.04531369358301163
1772376664357598200,7.29959814453125,0.15095095138065517,-0.9195632609836757,-1.3743909953951834,-0.053892381489276886,-0.0013094618916511536,0.08220719546079636
1772376664367547400,7.30954736328125,0.18382238009739665,-0.9651678049474954,-1.3254700203597545,0.0007479588966816664,0.02126855030655861,0.11530469357967377
1772376664377497300,7.319497314453125,0.22958324713408945,-1.009582554604858,-1.1925216855943201,0.03663349524140358,0.022112879902124405,0.14450766146183014
1772376664387446500,7.329446533203125,0.22841394762638956,-1.1045081788375972,-0.9986632473140954,0.051110439002513885,0.013981715776026249,0.1559573858976364
1772376664397395500,7.3393955078125,0.2856203012524173,-1.1902918807156384,-0.7969418205738067,0.045415595173835754,-0.00207338435575366,0.16578347980976105
1772376664407344400,7.349344482421875,0.3638114291096106,-1.3191446167305112,-0.6075953067600727,0.017307791858911514,-0.04124555364251137,0.16664421558380127
1772376664417293300,7.359293212890625,0.40933622236810624,-1.437866711614281,-0.39948037959039207,-0.05916538089513779,-0.13225214183330536,0.14974796772003174
1772376664427242500,7.369242431640625,0.3353620180862024,-1.3976917914837599,-0.31666765634715555,-0.16541406512260437,-0.2788572907447815,0.10909933596849442
1772376664437191400,7.37919140625,0.1283360003980808,-1.2334930167995393,-0.5559872845977545,-0.2851247787475586,-0.42384737730026245,0.04556172341108322
1772376664447140400,7.389140380859375,-0.10855504899872466,-0.960180518054217,-1.1502508160978555,-0.38407373428344727,-0.5244704484939575,-0.025416316464543343
1772376664457090300,7.39909033203125,-0.17655436185579745,-0.7427925894960761,-2.0138848307192325,-0.41560447216033936,-0.5488304495811462,-0.08031000196933746
1772376664467039200,7.409039306640625,-0.11364056296893395,-0.5622492676019668,-2.931968228408694,-0.3483772277832031,-0.47530990839004517,-0.11805471777915955
1772376664476988400,7.418988525390625,0.058086602492700326,-0.4022124349027872,-3.678392160144448,-0.1909802258014679,-0.3016281723976135,-0.1279643476009369
1772376664486937600,7.4289375,0.3503778374429792,-0.1811309125237167,-4.045041114234924,0.03940904140472412,-0.06974007934331894,-0.09970606863498688
1772376664496886500,7.438886474609375,0.7505247911833226,0.1050822765879333,-3.8046407050102946,0.29088202118873596,0.1460808962583542,-0.014470537193119526
1772376664506835500,7.44883544921875,1.1569506790626793,0.4176809299305081,-2.997608867576718,0.4900427758693695,0.2946016490459442,0.12834493815898895
1772376664516784400,7.458784423828125,1.4345682545907794,0.6493456595137715,-1.914299836373329,0.6052430272102356,0.34690192341804504,0.3076557517051697
1772376664526733300,7.4687333984375,1.5328556103415787,0.7645597462765872,-0.8227069609493016,0.637495219707489,0.33380505442619324,0.4938751459121704
1772376664536683300,7.478683349609375,1.3540150007121263,0.7274928751640022,0.03604103519618511,0.6130315065383911,0.28562676906585693,0.6386898756027222
1772376664546632400,7.488632568359375,0.9867739259473979,0.5778562943175435,0.5265566074520349,0.5798006057739258,0.23903024196624756,0.7141257524490356
1772376664556581400,7.498581298828125,0.5810400389201938,0.37020357783213254,0.7721668602794408,0.549824059009552,0.19907072186470032,0.7143343091011047
1772376664566530600,7.508530517578125,0.2652022027269937,0.216745392870903,0.8843307656913996,0.5317627787590027,0.1536872684955597,0.6635992527008057
1772376664576479500,7.5184794921875,0.15594963645078241,0.09177738933488726,0.8917167842894792,0.5313909649848938,0.10629802942276001,0.594843327999115
1772376664586428400,7.528428466796875,0.15253151683667673,0.0535642707966268,0.9394418275386095,0.535710871219635,0.04254142567515373,0.517076849937439
1772376664596377300,7.53837744140625,0.23382904974399132,0.08265124907121062,1.037700541716814,0.5202549695968628,-0.05478978157043457,0.45037776231765747
1772376664606326300,7.548326171875,0.3590843640550971,0.2146627413779497,1.1516320413231849,0.47341129183769226,-0.1725776642560959,0.4069914221763611
1772376664616276500,7.5582763671875,0.5192489513197913,0.37450595120117064,1.1644289790540934,0.3995276689529419,-0.2941442131996155,0.38494405150413513
1772376664626225400,7.568225341796875,0.5932664102215319,0.5047419582679867,0.9428232866704463,0.3159981667995453,-0.39685437083244324,0.3777380883693695
1772376664636174300,7.57817431640625,0.5479651965858414,0.6309656609535217,0.508031355202198,0.22927306592464447,-0.4743555784225464,0.3660038411617279
1772376664646123500,7.58812353515625,0.45699554343726484,0.7234243105508387,-0.03981295495033264,0.16644643247127533,-0.5395382642745972,0.34465858340263367
1772376664656072400,7.598072509765625,0.32767164624668654,0.7620642761990427,-0.7123316925197839,0.14178337156772614,-0.5849477648735046,0.31043606996536255
1772376664666021400,7.608021484375,0.12601738472478463,0.8479447164498269,-1.4969424393087625,0.16512571275234222,-0.5868953466415405,0.2581542432308197
1772376664675970300,7.61797021484375,-0.07729847160009667,0.9840500539414584,-2.1884248205453156,0.23195232450962067,-0.5096545219421387,0.20019374787807465
1772376664685919500,7.62791943359375,-0.2208681718893349,1.1716131914697587,-2.698162395143509,0.32929885387420654,-0.3461396098136902,0.14893774688243866
1772376664695869400,7.637869384765625,-0.18882453576624392,1.354108085823059,-2.883881366109848,0.44470202922821045,-0.12564776837825775,0.12839527428150177
1772376664705818400,7.647818359375,0.03191816484620794,1.5222067905552685,-2.6870056258350608,0.5557902455329895,0.10190390050411224,0.14655376970767975
1772376664715767300,7.657767333984375,0.35783253736309706,1.619160998006165,-2.0328893909186125,0.6411251425743103,0.2815147042274475,0.2035885602235794
1772376664725716500,7.667716552734375,0.6151307437662035,1.6793679216876625,-1.1552788733929396,0.6924871206283569,0.4067538380622864,0.27457913756370544
1772376664735665400,7.67766552734375,0.7190014526072889,1.7063281170666216,-0.24856793358922002,0.7072045803070068,0.47357046604156494,0.3423893451690674
1772376664745614600,7.687614501953125,0.7181769844818859,1.6397119108647107,0.6259849499315023,0.6852103471755981,0.4786198139190674,0.3897094428539276
1772376664755563500,7.6975634765625,0.6580783434804529,1.4829443090945482,1.37385674238801,0.636851966381073,0.43615150451660156,0.41535958647727966
