time,seconds_elapsed,accel_x,accel_y,accel_z,gyro_x,gyro_y,gyro_z
1772556534709792500,0.06979248046875,-0.8851499731197953,-1.4206269691303373,0.7738064441800117,0.20170921087265015,-0.017053615301847458,-0.4220411777496338
1772556534719740700,0.07974072265625,-1.0285928138926625,-1.301140173484385,0.9237626123696565,0.07477422058582306,0.13384215533733368,-0.4767962694168091
1772556534729689600,0.089689697265625,-0.9028361441969871,-1.114609593874216,1.0528250456124544,-0.012128724716603756,0.17768922448158264,-0.4901229739189148
1772556534739637500,0.099637451171875,-0.5948444001279771,-0.9376762791708111,1.1266770482867956,-0.0343627966940403,0.13139872252941132,-0.47494447231292725
1772556534749586700,0.109586669921875,-0.23156068468689917,-0.8541948628857732,1.1361936491727829,-0.018405398353934288,0.020254891365766525,-0.445976197719574
1772556534759534600,0.11953466796875,0.03708981359675526,-0.8719465004146099,1.048228365471959,0.016675574705004692,-0.06560355424880981,-0.41219592094421387
1772556534769483500,0.1294833984375,0.20571794903054832,-0.9482090713620185,0.9508148699462413,0.0592840239405632,-0.10100974887609482,-0.3883656859397888
1772556534779432700,0.1394326171875,0.20484248137027025,-1.0202896804496646,0.9074123660713433,0.08455586433410645,-0.10377758741378784,-0.36655572056770325
1772556534789380900,0.149380859375,0.0709485363177955,-1.048368358464539,0.9269909267663955,0.07766520231962204,-0.11750245094299316,-0.35555657744407654
1772556534799329800,0.159329833984375,-0.03596037117540836,-1.0968635093033312,0.9865221431434154,0.05943276733160019,-0.1274815797805786,-0.36283403635025024
1772556534809277700,0.169277587890625,-0.061117170394212,-1.1799135484337806,0.9031307432293891,0.04532227665185928,-0.09647306054830551,-0.3867816925048828
1772556534819226600,0.1792265625,-0.1179312367670238,-1.2034724109366535,0.7525432913988829,0.032797519117593765,-0.03678923845291138,-0.4156031310558319
1772556534829175000,0.189175048828125,-0.14397402504011989,-1.1878422956064343,0.6610860739290714,0.008192306384444237,0.02643873170018196,-0.4342859983444214
1772556534839124000,0.1991240234375,-0.06440642119795084,-1.1701350817412137,0.6208277132987976,-0.017447898164391518,0.08263091742992401,-0.43443551659584045
1772556534849073000,0.209072998046875,0.000568593668192625,-1.1483116647288203,0.6089560737192631,-0.04151355102658272,0.11909065395593643,-0.4348280429840088
1772556534859021000,0.21902099609375,0.06747866825014352,-1.064784363475442,0.638812867322564,-0.06381167471408844,0.11509858071804047,-0.4256734251976013
1772556534868970000,0.228969970703125,0.23566358996108172,-1.0903759008496998,0.6051303779512643,-0.06062359735369682,0.10593064874410629,-0.41104042530059814
1772556534878918000,0.23891796875,0.3471488654591143,-1.0583934933945536,0.48001171389818187,-0.05123515427112579,0.08886084705591202,-0.3916723430156708
1772556534888866800,0.24886669921875,0.4190960574254393,-0.9720333068028092,0.4062421288102865,-0.02865314856171608,0.04333091527223587,-0.36098045110702515
1772556534898815700,0.258815673828125,0.47580432533621786,-0.9062794165186584,0.31432430809140205,0.004947836510837078,-0.01895242929458618,-0.32270318269729614
1772556534908764000,0.268763916015625,0.49254634743109343,-0.8841784977391361,0.23755437214374542,0.032450832426548004,-0.06667467951774597,-0.2903231382369995
1772556534918713000,0.278713134765625,0.49383770241588354,-0.8883893934324383,0.10579612394571304,0.06810881942510605,-0.0976853147149086,-0.26044026017189026
1772556534928661000,0.288660888671875,0.43000031327754257,-0.8619516144923866,0.004314356067776679,0.10175918787717819,-0.11474605649709702,-0.2225823700428009
1772556534938610200,0.298610107421875,0.4344580233387649,-0.8301438329517841,-0.02162438730895519,0.12372948974370956,-0.14328478276729584,-0.18965809047222137
1772556534948558000,0.30855810546875,0.41276305501163,-0.8196063645854592,0.0045008185505867005,0.14171062409877777,-0.16885006427764893,-0.15479090809822083
1772556534958507000,0.318507080078125,0.3554701190806925,-0.7884531014308332,0.018582535395026207,0.15350861847400665,-0.18003293871879578,-0.11184504628181458
1772556534968456000,0.3284560546875,0.28433263606205583,-0.7500596578896045,0.008061725902557373,0.16103072464466095,-0.17694979906082153,-0.0732736811041832
1772556534978404000,0.338404052734375,0.2134833223350346,-0.7537097048297524,-0.03725450263917446,0.1619856059551239,-0.1521986424922943,-0.025286754593253136
1772556534988353000,0.34835302734375,0.151272511485219,-0.7313231009766459,-0.030936990055441854,0.1658080369234085,-0.12664881348609924,0.02630719728767872
1772556534998301000,0.358301025390625,0.08152107599750161,-0.7481997092366218,0.006471826362609863,0.17142800986766815,-0.11251834034919739,0.07722324132919312
1772556535008250000,0.36825,0.026802082207798957,-0.7796662761241198,0.08327332649230956,0.17520970106124878,-0.11494714021682739,0.1206628605723381
1772556535018198000,0.378197998046875,-0.03935892757251858,-0.8006357066556811,0.1719371138513088,0.18082602322101593,-0.13423773646354675,0.16477902233600616
1772556535028147000,0.38814697265625,-0.051813919997960325,-0.8268117659196257,0.22776596857905387,0.19279800355434418,-0.17496681213378906,0.20077483355998993
1772556535038096000,0.398095947265625,-0.126105190872401,-0.8466141984984278,0.22892507548630237,0.2231685370206833,-0.21961364150047302,0.24414685368537903
1772556535048044000,0.4080439453125,-0.21067717887312173,-0.8154585972562431,0.20523498781919478,0.2653846740722656,-0.25595247745513916,0.2877289354801178
1772556535057993000,0.417992919921875,-0.33088775874897836,-0.7295625210449099,0.15958675084412097,0.3107258081436157,-0.278677761554718,0.3177582025527954
1772556535067940900,0.42794091796875,-0.49310500422716136,-0.6835778917223214,0.1632102020382881,0.3394847512245178,-0.29431530833244324,0.32816237211227417
1772556535077889800,0.437889892578125,-0.5819855030767619,-0.6937365899041295,0.19983459008038043,0.3477117717266083,-0.2614676058292389,0.3174431622028351
1772556535087839000,0.4478388671875,-0.6560135929703712,-0.6610773061007261,0.23654782544970512,0.3352055847644806,-0.19271066784858704,0.2900884747505188
1772556535097787000,0.457786865234375,-0.6464720037735998,-0.570525805298984,0.38416882869005203,0.2823927402496338,-0.10366147011518478,0.2629966139793396
1772556535107735800,0.46773583984375,-0.5742914414428174,-0.5125377267107367,0.6397942795753478,0.19749169051647186,-0.017306342720985413,0.2379157543182373
1772556535117684000,0.47768408203125,-0.380476111651957,-0.4878504446998238,0.9245622383147477,0.08025773614645004,0.0512508824467659,0.20918476581573486
1772556535127633200,0.487633056640625,-0.1770623479105532,-0.45238604034781454,1.1633061125040054,-0.04226471111178398,0.08968615531921387,0.1995593011379242
1772556535137580800,0.497580810546875,0.010180033230781555,-0.3753966164305806,1.327556178984046,-0.16615578532218933,0.09206277132034302,0.1939934343099594
1772556535147530000,0.507530029296875,0.21211071880757806,-0.2902493127599358,1.4554051447838543,-0.282070130109787,0.02365921437740326,0.20485086739063263
1772556535157479200,0.517479248046875,0.354721346540004,-0.24011340897679329,1.4751310049951076,-0.3947277367115021,-0.08728116750717163,0.2059197723865509
1772556535167427000,0.527427001953125,0.4022366925612092,-0.2322393146008253,1.3588064727723597,-0.5021055936813354,-0.23016268014907837,0.19579176604747772
1772556535177376000,0.5373759765625,0.4044894399240613,-0.21326310371309518,1.0219511839210986,-0.6012025475502014,-0.37095358967781067,0.17095407843589783
1772556535187324200,0.54732421875,0.2815323378190398,-0.1528305545821786,0.39867257033884523,-0.6782858967781067,-0.47563526034355164,0.13519181311130524
1772556535197273000,0.557273193359375,0.1806179945655167,-0.05039046306610107,-0.42616906455159187,-0.7066290974617004,-0.5530238151550293,0.11051315069198608
1772556535207221000,0.567220947265625,0.28573863040246067,0.07305237672924995,-1.2300450683027506,-0.6971349716186523,-0.6103035807609558,0.09723968803882599
1772556535217170000,0.577169921875,0.49775356068536636,0.11103957755714654,-1.935848235836625,-0.6278831362724304,-0.5822826623916626,0.11012962460517883
1772556535227118800,0.587118896484375,0.7009241633206605,0.21789178642705082,-2.582594818767905,-0.5108598470687866,-0.5103022456169128,0.16914235055446625
1772556535237067000,0.59706689453125,0.8992951105892658,0.4572236896373331,-2.9670839654535053,-0.36848458647727966,-0.41430163383483887,0.2738754153251648
1772556535247016000,0.607015869140625,1.1448653967324645,0.6775825968302785,-3.020565380272269,-0.21102146804332733,-0.2990831732749939,0.4343186020851135
1772556535256964000,0.616964111328125,1.3980667622759937,0.8204407695829867,-2.7971155213266607,-0.0778212770819664,-0.19994884729385376,0.6318384408950806
1772556535266913000,0.6269130859375,1.5266969415813683,0.9130549020029604,-2.3090257149130107,0.009243053384125233,-0.16470882296562195,0.8362054228782654
1772556535276862000,0.636862060546875,1.4678519539028405,0.8946317949533462,-1.6183593262344598,0.04809916391968727,-0.19022247195243835,0.9966328740119934
1772556535286809900,0.646809814453125,1.2933756769627331,0.7131279574640095,-0.985504490533471,0.06645740568637848,-0.24288249015808105,1.1055121421813965
1772556535296758800,0.6567587890625,0.9321798737116157,0.47367198948264116,-0.6348550696074963,0.07985444366931915,-0.2662509083747864,1.1549227237701416
1772556535306707000,0.66670703125,0.5466156451404094,0.2986573678821325,-0.4057885398238897,0.09437692910432816,-0.27145418524742126,1.1629595756530762
1772556535316655900,0.67665576171875,0.28222864952012894,0.13273410749286413,-0.23662965851426124,0.10937585681676865,-0.27009493112564087,1.1491883993148804
1772556535326603800,0.686603759765625,0.09233429256528615,-0.008566314423829317,-0.10388590641021728,0.12160881608724594,-0.26512014865875244,1.118348479270935
1772556535336553000,0.696552978515625,-0.0076923446008935565,-0.08735504284799099,0.010509119054675102,0.13300535082817078,-0.2522631883621216,1.076183557510376
1772556535346502100,0.706502197265625,-0.10796064503584056,-0.12460253122448921,0.20059739114642142,0.13232171535491943,-0.26036879420280457,1.0345202684402466
1772556535356450000,0.716449951171875,-0.10757318008821457,-0.14938245995491742,0.3952764981597662,0.12050342559814453,-0.2761184573173523,0.9997071623802185
1772556535366399000,0.72639892578125,-0.0793000024145469,-0.20137597430348395,0.5172516034901142,0.10158646106719971,-0.29099807143211365,0.9679777026176453
1772556535376347100,0.73634716796875,-0.12715210610944777,-0.22299247056692836,0.5458101739764213,0.08247997611761093,-0.32583755254745483,0.9190284013748169
1772556535386296000,0.746296142578125,-0.182818829078041,-0.24908961937576532,0.5659142198503017,0.07495708018541336,-0.3470118045806885,0.8720360994338989
1772556535396244000,0.756243896484375,-0.17873453717278315,-0.278618788459897,0.5271218401193618,0.07113515585660934,-0.3732127845287323,0.8187311887741089
1772556535406193000,0.76619287109375,-0.12270155644137412,-0.372958283367753,0.4654769925892353,0.07144488394260406,-0.38822847604751587,0.7653020620346069
1772556535416142000,0.77614208984375,-0.11400175183098762,-0.42604777625948187,0.34109833324849603,0.08056284487247467,-0.39246851205825806,0.7119295001029968
1772556535426090000,0.786090087890625,-0.15845928118415176,-0.4256605305075645,0.23827917928695677,0.08948177099227905,-0.4072549045085907,0.652512788772583
1772556535436039000,0.796038818359375,-0.19349168732706457,-0.4693009347915649,0.11439736355245113,0.1088976189494133,-0.41521111130714417,0.5898451209068298
1772556535445987000,0.805987060546875,-0.19504620502637698,-0.5061158769696951,-0.009307342049479484,0.1288130134344101,-0.40389347076416016,0.5229901671409607
1772556535455936000,0.81593603515625,-0.20121893884455783,-0.5499453740850091,-0.09268938961327075,0.15070302784442902,-0.3688960671424866,0.45658332109451294
1772556535465885000,0.825885009765625,-0.18525630362434312,-0.6007257132515311,-0.12012100189626217,0.16745351254940033,-0.31986966729164124,0.39486002922058105
1772556535475832800,0.835832763671875,-0.08509126263447106,-0.596801817806065,-0.07009703405499458,0.17034025490283966,-0.254618763923645,0.34471189975738525
1772556535485782000,0.845781982421875,0.013790387481357901,-0.6159846571817994,0.053989364340901375,0.15630459785461426,-0.19495435059070587,0.3026200830936432
1772556535495730000,0.85572998046875,0.06443299867762252,-0.6315586584106088,0.21812369548678398,0.14343206584453583,-0.13277675211429596,0.26892873644828796
1772556535505678800,0.865678955078125,0.049920306537393475,-0.6421256451323628,0.3675608082383871,0.12878920137882233,-0.08113566040992737,0.23382987082004547
1772556535515627000,0.875626953125,0.07385477915331722,-0.6545388442426919,0.42193712607026096,0.12278611958026886,-0.04390732944011688,0.19699028134346008
1772556535525576000,0.885575927734375,0.0968340151373297,-0.7157505610525607,0.571342674639821,0.12235122919082642,-0.015068490989506245,0.15717177093029022
1772556535535525000,0.895525146484375,0.16926749278325587,-0.785025757330656,0.6925117242842912,0.13598543405532837,0.010419830679893494,0.1239892765879631
1772556535545472800,0.90547265625,0.23626504471926016,-0.792856889347732,0.777905111670494,0.14341512322425842,-0.0009723738767206669,0.0859481543302536
1772556535555422000,0.915421875,0.26381790876174344,-0.8277449551165104,0.9461661673575639,0.15949411690235138,-0.0034427177160978317,0.05165556073188782
1772556535565370000,0.9253701171875,0.3227553056977689,-0.8221741692468524,0.9926660527259111,0.1693510115146637,-0.002853626385331154,0.01002795621752739
1772556535575319000,0.935319091796875,0.31067097321562465,-0.8527183605924248,1.0995657539993524,0.15346963703632355,-0.015461569651961327,-0.02935616299510002
1772556535585267000,0.945266845703125,0.32840281006544825,-0.8969587765961885,1.2107698744684456,0.12035269290208817,-0.03704329580068588,-0.09518337994813919
1772556535595216100,0.955216064453125,0.30529315263479945,-0.957995721361041,1.2685370037823915,0.07477269321680069,-0.03599134832620621,-0.1697676032781601
1772556535605165000,0.9651650390625,0.29208975299485024,-0.9899217224538326,1.2490303392797708,0.018709957599639893,-0.04569244384765625,-0.2492179572582245
1772556535615113000,0.975113037109375,0.2598483475436456,-0.9606687399625777,1.2492863598674535,-0.05636307969689369,-0.06818923354148865,-0.33568233251571655
1772556535625062000,0.985061767578125,0.25582331154495475,-0.9415604271277784,1.1573451582729817,-0.11421865969896317,-0.07903283089399338,-0.41435691714286804
1772556535635010000,0.995010009765625,0.32213563942946494,-0.884604029674828,0.9470499644547701,-0.15533952414989471,-0.07513022422790527,-0.4705983102321625
1772556535644959000,1.004958984375,0.3936286578875035,-0.7672910709366202,0.6836836901843547,-0.17287857830524445,-0.06707150489091873,-0.508627712726593
1772556535654907000,1.014906982421875,0.4775079874489456,-0.6281728153645992,0.4028828815102577,-0.1771080195903778,-0.04926375299692154,-0.5241329073905945
1772556535664856000,1.02485595703125,0.6189952371746301,-0.513204958447814,0.20559329973757265,-0.17879459261894226,-0.03717593103647232,-0.5176070928573608
1772556535674805000,1.034804931640625,0.7642788835085929,-0.4400365541234612,0.07466857975423336,-0.17763781547546387,-0.02786337211728096,-0.501060962677002
1772556535684753000,1.0447529296875,0.8747136270403861,-0.4005374874278903,-0.04527063583433628,-0.17546147108078003,-0.026769079267978668,-0.47614872455596924
1772556535694701800,1.054701904296875,0.9454821306161582,-0.36775282367914913,-0.1857271542727947,-0.15462225675582886,-0.029909227043390274,-0.44575008749961853
1772556535704650000,1.06464990234375,1.0119476032357662,-0.33780250657349825,-0.35391280663609503,-0.1299627125263214,-0.02308753877878189,-0.4137687087059021
1772556535714599000,1.074598876953125,1.0411297855131327,-0.3212824566662311,-0.4939572371423244,-0.08683101832866669,-0.017048005014657974,-0.37352749705314636
1772556535724547800,1.0845478515625,1.0774376549519598,-0.29891455751359464,-0.6243102947175503,-0.035493526607751846,0.007477311417460442,-0.3244726061820984
1772556535734496000,1.09449609375,1.0518747591502964,-0.204458742749691,-0.7255687752336263,0.0289901252835989,0.04190319776535034,-0.2547667622566223
1772556535744445200,1.104445068359375,1.0136213816668838,-0.14170505719482898,-0.68848553750813,0.07930602878332138,0.0853891521692276,-0.18511496484279633
1772556535754392800,1.114392822265625,0.9721692812073975,-0.12714987761974333,-0.5198369438081979,0.10676490515470505,0.11937453597784042,-0.11298687011003494
1772556535764342000,1.124342041015625,0.9236842133712023,-0.1610080158188939,-0.2959182983070612,0.11966046690940857,0.149771586060524,-0.054882559925317764
1772556535774290200,1.134290283203125,0.8048514246545732,-0.19897826551198958,-0.013436989200115204,0.1121186837553978,0.16105486452579498,-0.005761449225246906
1772556535784239000,1.144239013671875,0.6637193450421095,-0.2414914193317294,0.27406068676412104,0.1019323542714119,0.15737757086753845,0.023162078112363815
1772556535794188000,1.15418798828125,0.5753200538381934,-0.286908770160377,0.5167489146649837,0.09510553628206253,0.13960444927215576,0.04711804538965225
1772556535804136000,1.164135986328125,0.5305352287594228,-0.34455636474788187,0.6765314803421497,0.09815964847803116,0.10987796634435654,0.06750533729791641
1772556535814085000,1.174085205078125,0.48346660359241067,-0.3509878591001034,0.8278267881810665,0.10956154018640518,0.07610295712947845,0.0875668004155159
1772556535824033000,1.184032958984375,0.4746376927096396,-0.34779783088713884,0.9748848968416451,0.12346350401639938,0.020549949258565903,0.10671492666006088
1772556535833983000,1.19398291015625,0.4603824824618175,-0.3395622097223997,1.1355799011886119,0.12574908137321472,-0.030144911259412766,0.13281479477882385
1772556535843931000,1.203930908203125,0.43386634105592964,-0.3298760974884033,1.2772855429053305,0.11986802518367767,-0.10135623812675476,0.1491474211215973
1772556535853879800,1.2138798828125,0.43900447112936525,-0.3389399861708283,1.4186352107912301,0.09650032967329025,-0.15270864963531494,0.15529818832874298
1772556535863829000,1.2238291015625,0.38976540658809244,-0.3938610784038901,1.4598907657653093,0.07129670679569244,-0.18435446918010712,0.16016271710395813
1772556535873777000,1.23377685546875,0.35612113033533094,-0.3643845162898302,1.4219371749460696,0.030935026705265045,-0.22295591235160828,0.15611901879310608
1772556535883725800,1.243725830078125,0.2802786844961345,-0.31518530883491036,1.4169856900185345,-0.008823037147521973,-0.2390885353088379,0.1454850137233734
1772556535893674000,1.253674072265625,0.24041429161950945,-0.3380056279301643,1.3791817368030548,-0.04856836795806885,-0.2669132351875305,0.1398952454328537
1772556535903623000,1.263622802734375,0.3045844746424816,-0.36081367206573484,1.3423568577528,-0.09562508761882782,-0.2813510298728943,0.13992534577846527
1772556535913571800,1.27357177734375,0.3577405482307076,-0.4258028615877032,1.3223615329504013,-0.15266376733779907,-0.3590351939201355,0.12799149751663208
1772556535923519700,1.283519775390625,0.4466271114949137,-0.5421732787787914,1.2946008348435163,-0.226156085729599,-0.43204599618911743,0.1124119982123375
1772556535933469000,1.293468994140625,0.4512396467916667,-0.6607955665498971,1.0795341888397931,-0.30525436997413635,-0.47223150730133057,0.0897999182343483
1772556535943416800,1.303416748046875,0.44076866779029367,-0.8165177509203553,0.792362676090002,-0.38932210206985474,-0.48933327198028564,0.05040750652551651
1772556535953366000,1.313365966796875,0.47047575072459874,-0.9297513313904404,0.4660381336033344,-0.4710107445716858,-0.5114604234695435,0.010747047141194344
1772556535963314000,1.32331396484375,0.5061018119117244,-0.9587634908631444,0.06256663855016231,-0.5491646528244019,-0.5041351318359375,-0.031246475875377655
1772556535973263000,1.33326318359375,0.4637469539262354,-0.9155661541715264,-0.3772849143952131,-0.6293863654136658,-0.465179979801178,-0.06790518760681152
1772556535983212000,1.3432119140625,0.42484669337403025,-0.8524205466896295,-0.8458633801311254,-0.7078300714492798,-0.4190247356891632,-0.10006445646286011
1772556535993160000,1.353159912109375,0.4355767617030069,-0.7846389499701559,-1.2837959477126597,-0.7773783206939697,-0.37559470534324646,-0.13008973002433777
1772556536003108900,1.36310888671875,0.4951580642994493,-0.7330342888087034,-1.7042863821059464,-0.8310277462005615,-0.296461820602417,-0.15375004708766937
1772556536013057000,1.37305712890625,0.4609843573451042,-0.7304505559258162,-2.10978850620389,-0.8709900975227356,-0.25783079862594604,-0.1965227872133255
1772556536023006000,1.383005859375,0.4011478013459593,-0.6716714730903506,-2.4003099139034747,-0.8841378688812256,-0.22793787717819214,-0.2326323240995407
1772556536032953900,1.392953857421875,0.3115339467205107,-0.5732195744276046,-2.7676234693825243,-0.8555730581283569,-0.16724073886871338,-0.25835248827934265
1772556536042903000,1.402903076171875,0.21699323015213012,-0.5360070112340152,-3.140891549351811,-0.7889748811721802,-0.07472757995128632,-0.28130680322647095
1772556536052852000,1.41285205078125,0.1408817581132054,-0.4844795069620013,-3.4370740515530107,-0.6803988814353943,0.0580856092274189,-0.30194926261901855
1772556536062800000,1.4227998046875,0.146313427773118,-0.3671272391267121,-3.6183079860597847,-0.5434285402297974,0.21465417742729187,-0.3177660405635834
1772556536072748800,1.432748779296875,0.23286190347857771,-0.2132721638023853,-3.6234020943284033,-0.38802263140678406,0.37021157145500183,-0.313940167427063
1772556536082697000,1.442697021484375,0.5002682469200342,-0.03312061770483851,-3.3168858296394346,-0.23335419595241547,0.5062615275382996,-0.2752217948436737
1772556536092646000,1.45264599609375,0.8266361170917749,0.14547127786055206,-2.7796283799529076,-0.0894516110420227,0.6090095043182373,-0.19625797867774963
1772556536102593800,1.46259375,1.0752579728253184,0.36382936662510035,-2.199623675429821,0.03523998335003853,0.6593320965766907,-0.0876859575510025
1772556536112543000,1.47254296875,1.2055715751729905,0.605339929048717,-1.6157780775696038,0.13937272131443024,0.6388413906097412,0.0405089370906353
1772556536122492000,1.482491943359375,1.1921152236852794,0.8397922435238957,-1.1078747326612473,0.2266375869512558,0.5784398317337036,0.17733868956565857
1772556536132439800,1.492439697265625,1.0189532442141325,0.9522250290051102,-0.6765805801808834,0.28751736879348755,0.4653487205505371,0.29560407996177673
1772556536142388700,1.502388671875,0.7945642047222703,0.9749543088160455,-0.3544020514577627,0.3443521559238434,0.32947611808776855,0.38699522614479065
1772556536152337000,1.5123369140625,0.44212073998637497,0.915706731685996,-0.17302198647856712,0.3987099528312683,0.21210286021232605,0.43924131989479065
1772556536162286000,1.5222861328125,0.043893502262234686,0.8130119347564876,-0.1102244617819786,0.44910550117492676,0.12134953588247299,0.44722387194633484
1772556536172233700,1.532233642578125,-0.3587240793753415,0.6768155579805374,-0.05556757344305515,0.48943087458610535,0.07695011794567108,0.4203745126724243
1772556536182183000,1.542182861328125,-0.665960840358585,0.5514617699973284,0.06722293992340564,0.5079590082168579,0.07325178384780884,0.3745891749858856
1772556536192132000,1.552132080078125,-0.9194584123697132,0.4756052956327796,0.2384603810727596,0.4866751432418823,0.09465242177248001,0.3081485331058502
1772556536202080000,1.562080078125,-1.1336919685501605,0.4571275357864797,0.4881581954747438,0.4424280524253845,0.15108002722263336,0.23118823766708374
1772556536212029000,1.57202880859375,-1.2543760842218994,0.4176341681793332,0.6893108824163675,0.3740213215351105,0.20039056241512299,0.1508186012506485
1772556536221977000,1.58197705078125,-1.2797450648866593,0.42069209444522854,1.001021208617091,0.2886912524700165,0.25106173753738403,0.06122720614075661
1772556536231926000,1.591926025390625,-1.2222945272412151,0.4677880460105836,1.2068629301577807,0.2109379917383194,0.2778853476047516,-0.02398616448044777
1772556536241875000,1.601875,-1.1134335358321665,0.4852482993774116,1.3980845901936292,0.1342804878950119,0.29722097516059875,-0.1071268618106842
1772556536251822800,1.61182275390625,-0.8280944992065429,0.48466027035638687,1.5111328772246837,0.08307436853647232,0.31927353143692017,-0.1614079773426056
1772556536261772000,1.62177197265625,-0.5720584216937422,0.5224398197829723,1.5564549509853123,0.05813173949718475,0.34419965744018555,-0.1818690448999405
1772556536271720000,1.631719970703125,-0.3607930311365053,0.5978858136504889,1.510703253635764,0.066791832447052,0.3879929482936859,-0.16282963752746582
1772556536281668900,1.6416689453125,-0.17165062506012618,0.6939511094376445,1.4431032970935105,0.0959332063794136,0.44682323932647705,-0.10374528169631958
1772556536291617000,1.651616943359375,-0.12635235230019315,0.7802620500601828,1.5293202758222817,0.12049812823534012,0.4943985044956207,-0.020192859694361687
1772556536301566000,1.66156591796875,-0.1545662558009848,0.8060084857352078,1.7351386164873837,0.12445106357336044,0.4589638113975525,0.07607242465019226
1772556536311515000,1.671514892578125,-0.20400182929504662,0.7495628142833709,2.022550367733836,0.10927781462669373,0.3675103187561035,0.1547478288412094
1772556536321462800,1.681462890625,-0.25715872486718,0.5262861199475825,2.185510978925228,0.09447196871042252,0.2865624725818634,0.20988884568214417
1772556536331411700,1.69141162109375,-0.45120216432549054,0.3153260324798524,2.185323931920528,0.0834500715136528,0.2244359850883484,0.23048260807991028
1772556536341359900,1.70135986328125,-0.7187341799732297,0.1778216418452561,2.1049580173075197,0.06475414335727692,0.12356449663639069,0.23110844194889069
1772556536351308800,1.711308837890625,-0.9277491977877914,0.019247136783599853,2.001042884802818,0.0369190014898777,0.05210867524147034,0.2077212631702423
1772556536361257000,1.721257080078125,-1.0373623227383941,-0.1598313732549548,1.878831048107147,0.014536465518176556,0.00031791534274816513,0.17557744681835175
1772556536371206100,1.7312060546875,-1.1679087109286337,-0.26627368614971636,1.7540408853560685,-0.02509487420320511,-0.04782456159591675,0.14757640659809113
1772556536381155000,1.741155029296875,-1.3213250295095145,-0.3086719814181328,1.595891473838687,-0.06675630062818527,-0.07521810382604599,0.11468875408172607
1772556536391103000,1.75110302734375,-1.3853583796113729,-0.3697232469692826,1.4200386478483675,-0.10755018889904022,-0.08866307884454727,0.09239989519119263
1772556536401052000,1.761052001953125,-1.3923660664163529,-0.4522453167028725,1.200358955091238,-0.14526349306106567,-0.08233115077018738,0.06450594961643219
1772556536411000000,1.771,-1.3659065140359103,-0.5194423915326595,0.9792202956974506,-0.17006158828735352,-0.046450935304164886,0.03515896201133728
1772556536420949000,1.780948974609375,-1.3518410176739095,-0.5866155009649694,0.824233732125163,-0.20800045132637024,-0.010121955536305904,0.012292527593672276
1772556536430897000,1.79089697265625,-1.257334641766548,-0.6296998788014054,0.766420425581932,-0.24653436243534088,0.0015951590612530708,-0.01196261402219534
1772556536440846000,1.80084619140625,-1.0684298803709447,-0.71449778451249,0.7331780811935663,-0.27889734506607056,-0.002745260950177908,-0.02687099017202854
1772556536450795000,1.810794921875,-0.8906436751652509,-0.7520587227523327,0.6529810934066772,-0.2830727696418762,-0.0020187459886074066,-0.022838035598397255
1772556536460743000,1.820742919921875,-0.7642969306219368,-0.7779888444311917,0.5041437001138925,-0.26165643334388733,0.012216116301715374,-0.019571134820580482
1772556536470691800,1.83069189453125,-0.639536140095815,-0.8041234026409685,0.4042074081122875,-0.23787637054920197,0.02629493549466133,-0.004391926806420088
1772556536480640000,1.840639892578125,-0.5549988580822944,-0.8476645843341946,0.376822557580471,-0.21513217687606812,0.0482013002038002,0.006288946606218815
1772556536490589000,1.8505888671875,-0.4276277389273047,-0.9270841580078005,0.4236825084328651,-0.2034236341714859,0.06453099101781845,0.01810130476951599
1772556536500536800,1.860536865234375,-0.2973414264453575,-1.0101026329562068,0.5023018716394901,-0.1972443014383316,0.06853771954774857,0.029484985396265984
1772556536510485800,1.87048583984375,-0.23515858131470158,-1.0937183431454003,0.5686158800244331,-0.20347441732883453,0.061900850385427475,0.029960062354803085
1772556536520435000,1.88043505859375,-0.17272187102083117,-1.1748549498699605,0.6052665715515613,-0.2109682857990265,0.060216400772333145,0.029425565153360367
1772556536530382800,1.8903828125,-0.121080257116165,-1.240025779569149,0.5859422778785228,-0.20868057012557983,0.06450621783733368,0.01907329633831978
1772556536540331800,1.900331787109375,-0.07922266286201775,-1.2926042541988194,0.5497177028089761,-0.211768239736557,0.056792907416820526,0.009203620254993439
1772556536550280000,1.910280029296875,-0.052734596773143856,-1.299888419857621,0.48612464382052417,-0.21422703564167023,0.04172901064157486,-0.005692342296242714
1772556536560228900,1.920228759765625,-0.018324706442747266,-1.3304220898091792,0.40139468877911566,-0.21114149689674377,0.02109350636601448,-0.014008861966431141
1772556536570178000,1.930177978515625,0.05713053017714992,-1.3471465762473642,0.3604892624169588,-0.20490291714668274,-0.03261738270521164,-0.03690639138221741
1772556536580126000,1.9401259765625,0.1555433754711412,-1.3951564277872441,0.2715016499310732,-0.18791088461875916,-0.01987123116850853,-0.04972897842526436
1772556536590075100,1.9500751953125,0.2298619362113066,-1.341858552841842,0.016030512824654577,-0.16901500523090363,-0.06634553521871567,-0.049106426537036896
1772556536600023000,1.96002294921875,0.2773645140824839,-1.2970428211681544,-0.11459551647305488,-0.15094785392284393,-0.08933766186237335,-0.052066266536712646
1772556536609972000,1.969971923828125,0.4550323170728981,-1.2501570052221416,-0.2875947065979242,-0.1254952996969223,-0.08997789770364761,-0.022173073142766953
1772556536619920100,1.979920166015625,0.5612066997464746,-1.1842784656450152,-0.48247605818510053,-0.10370692610740662,-0.09154409915208817,-0.002811360638588667
1772556536629869000,1.989869140625,0.6140991356961428,-1.1028002058759332,-0.6226186883687973,-0.0942571684718132,-0.10688363760709763,0.017384015023708344
1772556536639818000,1.99981787109375,0.6279740779221058,-0.9759991416938603,-0.7687935844540595,-0.09524840116500854,-0.1156691387295723,0.02638630010187626
1772556536649766000,2.009765869140625,0.6314722953014076,-0.9063077658303081,-0.9796879132091999,-0.10207883268594742,-0.12737852334976196,0.03322216868400574
1772556536659714800,2.01971484375,0.6457615904819219,-0.8055490515299141,-1.1995762802809475,-0.1054205670952797,-0.15051314234733582,0.049163851886987686
1772556536669663000,2.0296630859375,0.7116207677714527,-0.6655056439369916,-1.4784177715808153,-0.10400363057851791,-0.15074294805526733,0.08646976947784424
1772556536679612000,2.03961181640625,0.8749303385309875,-0.6150229725427925,-1.7541244719862936,-0.07763567566871643,-0.1320457011461258,0.15202933549880981
1772556536689560000,2.04956005859375,1.058007197490707,-0.5488800829410553,-2.0302911911189554,-0.028185460716485977,-0.0839730054140091,0.23834450542926788
1772556536699509000,2.059509033203125,1.1613481103040277,-0.4630160093031823,-2.1863380773991343,0.029970785602927208,-0.017244044691324234,0.33523136377334595
1772556536709458000,2.0694580078125,1.2784192231103777,-0.4031543919280171,-2.1578701078057287,0.07184306532144547,0.0489022359251976,0.43980762362480164
1772556536719405800,2.07940576171875,1.3804855128780007,-0.3640587914668023,-1.9033090712815521,0.06990960985422134,0.039288755506277084,0.5356691479682922
1772556536729354800,2.089354736328125,1.3877116647392511,-0.32422172498852014,-1.4486930799245834,0.004089665599167347,-0.1296352744102478,0.5773796439170837
1772556536739303000,2.099302978515625,1.2480875054717062,-0.18399989208877085,-1.0513304231405258,-0.09806279838085175,-0.36349251866340637,0.5691318511962891
1772556536749251800,2.109251953125,1.078055713785067,0.009351911843568086,-0.9556991348564624,-0.19075362384319305,-0.5506610870361328,0.5401641130447388
1772556536759199700,2.11919970703125,0.8395878069929779,0.14669526669755578,-1.268386781656742,-0.2399992048740387,-0.6390801668167114,0.4990667402744293
1772556536769149000,2.12914892578125,0.7418545779936015,0.2918266450792551,-1.7450737350463865,-0.22543442249298096,-0.5923254489898682,0.46029606461524963
1772556536779098000,2.13909814453125,0.6927385918427258,0.43487741779461503,-2.2516525533527134,-0.13364511728286743,-0.4255026578903198,0.4637262225151062
1772556536789046000,2.1490458984375,0.7088764374993741,0.6110980541840195,-2.641490075328946,0.020489471033215523,-0.1434222310781479,0.5176645517349243
1772556536798995000,2.158994873046875,0.853306901070103,0.797894298993051,-2.675834243479371,0.19747969508171082,0.2080279439687729,0.616317629814148
1772556536808943000,2.168943115234375,1.1174422600168734,1.0273055505611002,-2.1796710207253693,0.34663915634155273,0.49281468987464905,0.7551719546318054
1772556536818892000,2.17889208984375,1.4695144802875817,1.1932144901640713,-1.1323486641824245,0.41018909215927124,0.6277655959129333,0.8943649530410767
1772556536828839400,2.18883935546875,1.8035814535945653,1.1755575451813638,0.11165069519281387,0.3911784887313843,0.6564581990242004,1.0207589864730835
1772556536838788400,2.198788330078125,1.97115730349645,1.1149698054887354,1.158437045162916,0.30252692103385925,0.5856676697731018,1.1097525358200073
1772556536848737300,2.2087373046875,1.9439701674938201,1.0507895942620933,2.0194442184120414,0.15970921516418457,0.4429781436920166,1.1611154079437256
1772556536858685200,2.218685302734375,1.8460829169765114,0.9731425832189619,2.55296891131103,-0.0027832838241010904,0.25300315022468567,1.1864192485809326
1772556536868634000,2.228634033203125,1.7007187527522443,0.8713120019033551,2.6750661817163226,-0.15683487057685852,0.04540414735674858,1.1908364295959473
1772556536878582300,2.238582275390625,1.458701994372159,0.7227060792788863,2.447908115902543,-0.2625304162502289,-0.12138830125331879,1.1680887937545776
1772556536888531200,2.24853125,1.2313675490781664,0.5918935874983668,1.8470295501768588,-0.2979063093662262,-0.21793054044246674,1.1305187940597534
1772556536898479000,2.25847900390625,1.0491741949547082,0.5239027319423855,1.1026707342773676,-0.27757254242897034,-0.2586452066898346,1.0886507034301758
1772556536908428300,2.26842822265625,0.9753199272580444,0.5149903805598617,0.42030514095425603,-0.2210511416196823,-0.2838402986526489,1.0493613481521606
1772556536918377200,2.278377197265625,0.9671760760299861,0.5068778012529015,-0.10156243189871311,-0.16663503646850586,-0.3142392039299011,1.0215054750442505
1772556536928325000,2.2883251953125,1.0138727991446852,0.5044574422381818,-0.4910077396869659,-0.11881808191537857,-0.3283121585845947,0.9905866384506226
1772556536938274000,2.298274169921875,0.9512033578071742,0.5434817310288548,-0.8020704156339168,-0.08976805210113525,-0.3438413143157959,0.9625499248504639
1772556536948222200,2.30822216796875,0.8298733454473316,0.6549329581268132,-1.0275614250183105,-0.07687752693891525,-0.35433149337768555,0.9184012413024902
1772556536958171100,2.318171142578125,0.7247237027116119,0.6981367245592176,-1.2240028655290602,-0.06326371431350708,-0.30961036682128906,0.8802788853645325
1772556536968119000,2.328119140625,0.6628997722875326,0.7255081310875714,-1.4408078796327113,-0.04736597463488579,-0.2405117303133011,0.8418720960617065
1772556536978068200,2.338068115234375,0.6544080574698746,0.7506016558118164,-1.5412439378499985,-0.011754450388252735,-0.1305364966392517,0.8098998069763184
1772556536988017200,2.34801708984375,0.7879146106399595,0.7810799423143268,-1.5972914037644863,0.049289770424366,0.0037973299622535706,0.7936657071113586
1772556536997965000,2.357965087890625,1.0018917078413068,0.8097859584473073,-1.5965040527790784,0.12461568415164948,0.166418194770813,0.8125709891319275
1772556537007914000,2.3679140625,1.2212926567222921,0.8661623640552163,-1.3457254574030637,0.1909288763999939,0.32674771547317505,0.8578619956970215
1772556537017862100,2.377862060546875,1.3676185786508024,0.9759168702378869,-0.8243570662438869,0.22984537482261658,0.4295545220375061,0.9280368089675903
1772556537027811300,2.387811279296875,1.4557728090524673,1.0127329814597963,-0.16907997085452078,0.229087695479393,0.49506881833076477,1.0093053579330444
1772556537037759000,2.397759033203125,1.446411106467247,0.9285491159938275,0.464119732761383,0.21179738640785217,0.5112437605857849,1.0745954513549805
1772556537047708200,2.407708251953125,1.3248957276031375,0.7952132432155311,0.9739671974748373,0.19395752251148224,0.4914460778236389,1.116518497467041
1772556537057657300,2.4176572265625,1.159987927866727,0.6346518021203578,1.3294552906036377,0.16893766820430756,0.42092078924179077,1.114882469177246
1772556537067605200,2.427605224609375,1.0048543570391832,0.44813174390420313,1.590941157954931,0.14760883152484894,0.34281718730926514,1.0801384449005127
1772556537077554200,2.43755419921875,0.9130996909927577,0.2858955014646053,1.7048323255509137,0.13557560741901398,0.2699722647666931,1.0367003679275513
1772556537087502300,2.44750244140625,0.8484465284921229,0.17728607366383076,1.7988573476821184,0.1173945963382721,0.17361807823181152,0.9733439087867737
1772556537097451300,2.457451171875,0.7789816548608243,0.06111088678389787,1.852612903267145,0.07929488271474838,0.08900650590658188,0.8921984434127808
1772556537107399200,2.467399169921875,0.7268968089669943,-0.06213833013549447,1.8444085540235042,0.028151510283350945,0.014474472962319851,0.8090125322341919
1772556537117348000,2.47734814453125,0.7048197094544768,-0.12626301178261637,1.821581220665574,-0.04011542722582817,-0.03328772261738777,0.7189532518386841
1772556537127297300,2.48729736328125,0.6410803738631308,-0.14727555080354213,1.6744214051961899,-0.10938204824924469,-0.07963711768388748,0.6429529786109924
1772556537137245200,2.4972451171875,0.6088344931662082,-0.09218158622160554,1.3843401424795387,-0.15116038918495178,-0.09204798191785812,0.5877403020858765
1772556537147194000,2.507194091796875,0.6313042452581227,-0.0033241759866476056,0.9634002107530831,-0.16994477808475494,-0.07270677387714386,0.5591341257095337
1772556537157142300,2.517142333984375,0.6225291103892028,0.09529226558804511,0.5974953530281781,-0.16905474662780762,-0.026391467079520226,0.542728841304779
1772556537167091200,2.52709130859375,0.594956664863415,0.18128917182534932,0.32102994320988654,-0.16251729428768158,0.014442517422139645,0.5342599749565125
1772556537177039000,2.5370390625,0.6281086640872061,0.22534780152142048,0.15439268933236597,-0.16483691334724426,0.0541158951818943,0.5286239385604858
1772556537186988000,2.546988037109375,0.701333620904386,0.19898206490427253,0.11187222898900508,-0.15638887882232666,0.06481221318244934,0.5317866802215576
1772556537196937000,2.55693701171875,0.7383655668340623,0.1953510149255395,-0.0003565583527088165,-0.13965356349945068,0.10105490684509277,0.5394073128700256
1772556537206885000,2.566885009765625,0.751267280113697,0.21662293553501366,-0.08536416129171848,-0.11644580960273743,0.14536245167255402,0.5518622398376465
1772556537216834000,2.576833984375,0.7580706034529954,0.2056996827214956,-0.09936755220293998,-0.09701912105083466,0.18292847275733948,0.5715797543525696
1772556537226782200,2.5867822265625,0.7433413824852556,0.1874450641065836,0.0018511808246374128,-0.07862945646047592,0.1930471509695053,0.5938565135002136
1772556537236731400,2.5967314453125,0.7600342316761612,0.13969912419989705,0.13901274937093258,-0.05479816347360611,0.1772516816854477,0.6183160543441772
1772556537246679000,2.606678955078125,0.7126448501221835,0.08730141296461225,0.24497370848953723,-0.02565988525748253,0.1513654887676239,0.6365187168121338
1772556537256628200,2.616628173828125,0.6205404207900166,0.03618921149522066,0.35904490882754325,0.0024417906533926725,0.0883399099111557,0.6429856419563293
1772556537266577200,2.6265771484375,0.5486320264641196,-0.05342836945727467,0.4212900603383779,0.03366012126207352,0.03128649294376373,0.6392145156860352
1772556537276525300,2.636525390625,0.5177735084723681,-0.1762596532255411,0.4174105885565281,0.062114130705595016,-0.011455108411610126,0.6283091306686401
1772556537286474200,2.64647412109375,0.43630467411875723,-0.24845541312545535,0.4093786732703447,0.09177082031965256,-0.05355170741677284,0.6085506081581116
1772556537296422100,2.656422119140625,0.3568952565129846,-0.2837429996058345,0.3555822011530399,0.10914475470781326,-0.07628471404314041,0.5892530679702759
1772556537306371300,2.666371337890625,0.30161727713365105,-0.3327303178757429,0.30808044526576994,0.1159137636423111,-0.07417949289083481,0.5657215118408203
1772556537316319200,2.6763193359375,0.2595184032032266,-0.3642316638156771,0.27913550581038,0.10801642388105392,-0.07534409314393997,0.5416907072067261
1772556537326268200,2.68626806640625,0.23017032630704343,-0.37186142804175615,0.2971598228007555,0.07591324299573898,-0.08823060244321823,0.5179335474967957
1772556537336217000,2.696217041015625,0.20980700844246894,-0.3628913551226258,0.315350144007802,0.03849050775170326,-0.0981745794415474,0.49963149428367615
1772556537346165200,2.706165283203125,0.2558206811964512,-0.38999782710447906,0.3221417038440704,-0.004605756141245365,-0.12202237546443939,0.4841739535331726
1772556537356114200,2.7161142578125,0.27453056929819286,-0.41396892367005345,0.28708851064145563,-0.045967843383550644,-0.16423800587654114,0.4712291359901428
1772556537366062000,2.72606201171875,0.2873269955724478,-0.4554493734411895,0.1881453213304281,-0.07695989310741425,-0.21538373827934265,0.45276060700416565
1772556537376011000,2.736010986328125,0.2778929584033787,-0.5202905327945947,0.031445524099469185,-0.11569610238075256,-0.2560938894748688,0.4185909330844879
1772556537385959200,2.745959228515625,0.23824133149459956,-0.5970420563027262,-0.1513502528965473,-0.16123461723327637,-0.31729257106781006,0.371774822473526
1772556537395908000,2.755908203125,0.17885098489299414,-0.6749624774597585,-0.3613420798540115,-0.2233954519033432,-0.36860182881355286,0.3146846294403076
1772556537405857000,2.76585693359375,0.0661215545527637,-0.6673499566294252,-0.6447206300616264,-0.31078535318374634,-0.39328452944755554,0.25098735094070435
1772556537415805200,2.77580517578125,-0.028803704353794455,-0.6143842362478376,-1.0125029720962047,-0.40759870409965515,-0.4099918603897095,0.18618066608905792
1772556537425754000,2.785754150390625,-0.08718684667423367,-0.5965418516956269,-1.364376966381073,-0.5080554485321045,-0.3525104522705078,0.12534880638122559
1772556537435702000,2.795701904296875,-0.08939816604815423,-0.5792075627960265,-1.8360224184721707,-0.592534065246582,-0.25929024815559387,0.0658295601606369
1772556537445651200,2.805651123046875,-0.09179850518815219,-0.4598305111348629,-2.242628119897842,-0.6507441997528076,-0.18757264316082,0.00763888843357563
1772556537455600400,2.815600341796875,-0.028177316083759067,-0.3595399988681078,-2.6339041502445935,-0.6621673107147217,-0.10352594405412674,-0.04494176432490349
1772556537465548300,2.82554833984375,0.10348631263338029,-0.2291892793804407,-2.986867108809948,-0.6117857694625854,-0.010171756148338318,-0.07250135391950607
1772556537475497200,2.835497314453125,0.3194447198450565,-0.052968058469146484,-3.1941946849942204,-0.5153952836990356,0.07688964158296585,-0.06161275506019592
1772556537485445400,2.8454453125,0.556490338749066,0.15972345590107143,-3.2304502397239205,-0.3914819359779358,0.14547298848628998,-0.00752283213660121
1772556537495394300,2.855394287109375,0.869131369928643,0.36126484989933666,-3.055519204753637,-0.2528769373893738,0.2028835564851761,0.10017699748277664
1772556537505342200,2.86534228515625,1.190373932975903,0.5005118464175612,-2.747014396595955,-0.10024245828390121,0.2532300353050232,0.25344669818878174
1772556537515291100,2.875291015625,1.4316618656247853,0.5833643171492964,-2.369260111123323,0.05628136917948723,0.30556222796440125,0.4164920747280121
1772556537525240000,2.885239990234375,1.5413050203874705,0.5988303279589862,-1.8736890090435743,0.21185168623924255,0.34922024607658386,0.5749031901359558
1772556537535188200,2.895188232421875,1.4766608449108898,0.559775863225758,-1.3558616514921187,0.3508833348751068,0.4067610502243042,0.7131132483482361
1772556537545137200,2.90513720703125,1.338362673550099,0.4325030898787081,-0.8228864091694355,0.47423040866851807,0.4405115246772766,0.8238169550895691
1772556537555085000,2.9150849609375,1.1639154765740036,0.2736738794036209,-0.34682314063608644,0.5742614269256592,0.4869099259376526,0.8925805687904358
1772556537565034200,2.9250341796875,0.9302532895632087,0.1517174787737429,0.13155951075553893,0.6382558345794678,0.4819777309894562,0.927942156791687
1772556537574982100,2.934982177734375,0.7437532512217759,0.07734905100986361,0.6393214013665914,0.6619478464126587,0.42165607213974,0.9285083413124084
1772556537584931000,2.94493115234375,0.580607565787062,0.0408199400357902,1.0452098944336174,0.6537854075431824,0.32798632979393005,0.8993410468101501
1772556537594879200,2.954879150390625,0.3057157619610429,0.029533260737359523,1.338238901039958,0.6047092080116272,0.19589540362358093,0.8407166004180908
1772556537604828200,2.964828125,0.0515774808935821,0.035044279243797063,1.5077520026147364,0.5246913433074951,0.07826251536607742,0.7556545734405518
1772556537614777000,2.974777099609375,-0.16790435120388864,0.024379238975048064,1.4747311920225619,0.4248292148113251,0.011553524993360043,0.655889093875885
1772556537624725000,2.98472509765625,-0.3361043974187225,0.021905834598839283,1.2510673980653286,0.3314700126647949,-0.004528508521616459,0.5552021265029907
1772556537634674200,2.994674072265625,-0.43050234451554714,0.07079889871403575,0.8653390649735927,0.25642746686935425,0.03555339574813843,0.46244290471076965
1772556537644622000,3.0046220703125,-0.4633211297295987,0.18088015263304114,0.45514498366713524,0.19734230637550354,0.1062571257352829,0.38412797451019287
1772556537654571300,3.0145712890625,-0.4099314848475158,0.29407983083352446,0.13007014898061753,0.14760829508304596,0.17568041384220123,0.3191063404083252
1772556537664520200,3.024520263671875,-0.3598246610283851,0.4386659964226186,-0.11648410669863224,0.11411567777395248,0.22176985442638397,0.2723352313041687
1772556537674468400,3.03446826171875,-0.2734675431765616,0.5939714166857302,-0.3057113780468702,0.09467726945877075,0.23891182243824005,0.2315869927406311
1772556537684417300,3.044417236328125,-0.1381603703252971,0.6854040842361748,-0.48142859495878215,0.09822211414575577,0.24367330968379974,0.20338986814022064
1772556537694365200,3.054365234375,-0.012989537693560123,0.7885830114208161,-0.6955810487270355,0.13571861386299133,0.2782704532146454,0.19400542974472046
1772556537704314000,3.064314208984375,0.15324552859123794,0.8749680401928722,-0.8836585655182599,0.1907568871974945,0.3320566713809967,0.20249111950397491
1772556537714262300,3.07426220703125,0.3149882884254679,0.99555885155797,-0.931055691987276,0.2697145342826843,0.36600160598754883,0.2413218766450882
1772556537724211200,3.084211181640625,0.49454216089081016,1.1252492074407636,-0.8299135313272475,0.3481375277042389,0.40094253420829773,0.3069401681423187
1772556537734160100,3.09416015625,0.5892824916845187,1.2127784378118813,-0.583491377595067,0.43310701847076416,0.4111451208591461,0.3945315480232239
1772556537744108300,3.1041083984375,0.6925142085023224,1.2735314510688185,-0.30551030251681804,0.507032573223114,0.42969295382499695,0.49560484290122986
1772556537754057200,3.11405712890625,0.6019125484159216,1.267657590599358,0.05405599983632564,0.558356761932373,0.4312503933906555,0.5792515277862549
1772556537764005000,3.124005126953125,0.4281946886276826,1.1870453000098466,0.48854456444382666,0.5744974613189697,0.40526115894317627,0.6363804340362549
1772556537773954000,3.1339541015625,0.25603260691408064,1.046708316297829,0.9497124616622924,0.5656789541244507,0.38438889384269714,0.6676339507102966
1772556537783902200,3.143902099609375,0.048748942936770616,0.8680186594463885,1.1688210765331983,0.5470060706138611,0.40370798110961914,0.6844667792320251
1772556537793851100,3.15385107421875,-0.2554644516373053,0.8054872383400797,1.3962240570187567,0.4907108545303345,0.3832511603832245,0.6632083654403687
1772556537803800000,3.163800048828125,-0.4011817401481792,0.6579984831772744,1.6709335630804298,0.4231410026550293,0.3813360929489136,0.6262995600700378
1772556537813748200,3.173748291015625,-0.49193088241387156,0.49155602121949193,1.8170482534110546,0.34774479269981384,0.3625703752040863,0.58272385597229
1772556537823697200,3.183697265625,-0.5254437508393078,0.3889909881494939,1.9141560439884662,0.26745375990867615,0.36077064275741577,0.5313029289245605
1772556537833644500,3.19364453125,-0.5329204068629071,0.32672596289440986,2.0081635304629804,0.17619523406028748,0.35060030221939087,0.4821005165576935
1772556537843593500,3.203593505859375,-0.4841705871433019,0.2826160414025187,2.090458951833844,0.08458495885133743,0.34048452973365784,0.43343040347099304
1772556537853541600,3.213541748046875,-0.42617984167393297,0.2747854939073324,2.1138474262058735,-0.014450013637542725,0.32687070965766907,0.39272958040237427
1772556537863490600,3.223490478515625,-0.3761209121171385,0.2989076893813908,2.0978514001727104,-0.11484363675117493,0.3148185908794403,0.370006263256073
1772556537873438700,3.233438720703125,-0.2911098568457179,0.3275295343622565,1.98802149066627,-0.1955488622188568,0.31243371963500977,0.3639419972896576
1772556537883387600,3.2433876953125,-0.1911213962654583,0.3629933541923761,1.798330108937621,-0.2525421977043152,0.30567967891693115,0.3760307729244232
1772556537893336600,3.253336669921875,-0.08681159275420941,0.40210751322358845,1.5513614272385834,-0.2765950858592987,0.3030087947845459,0.3995278477668762
1772556537903284500,3.263284423828125,0.03166316717183217,0.42739509921520946,1.3069605502009392,-0.2693057060241699,0.31115272641181946,0.43640467524528503
1772556537913233400,3.2732333984375,0.09290989136300049,0.4147254411257803,1.0913310096174478,-0.23666226863861084,0.304723858833313,0.4907185137271881
1772556537923181600,3.283181640625,0.17738951577199621,0.44993061001971363,1.0180717121392489,-0.20514902472496033,0.26301315426826477,0.542228102684021
1772556537933130500,3.293130615234375,0.2553677680634893,0.41726211999654766,1.0227759443074464,-0.17411494255065918,0.23830994963645935,0.5983238816261292
1772556537943078400,3.303078369140625,0.23129651732537895,0.3153583273142576,1.0304945558607577,-0.15663057565689087,0.204820454120636,0.6455308198928833
1772556537953027600,3.313027587890625,0.13980202745194545,0.2280070838585496,1.0688923833161592,-0.1624850034713745,0.17585590481758118,0.6711128950119019
1772556537962976500,3.3229765625,-0.021771463062870314,0.128281658128649,1.1178870081096888,-0.1848740130662918,0.15515702962875366,0.678835928440094
1772556537972924400,3.33292431640625,-0.16154217749452218,-0.02042217191234231,1.0914870769619942,-0.2130390703678131,0.15139637887477875,0.6639350056648254
1772556537982873600,3.34287353515625,-0.31806517512015997,-0.1485270121693611,1.0117717352122069,-0.2473064810037613,0.16297365725040436,0.6384944915771484
1772556537992821500,3.352821533203125,-0.45579789461791514,-0.24839403832703827,0.9594640403479338,-0.28134220838546753,0.16591458022594452,0.6018409132957458
1772556538002770700,3.362770751953125,-0.45821741338241845,-0.3333988647870719,0.9141659319847821,-0.31292441487312317,0.16216671466827393,0.5676846504211426
1772556538012719600,3.3727197265625,-0.4332115669416263,-0.41861426525786516,0.7713941223412751,-0.3358249366283417,0.1664152592420578,0.5395326614379883
1772556538022667500,3.38266748046875,-0.39010168933775274,-0.44789325897321103,0.6503554210782051,-0.34481608867645264,0.15830592811107635,0.5127503275871277
1772556538032616700,3.39261669921875,-0.3544379264887422,-0.47218657323047514,0.4916787708163261,-0.3557627499103546,0.1409309357404709,0.4900660216808319
1772556538042564600,3.402564697265625,-0.27116231670780105,-0.47556394070908425,0.3132452806830406,-0.3573058545589447,0.11308866739273071,0.46955153346061707
1772556538052513500,3.412513427734375,-0.20967399317994712,-0.4972125856764614,0.13070493975281713,-0.3667057454586029,0.08214884996414185,0.45727303624153137
1772556538062461700,3.422461669921875,-0.19224113927669823,-0.5083949278175831,-0.06017828210890293,-0.37281423807144165,0.049974676221609116,0.4374721646308899
1772556538072410600,3.43241064453125,-0.19414684503385796,-0.5045832605749369,-0.3387567385584116,-0.38009533286094666,0.026205431669950485,0.4159594178199768
1772556538082358500,3.442358642578125,-0.21800335704274473,-0.5072505800880491,-0.6236509540259838,-0.38262197375297546,0.004009583964943886,0.3995394706726074
1772556538092307500,3.452307373046875,-0.19102547987662255,-0.49570247337445617,-0.9624129532814025,-0.3827474117279053,0.013551424257457256,0.3840571641921997
1772556538102256600,3.462256591796875,-0.17065487375473604,-0.5015870013684034,-1.2300053208142518,-0.37267228960990906,-0.03816795349121094,0.37124329805374146
1772556538112204500,3.47220458984375,-0.08210831043408252,-0.49931686447933316,-1.5391916814953088,-0.34216389060020447,-0.019865114241838455,0.3648029863834381
1772556538122153500,3.482153564453125,-0.09129669314585626,-0.49329146670997137,-1.8313246160447596,-0.28733888268470764,0.011248842813074589,0.3572016656398773
1772556538132101600,3.4921015625,-0.050287673978484236,-0.45560295656770466,-2.1463146945685145,-0.21340660750865936,0.07265600562095642,0.36559250950813293
1772556538142050600,3.502050537109375,0.02753539916774025,-0.40582214983254666,-2.337760811010003,-0.1256423145532608,0.14295469224452972,0.3880075216293335
1772556538151998500,3.51199853515625,0.13377448339127004,-0.36575741207823154,-2.3659376887023447,-0.05473298579454422,0.2235211730003357,0.4181726276874542
1772556538161947400,3.521947509765625,0.2015723919247277,-0.34709596622809763,-2.1540473346471787,-0.010022501461207867,0.293091744184494,0.46094486117362976
1772556538171896600,3.531896484375,0.31918972217068076,-0.364117243655771,-1.8523259030193089,-0.007357209455221891,0.3461568355560303,0.5107907056808472
1772556538181844500,3.541844482421875,0.4425360427889973,-0.4054560929991305,-1.4525404030025004,-0.05504412204027176,0.36423352360725403,0.5572676658630371
1772556538191793400,3.55179345703125,0.5617704711090773,-0.5343985531240701,-1.065063764938712,-0.13620662689208984,0.3173009157180786,0.595005214214325
1772556538201741600,3.561741455078125,0.6064958210855722,-0.6914706907987594,-0.8041483909517526,-0.21342408657073975,0.22581815719604492,0.6133317351341248
1772556538211690800,3.571690673828125,0.4851264265634119,-0.7420128372952342,-0.7687263644367456,-0.27203306555747986,0.10406135767698288,0.597928524017334
1772556538221638400,3.581638427734375,0.21362210975121707,-0.7084642034366726,-1.042409450060129,-0.27804034948349,0.02877165377140045,0.5625046491622925
1772556538231587600,3.591587646484375,0.01312224242882803,-0.6479751018129288,-1.5464005899608135,-0.22687943279743195,0.037146762013435364,0.5313973426818848
1772556538241536500,3.60153662109375,0.032238254512893035,-0.5585153417706489,-2.034406809744239,-0.11203537881374359,0.11065211892127991,0.525367021560669
1772556538251484700,3.611484619140625,0.17195543495928867,-0.4013024804510176,-2.280152087128162,0.053110960870981216,0.2132144570350647,0.5570961833000183
1772556538261433600,3.62143359375,0.45941864239834246,-0.2070887989923358,-2.1550047815024853,0.23065142333507538,0.31995075941085815,0.6294230222702026
1772556538271381500,3.631381591796875,0.799752640210837,-0.02555792736560106,-1.661699870789051,0.3993368446826935,0.4388592839241028,0.7388813495635986
1772556538281330700,3.64133056640625,1.1832046989336609,0.1149298629939556,-0.9245955560624599,0.5266854763031006,0.5370526909828186,0.880287766456604
1772556538291278600,3.651278564453125,1.4655615048781037,0.16800985740497706,-0.1178799449712038,0.6105542778968811,0.5545675158500671,1.0296555757522583
1772556538301227500,3.6612275390625,1.5877178119942545,0.1634517557092011,0.597195493298769,0.636971652507782,0.5382136106491089,1.1534583568572998
1772556538311176400,3.671176513671875,1.572385656697303,0.12944850995093582,1.3018091587871312,0.5983409285545349,0.4101400375366211,1.2273794412612915
1772556538321124600,3.68112451171875,1.5323419617310166,0.03728051386326551,1.8940186803668737,0.5081651210784912,0.17621064186096191,1.2612162828445435
1772556538331073500,3.691073486328125,1.4137054993040858,-0.018369038774818183,2.152409504312277,0.3881327211856842,-0.09563710540533066,1.2612173557281494
1772556538341021400,3.701021484375,1.2942489526659249,-0.0961927215591073,2.0790438238501547,0.2593633532524109,-0.3297460079193115,1.2317408323287964
1772556538350970600,3.710970703125,1.1191580509588122,-0.14714929407536984,1.602847868847847,0.1454186737537384,-0.5042075514793396,1.1723982095718384
1772556538360918500,3.72091845703125,0.898832169252634,-0.21214345203340051,0.8557078977972269,0.05477350205183029,-0.58329176902771,1.0813724994659424
1772556538370867500,3.730867431640625,0.7493545052949339,-0.2841119790486991,-0.049771454384922975,-0.0022796622943133116,-0.5701900720596313,0.9931067824363708
1772556538380816400,3.74081640625,0.6856384044487029,-0.18347586821466683,-0.9368144016444683,-0.04612042009830475,-0.5168442726135254,0.8878300189971924
1772556538390764500,3.7507646484375,0.7196005875442176,-0.0013547756098210811,-1.5611837330728768,-0.0771811306476593,-0.46106141805648804,0.8140021562576294
1772556538400713500,3.76071337890625,0.9712819769788533,0.13021394136548042,-2.154779156053066,-0.08307590335607529,-0.41779252886772156,0.763271152973175
1772556538410661400,3.770661376953125,1.1919571835793554,0.23057167364954947,-2.6869185320734976,-0.05752420425415039,-0.36667102575302124,0.7280223965644836
1772556538420610600,3.780610595703125,1.3451760068267582,0.483174561843276,-3.1843431530654427,0.01571924053132534,-0.30832648277282715,0.710505485534668
1772556538430558500,3.790558349609375,1.3891042881414293,0.8178586441352963,-3.5871184825479983,0.14820484817028046,-0.18794122338294983,0.7316702008247375
1772556538440507600,3.800507568359375,1.5251993964999913,1.0729913430675864,-3.8360382983148096,0.32176971435546875,-0.0023732115514576435,0.794605553150177
1772556538450456600,3.81045654296875,1.6237909958943724,1.3167859247751532,-3.7613258794188495,0.5048098564147949,0.1995372772216797,0.8921880125999451
1772556538460404700,3.82040478515625,1.7637721519060432,1.5435601058378814,-3.2950469227969643,0.6579491496086121,0.36185532808303833,1.0055983066558838
1772556538470353700,3.830353759765625,1.8440332909703254,1.6211613780431449,-2.433463995486498,0.7647227048873901,0.45567822456359863,1.110247254371643
1772556538480301600,3.840301513671875,1.8623107059389352,1.4979673984423278,-1.3291641987025737,0.8189982175827026,0.5098360180854797,1.1872060298919678
1772556538490250500,3.85025048828125,1.693613158530742,1.340912065771967,-0.34396833572685714,0.8510810136795044,0.515201985836029,1.2156600952148438
1772556538500198700,3.86019873046875,1.4474176531612872,1.212316373258084,0.5206044210493564,0.8417246341705322,0.48934856057167053,1.2101943492889404
1772556538510147600,3.870147705078125,1.2180112238988279,1.0446285874143242,1.3511685252398251,0.7920358777046204,0.4155976474285126,1.1702373027801514
1772556538520096500,3.880096435546875,1.0408212310206144,0.8707166663587093,2.0229870055854318,0.7147620320320129,0.30504292249679565,1.095786690711975
1772556538530044700,3.890044677734375,0.8665798588149249,0.7385163734816015,2.493347094041109,0.6221320033073425,0.19861286878585815,1.0070782899856567
1772556538539993600,3.89999365234375,0.7970315446838736,0.6571326601281762,2.7166689426928756,0.5258846282958984,0.11530149728059769,0.9123966693878174
1772556538549941500,3.90994140625,0.7382384333230555,0.6374868794158101,2.774647668930888,0.4361094832420349,0.05081464722752571,0.8265731334686279
1772556538559890400,3.919890380859375,0.7595316889815033,0.6825356891930103,2.692145326811075,0.360396146774292,0.03543033450841904,0.76700758934021
1772556538569838600,3.929838623046875,0.8713729383103549,0.8079083280071616,2.509128600540757,0.29469412565231323,0.04910300299525261,0.7434393763542175
1772556538579787500,3.93978759765625,1.015778851961717,0.9293088483199476,2.2795552902787923,0.24301421642303467,0.09342919290065765,0.7415769696235657
1772556538589736400,3.949736328125,1.14777156650275,1.0065431869089603,2.120776933208108,0.19404107332229614,0.12603186070919037,0.7528626322746277
1772556538599684400,3.959684326171875,1.246923283997923,1.0677686399832367,2.018770264673233,0.1445433497428894,0.1330690234899521,0.779762327671051
1772556538609633500,3.969633544921875,1.2622324968107044,1.113397587735951,1.9487404506355523,0.10404278337955475,0.1283978372812271,0.8096749186515808
1772556538619581400,3.97958154296875,1.22367487568371,1.0837342708781361,1.8735411250054834,0.06347066909074783,0.11017782241106033,0.8356109857559204
1772556538629530600,3.989530517578125,1.1265337673585862,1.0419088070616125,1.777281475690007,0.031091419979929924,0.0833110585808754,0.8474931716918945
1772556538639478500,3.999478515625,0.9927074807148426,0.97145346108824,1.5879612653613089,0.0018255352042615414,0.07481797784566879,0.8365090489387512
1772556538649427700,4.009427734375,0.810191324377805,0.8795812330767512,1.335191203907132,-0.026376541703939438,0.0858868733048439,0.8087016344070435
1772556538659375600,4.019375732421875,0.6379034973926841,0.7973381264150142,1.051747771769762,-0.039372768253088,0.11920461058616638,0.7706911563873291
1772556538669324500,4.029324462890625,0.5259458186099305,0.7444719208851456,0.8159422891199588,-0.04348788410425186,0.16604802012443542,0.7255591154098511
1772556538679273700,4.039273681640625,0.49365288390088824,0.6921367534920573,0.6454015980631113,-0.040082670748233795,0.21495671570301056,0.69572514295578
1772556538689221600,4.0492216796875,0.5321570943402126,0.6659127634331583,0.5595978763103485,-0.042003609240055084,0.25478240847587585,0.6785629391670227
1772556538699170600,4.059170654296875,0.5635199451249092,0.6743614428266882,0.5113894334584475,-0.03895190730690956,0.2774009108543396,0.6798137426376343
1772556538709118700,4.06911865234375,0.6137241649039089,0.6544236934304237,0.48143268661201,-0.024355653673410416,0.28046485781669617,0.6874410510063171
1772556538719067600,4.079067626953125,0.6942516998194158,0.6060138827875257,0.4371159905016422,-0.009992077015340328,0.2829088568687439,0.6985230445861816
1772556538729015600,4.089015625,0.7168921323031187,0.5411345833808183,0.39343057803213594,0.006587433163076639,0.28468358516693115,0.7080579400062561
1772556538738964500,4.098964599609375,0.6795194101117551,0.46153702279180286,0.36900340826213357,0.033488932996988297,0.28187286853790283,0.7160423398017883
1772556538748913400,4.108913330078125,0.5932606746004894,0.37818916975855826,0.3733376380741596,0.05498810112476349,0.28845566511154175,0.7171483635902405
1772556538758861600,4.118861572265625,0.5296250551119447,0.26840456069856883,0.43797991385459895,0.06785748898983002,0.2923841178417206,0.7081442475318909
1772556538768810500,4.128810546875,0.5154799541750923,0.17114830156117677,0.5793944636702537,0.05864987522363663,0.2679794430732727,0.6985571384429932
1772556538778758400,4.13875830078125,0.5023708817550913,0.05380845481604337,0.7341957338035107,0.03016987256705761,0.22519975900650024,0.6763625144958496
1772556538788707600,4.14870751953125,0.5145235667657106,-0.04924158529192209,0.8184516415923834,0.008751931600272655,0.18498043715953827,0.6657634377479553
1772556538798655500,4.158655517578125,0.4973259829230606,-0.08330372163057327,0.7784726824253797,-0.032379526644945145,0.14532382786273956,0.6429420113563538
1772556538808604400,4.1686044921875,0.37348504718821496,-0.17725041782855985,0.7358411629229784,-0.07200442999601364,0.11447324603796005,0.6172084212303162
1772556538818553300,4.17855322265625,0.3536381909457966,-0.2332932075679302,0.5861942068129777,-0.10488446056842804,0.09692911803722382,0.5840968489646912
1772556538828501500,4.18850146484375,0.26818213185323403,-0.3047138914421201,0.46671442542970176,-0.14176630973815918,0.07863346487283707,0.5449692010879517
1772556538838451200,4.198451171875,0.2809594515682198,-0.3391273254364729,0.3594038052678108,-0.16321031749248505,0.052059657871723175,0.5170815587043762
1772556538848399000,4.208399169921875,0.325107166053541,-0.3808469907909631,0.2928448822110891,-0.16968686878681183,0.015610305592417717,0.5087149739265442
1772556538858348000,4.21834814453125,0.350763841085881,-0.3891474938854575,0.2355190669238567,-0.20025582611560822,-0.065357506275177,0.5075653791427612
1772556538868296200,4.228296142578125,0.38160434849690644,-0.4507838658481836,0.32246319088339803,-0.2377118617296219,-0.1910400688648224,0.5081936120986938
1772556538878245000,4.2382451171875,0.47802313389685,-0.5505250736691057,0.25304654030799867,-0.2903484106063843,-0.3178877830505371,0.5135319828987122
1772556538888194000,4.248194091796875,0.4299899014813825,-0.6765598296537995,0.1639075366526842,-0.34853795170783997,-0.4375540018081665,0.4962059557437897
1772556538898142200,4.25814208984375,0.3575331525577232,-0.8163311423070728,0.00015606734454631804,-0.43158817291259766,-0.5552532076835632,0.4488998353481293
1772556538908091100,4.268091064453125,0.09810666542164981,-0.9480873446784913,-0.2687614113122225,-0.5282915234565735,-0.6155410408973694,0.36884814500808716
1772556538918039000,4.2780390625,-0.17480645874254405,-0.9660384503021836,-0.6654857701927424,-0.6255504488945007,-0.6206516623497009,0.24572396278381348
1772556538927988000,4.287988037109375,-0.34118615766242144,-0.8809722490437328,-1.1451689827889204,-0.7078402638435364,-0.5400484204292297,0.12863542139530182
1772556538937936100,4.29793603515625,-0.23009696880988775,-0.7739860385306179,-1.7501801182746886,-0.7595950961112976,-0.39189836382865906,0.06142602115869522
1772556538947885000,4.307885009765625,0.13563063265196978,-0.6453501601368189,-2.2788784139305354,-0.7730056643486023,-0.17885878682136536,0.052247967571020126
1772556538957834000,4.317833984375,0.5353012010522187,-0.43537469979226584,-2.668010417985916,-0.7473422288894653,0.04025917872786522,0.10411110520362854
1772556538967782100,4.3277822265625,0.9636272244419902,-0.19433862301260232,-2.803086996951699,-0.6955597400665283,0.18999701738357544,0.217534601688385
1772556538977731000,4.33773095703125,1.4031713919386266,-0.054393853488564486,-2.6238234857350586,-0.6424910426139832,0.24515855312347412,0.3788504898548126
1772556538987679000,4.347678955078125,1.732217468343675,-0.06513838873431087,-2.3579724089115857,-0.5885607004165649,0.2283332198858261,0.5479995608329773
1772556538997628000,4.3576279296875,1.7671920433521269,-0.16680895718261599,-2.1144144124388693,-0.5456554293632507,0.19202980399131775,0.6785611510276794
1772556539007576000,4.367576171875,1.5017600687235593,-0.35266616757586594,-1.9507541285455225,-0.507451057434082,0.13634896278381348,0.7586581110954285
1772556539017525000,4.37752490234375,1.0875875853054224,-0.5928798220567405,-1.9499743763446806,-0.47634321451187134,0.12322836369276047,0.7801539897918701
1772556539027473000,4.387472900390625,0.6186399209309369,-0.839102653824538,-2.0603718566060065,-0.45037952065467834,0.1582217812538147,0.7516946792602539
1772556539037421800,4.397421875,0.2374503272473812,-1.070647702550888,-2.147353389966488,-0.4195226728916168,0.200863778591156,0.676481306552887
1772556539047371300,4.407371337890625,-0.06118417121581733,-1.155508152104169,-2.194865667247772,-0.38613274693489075,0.2548939883708954,0.5967299938201904
1772556539057319200,4.417319091796875,-0.08636727391965687,-1.1467536216318606,-2.2602912023603916,-0.314875066280365,0.2698713541030884,0.5108357071876526
1772556539067268000,4.42726806640625,0.10542349124103784,-1.0588685635603963,-2.3562229348957535,-0.19205783307552338,0.21658308804035187,0.4476814866065979
1772556539077216300,4.43721630859375,0.4842080696094781,-0.8188280736893415,-2.566058109986782,0.006642607972025871,0.15019448101520538,0.43197500705718994
1772556539087165200,4.447165283203125,0.8281310318246483,-0.4627145421385765,-2.76574773863852,0.253767192363739,0.11413847655057907,0.46422430872917175
1772556539097113000,4.457113037109375,1.0282334059957414,0.05417568069323897,-2.8185417557150125,0.5254518985748291,0.04513197019696236,0.5494552254676819
1772556539107062000,4.46706201171875,1.114963814139366,0.5615878810837864,-2.7228777342051265,0.7803286910057068,0.028130613267421722,0.6633687615394592
1772556539117011000,4.477010986328125,1.113476936582476,0.9195349116720258,-2.3865578674048185,0.9727181196212769,0.06485933065414429,0.7913849949836731
1772556539126959000,4.486958984375,1.0032735906537622,1.1313957473717628,-1.9195944356501102,1.084241509437561,0.1386384665966034,0.900179922580719
1772556539136908000,4.496907958984375,0.8160138199862093,1.1712801601231098,-1.3440180689632892,1.121576189994812,0.20760343968868256,0.9789896607398987
1772556539146856200,4.506856201171875,0.6098442547306419,1.070138291724026,-0.7482663447320461,1.113223910331726,0.3195209205150604,1.0000704526901245
1772556539156805000,4.51680517578125,0.37190899351052936,0.955850818286836,-0.19770166970491407,1.0654296875,0.45533546805381775,0.9781349897384644
1772556539166753000,4.5267529296875,0.07996774560827762,0.8338922256998718,0.2788695483505726,0.9836294054985046,0.5307497978210449,0.9221119284629822
1772556539176702000,4.536701904296875,-0.09642181760724633,0.7357125681072473,0.7651771475225687,0.8716417551040649,0.5431748032569885,0.8483400940895081
1772556539186651000,4.54665087890625,-0.17256032378356903,0.6884811535939573,1.1391396394968032,0.7587934732437134,0.49995940923690796,0.7559747695922852
1772556539196599000,4.55659912109375,-0.20376034868936985,0.7059164186500012,1.3436124107718468,0.6557943224906921,0.41169610619544983,0.6555526256561279
1772556539206548000,4.5665478515625,-0.15509605182874947,0.7765887683749199,1.3299918816983698,0.5814268589019775,0.32605499029159546,0.5637068748474121
1772556539216495900,4.576495849609375,-0.05428779929820448,0.8970695434942841,1.0603086793661116,0.5463370680809021,0.2843267023563385,0.5079704523086548
1772556539226445000,4.586445068359375,0.09365830771066248,1.101304414360225,0.6282406199038029,0.5385060906410217,0.3096131682395935,0.4863317012786865
1772556539236393000,4.59639306640625,0.2256310389095917,1.366961722177267,0.2729553558707237,0.559068500995636,0.37799009680747986,0.49559617042541504
1772556539246342000,4.606341796875,0.35695681397449225,1.6032453437328338,0.08624678934514522,0.5762780904769897,0.4572739899158478,0.5346255898475647
1772556539256291000,4.616291015625,0.5300519752871244,1.7341536971032618,0.17164894455969332,0.5870915055274963,0.5327106714248657,0.5964484810829163
1772556539266239200,4.6262392578125,0.6727008161380886,1.8231214358448982,0.36254794851243494,0.6007700562477112,0.5941138863563538,0.6708140969276428
1772556539276188200,4.636188232421875,0.681689593757689,1.856646688827872,0.7178373041987419,0.5856891870498657,0.610544741153717,0.7384345531463623
1772556539286136000,4.646135986328125,0.6754446349535137,1.8291177536502479,1.137237605267763,0.5426495671272278,0.6007187962532043,0.7834523916244507
1772556539296085000,4.6560849609375,0.6122053578387946,1.6924223413109778,1.4949416208803652,0.48720216751098633,0.57438063621521,0.8100959658622742
1772556539306033200,4.666033203125,0.4761535771653056,1.6032356991216539,1.7443670480817555,0.42015600204467773,0.5343964695930481,0.8148193359375
1772556539315982000,4.675982177734375,0.3331530002672225,1.5451245786756276,1.8253139774531124,0.3583672046661377,0.5054385662078857,0.8070117831230164
1772556539325931000,4.685930908203125,0.2391114471263252,1.5044152594074607,1.817605302771926,0.31150755286216736,0.4964778423309326,0.7955250144004822
1772556539335879200,4.695879150390625,0.17698170215608552,1.4518033208996057,1.7824866431176662,0.26296916604042053,0.4918058514595032,0.7788563370704651
1772556539345828000,4.705828125,0.11771788627728819,1.443244166868925,1.7581062350988388,0.21997055411338806,0.47255975008010864,0.7696245312690735
1772556539355776000,4.71577587890625,0.13930601496277376,1.4541370245441794,1.7297043164789676,0.17809216678142548,0.4489830434322357,0.7760784029960632
1772556539365725000,4.725724853515625,0.18630882661826909,1.4663886033520102,1.68424955624938,0.13906380534172058,0.4487380385398865,0.7949172854423523
1772556539375673000,4.735673095703125,0.058604511719848956,1.5044243194967508,1.6724316926836966,0.08311977982521057,0.428487628698349,0.8093674182891846
1772556539385622000,4.7456220703125,-0.024265252639981916,1.4814303974002598,1.735205251982808,0.00366570265032351,0.39837923645973206,0.8203439116477966
1772556539395570000,4.75556982421875,-0.06044379204413853,1.4171429264068602,1.7633038037419317,-0.05529128760099411,0.37890034914016724,0.8350002765655518
1772556539405519000,4.76551904296875,-0.1300967264602892,1.3816282531723378,1.6905021869033574,-0.1039443090558052,0.3997233510017395,0.8424091935157776
1772556539415468000,4.775468017578125,-0.2828071252615191,1.3409186416432262,1.6316589527904986,-0.16717179119586945,0.39941921830177307,0.8380922079086304
1772556539425416000,4.785416015625,-0.38390721861179916,1.280787121285498,1.6868582774430512,-0.22245341539382935,0.3760901987552643,0.8352394104003906
1772556539435364900,4.79536474609375,-0.40624581860471515,1.1989885435208678,1.6869465402483939,-0.2715342342853546,0.3453572988510132,0.836890697479248
1772556539445313000,4.80531298828125,-0.43422841583397237,1.1072539704144,1.6800772390007972,-0.3042921721935272,0.32106953859329224,0.835636556148529
1772556539455262000,4.815261962890625,-0.4850844140525907,1.0116010548204184,1.664333141902089,-0.3317160904407501,0.29532715678215027,0.8370268940925598
1772556539465209900,4.8252099609375,-0.5222285151198506,0.9272747121438384,1.621749553194642,-0.3635893166065216,0.27036750316619873,0.8409917950630188
1772556539475159300,4.8351591796875,-0.4819364714156836,0.8221502038493752,1.5660487087607382,-0.38617074489593506,0.26209649443626404,0.8517124652862549
1772556539485108200,4.845108154296875,-0.47827699906006454,0.7085428216308355,1.5262486132919788,-0.39715149998664856,0.24915459752082825,0.866276204586029
1772556539495056100,4.85505615234375,-0.4437008122520521,0.6080676004469394,1.523476810491085,-0.4098816215991974,0.2199229598045349,0.8859422206878662
1772556539505005000,4.865005126953125,-0.4229039618084207,0.47440907158553597,1.5205921949654817,-0.42570534348487854,0.18263310194015503,0.8974081873893738
1772556539514953200,4.874953125,-0.4540467035690322,0.37280952254682775,1.5193687906503677,-0.4320828318595886,0.14573074877262115,0.9069250822067261
1772556539524902100,4.884902099609375,-0.5113867300447076,0.2426478958904743,1.4623942730188368,-0.44136449694633484,0.10586002469062805,0.9117296934127808
1772556539534850000,4.89485009765625,-0.5440038186741992,0.11830226203650235,1.3742360970944165,-0.4478262662887573,0.07639826834201813,0.9120472073554993
1772556539544799000,4.904799072265625,-0.6098546299941837,-0.02408230185508728,1.2585831805229186,-0.45586928725242615,0.05661710724234581,0.9108631610870361
1772556539554748200,4.914748046875,-0.6640925622686743,-0.12103840900212526,1.12146545111835,-0.4587870240211487,0.044021956622600555,0.9071593880653381
1772556539564696000,4.924696044921875,-0.6951786784712225,-0.25781346244886516,0.9955185195475816,-0.4556591510772705,0.058451492339372635,0.8941307067871094
1772556539574645000,4.93464501953125,-0.7196034370884299,-0.43160161099433897,0.900143251851201,-0.4536294937133789,0.07137076556682587,0.8822987675666809
1772556539584593200,4.94459326171875,-0.7321796447407454,-0.5429277504079043,0.8641869723290204,-0.4652408957481384,0.04772642254829407,0.8537219762802124
1772556539594542000,4.9545419921875,-0.7479757642876357,-0.6757897220641375,0.8505629361242055,-0.48267921805381775,0.02416890859603882,0.8196516036987305
1772556539604490000,4.964489990234375,-0.708073742814362,-0.8094916516758501,0.8585323075681924,-0.5030640959739685,-0.03420571982860565,0.7824075222015381
1772556539614439000,4.97443896484375,-0.6826480635263026,-0.8915522413775324,0.7996575092732906,-0.5265783071517944,-0.10926452279090881,0.7410109043121338
1772556539624387000,4.984386962890625,-0.6546387244205921,-0.9606877369239926,0.6351350555926562,-0.5442050099372864,-0.18465861678123474,0.7026656270027161
1772556539634336000,4.9943359375,-0.5872356056246906,-1.0208256870225072,0.47701837730109686,-0.5691763758659363,-0.2731967270374298,0.6645265221595764
1772556539644285000,5.004284912109375,-0.44868703969940543,-1.0741576103679835,0.28370763603150845,-0.5968255996704102,-0.36860740184783936,0.6352770328521729
1772556539654233000,5.014233154296875,-0.31450653279051183,-1.0834773735076189,0.05284019430577755,-0.6124266982078552,-0.4547537565231323,0.620165228843689
1772556539664182000,5.02418212890625,-0.20338519523404539,-1.0414888280838728,-0.26185996136069295,-0.6292163729667664,-0.5776565074920654,0.6099229454994202
1772556539674130000,5.0341298828125,-0.097585491091758,-1.0548473452202975,-0.5614315214782953,-0.628732442855835,-0.6787314414978027,0.6061140894889832
1772556539684079000,5.0440791015625,0.07496284999307244,-1.02371570937559,-0.9247551305383443,-0.600110650062561,-0.7615978121757507,0.6228352785110474
1772556539694027000,5.054027099609375,0.10688424797598271,-1.0197633184880017,-1.4661439809411763,-0.5355662703514099,-0.7729389071464539,0.6549562215805054
1772556539703976200,5.06397607421875,0.10143573677912354,-1.0867672088332474,-2.0535797122478483,-0.4417351484298706,-0.6914568543434143,0.6887972950935364
1772556539713925000,5.073925048828125,0.039110359638929365,-1.186175823698938,-2.572970081332326,-0.3203066885471344,-0.5517945289611816,0.7137560248374939
1772556539723873000,5.083873046875,0.028361440479010343,-1.313769207302481,-2.922041293156147,-0.20719610154628754,-0.387493759393692,0.7284100651741028
1772556539733822200,5.093822265625,0.054587111038342115,-1.3965119340494274,-3.024553573125601,-0.1253392994403839,-0.22784070670604706,0.7373225688934326
1772556539743770000,5.10377001953125,0.06521079638339579,-1.4106417278192938,-2.9064450800955295,-0.07551608234643936,-0.08413413912057877,0.74342280626297
1772556539753719000,5.113718994140625,0.17621194162629544,-1.4212415938973426,-2.65731600549221,-0.06587734818458557,0.03247024491429329,0.760938286781311
1772556539763667200,5.123667236328125,0.36523105011656876,-1.44553330071941,-2.324192304384708,-0.1075957641005516,0.10740600526332855,0.7906863689422607
1772556539773616000,5.1336162109375,0.5711465675458312,-1.5215123785503208,-2.006308842507005,-0.19052241742610931,0.12275993078947067,0.8102470636367798
1772556539783565000,5.14356494140625,0.6585912614386529,-1.5281899566181003,-1.7776275126487016,-0.3037927746772766,-0.005127995740622282,0.7954031229019165
1772556539793513000,5.153512939453125,0.557847160185501,-1.3806161535203456,-1.793977174425125,-0.39757636189460754,-0.27695444226264954,0.7305270433425903
1772556539803462100,5.163462158203125,0.2206601551618427,-1.1316460688710213,-2.0792519136428833,-0.44271934032440186,-0.5497894287109375,0.6094514727592468
1772556539813410000,5.17341015625,-0.18269808877520263,-0.8978957651853561,-2.9345448008984327,-0.4014989733695984,-0.7430595755577087,0.4717042148113251
1772556539823359000,5.18335888671875,-0.41392369628883896,-0.677007427290827,-4.041283807528019,-0.24993449449539185,-0.7888728976249695,0.329746276140213
1772556539833307100,5.19330712890625,-0.34215244541130957,-0.5035755448371172,-5.07568881483078,0.011276744306087494,-0.6636039018630981,0.22795246541500092
1772556539843256000,5.203256103515625,-0.1409955937512219,-0.12131664142161606,-5.707876711055636,0.3433114290237427,-0.35112854838371277,0.19559451937675476
1772556539853204000,5.213203857421875,0.3541298103876412,0.3809587806023657,-5.742267640957236,0.692554235458374,0.055358514189720154,0.26013749837875366
1772556539863153000,5.22315283203125,0.9262443461827933,0.8752678999222815,-5.025446820324659,0.9793809056282043,0.4187180697917938,0.4324643015861511
1772556539873101800,5.233101806640625,1.5302283305779099,1.375732034740597,-3.6201042218267916,1.1324372291564941,0.6552389860153198,0.6719056963920593
1772556539883050000,5.243050048828125,2.0269372045159337,1.6294347008697687,-1.9847160193800926,1.1471916437149048,0.7019676566123962,0.94936203956604
1772556539892999000,5.2529990234375,2.3242630315333606,1.7007915257275104,-0.42024844233095643,1.0440502166748047,0.5928089022636414,1.1862820386886597
1772556539902947000,5.262947021484375,2.338476558063924,1.5708998020537197,0.7925538147479295,0.8700736165046692,0.3758678138256073,1.3428343534469604
1772556539912896000,5.27289599609375,2.0620020881563423,1.314693920931965,1.4950269610762594,0.6774817109107971,0.13215553760528564,1.389042615890503
1772556539922844000,5.282843994140625,1.5434800263389945,1.0651043892100454,1.6547721173524856,0.5215672254562378,-0.08727587759494781,1.34526526927948
1772556539932792800,5.292792724609375,0.9821677473261952,0.8262953408300876,1.326696347284317,0.4280220866203308,-0.23337183892726898,1.2412829399108887
1772556539942741800,5.30274169921875,0.4650722111806273,0.6210645907945931,0.6401075833082198,0.41437631845474243,-0.2849178612232208,1.0909326076507568
1772556539952690000,5.31268994140625,0.140854577845335,0.562058713465929,-0.13776128800511359,0.4629865884780884,-0.263355553150177,0.9334133267402649
1772556539962638800,5.322638916015625,0.0363650064535439,0.6625666678756476,-0.7832692690521478,0.5475733876228333,-0.20320433378219604,0.7925581932067871
1772556539972586800,5.332586669921875,0.1463395851276815,0.8487200847364962,-1.197358019709587,0.6333566904067993,-0.13862960040569305,0.6934114098548889
1772556539982536000,5.342535888671875,0.46115138447508214,1.0677921669892967,-1.3394792564898728,0.7032196521759033,-0.09188473224639893,0.65409255027771
1772556539992483800,5.35248388671875,0.8367077215120196,1.3558977457188068,-1.2624147215098143,0.7328612804412842,-0.07313209027051926,0.6549443602561951
1772556540002432800,5.362432861328125,1.1421452510535717,1.6472854148589073,-1.0732920795798302,0.7374509572982788,-0.04124739393591881,0.6872008442878723
1772556540012382000,5.3723818359375,1.2870124255411326,1.8890354851268232,-0.8567734812021255,0.7258095741271973,0.012753264978528023,0.7315770983695984
1772556540022330000,5.382330078125,1.3486664792910217,2.036983674494922,-0.6841378636926412,0.7160320281982422,0.1160932406783104,0.7934657335281372
1772556540032279000,5.392279052734375,1.2784674461662768,2.1759429401129484,-0.5319096589177846,0.702281653881073,0.2541767954826355,0.8542627692222595
1772556540042227000,5.40222705078125,1.1572415517680346,2.194830303673446,-0.3065133420795202,0.6811186075210571,0.40487709641456604,0.9012052416801453
1772556540052176000,5.41217578125,1.0572210886143147,2.105800897872448,0.01690437304973602,0.6559973955154419,0.5501421689987183,0.9274753332138062
1772556540062124000,5.4221240234375,0.9401479299813509,1.9525217227399347,0.4404880972832441,0.6348258256912231,0.6560723185539246,0.924868643283844
1772556540072073000,5.432072998046875,0.8448322835177182,1.8172376385033129,0.8824474361628294,0.6203428506851196,0.7649703025817871,0.9150444865226746
1772556540082021000,5.442021240234375,0.7963064452797174,1.718515106205642,1.2243798821479082,0.6013750433921814,0.8322188258171082,0.9073346257209778
1772556540091970000,5.451969970703125,0.7840539166238158,1.6563120402708649,1.73091193870306,0.5523291826248169,0.832375168800354,0.8873849511146545
1772556540101919000,5.4619189453125,0.8314103457562625,1.5592857904970645,2.1864947292655703,0.48861753940582275,0.7835796475410461,0.8712466955184937
1772556540111867000,5.471866943359375,0.9062910338912159,1.4500827807173131,2.5697090337097643,0.4128723740577698,0.7089267373085022,0.8516533374786377
1772556540121815800,5.48181591796875,0.9565888502378016,1.3435308699682353,2.7848616044312715,0.33021771907806396,0.5963549017906189,0.8230903744697571
1772556540131764000,5.491763916015625,0.9685185036148876,1.2205214531540869,2.9266496637344357,0.2556021213531494,0.4932413101196289,0.7939279675483704
1772556540141713000,5.501712890625,0.9372941479854285,1.190407469919324,2.8848522569686175,0.1863759309053421,0.4109416604042053,0.751674234867096
1772556540151660800,5.511660888671875,0.8788040381591766,1.1481883306100964,2.880169067588448,0.10455972701311111,0.3398142158985138,0.6946223378181458
1772556540161610000,5.52160986328125,0.8205051400560885,1.0069318939656018,2.9165830277502534,0.0024514668621122837,0.24755537509918213,0.6364895105361938
1772556540171559000,5.531558837890625,0.7641456855829805,0.9374760804235934,2.896416438034177,-0.09941117465496063,0.1688760221004486,0.581946849822998
1772556540181506800,5.5415068359375,0.7129225710850209,0.9212912538200616,2.7234260157376524,-0.18971630930900574,0.10043516755104065,0.5396904945373535
1772556540191455700,5.551455810546875,0.6447038981225341,0.9263418152078986,2.4772493611991404,-0.26775461435317993,0.04037743806838989,0.4992161989212036
1772556540201404000,5.56140380859375,0.6068070059265941,0.894219999282062,2.1135352915167807,-0.31437990069389343,0.04374047741293907,0.46546489000320435
1772556540211352800,5.571352783203125,0.5931747864153236,0.8796072443008423,1.8075830904513597,-0.3524543046951294,0.05952315777540207,0.43909937143325806
1772556540221300700,5.58130078125,0.588280657698214,0.8992994945034384,1.6111147619336843,-0.3944810926914215,0.0760539248585701,0.4118800163269043
1772556540231250000,5.59125,0.5187263522177934,0.8840081096082926,1.453800047674775,-0.4417475163936615,0.08970822393894196,0.3895689845085144
1772556540241197800,5.60119775390625,0.5234486314993352,0.8770677889510988,1.3432827404260634,-0.5023716688156128,0.11423034965991974,0.3671398460865021
1772556540251147000,5.61114697265625,0.5376427957423031,0.82889266384691,1.2664672117710112,-0.5602444410324097,0.12990117073059082,0.3533138632774353
1772556540261096000,5.621095947265625,0.5752455272972583,0.7764715717360376,1.1452572455942631,-0.6034244298934937,0.131009042263031,0.3413347005844116
1772556540271044000,5.631044189453125,0.5862503939796239,0.7580562096014618,0.9668407065957784,-0.6108673810958862,0.12732988595962524,0.3421931266784668
1772556540280993000,5.640992919921875,0.634431145107001,0.7024022730492055,0.7082032144129276,-0.5810292959213257,0.14263828098773956,0.350734144449234
1772556540290941000,5.65094091796875,0.700215576659888,0.6544646099627017,0.4983662857562303,-0.5229251980781555,0.16508738696575165,0.3719147741794586
1772556540300889900,5.660889892578125,0.7564466555129736,0.6047763038165866,0.43140521163940426,-0.4620298445224762,0.17166858911514282,0.4040985405445099
1772556540310838000,5.670838134765625,0.8323827709849924,0.563826599921286,0.45772272520065305,-0.4209267199039459,0.1671644002199173,0.4463404417037964
1772556540320787000,5.680786865234375,0.8823420030269772,0.44569852540791033,0.6345657312721014,-0.40468889474868774,0.15591281652450562,0.49382245540618896
1772556540330735900,5.69073583984375,0.9010076866608112,0.29878523204550145,0.8493202425867319,-0.4204663336277008,0.12895922362804413,0.5347501635551453
1772556540340684000,5.70068408203125,0.8893812540140003,0.10078136452361941,1.0457605140537023,-0.45952239632606506,0.08615317940711975,0.5629498958587646
1772556540350633000,5.710633056640625,0.8723898602679371,-0.09947846523150801,1.1259984183728695,-0.5057442784309387,0.029363658279180527,0.5791881084442139
1772556540360580900,5.720580810546875,0.7885116266850382,-0.29888109363541004,1.0839420684099197,-0.5502534508705139,-0.02958275005221367,0.5839402675628662
1772556540370529800,5.73052978515625,0.7449657688166945,-0.45144598301872607,0.8970505465328693,-0.5793023109436035,-0.09706192463636398,0.581383466720581
1772556540380478000,5.74047802734375,0.7244912821952253,-0.5989432137489319,0.6392962669253349,-0.5802716612815857,-0.14865775406360626,0.5840932130813599
1772556540390427000,5.750427001953125,0.6522787172909825,-0.7248508362226188,0.2504939332157373,-0.5610247850418091,-0.20404669642448425,0.5836409330368042
1772556540400374800,5.760374755859375,0.5862132768396288,-0.7992915985703468,-0.09801496855020522,-0.534878671169281,-0.24350355565547943,0.5894479751586914
1772556540410324000,5.770323974609375,0.5355757071446627,-0.8657330327272414,-0.4091407728612423,-0.5132132172584534,-0.2523577809333801,0.5964480042457581
1772556540420273000,5.78027294921875,0.4737077914483845,-0.9548841652117669,-0.6269768835783004,-0.4911358952522278,-0.26414546370506287,0.6111276149749756
1772556540430220800,5.790220703125,0.4772337736174464,-1.0343230281077325,-0.9106564625591039,-0.45225757360458374,-0.23558837175369263,0.6310161352157593
1772556540440170000,5.800169921875,0.4644523257166147,-1.1340873245432972,-1.1786901441186666,-0.409645140171051,-0.17462781071662903,0.6415217518806458
1772556540450118000,5.810117919921875,0.4160767096042633,-1.2218874808102846,-1.3307032448381184,-0.36726027727127075,-0.14126986265182495,0.6447714567184448
1772556540460067000,5.820067138671875,0.3538870876729488,-1.3126977786786853,-1.3525123410642146,-0.3433525562286377,-0.14833655953407288,0.6271045804023743
1772556540470015000,5.830014892578125,0.33649843823760744,-1.3876203331939876,-1.3249901278883218,-0.3334912955760956,-0.19973556697368622,0.6090438961982727
1772556540479964000,5.8399638671875,0.363484060318768,-1.4521515498153865,-1.3747925619333983,-0.33642929792404175,-0.2695969343185425,0.5892238616943359
1772556540489913000,5.8499130859375,0.40824338563010093,-1.4967130144670604,-1.5182003313928842,-0.3460923135280609,-0.3138038218021393,0.5689221620559692
1772556540499861000,5.859861083984375,0.4632300904452801,-1.545368324303627,-1.778646918824315,-0.34851500391960144,-0.3409494161605835,0.5500634908676147
1772556540509810000,5.869809814453125,0.40787952075377104,-1.5546236439049244,-2.085688084170222,-0.3544299900531769,-0.37671780586242676,0.5202478766441345
1772556540519758000,5.879758056640625,0.3749097096964717,-1.5393419036209581,-2.416331074377894,-0.34978437423706055,-0.39212286472320557,0.4913043975830078
1772556540529707000,5.88970703125,0.2745528541952371,-1.4774249611511825,-2.8100498217016456,-0.33384227752685547,-0.37035924196243286,0.46533599495887756
1772556540539655000,5.899655029296875,0.2135224853016436,-1.4334675998724997,-3.2253871111154555,-0.29079362750053406,-0.3209943473339081,0.4454251229763031
1772556540549603800,5.909603759765625,0.25417554433792827,-1.3857001787863672,-3.5217157437890765,-0.23187652230262756,-0.2590271234512329,0.43898212909698486
1772556540559553000,5.919552978515625,0.335378494296968,-1.2958797687381505,-3.7995910204052925,-0.1424933820962906,-0.21355657279491425,0.4516792893409729
1772556540569501000,5.9295009765625,0.4074804384335875,-1.1512603584665804,-3.9047728118449445,-0.038357604295015335,-0.19411790370941162,0.4852873682975769
1772556540579449900,5.939449951171875,0.44890755058228965,-1.0330460669744759,-3.8996126526027917,0.06823461502790451,-0.2109493613243103,0.526360809803009
1772556540589398000,5.94939794921875,0.3866141760155558,-0.9222858908805995,-3.773395671918988,0.15952783823013306,-0.2580971419811249,0.5542917251586914
1772556540599347000,5.959346923828125,0.2420112054221332,-0.8433794543609022,-3.6276363708972927,0.2477402538061142,-0.3063355088233948,0.5466048121452332
1772556540609294800,5.969294921875,0.008810644573718308,-0.7886953126888722,-3.538757479482889,0.34713420271873474,-0.2987721264362335,0.50662761926651
1772556540619243800,5.979243896484375,-0.14449541856572032,-0.6609685850292444,-3.561747309926152,0.4707842469215393,-0.19911347329616547,0.453948438167572
1772556540629192000,5.98919189453125,-0.15915449690669775,-0.4600022875051945,-3.5164304968625304,0.6110408902168274,-0.02396266907453537,0.4036027491092682
1772556540639140900,5.999140869140625,0.034883243463188406,-0.1610167836472392,-3.216514068830013,0.7603123784065247,0.1851159781217575,0.3931591808795929
1772556540649090000,6.009090087890625,0.4225739626690745,0.11670549436435103,-2.5902169842094183,0.8900469541549683,0.3735249936580658,0.4284684658050537
1772556540659038000,6.019037841796875,0.926540552650392,0.38069779157862066,-1.7512638218581675,0.9922308325767517,0.543512761592865,0.5097138285636902
1772556540668987100,6.028987060546875,1.2982656409613786,0.6176356392592192,-0.8730617681801318,1.0630611181259155,0.6438832879066467,0.6164012551307678
1772556540678935000,6.03893505859375,1.5480784600451587,0.8897774867899715,0.04681786527633667,1.0788891315460205,0.6518371105194092,0.7369686961174011
1772556540688884000,6.048884033203125,1.651129084675014,1.015951066723466,0.8818430405288934,1.0445958375930786,0.5590248703956604,0.8441412448883057
1772556540698832100,6.05883203125,1.5726302791081368,1.0486996362455188,1.5412550437659025,0.9655934572219849,0.4046986699104309,0.9161304831504822
1772556540708781000,6.068781005859375,1.3274271457768976,1.036935694824159,1.95523507335186,0.8610265254974365,0.22734063863754272,0.9404288530349731
1772556540718730000,6.07872998046875,0.9500567450553178,0.9893651114843786,2.1055998223423957,0.740925133228302,0.05968214571475983,0.9184668064117432
1772556540728678000,6.088677978515625,0.5639774065688252,0.8656156899578868,2.0046528919935227,0.6242446303367615,-0.05393283814191818,0.8531703352928162
1772556540738627000,6.098626953125,0.17531155872046947,0.6894041136577725,1.6805296589434147,0.5160753130912781,-0.08140254020690918,0.7439284920692444
1772556540748575000,6.108574951171875,-0.14732903455644844,0.5425650545753539,1.2731763540208338,0.4372519850730896,-0.05361058562994003,0.612581729888916
1772556540758524000,6.11852392578125,-0.338666429926455,0.5211483186677098,0.7983850051194429,0.3903212547302246,0.020792540162801743,0.47286456823349
1772556540768472000,6.12847216796875,-0.38089638289064165,0.5964050735734403,0.40655250993371006,0.35933127999305725,0.13146471977233887,0.3480920195579529
1772556540778421000,6.1384208984375,-0.31827728350087997,0.7435052678100764,0.18574293636381625,0.32864847779273987,0.22114692628383636,0.2543546259403229
1772556540788369000,6.148368896484375,-0.15421762502640485,0.9329555342592298,0.09521510869860648,0.29141736030578613,0.2835860848426819,0.1870129108428955
1772556540798317800,6.15831787109375,0.1174452068157494,1.1041647722274064,0.08613748375177382,0.26444220542907715,0.330384761095047,0.158826544880867
1772556540808266800,6.168266845703125,0.3877015328608453,1.2502514055073262,0.0751759447544813,0.2445477694272995,0.38946908712387085,0.15673677623271942
1772556540818215000,6.17821484375,0.6409690224431455,1.3729212151035666,0.10900924077332019,0.24684181809425354,0.43104955554008484,0.18088951706886292
1772556540828163800,6.188163818359375,0.8660581730283796,1.4791855410829187,0.06143149704039096,0.26667746901512146,0.5263640880584717,0.22740881145000458
1772556540838111700,6.19811181640625,1.0045942447982728,1.57895144495368,0.18468378269970415,0.29436689615249634,0.5885156393051147,0.29867953062057495
1772556540848060700,6.208060791015625,1.070169709775597,1.6291550071455538,0.2811398313701153,0.33159139752388,0.6559790968894958,0.37725117802619934
1772556540858008600,6.218008544921875,1.086208405906707,1.6093249559074638,0.49796413469612594,0.36977580189704895,0.7067746520042419,0.4625604748725891
1772556540867957500,6.22795751953125,0.996343864455819,1.5558226444311438,0.8102583982646465,0.3790086507797241,0.7483484148979187,0.5252663493156433
1772556540877906700,6.23790673828125,0.7992345346208661,1.4335487022846936,1.1400590924292802,0.3725704550743103,0.72126305103302,0.5656023025512695
1772556540887854600,6.2478544921875,0.6259369460713118,1.27753834862262,1.4363181669980287,0.3417324721813202,0.6974636912345886,0.5720476508140564
1772556540897803500,6.257803466796875,0.49230347858592866,1.109669214862585,1.7021920401751993,0.3009943664073944,0.675993800163269,0.5576897859573364
1772556540907751700,6.267751708984375,0.23746990873068569,0.9627546063259244,1.8812924697846174,0.23709887266159058,0.644838273525238,0.5245436429977417
1772556540917700600,6.27770068359375,0.09825579156875609,0.8579400407634675,2.049242559826374,0.1531379222869873,0.5721398591995239,0.46614477038383484
1772556540927648500,6.2876484375,0.04124671408049762,0.7186842764168977,2.1370903546273707,0.0710144191980362,0.5388364791870117,0.4064415693283081
1772556540937597400,6.297597412109375,0.05826207322403788,0.5921979772724211,2.1383184351176023,-0.007018325850367546,0.5311998724937439,0.3582804203033447
1772556540947545600,6.307545654296875,0.06303666721470653,0.6176876617074012,2.065036925807595,-0.10225081443786621,0.5007359981536865,0.3126518726348877
1772556540957494500,6.31749462890625,0.07041866722479462,0.6645088879846036,2.0202146182626484,-0.2050570845603943,0.4384976327419281,0.2797676920890808
1772556540967443500,6.327443359375,0.22030944202803074,0.6742601744093001,1.8804834914892912,-0.2831820249557495,0.3887505829334259,0.27016228437423706
1772556540977391400,6.337391357421875,0.3307346140138805,0.6610827129282056,1.5413719481438397,-0.32907572388648987,0.41226232051849365,0.2803235650062561
1772556540987340500,6.347340576171875,0.2848902699448168,0.7084263556443154,1.141753036865592,-0.35796478390693665,0.439292848110199,0.2967012822628021
1772556540997288400,6.357288330078125,0.26272052371278404,0.8167711411595344,0.8678834887593984,-0.3647630512714386,0.43046873807907104,0.32892897725105286
1772556541007237600,6.367237548828125,0.35589820829965174,0.8116064518727362,0.6682610801249742,-0.35345643758773804,0.41583946347236633,0.3784651756286621
1772556541017185500,6.377185546875,0.4098647032216191,0.7685640134818852,0.45627544900178907,-0.32538726925849915,0.4094601273536682,0.4330067038536072
1772556541027134700,6.387134765625,0.410155795122683,0.7655595709688962,0.3415262032717466,-0.28075578808784485,0.3671123683452606,0.49043163657188416
1772556541037083600,6.397083740234375,0.3693376086525619,0.7387164260983466,0.21663842536509037,-0.22336731851100922,0.3518170416355133,0.5551973581314087
1772556541047031600,6.407031494140625,0.32143768376056103,0.6911816447243094,0.12395663453638553,-0.15778948366641998,0.3519984483718872,0.6245740056037903
1772556541056980700,6.416980712890625,0.21480269783791153,0.6335048240423202,0.12565583966970442,-0.10849064588546753,0.33905333280563354,0.6784545183181763
1772556541066928600,6.4269287109375,0.04558368383888155,0.5166645973823965,0.18951193350851533,-0.0718943327665329,0.33299359679222107,0.7224483489990234
1772556541076877600,6.436877685546875,-0.16776757308170198,0.38628216758221384,0.30868074924647804,-0.05010940879583359,0.3205385208129883,0.7464357018470764
1772556541086825700,6.44682568359375,-0.33335882503762837,0.2382632510654628,0.4168582153707742,-0.03846193104982376,0.29611706733703613,0.7498401999473572
1772556541096774700,6.456774658203125,-0.45627406076230104,0.06300166896656155,0.4597247126728296,-0.0228121317923069,0.3055656850337982,0.736846923828125
1772556541106722600,6.46672265625,-0.5583669828085228,-0.10808145840391516,0.5129401700317859,-0.01188760157674551,0.3244118094444275,0.7229681611061096
1772556541116671500,6.47667138671875,-0.6491175498463213,-0.2170646879531443,0.615772767996788,-0.014670605771243572,0.32981589436531067,0.6985858678817749
1772556541126620400,6.486620361328125,-0.6949351520389319,-0.3291125657700002,0.7502367680221795,-0.03868262842297554,0.3167980909347534,0.6772685050964355
1772556541136568600,6.496568603515625,-0.6436106229931116,-0.44604719271510834,0.835904880696535,-0.06870551407337189,0.29321980476379395,0.6488357782363892
1772556541146517500,6.506517578125,-0.6151499599233269,-0.5826208783708512,0.8414619303017854,-0.09446509182453156,0.2690470516681671,0.614555299282074
1772556541156465400,6.51646533203125,-0.6222739665843546,-0.6469188707582653,0.7914514064639806,-0.12558652460575104,0.23311278223991394,0.5726078748703003
1772556541166414600,6.52641455078125,-0.5897107270339503,-0.691834409544617,0.6818827782422304,-0.1506844162940979,0.18155477941036224,0.5370655655860901
1772556541176362500,6.536362548828125,-0.5047034894211218,-0.7690485821284353,0.5274421581149101,-0.1712924987077713,0.12526008486747742,0.49948495626449585
1772556541186311400,6.5463115234375,-0.4334484079048037,-0.7959151078745722,0.320251360052824,-0.18475843966007233,0.05975910648703575,0.4660051167011261
1772556541196260400,6.55626025390625,-0.41150943822134284,-0.7863048373557626,0.09916706119477749,-0.19581855833530426,-0.03009141981601715,0.42963990569114685
1772556541206208500,6.56620849609375,-0.38094014896713196,-0.7703956128232181,-0.12570435498654842,-0.21559187769889832,-0.06815837323665619,0.39608147740364075
1772556541216157700,6.57615771484375,-0.44057230496797706,-0.7941903299085795,-0.36604514297842977,-0.24162054061889648,-0.11653895676136017,0.35107672214508057
1772556541226105300,6.586105224609375,-0.43456707320380955,-0.8058033185519278,-0.7062830600053072,-0.2511054575443268,-0.08986128121614456,0.3116927444934845
1772556541236054800,6.5960546875,-0.4544719067111611,-0.8398295067943632,-1.0748299566715955,-0.23756486177444458,-0.014191286638379097,0.27985626459121704
1772556541246002700,6.606002685546875,-0.4451520339736715,-0.8848867921389639,-1.3046131102919578,-0.22477516531944275,0.06393066793680191,0.2423096001148224
1772556541255951600,6.61595166015625,-0.4430023085938766,-0.9710961720831691,-1.346135207247734,-0.21274566650390625,0.11693582683801651,0.19671015441417694
1772556541265899800,6.625899658203125,-0.5105286519106477,-1.072192740035802,-1.200771043023467,-0.22746090590953827,0.13903555274009705,0.14069119095802307
1772556541275848700,6.6358486328125,-0.49421395184975114,-1.1287037318088113,-0.9816542448461055,-0.26176774501800537,0.16248494386672974,0.08326517790555954
1772556541285797600,6.645797607421875,-0.3762795002123341,-1.1634678789369761,-0.8660685482919216,-0.3237626254558563,0.22765383124351501,0.0332082062959671
1772556541295745500,6.65574560546875,-0.20650106223225592,-1.1858142969101666,-0.784165925630927,-0.39795804023742676,0.30562853813171387,-0.00826440379023552
1772556541305694500,6.665694580078125,0.10751512975804507,-1.1571556270502508,-0.7697054386019706,-0.48125317692756653,0.39346519112586975,-0.022761687636375427
1772556541315642600,6.675642578125,0.43199630940034983,-1.1293173336625097,-0.7912327952772379,-0.5834450721740723,0.4847426414489746,-0.025943897664546967
1772556541325591600,6.685591552734375,0.6862083132911473,-1.0481460940159857,-0.7374334005504846,-0.7084870338439941,0.47898539900779724,-0.034367844462394714
1772556541335539500,6.69553955078125,0.8522739047605544,-0.8887900831878185,-0.7503536724001169,-0.8446994423866272,0.3248520493507385,-0.0495220310986042
1772556541345488600,6.705488525390625,0.7280988782331347,-0.586206774033606,-0.983781320002675,-0.9534720182418823,0.0858522281050682,-0.08712133765220642
1772556541355436500,6.7154365234375,0.5277447212580592,-0.22315189891234039,-1.6106997513920067,-0.9823670387268066,-0.11376900225877762,-0.12303487211465836
1772556541365385500,6.725385498046875,0.48889235496819017,0.03393354152292013,-2.6431395961016415,-0.8787805438041687,-0.19823674857616425,-0.1294102668762207
1772556541375334400,6.73533447265625,0.6179265850298107,0.19741708060987292,-3.760763569360971,-0.6381354331970215,-0.12212254852056503,-0.10109341144561768
1772556541385282600,6.745282470703125,0.8906824728056788,0.39865540000833566,-4.568134429490566,-0.28644901514053345,0.09233996272087097,-0.0018456571269780397
1772556541395231500,6.7552314453125,1.239788025290519,0.6611237755909561,-4.845055181860923,0.11740340292453766,0.36572834849357605,0.16270147264003754
1772556541405179400,6.765179443359375,1.6377178144380449,0.9694910749740898,-4.42183619928658,0.4899458885192871,0.59089195728302,0.3901316821575165
1772556541415128600,6.775128662109375,2.064659032405913,1.2526916382662951,-3.3482664718091484,0.7449824213981628,0.7112588882446289,0.6460127234458923
1772556541425076500,6.785076416015625,2.3229513644129036,1.392404206469655,-1.8823592222332954,0.8518272638320923,0.7049948573112488,0.8772485256195068
1772556541435025400,6.795025390625,2.435841538272798,1.2671284521587192,-0.5433809010028838,0.8465486168861389,0.653356671333313,1.0564836263656616
1772556541444974600,6.804974609375,2.321535798526555,1.0839219024047255,0.5055301860362291,0.7645625472068787,0.5627777576446533,1.1737406253814697
1772556541454922800,6.8149228515625,2.0009639743477106,0.9619098260648548,1.1784995899826287,0.6345300078392029,0.4457331597805023,1.229230284690857
1772556541464871700,6.82487158203125,1.5732317521326242,0.8538837511099875,1.5133838710218668,0.5007588863372803,0.3149120509624481,1.2280744314193726
1772556541474819600,6.834819580078125,1.1980698212407528,0.7151134321928024,1.5600450844317675,0.3933756947517395,0.16660860180854797,1.1895928382873535
1772556541484768500,6.8447685546875,0.9094945061076432,0.5806177218548954,1.3257798169612884,0.32992860674858093,0.015811877325177193,1.1028813123703003
1772556541494716700,6.854716552734375,0.6581343114513903,0.37475904917940495,0.9311790261059999,0.30584296584129333,-0.09611119329929352,0.9705458879470825
1772556541504665600,6.86466552734375,0.45806284387521445,0.2205252036705613,0.526884524232149,0.3200843632221222,-0.18010222911834717,0.8158154487609863
1772556541514613500,6.874613525390625,0.3943458297135308,0.24768998171091078,0.16547054818570614,0.3472856283187866,-0.22338685393333435,0.6617896556854248
1772556541524562700,6.884562744140625,0.42674262665584684,0.3781969146735966,-0.0944125601440668,0.35901859402656555,-0.2622300982475281,0.5450806617736816
1772556541534511600,6.89451171875,0.4951054573293775,0.5936527061253786,-0.2879471732974052,0.3489920496940613,-0.27854010462760925,0.4691259562969208
1772556541544459500,6.90445947265625,0.5349959344953298,0.8769817181028425,-0.39961306605935093,0.30094024538993835,-0.2649020850658417,0.42145541310310364
1772556541554408400,6.914408447265625,0.5381161123424768,1.1093119258575141,-0.5402192221015691,0.24001029133796692,-0.22475863993167877,0.3834417462348938
1772556541564356600,6.924356689453125,0.5626979977501556,1.3083517122983932,-0.7264461425900459,0.1922999918460846,-0.15228259563446045,0.35382768511772156
1772556541574305500,6.934305419921875,0.6169492644302547,1.4323741055473684,-0.9322259048104286,0.17901401221752167,-0.05726233869791031,0.33513444662094116
1772556541584253400,6.94425341796875,0.7703728895347565,1.5044411245010791,-1.1196493416070938,0.21355949342250824,0.10773088783025742,0.33984827995300293
1772556541594202600,6.95420263671875,0.888502279222384,1.6174346126049757,-1.1726233914256095,0.27722421288490295,0.2628474831581116,0.37894001603126526
1772556541604151600,6.964151611328125,1.0810209933314472,1.7267657788090407,-0.9682593412220477,0.35790887475013733,0.4065471589565277,0.4600611627101898
1772556541614099500,6.974099365234375,1.2293398426428437,1.7543091809034346,-0.5261749146580695,0.43204835057258606,0.5125257968902588,0.5570318698883057
1772556541624048400,6.98404833984375,1.246887920423597,1.7167032344780861,0.10360475138127803,0.46250876784324646,0.5757250189781189,0.6412647366523743
1772556541633996500,6.99399658203125,1.1279035944070666,1.5714686879828572,0.7348299400538205,0.4685125946998596,0.5958907008171082,0.7122741937637329
1772556541643945500,7.003945556640625,0.9653992756158113,1.3730186841286718,1.2893991745471953,0.4429173767566681,0.5699009299278259,0.7528049349784851
1772556541653893400,7.013893310546875,0.7065972405210137,1.162349396301061,1.689680349126458,0.40275636315345764,0.5152435302734375,0.7542824149131775
1772556541663842600,7.023842529296875,0.5445637541119009,0.9233595845267176,1.970684571418166,0.3582220673561096,0.4507202208042145,0.7176647186279297
1772556541673790500,7.03379052734375,0.3795579373611137,0.6922153716862202,2.0895868451744315,0.30316200852394104,0.3912760615348816,0.6676255464553833
1772556541683739600,7.04373974609375,0.18860486513357608,0.5012397953659296,2.1540695464789867,0.23125676810741425,0.32402458786964417,0.5876752138137817
1772556541693688600,7.0536884765625,0.05736098706531338,0.40283392780199645,2.1900959686279298,0.16088300943374634,0.22929249703884125,0.5031648278236389
1772556541703636700,7.06363671875,0.022192140726931393,0.354543213494122,2.1847253815054892,0.09433549642562866,0.14880427718162537,0.4098549783229828
1772556541713585700,7.073585693359375,0.004771141658257693,0.23206425029486416,2.1055045452743766,0.016730453819036484,0.05858410894870758,0.3102477192878723
1772556541723533600,7.083533447265625,-0.032813871576916426,0.13228534081205726,1.927131260895729,-0.04534761235117912,-0.003228390123695135,0.20733536779880524
1772556541733482500,7.093482421875,-0.029005519669363274,0.10761632511019706,1.6652274603933095,-0.09397666901350021,-0.021576769649982452,0.10620608925819397
1772556541743430700,7.1034306640625,-0.011532854345533996,0.17263678655326364,1.4042360985606908,-0.1435236930847168,-0.01497638039290905,0.023177174851298332
1772556541753379600,7.113379638671875,0.05357789746318012,0.21072101801484822,1.1350655219256878,-0.17273589968681335,0.01465608086436987,-0.02979017049074173
1772556541763327500,7.123327392578125,0.214792468704842,0.2714890827104449,0.9081588005244732,-0.19298261404037476,0.03933877497911453,-0.04910680651664734
1772556541773276700,7.133276611328125,0.352928179512918,0.3524043017692864,0.7484522226929664,-0.21101114153862,0.0542341023683548,-0.055757783353328705
1772556541783225600,7.1432255859375,0.41149807657711207,0.4115747220098972,0.5949918457746506,-0.20848114788532257,0.06960693001747131,-0.05481741949915886
1772556541793173500,7.153173583984375,0.44837355330344286,0.41852234919071196,0.4540174409419298,-0.19856299459934235,0.10328526794910431,-0.052677303552627563
1772556541803122400,7.163122314453125,0.5101305925037711,0.36792160437479615,0.3695429219663143,-0.18533864617347717,0.116013303399086,-0.05502291023731232
1772556541813070600,7.173070556640625,0.5557262590413913,0.29345132367163895,0.33885435371398925,-0.16605868935585022,0.1232866644859314,-0.05951007455587387
1772556541823019500,7.18301953125,0.5681762464981526,0.23085955068022013,0.3337234205663204,-0.14470864832401276,0.11512595415115356,-0.06625556945800781
1772556541832967400,7.192967529296875,0.5837630341432988,0.20632629018723964,0.35494741038084027,-0.12413094192743301,0.08376377075910568,-0.07223862409591675
1772556541842916900,7.202916748046875,0.5814781746091321,0.18651450525820254,0.35062194839715954,-0.09569217264652252,0.044269364327192307,-0.07010220736265182
1772556541852865000,7.212864990234375,0.5664926042601466,0.16064122833311556,0.3628063071876764,-0.06274833530187607,0.009015767835080624,-0.0660691186785698
1772556541862814000,7.22281396484375,0.5298190433140844,0.1137470829501748,0.318304317638278,-0.03366614505648613,-0.004475030582398176,-0.05936180055141449
1772556541872763000,7.232762939453125,0.5293616549354047,0.09863748436272143,0.321493469068408,-0.013507615774869919,-0.018192972987890244,-0.048920080065727234
1772556541882711000,7.2427109375,0.506680086723715,0.01838949704095721,0.34717969898879525,-0.006431341636925936,-0.040036991238594055,-0.0469350665807724
1772556541892660000,7.252659912109375,0.4624716732934117,-0.0842253665201366,0.4502554580599069,-0.011083617806434631,-0.058208804577589035,-0.05320201814174652
1772556541902608000,7.26260791015625,0.4209964476866647,-0.18905103799849748,0.5219155036479234,-0.016475209966301918,-0.08073754608631134,-0.06261326372623444
1772556541912556800,7.272556884765625,0.3242945710290223,-0.27621099666580556,0.5561053580194711,-0.034204669296741486,-0.08196819573640823,-0.07912220060825348
1772556541922505000,7.2825048828125,0.27306679862225425,-0.30468817247897384,0.5346498975366354,-0.04892222210764885,-0.09892375022172928,-0.10224196314811707
1772556541932454000,7.292453857421875,0.21460827124435453,-0.38600495807602997,0.5329325722247362,-0.0729716345667839,-0.10126413404941559,-0.1311604380607605
1772556541942403000,7.302403076171875,0.2013014112299308,-0.47318917440176006,0.5223199927955866,-0.08556091040372849,-0.11625746637582779,-0.16238102316856384
1772556541952351000,7.31235107421875,0.19528858068119734,-0.5233104651376604,0.4831003275632858,-0.08870556950569153,-0.11484172940254211,-0.19237062335014343
1772556541962300200,7.322300048828125,0.2288955936634913,-0.5593352798514067,0.45521571081578727,-0.0956515520811081,-0.10864349454641342,-0.22516614198684692
1772556541972248000,7.332248046875,0.268493353226874,-0.5852982808865607,0.43839901604950426,-0.1080688089132309,-0.10074562579393387,-0.2526174783706665
1772556541982197000,7.342197021484375,0.31814956546798345,-0.6182010180570184,0.4360790486693382,-0.12907476723194122,-0.09231831878423691,-0.2770242989063263
1772556541992145200,7.352145263671875,0.410566129489243,-0.6428286788351834,0.4793219780683517,-0.16163669526576996,-0.1085691973567009,-0.29660090804100037
1772556542002094000,7.362093994140625,0.5217407316029071,-0.670623571472615,0.5137912339031696,-0.1930956244468689,-0.14708860218524933,-0.3098788261413574
1772556542012042000,7.3720419921875,0.5871407669480889,-0.7000339364826679,0.45878772408366203,-0.22226949036121368,-0.1868557184934616,-0.32654649019241333
1772556542021991000,7.381990966796875,0.6458676081396639,-0.7065152613259852,0.32023674700558186,-0.252485066652298,-0.2241559773683548,-0.3441033661365509
1772556542031940000,7.391940185546875,0.6745876527979969,-0.720512514757365,0.1264899524062872,-0.2756284475326538,-0.2613203823566437,-0.35417065024375916
1772556542041888000,7.401887939453125,0.7769418926615268,-0.7375294082708657,-0.1432207224547863,-0.28026148676872253,-0.304812490940094,-0.346879243850708
1772556542051837000,7.4118369140625,0.8311094631135463,-0.674629592243582,-0.4253133245050907,-0.29926982522010803,-0.304855078458786,-0.3635317087173462
1772556542061785000,7.42178515625,0.7372291832152754,-0.6812839355662464,-0.6739367876738309,-0.3188842535018921,-0.34809309244155884,-0.3893299102783203
1772556542071734000,7.431734130859375,0.6000116466980427,-0.6537390721671282,-1.0810621290594338,-0.3140152096748352,-0.31446853280067444,-0.4205285608768463
1772556542081682000,7.441681884765625,0.5101978855863213,-0.6094356739297508,-1.5068290425509214,-0.299193412065506,-0.22075726091861725,-0.4486088454723358
1772556542091630800,7.451630859375,0.4376557234015315,-0.5305658430933952,-1.7850170383781194,-0.276516854763031,-0.15680862963199615,-0.4683697819709778
1772556542101579000,7.4615791015625,0.44500919143687934,-0.42367622482255096,-1.9725638092935085,-0.23564748466014862,-0.08165661990642548,-0.47436419129371643
1772556542111528000,7.47152783203125,0.5297246430289,-0.28314386466890573,-1.939147277382016,-0.19011569023132324,-0.07520777732133865,-0.47068557143211365
1772556542121476900,7.481476806640625,0.558485933013074,-0.12981369000151752,-1.7466794166773556,-0.16284053027629852,-0.11192824691534042,-0.4649578630924225
1772556542131425000,7.491425048828125,0.5148388067273423,0.0016474749460816383,-1.5499772794038056,-0.1460604965686798,-0.12958607077598572,-0.45829275250434875
1772556542141374000,7.5013740234375,0.4200753142537549,0.08212123384773731,-1.4018892431735992,-0.12350448220968246,-0.1328263282775879,-0.44583675265312195
1772556542151321900,7.51132177734375,0.36753081495892254,0.09830255331993103,-1.3387918587476015,-0.11584949493408203,-0.06793148815631866,-0.43914633989334106
1772556542161271000,7.52127099609375,0.33165366508755834,0.07771569236516952,-1.3165782733738423,-0.10009980946779251,0.011789441108703613,-0.4394119679927826
1772556542171219000,7.531218994140625,0.3838786135718226,0.1029287518158555,-1.17693073323071,-0.09414204955101013,0.07785048335790634,-0.42667779326438904
1772556542181168000,7.541168212890625,0.521027066908218,0.13040654132813215,-0.9475772031992673,-0.0726110190153122,0.11667272448539734,-0.3950480818748474
1772556542191116000,7.551115966796875,0.6525626487988978,0.15210750100463627,-0.7247410922378301,-0.047705136239528656,0.10663872957229614,-0.3474648594856262
1772556542201065000,7.56106494140625,0.6801986245475709,0.20103490578085184,-0.5441501318097114,-0.010824990458786488,0.07177393138408661,-0.2972937524318695
1772556542211014100,7.57101416015625,0.6213163005333393,0.2344752569593489,-0.4297901776582002,0.02126716636121273,0.049553047865629196,-0.2593378722667694
1772556542220962000,7.580962158203125,0.4055784407371655,0.2402998714596033,-0.36080081258416175,0.052423182874917984,0.00466788187623024,-0.23940815031528473
1772556542230911000,7.590910888671875,0.1937667048761621,0.26208237193971873,-0.30209435659348965,0.07626006752252579,-0.01898498460650444,-0.2290705442428589
1772556542240859100,7.600859130859375,0.09858712414866312,0.22920593825429678,-0.27145021200478076,0.1018802598118782,-0.017349805682897568,-0.21697919070720673
1772556542250808000,7.61080810546875,-0.05553356157559901,0.21039500093087551,-0.24861469534039496,0.1174328550696373,-0.014493831433355808,-0.21519194543361664
1772556542260756000,7.620755859375,-0.20808354565072804,0.26967764937430616,-0.20276772092282772,0.12431797385215759,-0.019600965082645416,-0.22430944442749023
1772556542270705000,7.630704833984375,-0.3882618701573461,0.33671164259687064,-0.13492927944958208,0.11601344496011734,-0.028331339359283447,-0.24155208468437195
1772556542280653000,7.640653076171875,-0.535203257103078,0.41255043517425655,-0.11650514948666095,0.10810963809490204,-0.025523312389850616,-0.2580048143863678
1772556542290602000,7.65060205078125,-0.7184485679648817,0.4870853055462241,-0.16633622510433196,0.09688042104244232,-0.03421453759074211,-0.28566229343414307
1772556542300551000,7.660551025390625,-0.9315572848338634,0.5755746131211519,-0.26106208898127076,0.07484252750873566,-0.05748709291219711,-0.32367900013923645
1772556542310499000,7.6704990234375,-1.0962858555458486,0.6679762718342245,-0.4064344365119934,0.051126010715961456,-0.06976985931396484,-0.3610873520374298
1772556542320448000,7.680447998046875,-1.192630479731038,0.7798796266138553,-0.6052303311944007,0.024113932624459267,-0.06894533336162567,-0.39991870522499084
1772556542330396000,7.69039599609375,-1.2225662568546831,0.9141161014936864,-0.8768488855034112,0.02227075770497322,-0.021900327876210213,-0.4181182384490967
