time,seconds_elapsed,accel_x,accel_y,accel_z,gyro_x,gyro_y,gyro_z
1772376348803662000,0.071662109375,-0.4168659602858126,-0.45505964347124095,-0.1633329516351223,0.06723060458898544,-0.10415752232074738,0.03587927296757698
1772376348813612000,0.081612060546875,-0.3273946559362113,-0.5197387441307306,-0.18626432988941669,0.06637971848249435,-0.07635997980833054,0.03857599198818207
1772376348823562000,0.09156201171875,-0.22392624428570268,-0.5555681824028492,-0.22041619033813475,0.06492665410041809,-0.05319491773843765,0.045495953410863876
1772376348833511200,0.10151123046875,-0.08789207233414054,-0.5838800846517086,-0.3093810064703226,0.056998420506715775,-0.03447476029396057,0.05399623140692711
1772376348843461000,0.111461181640625,0.01679521358683705,-0.5873153197973966,-0.42398324494510886,0.041739337146282196,-0.017571058124303818,0.058035045862197876
1772376348853411000,0.1214111328125,0.10291165455058217,-0.5755506477236747,-0.5449877516776322,0.02580377645790577,-0.0015854323282837868,0.07185100018978119
1772376348863360800,0.13136083984375,0.18856208543777464,-0.5054945302009582,-0.5744669441401958,0.005284607410430908,0.01881522312760353,0.09010501950979233
1772376348873311000,0.14131103515625,0.27050518623963,-0.46773909230232236,-0.4609858186498284,-0.010102604515850544,0.03661445900797844,0.10150467604398727
1772376348883261000,0.151260986328125,0.31112726561576126,-0.4566483739674091,-0.3804360719025135,-0.024985704571008682,0.04305122792720795,0.11160299181938171
1772376348893211000,0.1612109375,0.33080461051017046,-0.4599830713480711,-0.37455110551714893,-0.026487194001674652,0.039496444165706635,0.1137646809220314
1772376348903161000,0.1711611328125,0.3072087769977748,-0.49427054087519645,-0.3673211542636156,-0.053176019340753555,0.024480435997247696,0.09777327626943588
1772376348913111000,0.181111083984375,0.3413927861504257,-0.43752690939009187,-0.3222659147456288,-0.06981837749481201,0.017020653933286667,0.089854896068573
1772376348923060000,0.19106005859375,0.38206995671465993,-0.4614589891195297,-0.37287703482508655,-0.07154669612646103,0.0030998270958662033,0.085917629301548
1772376348933010200,0.20101025390625,0.397682682518661,-0.5002162975370884,-0.4385127055570483,-0.06848806142807007,-0.008570943959057331,0.08016626536846161
1772376348942960000,0.210960205078125,0.4097214953586459,-0.5072954421430826,-0.4907742231920361,-0.07817886769771576,-0.025639373809099197,0.07762801647186279
1772376348952909800,0.220909912109375,0.39427871929407116,-0.470585713905096,-0.49620092441588637,-0.0911593809723854,-0.04761897400021553,0.0767502412199974
1772376348962860000,0.230860107421875,0.3986503585070371,-0.4674181897848844,-0.5104711495697498,-0.09623398631811142,-0.0784669816493988,0.07932338118553162
1772376348972810000,0.24081005859375,0.39550256200060246,-0.4455085557937622,-0.539910010021925,-0.09832189977169037,-0.11051706224679947,0.07631320506334305
1772376348982760000,0.250760009765625,0.42068668761774897,-0.39269174236357207,-0.510373826675117,-0.09062306582927704,-0.14210379123687744,0.08213339000940323
1772376348992710100,0.260710205078125,0.4685935171745717,-0.4025613944709301,-0.4653250168979168,-0.0843324139714241,-0.18502302467823029,0.08451292663812637
1772376349002660000,0.27066015625,0.5091704422347247,-0.43318800340294833,-0.4333522540539503,-0.06897403299808502,-0.2351299226284027,0.07663854211568832
1772376349012609000,0.280609130859375,0.5280518144458533,-0.4728355386584997,-0.4395470170408487,-0.062369659543037415,-0.2973594665527344,0.0712786614894867
1772376349022559000,0.29055908203125,0.4990041452683508,-0.5361591330558061,-0.5205351552054286,-0.05433124676346779,-0.3435458838939667,0.06346163153648376
1772376349032509200,0.30050927734375,0.49655251433253283,-0.5586123724043369,-0.6194330440700054,-0.06358200311660767,-0.3711538016796112,0.0567438080906868
1772376349042459100,0.310459228515625,0.5760515829831362,-0.5925526359289884,-0.6898176628947258,-0.07776849716901779,-0.3876471221446991,0.05518427863717079
1772376349052408800,0.320408935546875,0.6973338837437332,-0.5579442638844251,-0.7714443912237882,-0.09574483335018158,-0.3950709402561188,0.06100408360362053
1772376349062359000,0.330359130859375,0.8072241451352834,-0.5314163224428892,-0.9530763851374388,-0.11086098104715347,-0.388377845287323,0.07427559792995453
1772376349072309000,0.34030908203125,0.9112911072008312,-0.4890998602390289,-1.0930208624005318,-0.13179528713226318,-0.37702053785324097,0.09035230427980423
1772376349082259000,0.350259033203125,0.9625523617520928,-0.47309448185563086,-1.1023849030733108,-0.15386559069156647,-0.3704287111759186,0.10098491609096527
1772376349092209200,0.360209228515625,0.9272716434039175,-0.5117132585853338,-1.0937558986768126,-0.16255494952201843,-0.37638619542121887,0.10535995662212372
1772376349102158000,0.370157958984375,0.834139770720154,-0.5807201593160629,-1.200955751940608,-0.17449887096881866,-0.37577006220817566,0.0996832326054573
1772376349112108000,0.38010791015625,0.7413267547272145,-0.7703922518223524,-1.1305337237149475,-0.22079339623451233,-0.375747948884964,0.10283827781677246
1772376349122058000,0.39005810546875,0.635900925398618,-0.9284884718477725,-1.0508382557094096,-0.27229583263397217,-0.3944517970085144,0.10467410087585449
1772376349132008200,0.40000830078125,0.3858241946816444,-0.8737894979327917,-1.2882739699095487,-0.31296977400779724,-0.41584286093711853,0.10385038703680038
1772376349141958000,0.4099580078125,0.1798382423646748,-0.6418798536777496,-1.556826706907153,-0.3134612441062927,-0.432585209608078,0.11520767956972122
1772376349151907800,0.419907958984375,-0.09453662491515279,-0.13176409341692924,-1.8365601786106824,-0.28934499621391296,-0.454108864068985,0.11417756229639053
1772376349161858000,0.429858154296875,-0.23751681661233304,0.699988928297162,-1.8387240786463022,-0.2305443286895752,-0.4373210668563843,0.11884690076112747
1772376349171808000,0.43980810546875,0.040437516589462756,1.6929881585001945,-1.6560893374308943,-0.1418972909450531,-0.3451128602027893,0.15724729001522064
1772376349181758000,0.449758056640625,0.5011860193520784,2.606095521342754,-1.0832511635363102,-0.05727844685316086,-0.19591385126113892,0.22195054590702057
1772376349191707000,0.459706787109375,0.8067126884818077,3.090935970571637,-0.22809476214200258,-0.020907921716570854,-0.030440472066402435,0.26615050435066223
1772376349201657000,0.469656982421875,0.567335923216492,2.832446362426877,0.2230026996999979,-0.06493525207042694,0.11114510893821716,0.2842097282409668
1772376349211607000,0.47960693359375,0.03597001578658819,1.6456068141222,0.31024872921556235,-0.20721863210201263,0.20552220940589905,0.27563169598579407
1772376349221557000,0.489556884765625,-0.42455987578928467,-0.16440554930269718,0.480554150211811,-0.36228471994400024,0.21367405354976654,0.2120862454175949
1772376349231507000,0.4995068359375,-1.0177291823118924,-1.7078268311917781,0.43849341633468863,-0.4157988131046295,0.10482986271381378,0.07018023729324341
1772376349241457000,0.509456787109375,-1.54417852999717,-2.351528639599681,-0.15126286687403917,-0.34371137619018555,-0.061257198452949524,-0.07731811702251434
1772376349251406800,0.51940673828125,-1.581337609437853,-1.9699059882611034,-0.8943202447861432,-0.2591160833835602,-0.19011743366718292,-0.17431658506393433
1772376349261357000,0.529357177734375,-1.3300976801604032,-0.9419581942737102,-0.9243623318284749,-0.31105655431747437,-0.20089995861053467,-0.23338600993156433
1772376349271307000,0.53930712890625,-0.8241225268356501,0.017170915031433105,-0.2478979253731668,-0.4510243237018585,-0.11406546086072922,-0.21702568233013153
1772376349281256000,0.549255859375,-0.3202705031447112,0.824584445258975,0.33254692413285375,-0.5661582946777344,-0.02949179708957672,-0.16177718341350555
1772376349291206000,0.559205810546875,-0.1884375822752714,1.3710451920986175,0.9684428810954093,-0.6451410055160522,-0.02684008702635765,-0.12433765083551407
1772376349301156000,0.569156005859375,-0.4317793056488037,1.5501228253543375,1.5184662888526916,-0.6789109706878662,-0.08170117437839508,-0.12555630505084991
1772376349311106000,0.57910595703125,-0.7804949820332229,1.267456222808361,1.4827905798375605,-0.6615279912948608,-0.15906468033790588,-0.1521298587322235
1772376349321056000,0.589055908203125,-1.0834338266268373,0.6689034696817397,1.075481698578596,-0.6287558674812317,-0.21170906722545624,-0.19796739518642426
1772376349331006000,0.599005859375,-1.1620967367142438,0.1267424658626318,0.5831554236389697,-0.6047855615615845,-0.2391905039548874,-0.22797030210494995
1772376349340956000,0.608955810546875,-0.7714328469164669,-0.2639320914596319,0.3951110784649849,-0.6050713062286377,-0.28140175342559814,-0.24890485405921936
1772376349350905900,0.61890576171875,-0.3311142609812319,-0.4780173252105713,0.34063948356509205,-0.6009548306465149,-0.24698759615421295,-0.25306737422943115
1772376349360856000,0.62885595703125,-0.18481559238582848,-0.3804571146905422,0.1259418170042336,-0.6296807527542114,-0.15405809879302979,-0.203333780169487
1772376349370805000,0.638804931640625,-0.10383110748305917,-0.18497253651320933,0.32163901501893993,-0.7007580995559692,-0.11579007655382156,-0.13399066030979156
1772376349380755000,0.6487548828125,0.0408124873816967,-0.17947452361881733,0.6642343088269234,-0.7561014294624329,-0.09369596838951111,-0.09327265620231628
1772376349390705200,0.658705078125,0.11741335037276147,-0.15963526616096496,0.7001502563387155,-0.7806177139282227,-0.1278906911611557,-0.06744532287120819
1772376349400655000,0.668655029296875,0.20762451330423354,-0.06967968542575836,0.6099867319412529,-0.7764942049980164,-0.18038709461688995,-0.059090301394462585
1772376349410605000,0.67860498046875,0.09084113139808177,0.205700851765275,0.4089047721482813,-0.7702528238296509,-0.15776434540748596,-0.06481050699949265
1772376349420555000,0.688554931640625,-0.023730273547023534,0.5570429311305284,0.3306536577321589,-0.7457008361816406,-0.07252778857946396,-0.041676245629787445
1772376349430505000,0.6985048828125,0.142177789273113,0.62509413857162,0.2402918342836201,-0.727890133857727,-0.005413728300482035,-0.010270120576024055
1772376349440455000,0.708454833984375,0.03493015134483576,0.5306903462558984,0.3723445353835821,-0.7190484404563904,0.09676018357276917,0.001457860111258924
1772376349450403800,0.71840380859375,-0.23490093502551315,0.273853766015172,0.4436493377931416,-0.7087436318397522,0.21274377405643463,0.03477773442864418
1772376349460354000,0.72835400390625,-0.43000002101659773,-0.1623433560758829,0.5954892739027738,-0.7097347974777222,0.286095529794693,0.02807433158159256
1772376349470304000,0.738303955078125,-0.7038523257270455,-0.6661211454868317,0.9102794459402561,-0.7188699841499329,0.27511876821517944,-0.013224372640252113
1772376349480254000,0.74825390625,-0.8016216489531099,-0.9621680386096239,1.1385521949976682,-0.6965506076812744,0.2331973761320114,-0.06415603309869766
1772376349490204200,0.7582041015625,-0.5516116998620331,-0.969756301781535,1.0684329491108655,-0.6528611779212952,0.20363177359104156,-0.10218197852373123
1772376349500154000,0.768154052734375,-0.27264702057391405,-0.8614934954613447,1.0768320902742445,-0.6220523715019226,0.14774781465530396,-0.13331474363803864
1772376349510104000,0.77810400390625,-0.10046060813665389,-0.6378460681170225,1.1084054785370827,-0.6086471080780029,0.09984847158193588,-0.12106046825647354
1772376349520054000,0.788053955078125,0.03637304362952709,-0.502484826990962,0.8372522767174988,-0.5871232748031616,0.09884902834892273,-0.1021447703242302
1772376349530004000,0.79800390625,-0.026581717455387115,-0.4536860170304775,0.594036152485013,-0.5618644952774048,0.15228934586048126,-0.07731585204601288
1772376349539953000,0.807952880859375,-0.09851926481053233,-0.28747604865431786,0.4009820163249969,-0.5241202712059021,0.21129865944385529,-0.060782209038734436
1772376349549902800,0.81790283203125,-0.25205709087923167,-0.15651625735759733,0.35258659953363236,-0.48640698194503784,0.2509850859642029,-0.05882318690419197
1772376349559853000,0.82785302734375,-0.2578412272386253,-0.13308686645329,0.4013579004326835,-0.44893521070480347,0.24493424594402313,-0.05563414841890335
1772376349569803000,0.837802978515625,-0.05271320692524314,-0.22425766819715498,0.4168038548350334,-0.41511809825897217,0.22255729138851166,-0.05091795697808266
1772376349579752700,0.847752685546875,0.17743585739806295,-0.13761983370780945,0.2852823380023241,-0.39141392707824707,0.24330532550811768,-0.03449085354804993
1772376349589703000,0.857702880859375,0.3200197432540357,0.001056231054663658,0.13701594953052698,-0.38613075017929077,0.25077176094055176,-0.026751438155770302
1772376349599652900,0.86765283203125,0.3601208674959838,0.03353752794265747,0.08576280522048473,-0.3766544759273529,0.2593002915382385,-0.028302950784564018
1772376349609602800,0.877602783203125,0.46080037908032534,-0.03135024703145027,-0.0007446443548426031,-0.3576520085334778,0.27312901616096497,-0.029773015528917313
1772376349619552800,0.887552734375,0.5105176190599798,-0.13284253630340098,-0.0996147684296593,-0.3362416923046112,0.25120168924331665,-0.02997596189379692
1772376349629501700,0.897501708984375,0.5082568345211446,-0.20132336733341216,-0.13899521371424198,-0.3337758779525757,0.21964721381664276,-0.04416847974061966
1772376349639451600,0.90745166015625,0.5613306914523244,-0.26953414925038816,-0.10596859443578868,-0.3459288775920868,0.18679557740688324,-0.04956676438450813
1772376349649401600,0.917401611328125,0.6347312970973551,-0.31995617649853225,-0.11135023267520591,-0.3522552251815796,0.1566171646118164,-0.059928592294454575
1772376349659351800,0.927351806640625,0.6704599053435027,-0.3938607861429453,-0.1363613215466961,-0.3465114235877991,0.13806375861167908,-0.06955292075872421
1772376349669301800,0.9373017578125,0.6729997990846633,-0.39311142908036706,-0.1464595399792306,-0.34208500385284424,0.12662149965763092,-0.08137762546539307
1772376349679251700,0.947251708984375,0.6507273231305182,-0.3407172249764204,-0.13369654105054213,-0.3485303223133087,0.11101794242858887,-0.10813361406326294
1772376349689202000,0.957201904296875,0.5821509227715432,-0.24814766235053537,-0.11763737752013839,-0.3601134717464447,0.10034079849720001,-0.1343817263841629
1772376349699152000,0.96715185546875,0.5174855583764613,-0.16172551643848418,-0.12809038247340357,-0.36918842792510986,0.10714221000671387,-0.15727418661117554
1772376349709101600,0.9771015625,0.4165750145152211,-0.13963292709589004,-0.19465455709397791,-0.375907301902771,0.12043058127164841,-0.1787581741809845
1772376349719050800,0.98705078125,0.3619502748802304,-0.11360182926058769,-0.2907797663748264,-0.3906348645687103,0.13736030459403992,-0.20043151080608368
1772376349729000700,0.997000732421875,0.34588352169841524,-0.09844400761723518,-0.39666590669155116,-0.4026683568954468,0.1624145209789276,-0.2252255380153656
1772376349738950700,1.00695068359375,0.4485182590037584,-0.14082944340407846,-0.5043582196474075,-0.4025336503982544,0.1968681812286377,-0.24999549984931946
1772376349748900600,1.016900634765625,0.6266056391131133,-0.2169149042189121,-0.614694909632206,-0.3950935900211334,0.2229493260383606,-0.26573503017425537
1772376349758850800,1.026850830078125,0.760637166005373,-0.27829204072356223,-0.7431295663654803,-0.38925740122795105,0.24617215991020203,-0.27842485904693604
1772376349768800800,1.03680078125,0.9297915172703564,-0.31006431255936623,-0.8003659498035908,-0.3866882622241974,0.2760815918445587,-0.28318658471107483
1772376349778750700,1.046750732421875,1.0829591217871755,-0.28893969146609305,-0.8459598262429237,-0.38323312997817993,0.280663400888443,-0.279632568359375
1772376349788701000,1.056700927734375,1.2896717078782618,-0.2846370258361101,-0.8613315828979015,-0.37817978858947754,0.27714136242866516,-0.28201425075531006
1772376349798650600,1.066650634765625,1.5009031596332787,-0.20857786850631235,-0.8202619058847427,-0.37108173966407776,0.33178797364234924,-0.2722759544849396
1772376349808599800,1.076599853515625,1.4825895043075084,-0.0783960758447647,-0.7020727488338947,-0.3512055277824402,0.39017751812934875,-0.23794060945510864
1772376349818549800,1.0865498046875,1.3579235524579882,-0.006474164450168609,-0.4411550732919946,-0.3189949691295624,0.3648405075073242,-0.21966832876205444
1772376349828499700,1.096499755859375,1.2476160885676741,0.0013075754672288893,-0.22454181890077887,-0.2780826985836029,0.30495187640190125,-0.22655126452445984
1772376349838449700,1.10644970703125,1.1306157759752125,0.014475684598088264,-0.16407880156636237,-0.24564199149608612,0.2375943511724472,-0.23784834146499634
1772376349848399600,1.116399658203125,1.0783660218432545,0.048263972431421276,-0.22396190012097358,-0.22183546423912048,0.1714901626110077,-0.23164744675159454
1772376349858349800,1.126349853515625,1.0465577288459986,0.015987842726707457,-0.37845107209775597,-0.19277383387088776,0.14574436843395233,-0.22046129405498505
1772376349868299800,1.1362998046875,0.8853296405356377,-0.037971710997819895,-0.6595522884905338,-0.14493653178215027,0.15569207072257996,-0.20102527737617493
1772376349878249700,1.146249755859375,0.6853231279544532,-0.07072188795506953,-0.9064391371250152,-0.09617777168750763,0.19418101012706757,-0.18782483041286469
1772376349888199000,1.156198974609375,0.5086692877795547,-0.08221417282819747,-1.1632697990816085,-0.05111974477767944,0.28026264905929565,-0.18158237636089325
1772376349898148900,1.16614892578125,0.3692255996454507,-0.01601297716796398,-1.3845264588318764,-0.015924183651804924,0.4514470100402832,-0.1707621067762375
1772376349908098800,1.176098876953125,0.24386055961586534,0.09027648325264453,-1.5836054082393645,0.008579827845096588,0.6741434335708618,-0.1596498042345047
1772376349918048800,1.186048828125,0.09614164895899593,0.22477847720086575,-1.658532931190729,0.0415201298892498,0.8990659713745117,-0.15866276621818542
1772376349927998700,1.195998779296875,0.09436704050190746,0.3157768449872732,-1.559715998607874,0.09366855025291443,1.066096544265747,-0.16639818251132965
1772376349937948700,1.20594873046875,0.5301999323904514,0.3893891936868429,-1.1838134784817695,0.1737617552280426,1.1426231861114502,-0.15840750932693481
1772376349947899000,1.21589892578125,1.2267661927625537,0.5328630141198635,-0.6657668521564454,0.27532753348350525,1.1078585386276245,-0.12568259239196777
1772376349957848800,1.225848876953125,1.6509586965441703,0.8580465698778629,-0.44857261953949923,0.3745805025100708,0.9994374513626099,-0.09302464872598648
1772376349967798800,1.235798828125,1.7457216775611042,1.0242542001664638,-0.5717103389084339,0.45994651317596436,0.8971099853515625,-0.0389837920665741
1772376349977747700,1.245747802734375,2.1027789197027684,0.9105874889761209,-0.2701075286915526,0.5658971071243286,0.7836560010910034,0.060546357184648514
1772376349987698000,1.255697998046875,2.371738776196539,1.0240735829025507,0.3600503230104223,0.6786966323852539,0.663763701915741,0.19660672545433044
1772376349997648000,1.26564794921875,2.2249900257460773,1.5573405016481876,0.7707318590402603,0.768068253993988,0.5268866419792175,0.3566008508205414
1772376350007597600,1.27559765625,1.6681516772769391,2.193310254499316,0.6573907265424728,0.818053662776947,0.35852906107902527,0.46085959672927856
1772376350017547800,1.2855478515625,1.02867172434777,2.4113398419618606,0.1481026675437577,0.8595613837242126,0.22331777215003967,0.4894392490386963
1772376350027497700,1.295497802734375,0.6748479842346161,2.2341133895307776,-0.21733692902326582,0.9611878395080566,0.18704284727573395,0.4665991961956024
1772376350037447700,1.30544775390625,0.22947978675961492,1.5455033488601446,-0.2934206362724304,1.135308861732483,0.3151485323905945,0.33365246653556824
1772376350047398000,1.31539794921875,-0.7565553765844554,0.5092249489009381,0.03314882088601589,1.3156474828720093,0.3861875534057617,0.24339553713798523
1772376350057347800,1.325347900390625,-0.971953519564867,-0.07646072386801242,0.7031412548482417,1.4790464639663696,0.41254106163978577,0.24066928029060364
1772376350067296800,1.335296875,-1.3821819415323435,-0.674427201539278,1.0426274767249821,1.588125467300415,0.4229273796081543,0.20575444400310516
1772376350077246700,1.345246826171875,-2.1659731886319813,-1.6351584853440522,1.155173732518032,1.618933081626892,0.37824079394340515,0.13799601793289185
1772376350087197000,1.355197021484375,-2.266950075727701,-1.8016513623148203,0.9934774421740322,1.54465913772583,0.3362874686717987,0.18451717495918274
1772376350097146600,1.365146728515625,-1.4728794266760348,-1.1229413688898087,0.6962069986056536,1.459496021270752,0.2956635355949402,0.3288642168045044
1772376350107096600,1.3750966796875,-0.6976607045453042,0.07542202847003936,-0.4021266563154757,1.5005265474319458,0.47842028737068176,0.4681278467178345
1772376350117046800,1.385046875,-0.5904818210043012,1.4986445670515298,-1.3528729910701514,1.5876469612121582,0.7017648220062256,0.5201069116592407
1772376350126996700,1.394996826171875,-0.570288416346535,2.263541144067049,-1.4239793482981622,1.596113920211792,0.7063321471214294,0.5600370168685913
1772376350136946700,1.40494677734375,-0.3782002756744623,2.3786609766751527,-1.1472937198579312,1.5395840406417847,0.5766952037811279,0.5498989820480347
1772376350146895600,1.4148955078125,-0.3093947427347302,2.3956162031292916,-0.6899895123302936,1.448684811592102,0.3460718095302582,0.464546799659729
1772376350156845800,1.424845703125,-0.11492138742655515,2.040452519649267,-0.329032778532058,1.3813868761062622,0.13630031049251556,0.3153288662433624
1772376350166795800,1.434795654296875,0.1520218685477972,1.3900462451666593,-0.00975347838178277,1.311608910560608,-0.02438976615667343,0.18929819762706757
1772376350176745700,1.444745849609375,0.44749519956633443,0.5167126743078232,0.5987511983081698,1.2116045951843262,-0.13561229407787323,0.12148753553628922
1772376350186696000,1.454696044921875,0.5293541292160749,0.07090308974087238,1.0309984137296675,1.074869155883789,-0.2434666007757187,0.11302907019853592
1772376350196645600,1.464645751953125,0.3431127418108284,-0.17840251047313213,1.3093687803864478,0.9085978865623474,-0.30441996455192566,0.11010784655809402
1772376350206595600,1.474595703125,-0.2098771145366132,-0.3046563160359859,1.2242448575913905,0.7680503726005554,-0.33202841877937317,0.1303979456424713
1772376350216545800,1.4845458984375,-0.6081180154599249,-0.41650516414940353,0.9735203304901718,0.7158517837524414,-0.30875322222709656,0.1590767800807953
1772376350226495700,1.494495849609375,-0.9697504565626383,-0.5228390482336283,0.5822936922430991,0.7060268521308899,-0.27851808071136475,0.19365499913692474
1772376350236444700,1.504444580078125,-1.2267523103676736,-1.028832175606489,0.4946610014975071,0.6589428782463074,-0.25916141271591187,0.19079428911209106
1772376350246394600,1.51439453125,-1.6423992502525449,-1.462627497252822,0.7269394790649414,0.5997887253761292,-0.22989991307258606,0.1399814486503601
1772376350256344800,1.5243447265625,-1.9252572837173938,-1.390402803519368,0.82072397043854,0.5538941621780396,-0.23961400985717773,0.14426416158676147
1772376350266294800,1.534294677734375,-1.680835510022193,-1.0397194803237915,0.873152953594923,0.4865758717060089,-0.24856701493263245,0.15749980509281158
1772376350276244700,1.54424462890625,-1.544511269082874,-0.8595137198209762,1.1711959889709949,0.4044840633869171,-0.23683948814868927,0.13277669250965118
1772376350286194700,1.554194580078125,-1.5982459280103445,-0.8444944298654794,1.2455500959485768,0.36179494857788086,-0.18957635760307312,0.09602852165699005
1772376350296144600,1.56414453125,-1.4900088406533003,-0.7986924636334181,0.9435217903286218,0.35487163066864014,-0.06666246801614761,0.08590631932020187
1772376350306094600,1.574094482421875,-1.275387161938101,-0.6007108079433441,0.6736816438689828,0.3406977653503418,0.04862310737371445,0.09004620462656021
1772376350316043800,1.584043701171875,-1.168727699161321,-0.3683019819945097,0.7454308290451764,0.3125859498977661,0.08583465963602066,0.10491330176591873
1772376350325993700,1.59399365234375,-1.121209722791612,-0.1910223380714655,0.884988060556352,0.293459415435791,0.06331896781921387,0.1075330525636673
1772376350335943700,1.603943603515625,-1.2098643039308488,-0.07741407907009125,0.9341177099063992,0.26191020011901855,0.0024049337953329086,0.08565865457057953
1772376350345894000,1.613893798828125,-1.2658365126520394,-0.021706804895401,0.8957485240235924,0.2235950082540512,-0.05369109287858009,0.052482593804597855
1772376350355843800,1.62384375,-1.3147377600736916,-0.10964169345796107,0.8170090415686369,0.17049890756607056,-0.07315144687891006,0.01886110007762909
1772376350365793800,1.633793701171875,-1.3318227503873408,-0.26128011564612386,0.7313327455878257,0.11433231085538864,-0.05661773681640625,-0.017383191734552383
1772376350375743700,1.64374365234375,-1.4303715335533023,-0.45091304518580433,0.6734133483216166,0.06428423523902893,-0.027525097131729126,-0.05239482596516609
1772376350385693700,1.653693603515625,-1.4563437408082187,-0.6795271550267934,0.5635813929885626,0.001532706548459828,0.021836861968040466,-0.10165691375732422
1772376350395643000,1.663642822265625,-1.4272729830160735,-0.8735235404729843,0.5023047942489385,-0.06493337452411652,0.08282440155744553,-0.14358025789260864
1772376350405592600,1.673592529296875,-1.2459104536935686,-0.9314186800807714,0.38380028763860463,-0.11876571178436279,0.1637120544910431,-0.16546638309955597
1772376350415542800,1.683542724609375,-0.9375539679653943,-0.7863204733163118,0.23174422456026075,-0.15787328779697418,0.23099100589752197,-0.17049464583396912
1772376350425492700,1.69349267578125,-0.6018931495957076,-0.6067547642827034,0.08031155407726764,-0.19141153991222382,0.2881690561771393,-0.16520985960960388
1772376350435442700,1.703442626953125,-0.2806334892831743,-0.48007951843738556,-0.06985738008022307,-0.23465974628925323,0.3476930856704712,-0.1643195003271103
1772376350445393000,1.713392822265625,-0.07672682745829223,-0.40543198147118087,-0.1476014217570424,-0.25548407435417175,0.36492347717285156,-0.13422872126102448
1772376350455342800,1.7233427734375,0.24506226355582475,-0.4570499405056238,-0.3114624889194965,-0.2401396930217743,0.3517756760120392,-0.10913021117448807
1772376350465292800,1.733292724609375,0.4953729491591453,-0.5423275925576686,-0.5450882894426584,-0.20285463333129883,0.31720757484436035,-0.10304435342550278
1772376350475242800,1.74324267578125,0.6645123951159417,-0.5242459924221039,-0.6269236920863389,-0.19601131975650787,0.28129473328590393,-0.11036220192909241
1772376350485192000,1.75319189453125,0.7520835649326443,-0.4969371297359466,-0.6679609281346202,-0.1868700236082077,0.25479814410209656,-0.10320761799812317
1772376350495141600,1.7631416015625,1.0964958450347184,-0.5509557201713323,-0.8212085390850901,-0.1585988998413086,0.26074525713920593,-0.07754820585250854
1772376350505091600,1.773091552734375,1.2850938785687087,-0.8749901058942079,-0.862598826354742,-0.13090549409389496,0.26871156692504883,-0.06884606182575226
1772376350515041800,1.783041748046875,1.1650519332580267,-1.011014194843173,-0.7588339159756898,-0.150516539812088,0.2339181751012802,-0.0714118704199791
1772376350524991700,1.79299169921875,1.1127113590374589,-1.0260697251558304,-0.7109840773031115,-0.19455191493034363,0.2670452296733856,-0.02996908873319626
1772376350534941700,1.802941650390625,0.9520594631798565,-1.3360750010043383,-0.7909320587649941,-0.21747855842113495,0.299653023481369,0.03022456355392933
1772376350544892000,1.812891845703125,0.5694102452725172,-1.574592665222287,-0.9253054578974842,-0.23899076879024506,0.27606114745140076,0.03920767456293106
1772376350554841900,1.822841796875,0.2425722003057599,-1.380001821014285,-0.9873051102146506,-0.2575426697731018,0.23382070660591125,0.04889817535877228
1772376350564790800,1.832790771484375,0.13509630657956004,-1.084284598237276,-1.0813307168677448,-0.27833476662635803,0.22453239560127258,0.08980299532413483
1772376350574741000,1.842740966796875,0.0708390845939517,-0.8965554564923047,-1.1992477789789437,-0.2993346154689789,0.1799301654100418,0.1105693057179451
1772376350584690700,1.852690673828125,0.04131152294501662,-0.5993617314219475,-1.3961121210768819,-0.270000696182251,0.12352468818426132,0.10667923092842102
1772376350594641000,1.862640869140625,0.35637145183458924,-0.27604689214527606,-1.4223106844335793,-0.19497458636760712,0.0864735096693039,0.1139831617474556
1772376350604590800,1.8725908203125,0.9759526722036301,0.015143793118000029,-1.1818389635384081,-0.1100572943687439,0.04597029089927673,0.13046254217624664
1772376350614540800,1.882540771484375,1.494289294451475,0.23824001632034777,-1.1562392428576946,-0.05196607485413551,-0.005808181129395962,0.14889951050281525
1772376350624491000,1.892490966796875,1.8869879049472509,0.2604202839463949,-1.4370610943198203,-0.04843738675117493,-0.04078933596611023,0.18729376792907715
1772376350634441000,1.90244091796875,2.2692456393189726,0.13430734815895556,-1.7856974218577146,-0.04793364554643631,-0.06595930457115173,0.23211146891117096
1772376350644391000,1.912390869140625,2.446001259367913,0.09493453819155692,-2.136315570862591,-0.031116316094994545,-0.16055478155612946,0.25808125734329224
1772376350654340000,1.922340087890625,2.36016012821421,0.03190729639232159,-2.3374153585731983,0.011842628940939903,-0.28850865364074707,0.2513265609741211
1772376350664290000,1.9322900390625,2.0718186949022113,-0.02796703433394432,-2.561206578302383,0.08283664286136627,-0.4229695498943329,0.21720056235790253
1772376350674240000,1.942239990234375,1.6280303870297967,0.1320966863721609,-2.441891339831054,0.15585224330425262,-0.5577296018600464,0.18307434022426605
1772376350684189700,1.952189697265625,1.302424221945554,0.5452607234001159,-1.8800050603225826,0.18353739380836487,-0.6691363453865051,0.13215789198875427
1772376350694140000,1.962139892578125,0.8854664917230606,0.7930781308829784,-1.2388421227425337,0.1411990225315094,-0.7346585988998413,0.069127157330513
1772376350704089900,1.97208984375,0.20974398967623709,0.6542635344326496,-0.706540834158659,0.06892856955528259,-0.7739023566246033,-0.0012263678945600986
1772376350714039800,1.982039794921875,-0.7183527063749731,0.4377233087450266,-0.33627281278818844,0.00014057883527129889,-0.8400298357009888,-0.08158393949270248
1772376350723990000,1.991989990234375,-1.8818137171797453,0.622523995822668,-0.03951981722265482,-0.07328170537948608,-0.8759612441062927,-0.18008308112621307
1772376350733939000,2.00193896484375,-2.7090450236856936,1.4933786093473433,0.3505979829996824,-0.1241021379828453,-0.7796998023986816,-0.20363378524780273
1772376350743889000,2.011888916015625,-2.6153625313818454,2.5383827520757913,0.46887598737776276,-0.15229304134845734,-0.5694475173950195,-0.1373266726732254
1772376350753839000,2.021839111328125,-2.174677888613194,3.0211142463266847,-0.0903559782296419,-0.14106713235378265,-0.1949516236782074,-0.026778001338243484
1772376350763789000,2.0317890625,-1.4020432646915315,2.3692507587730884,-0.42804333399087185,-0.17978817224502563,0.2385886162519455,0.07892978936433792
1772376350773738800,2.04173876953125,-0.6391616807602346,0.8084376125782727,0.1555932972937822,-0.30461180210113525,0.46910208463668823,0.1314602792263031
1772376350783689000,2.05168896484375,-0.9008627982974052,-0.659283408421278,0.8101242504909634,-0.39950475096702576,0.40073394775390625,0.06266336888074875
1772376350793639000,2.061638916015625,-1.7929278115026652,-1.3878057727634905,0.8569068983234465,-0.423593670129776,0.19015534222126007,-0.0732843279838562
1772376350803588900,2.0715888671875,-2.147901671499014,-1.474059576371312,0.7728279545366764,-0.4539201259613037,0.020441941916942596,-0.17962436378002167
1772376350813537800,2.081537841796875,-1.704581127268821,-1.1081932970911264,1.0143518148332833,-0.5273096561431885,-0.03934824839234352,-0.21979974210262299
1772376350823488000,2.091488037109375,-0.8696583894774317,-0.46505555230677126,1.3823364014416932,-0.5968767404556274,-0.03478305786848068,-0.18629956245422363
1772376350833438000,2.10143798828125,-0.25722061112225053,0.1679635340452194,1.494326703852415,-0.6090267300605774,-0.032309383153915405,-0.11656850576400757
1772376350843388000,2.111387939453125,-0.28679683421850205,0.5687240165740252,1.3851076197206973,-0.5805652141571045,-0.06750998646020889,-0.06876316666603088
1772376350853338000,2.121338134765625,-0.7159072129189967,0.5469283643513918,1.3013386186659335,-0.5495138764381409,-0.11155407875776291,-0.06454222649335861
1772376350863287800,2.131287841796875,-1.1164018841184675,0.24464579170942305,1.195988046530634,-0.5206502676010132,-0.14027732610702515,-0.07225820422172546
1772376350873237800,2.14123779296875,-1.160641569469869,0.033710546422004696,1.1209545789867639,-0.5147900581359863,-0.1497194468975067,-0.06324853748083115
1772376350883188000,2.15118798828125,-0.9669361297942698,-0.04603519046604633,1.1103098508536815,-0.5376125574111938,-0.18330644071102142,-0.04804934561252594
1772376350893138000,2.161137939453125,-0.6954077379867434,-0.1726005461961031,1.08181981555894,-0.5535011887550354,-0.19944049417972565,-0.05861171707510948
1772376350903086800,2.1710869140625,-0.542007128431648,-0.1833615941852331,0.9819868378013372,-0.5648619532585144,-0.20314840972423553,-0.04925842955708504
1772376350913036800,2.181036865234375,-0.4851517071351409,-0.0054214405268430705,0.9586620763152838,-0.581687867641449,-0.15321537852287292,-0.03541477769613266
1772376350922987000,2.190987060546875,-0.5235388670660555,0.018935586616396903,0.9537953470617532,-0.6065452694892883,-0.10302731394767761,-0.04307802394032478
1772376350932937000,2.20093701171875,-0.5661249399915337,-0.18233225113749504,0.9949049176938831,-0.639137327671051,-0.14943844079971313,-0.06856535375118256
1772376350942887000,2.210886962890625,-0.40831572021394963,-0.19970248813331126,1.1911669099844993,-0.6419270038604736,-0.20161642134189606,-0.08036927878856659
1772376350952836900,2.2208369140625,-0.16345745479762552,-0.03421206620335579,1.063035620111972,-0.6121481657028198,-0.17558802664279938,-0.07405637949705124
1772376350962786800,2.230786865234375,-0.06427899542599916,0.191379480946064,0.86209906013906,-0.5634096264839172,-0.11198347806930542,-0.05648857355117798
1772376350972736800,2.24073681640625,-0.21433511685878037,0.4312245943754911,0.7869092329896986,-0.522016704082489,-0.02824912965297699,-0.04343410208821297
1772376350982685700,2.250685791015625,-0.5841105324067175,0.5561807613432407,0.731477707016468,-0.5068196654319763,0.0452253557741642,-0.020175917074084282
1772376350992636000,2.260635986328125,-0.7939791713759302,0.2848807714641094,0.8255852928645908,-0.5049490928649902,0.12240630388259888,-0.00975913554430008
1772376351002585900,2.2705859375,-0.9430864676512777,-0.12289981895983218,0.9088396223954855,-0.503471314907074,0.21660470962524414,-0.014863351359963417
1772376351012535800,2.280535888671875,-0.8466476623766124,-0.4173725946336984,0.9546404195837676,-0.502762496471405,0.2683108150959015,-0.0060921646654605865
1772376351022486000,2.290486083984375,-0.5928988190181553,-0.5091325944423675,1.1340882013261318,-0.484092116355896,0.3014317452907562,-0.0009080551099032164
1772376351032436000,2.30043603515625,-0.4789228957481682,-0.4837801265209913,1.0051426724612713,-0.4417780339717865,0.3067222833633423,-0.0027145494241267443
1772376351042386000,2.310385986328125,-0.2846127681776881,-0.611928952050209,0.8687364523269235,-0.41164782643318176,0.3033240735530853,0.0002839036751538515
1772376351052335900,2.3203359375,-0.10296747639104724,-0.5650087954431772,0.8244956709969788,-0.3844611644744873,0.3076426386833191,0.003432681318372488
1772376351062285000,2.33028515625,0.0036488778963685033,-0.3598223229408264,0.7833972793459891,-0.37459683418273926,0.3032801151275635,0.0060079582035541534
1772376351072234800,2.34023486328125,-0.07827581046596169,-0.21262217546105383,0.8050637522310018,-0.3506299555301666,0.31732264161109924,-0.0048139262944459915
1772376351082185000,2.35018505859375,-0.16486264542043208,-0.040948680981993675,0.6204408328730613,-0.32724741101264954,0.32533130049705505,-0.020046140998601913
1772376351092135000,2.360135009765625,-0.13378814659044147,0.009574468553066253,0.5763562650181353,-0.3144631087779999,0.29872554540634155,-0.044216252863407135
1772376351102084900,2.3700849609375,-0.0201230428352952,0.05834229885339737,0.5507371820498258,-0.31612518429756165,0.2883242964744568,-0.07438267767429352
1772376351112034800,2.380034912109375,0.23753084513768552,0.12054244217872619,0.5124661227792501,-0.31680452823638916,0.2690037190914154,-0.08447576314210892
1772376351121985000,2.389985107421875,0.4787707739263773,0.1657943733125925,0.42814591758251186,-0.31527453660964966,0.24064798653125763,-0.09653109312057495
1772376351131935000,2.39993505859375,0.614806553313136,0.08400047172307967,0.3157756759434938,-0.31522056460380554,0.21514339745044708,-0.10821067541837692
1772376351141884000,2.4098837890625,0.688696257649362,-0.028939678758382794,0.23377025049515068,-0.3124050796031952,0.18308879435062408,-0.1175684928894043
1772376351151834000,2.419834228515625,0.6263163738429546,-0.10902151573300362,0.1695289567310363,-0.32254427671432495,0.14215008914470673,-0.12695622444152832
1772376351161783800,2.42978369140625,0.4988140295237303,-0.19836159491837024,0.23355872663632035,-0.3400449752807617,0.11137592792510986,-0.13831833004951477
1772376351171733800,2.439733642578125,0.4411667271971702,-0.3095896807849407,0.2017665079910308,-0.35407039523124695,0.08912230283021927,-0.13918437063694
1772376351181684000,2.44968408203125,0.4148839926883578,-0.38963703096807,0.08685534969754516,-0.36194613575935364,0.07766218483448029,-0.14233967661857605
1772376351191634000,2.459634033203125,0.3864112007893622,-0.3642717035651207,-0.0064566287934780114,-0.36626893281936646,0.07992978394031525,-0.14076656103134155
1772376351201583900,2.469583984375,0.3074804335460067,-0.2586176184386015,-0.08320552195310592,-0.379861980676651,0.09974129498004913,-0.1458047330379486
1772376351211534000,2.4795341796875,0.23556290606558322,-0.22033026562035082,-0.16958149063587188,-0.37548601627349854,0.11931464076042175,-0.14635561406612396
1772376351221484000,2.489484130859375,0.1433512169666588,-0.18122224406898021,-0.2932377539861947,-0.3741275370121002,0.13814611732959747,-0.16096171736717224
1772376351231433000,2.499432861328125,0.09855024447068571,-0.15125965200364588,-0.36876265830881894,-0.3694096803665161,0.16337597370147705,-0.17632941901683807
1772376351241383000,2.5093828125,0.1797721913911402,-0.11258300760686397,-0.420042069571279,-0.35901880264282227,0.1894240826368332,-0.1892566680908203
1772376351251333000,2.5193330078125,0.28394889744147656,-0.15733224991559983,-0.5296528199017048,-0.3526318073272705,0.20384898781776428,-0.19978086650371552
1772376351261282800,2.52928271484375,0.43749709877371784,-0.1774666909277439,-0.5691355199843645,-0.34457412362098694,0.1946120709180832,-0.2104707956314087
1772376351271232800,2.539232666015625,0.5791358127340674,-0.2614695007383823,-0.5961141278028488,-0.3331660032272339,0.1971295326948166,-0.2241998165845871
1772376351281183000,2.549182861328125,0.7056647819764912,-0.31120413024425503,-0.6631032589703798,-0.3154889941215515,0.20583221316337585,-0.22276437282562256
1772376351291133000,2.5591328125,0.8906784542176872,-0.3747960201889276,-0.6846341227769851,-0.30251964926719666,0.18396754562854767,-0.22293245792388916
1772376351301081900,2.569081787109375,1.0119794596787541,-0.4015501716017723,-0.6196107387244701,-0.29641780257225037,0.1731652319431305,-0.22106824815273285
1772376351311031800,2.57903173828125,1.0984120539195834,-0.33065058899223804,-0.5161094477176666,-0.29018527269363403,0.1781977415084839,-0.2054242640733719
1772376351320982000,2.58898193359375,1.1959846124645321,-0.2229454165548086,-0.41448797910809515,-0.2864499092102051,0.18872974812984467,-0.19126397371292114
1772376351330932000,2.598931884765625,1.2453611492477357,-0.11256488742828369,-0.299111541390419,-0.272936075925827,0.2050338089466095,-0.17496007680892944
1772376351340882000,2.6088818359375,1.2049410221844912,-0.04844517421722412,-0.1987859578102827,-0.2561477720737457,0.21440254151821136,-0.1616104394197464
1772376351350831900,2.618831787109375,1.102655025251582,-0.0465419709444046,-0.0985825393050909,-0.2524759769439697,0.20175820589065552,-0.1600477248430252
1772376351360781800,2.62878173828125,0.9752299108870327,-0.0828489636003971,0.018332369159394873,-0.2632830739021301,0.1925806850194931,-0.1620461642742157
1772376351370731800,2.638731689453125,0.7709746548201888,-0.17042437120079992,0.06445932042896747,-0.28425660729408264,0.16905653476715088,-0.16716687381267548
1772376351380682000,2.648681884765625,0.5670110751762986,-0.2447656186968088,0.05786415994763374,-0.3012486398220062,0.12292660027742386,-0.1705901026725769
1772376351390631000,2.658630859375,0.5208871835134923,-0.28975509950220585,0.1023556281030178,-0.3064528703689575,0.05920136719942093,-0.18563462793827057
1772376351400580900,2.668580810546875,0.5588012460399419,-0.2904658781200647,0.10640986279672943,-0.2910560667514801,-0.003655888605862856,-0.2020873725414276
1772376351410530800,2.67853076171875,0.5356641160804778,-0.2261252156347036,-0.057297182847792276,-0.2568129301071167,-0.029711686074733734,-0.21473294496536255
1772376351420481000,2.68848095703125,0.4071460919126868,-0.16074351966381073,-0.4007178124308586,-0.21677708625793457,0.009296433068811893,-0.21824565529823303
1772376351430431000,2.698430908203125,0.18370967697054147,-0.027771804022789,-0.7067746429145336,-0.20677907764911652,0.13251814246177673,-0.20647141337394714
1772376351440381000,2.708380859375,-0.019778321050852535,0.2169108125656843,-0.8315724044501781,-0.2308732271194458,0.30402812361717224,-0.18507026135921478
1772376351450331000,2.718330810546875,-0.14496442431695758,0.3833423147380352,-0.8290636364996433,-0.2483433037996292,0.5250803232192993,-0.16801190376281738
1772376351460280800,2.72828076171875,-0.20818068588227032,0.33826983182430265,-0.9271405643701552,-0.22928118705749512,0.7302380204200745,-0.14921025931835175
1772376351470229800,2.738229736328125,0.03593881693072617,0.058657940673828124,-0.9350760335445404,-0.19591408967971802,0.8746419548988342,-0.15211862325668335
1772376351480180000,2.748179931640625,0.48741088423877954,-0.2874807248294353,-0.7427823603630066,-0.17313259840011597,0.9262644052505493,-0.17879816889762878
1772376351490130000,2.7581298828125,1.0161021656319498,-0.4050608100712299,-0.5385387216687202,-0.15003561973571777,0.9114446640014648,-0.21468386054039001
1772376351500079900,2.768079833984375,1.674491840083897,-0.387855992770195,-0.4141583087623119,-0.1355419009923935,0.8311719298362732,-0.2376168668270111
1772376351510030000,2.778030029296875,2.298604858663678,-0.3274140912890434,-0.3744026734897867,-0.12265113741159439,0.7422570586204529,-0.2705724537372589
1772376351519980000,2.78797998046875,2.60265327193439,-0.21358955918848513,-0.3959843907007947,-0.07461782544851303,0.657062292098999,-0.2933882772922516
1772376351529930000,2.797929931640625,2.6282810496658087,-0.1424018072873354,-0.3918167496273294,0.00032666383776813745,0.5396208763122559,-0.27620261907577515
1772376351539879700,2.807879638671875,2.3419112086877227,-0.1665600969880819,-0.4507833543915301,0.07646484673023224,0.44827714562416077,-0.23918013274669647
1772376351549829000,2.8178291015625,1.9505024918720124,-0.08112053237259388,-0.5454103610038757,0.12565284967422485,0.3803636431694031,-0.20497724413871765
1772376351559778800,2.82777880859375,1.761432749173045,0.037544425496459005,-0.2892085715353489,0.17071940004825592,0.2979675829410553,-0.14614693820476532
1772376351569728800,2.837728759765625,1.817422055159509,0.6877426101863384,0.10321016257312149,0.23356138169765472,0.18757008016109467,-0.043775901198387146
1772376351579678500,2.847678466796875,1.7322485941343009,1.514472250780463,0.24396073205471036,0.32750412821769714,0.06599278748035431,0.06278569996356964
1772376351589628400,2.85762841796875,1.5462383851364254,2.1605156538784502,0.16424012960791587,0.44291824102401733,-0.07087033241987228,0.15452280640602112
1772376351599578400,2.867578369140625,1.4066497355736791,2.5037030683606862,-0.04709027074323967,0.5767998695373535,-0.19194883108139038,0.20883318781852722
1772376351609528600,2.877528564453125,1.2989035004734992,2.5470751770973203,-0.3368295698881149,0.7379339933395386,-0.20458655059337616,0.2460368275642395
1772376351619478500,2.887478515625,0.9874179960045963,2.326712762773037,-0.553841504740715,0.9008132219314575,-0.1188998743891716,0.2500994801521301
1772376351629427500,2.897427490234375,0.3039463411357254,1.740584022411704,-0.41870647358596325,1.0365697145462036,0.005004316568374634,0.22776581346988678
1772376351639377700,2.907377685546875,-0.28379268396645785,0.991774656844139,0.022975226529175413,1.1298408508300781,0.11412201821804047,0.21757788956165314
1772376351649327600,2.91732763671875,-0.6978753702092916,0.24702771840989587,0.4963058460950851,1.1911368370056152,0.18305806815624237,0.22181916236877441
1772376351659277300,2.92727734375,-1.020758393939957,-0.2399076572716236,0.8804442796468734,1.2537763118743896,0.2094758301973343,0.23427316546440125
1772376351669227500,2.9372275390625,-1.1795005106534808,-0.6599129384964704,1.0868675274025648,1.3300979137420654,0.2082231640815735,0.2173149585723877
1772376351679177500,2.947177490234375,-1.6391288502797483,-1.3447083893150091,1.087522191919014,1.3804609775543213,0.1994571089744568,0.20052824914455414
1772376351689127400,2.95712744140625,-2.025894417464733,-1.6547791316151619,0.9582751228243112,1.4143022298812866,0.18123747408390045,0.3026556968688965
1772376351699077600,2.96707763671875,-1.6134969808951019,-0.9927496393561362,0.4679162024348974,1.4134434461593628,0.3063938021659851,0.48970550298690796
1772376351709026600,2.977026611328125,-1.1965646043095737,0.21171207487881183,-0.15526596503555773,1.4635673761367798,0.4778383672237396,0.6117287874221802
1772376351718976500,2.9869765625,-1.5358166521042584,1.3875444914788007,-1.3769644991450012,1.5918725728988647,0.6212858557701111,0.5867509841918945
1772376351728926500,2.996926513671875,-2.1128275816388427,2.149682125174999,-1.569526467873901,1.7001373767852783,0.6870976686477661,0.559049129486084
1772376351738876700,3.006876708984375,-1.2011002019125967,1.9609452676922081,-0.9414093282192945,1.7284440994262695,0.6690081357955933,0.5397055745124817
1772376351748826600,3.01682666015625,-0.2148294762469828,1.5061363841116429,-0.44884193800017236,1.6550182104110718,0.541526734828949,0.5020598769187927
1772376351758776300,3.0267763671875,0.18829875832647083,1.3318518303513527,-0.1415472362846136,1.5237555503845215,0.39812350273132324,0.43013375997543335
1772376351768726500,3.0367265625,0.49407216875888404,1.5319517933696507,-0.032840485589206214,1.3706915378570557,0.21751169860363007,0.3390306830406189
1772376351778676500,3.046676513671875,0.7865916914731264,1.3955010034412145,0.4132078761696815,1.1851626634597778,0.007488693110644817,0.2912895381450653
1772376351788625400,3.05662548828125,0.9710795132093131,0.7359644970417022,0.9039166329100727,1.0303118228912354,-0.17267075181007385,0.2806248068809509
1772376351798575400,3.066575439453125,0.6520484887316823,0.02934942860305309,0.9879767258659005,0.9176350831985474,-0.22687512636184692,0.2619810998439789
1772376351808525600,3.076525634765625,0.14673033801093696,-0.2891758383095264,0.9693877607300877,0.8155820965766907,-0.23523454368114471,0.26463019847869873
1772376351818475500,3.0864755859375,-0.12775734199360012,-0.17176117276251315,1.064764635861665,0.7164232730865479,-0.24893838167190552,0.25697869062423706
1772376351828425500,3.096425537109375,-0.3793208041369915,-0.10967910285890102,0.9503180263400077,0.6289882063865662,-0.313775897026062,0.2667643427848816
1772376351838375700,3.106375732421875,-0.31471798358410596,-0.3632125499010086,0.8410212007969617,0.5458765029907227,-0.3610190153121948,0.2768324017524719
1772376351848325400,3.116325439453125,-0.5336224541850387,-0.8557681035518646,0.8319111348852515,0.4871695935726166,-0.371673583984375,0.2451017200946808
1772376351858274600,3.126274658203125,-1.1452117990173398,-1.253150049558282,0.6499123534858227,0.4408351182937622,-0.37877434492111206,0.1835467368364334
1772376351868224300,3.136224365234375,-1.5423045528188346,-1.5110300013720988,0.5386497808277607,0.3727351129055023,-0.3974694609642029,0.14589357376098633
1772376351878174500,3.146174560546875,-1.5124091807708144,-1.6511346376329659,0.7250874214574694,0.29216837882995605,-0.3920555114746094,0.11357451230287552
1772376351888124400,3.15612451171875,-1.2352360610745847,-1.4382529344528914,0.7862289956405758,0.2513715326786041,-0.3062680661678314,0.1000806912779808
1772376351898074400,3.166074462890625,-0.8508098966225981,-1.0102017094165086,0.5102475699469446,0.24076947569847107,-0.18044303357601166,0.12918397784233093
1772376351908024600,3.176024658203125,-0.4982788997337222,-0.6550847876876592,0.3833168880358338,0.22329242527484894,-0.0839904323220253,0.17171546816825867
1772376351917974500,3.185974609375,-0.3632186873808503,-0.44210663839578623,0.33437399342954155,0.19266767799854279,-0.0026833266019821167,0.20627345144748688
1772376351927924500,3.195924560546875,-0.47610550023987885,-0.370336118170619,0.3353121510624885,0.15582208335399628,0.03799248859286308,0.22162555158138275
1772376351937874400,3.20587451171875,-0.6885879749692976,-0.35638065805435176,0.47236295271068807,0.1107073426246643,0.03554424270987511,0.21558284759521484
1772376351947823600,3.21582373046875,-0.9270736366137862,-0.3935732013732195,0.6158709676742553,0.06972109526395798,-0.019384466111660004,0.19179701805114746
1772376351957773600,3.225773681640625,-1.029464920552075,-0.39999943502843377,0.6458911351457238,0.03398866206407547,-0.11489980667829514,0.1688549518585205
1772376351967723500,3.2357236328125,-1.1168389603614806,-0.443028429415822,0.6954097838133573,-0.013973787426948547,-0.1728220134973526,0.11270663887262344
1772376351977673500,3.245673583984375,-1.3162543021164834,-0.6458809060126542,0.6807786163926124,-0.0797959417104721,-0.19788236916065216,0.044793907552957535
1772376351987623400,3.25562353515625,-1.246128918749839,-1.0110521887660027,0.5424965193837881,-0.1427975445985794,-0.15767167508602142,-0.020850935950875282
1772376351997573600,3.26557373046875,-1.0985299812108278,-1.175938799583912,0.4113634173467755,-0.1997729390859604,-0.09299441426992416,-0.08116727322340012
1772376352007523600,3.275523681640625,-0.8241698731087148,-1.0927186645835638,0.3282256999328732,-0.25273579359054565,-0.020816383883357048,-0.11605712026357651
1772376352017472500,3.285472412109375,-0.44167321541458365,-0.9303314693659543,0.2746478390023112,-0.27420753240585327,0.0330769419670105,-0.11662571132183075
1772376352027422500,3.29542236328125,-0.1259473699621856,-0.758835669541359,0.2345101821422577,-0.2717348039150238,0.07062150537967682,-0.11656999588012695
1772376352037372700,3.30537255859375,0.09362433237582445,-0.662756052967906,0.19405863702744244,-0.27040427923202515,0.0907648578286171,-0.11308258771896362
1772376352047322600,3.315322509765625,0.3432951126404106,-0.6443219861328602,0.16989947054386137,-0.2561507225036621,0.07506336271762848,-0.09531603008508682
1772376352057272300,3.325272216796875,0.59937093764171,-0.7069517530471086,0.10458791719973087,-0.2418873906135559,0.060777366161346436,-0.05336644873023033
1772376352067222500,3.335222412109375,0.7801585896857083,-0.8897638966560363,-0.04637772029340267,-0.22790873050689697,0.0022185640409588814,-0.041466861963272095
1772376352077172500,3.34517236328125,0.7898534697480499,-0.6940770739048719,-0.1266553721010685,-0.23536372184753418,-0.06101260334253311,-0.06777782738208771
1772376352087122400,3.355122314453125,0.8034438959442078,-0.2863964367240667,-0.19392332020998,-0.23828624188899994,-0.11607908457517624,-0.05744894593954086
1772376352097072600,3.36507275390625,0.9295981866553426,-0.30600656160116196,-0.3842208511382341,-0.2302035391330719,-0.13329587876796722,-0.03130815550684929
1772376352107021600,3.375021484375,0.8357084813416004,-0.45548809801638124,-0.6218006499841809,-0.2249593436717987,-0.206437349319458,-0.03146987780928612
1772376352116971500,3.384971435546875,0.7290608551330864,-0.46916474119126794,-0.8432397536292672,-0.23198075592517853,-0.26578110456466675,-0.019628135487437248
1772376352126921500,3.39492138671875,0.7577550346978008,-0.6010580139458179,-0.9909083954036235,-0.24723944067955017,-0.2489095777273178,0.007574385963380337
1772376352136871700,3.40487158203125,0.6234124690949916,-0.615517331930995,-1.0549927450403571,-0.24713291227817535,-0.2448756992816925,0.03212127462029457
1772376352146821400,3.4148212890625,0.5645663123726844,-0.5038707283914089,-1.0751327390104533,-0.2700415253639221,-0.21116840839385986,0.06650988757610321
1772376352156771300,3.424771240234375,0.5107680866897106,-0.39001930828392506,-1.04223993871212,-0.26120221614837646,-0.14072246849536896,0.07911382615566254
1772376352166721500,3.434721435546875,0.3954537544228136,-0.5198579865962266,-1.2695102327287195,-0.21259576082229614,-0.05029785633087158,0.10852710157632828
1772376352176670500,3.44467041015625,0.2892917197741568,-0.6128630180299282,-1.4595496972426771,-0.14269976317882538,0.017281722277402878,0.1564035564661026
1772376352186620400,3.454620361328125,0.46648602350130675,-0.6749766521155833,-1.4409592708021401,-0.08489061146974564,0.080302894115448,0.2105918824672699
1772376352196570400,3.4645703125,0.8972725187204778,-0.6185954242020845,-1.0938771869689226,-0.029902195557951927,0.11828968673944473,0.284065842628479
1772376352206520600,3.4745205078125,1.473264188209921,-0.3437923946380615,-0.6962970880419016,-0.0016973386518657207,0.10510566830635071,0.3378450870513916
1772376352216470500,3.484470458984375,1.674125198728591,-0.10744213758707045,-0.3812795369893312,-0.006013790145516396,0.04501037299633026,0.36273711919784546
1772376352226420500,3.49442041015625,1.6385820300519465,-0.09006079467535018,-0.3711296066358685,-0.0258602537214756,-0.06737013161182404,0.3575330674648285
1772376352236370700,3.50437060546875,1.5901438700973987,-0.20987609162330625,-0.7121415767751633,-0.03753768652677536,-0.2483271360397339,0.33140799403190613
1772376352246320400,3.5143203125,1.7773410969227552,-0.4076724538743496,-1.1961229249566794,-0.02317352034151554,-0.40742555260658264,0.2885817885398865
1772376352256270300,3.524270263671875,2.047428350011259,-0.5556465083360672,-1.7081284444868563,0.017919588834047318,-0.5390946269035339,0.22201450169086456
1772376352266219300,3.53421923828125,2.3090001420803365,-0.5180424616068602,-2.1749352243751288,0.06510169804096222,-0.6618049740791321,0.1637924760580063
1772376352276169500,3.54416943359375,2.6662685427546498,-0.47167876983880996,-2.472181264154613,0.11845439672470093,-0.724941074848175,0.15239761769771576
1772376352286119400,3.554119384765625,2.9958547173857686,-0.5012140764027834,-2.559220957443118,0.1612027883529663,-0.7428267598152161,0.17182207107543945
1772376352296069400,3.5640693359375,2.9216666146248578,-0.678603025919199,-2.3388009677127,0.1790877729654312,-0.8083437085151672,0.18806548416614532
1772376352306019600,3.57401953125,2.2919997613102194,-0.8232412139564752,-1.9139263268858193,0.14214520156383514,-0.920200765132904,0.1704430878162384
1772376352315969500,3.583969482421875,1.403087659177929,-0.8328267884254456,-1.4018255302876232,0.0847247838973999,-1.0173555612564087,0.13217851519584656
1772376352325919500,3.59391943359375,0.5660550896257162,-0.8813158017843962,-0.8820867861568927,-0.030301788821816444,-1.077521562576294,0.0976526141166687
1772376352335868700,3.60386865234375,-0.2712662337400019,-0.8327963932871818,-0.08524667239189147,-0.22254979610443115,-1.0870542526245117,0.051334116607904434
1772376352345818600,3.613818603515625,-0.8240805873900652,-0.6703840636283159,0.5989645487979054,-0.39605242013931274,-1.0165523290634155,0.03295370563864708
1772376352355768300,3.623768310546875,-0.8873591736018657,-0.33395255314707756,0.979368764257431,-0.5131819844245911,-0.888462245464325,0.06705548614263535
1772376352365718500,3.633718505859375,-0.8409948973119259,0.46660979601144786,1.1821467143133282,-0.5438112020492554,-0.7298542857170105,0.11734198033809662
1772376352375668500,3.64366845703125,-1.0275402360998094,2.2097768206536768,0.8304393087670207,-0.45451194047927856,-0.5435184836387634,0.1017579585313797
1772376352385618400,3.653618408203125,-1.4714030705131589,4.9972225963592525,0.39903117451816794,-0.2553368806838989,-0.4022998809814453,0.03641728311777115
1772376352395568600,3.663568603515625,-1.7128404215700923,7.315177467659115,0.21464023728519677,-0.027581490576267242,-0.30170831084251404,0.046629440039396286
1772376352405518600,3.6735185546875,-1.7484246529094873,7.412770995926857,-0.4402727009668946,0.1851356029510498,-0.09416739642620087,0.1960941106081009
1772376352415467500,3.683467529296875,-1.5306433411195874,3.964949340388179,-0.6992898401170968,0.16705885529518127,0.23673169314861298,0.22874659299850464
1772376352425417500,3.69341748046875,-1.2833584330782293,-1.0362152715951203,0.7182508534356952,-0.03293583542108536,0.22502323985099792,0.08908023685216904
1772376352435367700,3.70336767578125,-2.1299084802992643,-3.8108722928762435,1.444594412434101,-0.19696898758411407,0.015633799135684967,-0.14812859892845154
1772376352445317600,3.713317626953125,-3.0017484515994783,-4.318330816626548,1.2943129578128456,-0.26702195405960083,-0.19001539051532745,-0.34129178524017334
1772376352455267300,3.723267333984375,-2.5956618056118486,-3.5550533652454614,1.325370067116618,-0.3323676884174347,-0.3343190550804138,-0.39616090059280396
1772376352465217500,3.733217529296875,-1.3545951386876403,-1.927541595262289,1.4783610729575156,-0.5120505690574646,-0.37055641412734985,-0.29279547929763794
1772376352475167500,3.74316748046875,-0.03736205466687679,0.04724573529958725,2.0551551448710264,-0.7453762292861938,-0.3244062066078186,-0.10638885200023651
1772376352485117400,3.753117431640625,0.6506830455973744,1.5183417856901884,2.216181573129445,-0.821483850479126,-0.33474984765052795,0.027772415429353714
1772376352495066400,3.76306640625,0.12663608287870884,1.8848714973151683,1.560959276667237,-0.7207561731338501,-0.41909536719322205,0.019162949174642563
1772376352505016600,3.7730166015625,-0.9007314270026981,1.3064081770151852,1.1406506285816431,-0.5749477744102478,-0.5228196978569031,-0.0506233274936676
1772376352514966500,3.782966552734375,-1.3401961725875735,0.3965425725728273,1.2197872936606406,-0.48948797583580017,-0.5595646500587463,-0.13709057867527008
1772376352524916500,3.79291650390625,-1.298378745947033,-0.10096797313690185,1.222448037302494,-0.44658002257347107,-0.5153645277023315,-0.18979957699775696
1772376352534866700,3.80286669921875,-1.0995169464215635,0.00931143370270729,1.010916141296178,-0.423421710729599,-0.47324347496032715,-0.21064893901348114
1772376352544816400,3.81281640625,-0.9439534597441553,0.09158172063231468,0.864648452360928,-0.44854238629341125,-0.4385206401348114,-0.19819901883602142
1772376352554766300,3.822766357421875,-0.8324773904658853,-0.07790157032608985,0.9005478871293365,-0.5189883708953857,-0.36916258931159973,-0.1759168803691864
1772376352564716500,3.832716552734375,-0.8014477536909281,-0.31019641450643537,0.93334234161973,-0.5924767255783081,-0.33878275752067566,-0.14575357735157013
1772376352574665500,3.84266552734375,-0.7983936998825519,-0.332429873624444,0.8957634293317794,-0.6189618110656738,-0.34048134088516235,-0.10598032921552658
1772376352584615400,3.852615478515625,-0.6309538243852555,-0.16809388242661952,0.6849088480651379,-0.6187929511070251,-0.29091811180114746,-0.08249638974666595
1772376352594565600,3.862565673828125,-0.38728674151487646,0.12013912207484245,0.5453665218621492,-0.6080598831176758,-0.18638743460178375,-0.05013791844248772
1772376352604515600,3.872515625,-0.1835045097872615,0.32335166415572164,0.5032021814800799,-0.5974401235580444,-0.07837056368589401,-0.006843247450888157
1772376352614465500,3.882465576171875,-0.19531725878641007,0.46605274665057655,0.37304946878254414,-0.5883249044418335,0.020786913111805916,0.009134386666119099
1772376352624415700,3.892415771484375,-0.21076317665614186,0.2728378669708967,0.46267070299685,-0.5855966210365295,0.11065893620252609,0.030368050560355186
1772376352634365400,3.902365478515625,-0.1028828668475151,-0.03849368904531002,0.5725619873017073,-0.5791842341423035,0.14716127514839172,0.028426606208086014
1772376352644314600,3.912314697265625,-0.17658040961250662,-0.3252840935230255,0.8044618408150971,-0.57608562707901,0.11328371614217758,-0.007126515731215477
1772376352654264600,3.9222646484375,-0.1143472408004105,-0.48546939478218554,1.0796313656039536,-0.567793607711792,0.05388537049293518,-0.035875871777534485
1772376352664214500,3.932214599609375,0.17087079979404807,-0.5247317301124333,1.1694115897722541,-0.5334521532058716,-0.016965188086032867,-0.03369540348649025
1772376352674164500,3.94216455078125,0.43918863205723463,-0.5077455239981412,1.1258896973013877,-0.5057515501976013,-0.07435284554958344,-0.05355779081583023
1772376352684114400,3.952114501953125,0.3844029297068715,-0.5492115068525075,1.0585241340368985,-0.49262818694114685,-0.12614773213863373,-0.0819704532623291
1772376352694064600,3.962064697265625,0.2621330061484128,-0.5757523077756166,1.0098124909032136,-0.4965651333332062,-0.15845534205436707,-0.11196936666965485
1772376352704014600,3.9720146484375,0.03315400851778686,-0.3878022167563438,0.8113304844755679,-0.4776192605495453,-0.13420948386192322,-0.12287995964288712
1772376352713964500,3.981964599609375,-0.09292933584898709,-0.2165361340343952,0.5682897898752242,-0.44994449615478516,-0.10282494127750397,-0.11492935568094254
1772376352723913500,3.99191357421875,-0.06123655899018049,-0.16471476138234137,0.559926962134242,-0.44136497378349304,-0.10385378450155258,-0.1245577409863472
1772376352733863700,4.00186376953125,-0.0541718082357198,-0.08380524141192436,0.7085913369476795,-0.4390919804573059,-0.09541156888008118,-0.1367155909538269
1772376352743813600,4.011813720703125,-0.07474537131749093,-0.011981529694795608,0.6544727932691574,-0.433462917804718,-0.08185853064060211,-0.14037366211414337
1772376352753763300,4.021763427734375,-0.06853519156575202,0.08124152840375899,0.5055225872516632,-0.4346722364425659,-0.0691043809056282,-0.1547480672597885
1772376352763713500,4.031713623046875,-0.11418057899661362,0.19892390497624873,0.3812362823694944,-0.44492536783218384,-0.05254372954368591,-0.17651759088039398
1772376352773663500,4.04166357421875,-0.16930252756401895,0.0029237784922122954,0.2917955923538655,-0.4442262649536133,-0.006364250555634499,-0.19031649827957153
1772376352783613400,4.051613525390625,-0.24347988973520696,-0.22797172028422355,0.1589145506709814,-0.4345155954360962,0.0409124493598938,-0.18336963653564453
1772376352793563600,4.061563720703125,-0.2360036355704069,-0.3866121301889419,0.14446809216737747,-0.43238770961761475,0.07013878226280212,-0.1903761476278305
1772376352803512600,4.0715126953125,-0.1712869063142687,-0.5105798706412316,0.11052205648906528,-0.4334125816822052,0.09892137348651886,-0.2005736231803894
1772376352813462500,4.081462646484375,-0.09288717720769345,-0.5092839856117963,0.015672858493402598,-0.4316852390766144,0.11937445402145386,-0.20322825014591217
1772376352823412700,4.091412841796875,0.05858516769856214,-0.4557470412135124,-0.03573408813886344,-0.4355466365814209,0.13235649466514587,-0.20865918695926666
1772376352833362700,4.10136279296875,0.22138744652308523,-0.37763153587579723,-0.06734269384555518,-0.4268870949745178,0.15163512527942657,-0.21774108707904816
1772376352843312400,4.1113125,0.32173487660884853,-0.2897574375897646,-0.21239008373823015,-0.41518867015838623,0.1782539337873459,-0.2303759753704071
1772376352853262300,4.121262451171875,0.3593422843389213,-0.1529711320966482,-0.37636363483183083,-0.41496363282203674,0.20218083262443542,-0.24237938225269318
1772376352863212500,4.131212646484375,0.42755840001814066,-0.22497253846824167,-0.4426677794098854,-0.4249832332134247,0.2265242636203766,-0.25685739517211914
1772376352873161500,4.141161376953125,0.5488601361315697,-0.33627310504913327,-0.48523383246064183,-0.43286246061325073,0.24410484731197357,-0.2719023823738098
1772376352883111400,4.151111328125,0.6243907395426184,-0.28746377369463444,-0.5997171207308769,-0.43677058815956116,0.24408259987831116,-0.280758798122406
1772376352893061600,4.1610615234375,0.6809118143182248,-0.28624738364219665,-0.7204881109684705,-0.43258729577064514,0.27625757455825806,-0.2994416654109955
1772376352903011600,4.171011474609375,0.738886010511592,-0.2911573675155639,-0.8678045783042907,-0.4245345890522003,0.321158230304718,-0.31401845812797546
1772376352912961500,4.18096142578125,0.805220111836493,-0.4031447473168373,-0.946158568572998,-0.4292214810848236,0.39620715379714966,-0.31937727332115173
1772376352922911700,4.190911865234375,0.9077838297322391,-0.4740016598284244,-0.9088543815732002,-0.4205368757247925,0.4480077028274536,-0.31542593240737915
1772376352932861400,4.200861328125,1.0895973907578735,-0.4285585900366306,-0.8552969789087772,-0.4039762616157532,0.48093101382255554,-0.31455403566360474
1772376352942811400,4.210811279296875,1.2121861710071562,-0.37905133954584597,-0.8648176714479923,-0.38812845945358276,0.5049092173576355,-0.3059769570827484
1772376352952760600,4.220760498046875,1.280056176662445,-0.3004781535685062,-0.9056085315197706,-0.3641536235809326,0.5097447037696838,-0.29502445459365845
1772376352962710500,4.23071044921875,1.3528998790770768,-0.2871305962175131,-0.8652414498180151,-0.3321964144706726,0.500848114490509,-0.2859591245651245
1772376352972660500,4.240660400390625,1.4601358265675604,-0.33980361726284025,-0.713506581518054,-0.29246044158935547,0.46431031823158264,-0.2786117494106293
1772376352982610400,4.2506103515625,1.5158292183473705,-0.3199994311183691,-0.5267886626422404,-0.2521110773086548,0.42230042815208435,-0.2753676772117615
1772376352992560600,4.260560546875,1.5033615125708282,-0.24209201557338236,-0.3741781805515289,-0.21998271346092224,0.36883455514907837,-0.2575969398021698
1772376353002510600,4.270510498046875,1.5179605312876403,-0.1574982541322708,-0.2030956377029419,-0.2102421224117279,0.28691819310188293,-0.22438421845436096
1772376353012460500,4.28046044921875,1.5520976325586437,-0.1479249546229839,-0.18424597580432892,-0.20137618482112885,0.18774394690990448,-0.19756858050823212
1772376353022410800,4.29041064453125,1.509263576221466,-0.22000585597157477,-0.4120551990032196,-0.2040855437517166,0.12142796814441681,-0.1719777137041092
1772376353032359700,4.300359619140625,1.3056772323921322,-0.23398937313854692,-0.7746540009200572,-0.20847415924072266,0.1397864669561386,-0.145281121134758
1772376353042309600,4.3103095703125,0.9062748864740133,-0.20677520299851893,-1.1774001043081284,-0.20621511340141296,0.25799691677093506,-0.11347737908363342
1772376353052259300,4.32025927734375,0.5698218582807109,-0.15499825401008127,-1.4620809692859649,-0.1774122267961502,0.4363884925842285,-0.08106111735105515
1772376353062209500,4.33020947265625,0.4108311736335978,0.011055062499642372,-1.4962392594754694,-0.11739324778318405,0.6476311683654785,-0.04847074672579765
1772376353072159500,4.340159423828125,0.23666359731648115,0.2294149048298597,-1.24815531001091,-0.04739551991224289,0.7816789746284485,-0.006431951187551022
1772376353082109400,4.350109375,0.019388992939703167,0.30560499506294725,-1.1219885982096194,0.008671713061630726,0.8626154065132141,-0.0008670871611684561
1772376353092059600,4.3600595703125,0.35496951261479404,0.08935586127638816,-0.7921019793272018,0.05618836730718613,0.9030888080596924,0.021672310307621956
1772376353102010400,4.37001025390625,1.4957275105610488,0.3309790902942419,0.19406009833216667,0.16153280436992645,0.8999031782150269,0.1328628808259964
1772376353111960600,4.379960693359375,2.3819199784711,1.4436165073126555,1.1976502806544302,0.32307377457618713,0.77362060546875,0.313088059425354
1772376353121910500,4.38991064453125,2.1759167827583847,2.9636370398700236,1.5819909587800502,0.4466729760169983,0.4250706732273102,0.4427548348903656
1772376353131860500,4.399860595703125,1.2295038010329007,4.001719274380803,1.2147709268033504,0.49418163299560547,0.1246275007724762,0.4196934401988983
1772376353141809400,4.409809326171875,0.5323478676719591,4.234264293929934,0.0458534041583538,0.6014316082000732,0.18077892065048218,0.36316171288490295
1772376353151759600,4.419759521484375,0.006540288488939404,3.913941037684679,-1.1745756945371628,0.8415587544441223,0.47867080569267273,0.31560832262039185
1772376353161709600,4.42970947265625,-1.080613654639572,3.0136499017953873,-1.5114321524322032,1.078809142112732,0.8450688719749451,0.27365294098854065
1772376353171659500,4.439659423828125,-1.9906926095716655,1.83585582973361,-0.8519786481410264,1.2202695608139038,1.1460233926773071,0.2803521156311035
1772376353181609700,4.449609619140625,-2.3004650995776057,0.6592319704949855,0.05759761796593666,1.2496154308319092,1.3492814302444458,0.3214057981967926
1772376353191559700,4.4595595703125,-2.29225987355113,-0.21586861003637312,0.6544955896228551,1.1943566799163818,1.4198578596115112,0.34227272868156433
1772376353201509400,4.46950927734375,-2.071532717567682,-0.9368985727965832,1.0295452923119068,1.1062698364257812,1.3247443437576294,0.31257086992263794
1772376353211458600,4.47945849609375,-1.6902350603997707,-1.482060511997342,1.0055944348167627,1.0760914087295532,1.1371771097183228,0.29736635088920593
1772376353221408500,4.489408447265625,-1.2333368033245204,-1.5741887605965137,0.2831500021487474,1.1184037923812866,0.9274011850357056,0.35773324966430664
1772376353231358500,4.4993583984375,-0.6513011044304817,-1.097045295611024,-0.5011030903089791,1.1960455179214478,0.7879522442817688,0.4669806957244873
1772376353241308400,4.509308349609375,-0.020149930842220783,-0.14273030858933924,-1.1302264113314449,1.278333067893982,0.6978442072868347,0.503871500492096
1772376353251258600,4.519258544921875,0.10564115257970988,0.17876316047906873,-1.3023422427505253,1.3388075828552246,0.6567689180374146,0.47506412863731384
1772376353261208600,4.52920849609375,0.3697240506868809,1.0542898574680089,-1.3371844235509633,1.3548831939697266,0.5948967933654785,0.4374687969684601
1772376353271158500,4.539158447265625,0.42956002216413613,2.1367589307159185,-1.1609832225143908,1.2920427322387695,0.517838716506958,0.3838399350643158
1772376353281108700,4.549108642578125,0.10691248768977821,2.0740964305758474,-0.6496358746320009,1.224268913269043,0.3608000874519348,0.35496675968170166
1772376353291057700,4.5590576171875,-0.004756912203505635,1.4150953462272882,-0.10006664038300514,1.1971933841705322,0.22981701791286469,0.3074226975440979
1772376353301007600,4.569007568359375,-0.47545814224705096,0.5550684161871672,0.34475744027793404,1.1730543375015259,0.110875204205513,0.25878793001174927
1772376353310957300,4.578957275390625,-0.8717101343754678,0.2153378641605377,0.6342337228387593,1.0993313789367676,0.007218851707875729,0.2100915014743805
1772376353320907500,4.588907470703125,-1.0093236114077269,0.021739538121223447,0.9905340091332793,1.0148534774780273,-0.098434217274189,0.1387099176645279
1772376353330857500,4.598857421875,-1.1259148317426442,0.08153203578293323,1.2113520582705735,0.9421145915985107,-0.15695025026798248,0.10552559792995453
1772376353340807400,4.608807373046875,-1.1026172505244611,-0.1323234808653593,1.2701888626426459,0.8638747334480286,-0.18158994615077972,0.10384602099657059
1772376353350757600,4.618757568359375,-1.402117206710577,-0.39326866546869277,1.3008593107163906,0.7543708682060242,-0.18758739531040192,0.09274996072053909
1772376353360707600,4.62870751953125,-1.7005347744874655,-0.800298145264387,1.355157887136936,0.6333550214767456,-0.11728467047214508,0.09357574582099915
1772376353370656500,4.638656494140625,-1.9501045785956084,-1.1791139224886893,1.2511135752946139,0.5436099767684937,0.00538159254938364,0.06836333125829697
1772376353380606700,4.648606689453125,-2.3902887244962154,-1.2200783855617046,1.030167808124423,0.46890097856521606,0.09689051657915115,0.022487249225378036
1772376353390556700,4.658556640625,-2.684270063391328,-1.0255074150979517,1.0097634641297162,0.38859790563583374,0.16115792095661163,-0.015720855444669724
1772376353400506600,4.668506591796875,-2.661900410673022,-0.857354495960474,1.1019910814501344,0.3145647943019867,0.23775358498096466,-0.03886139392852783
1772376353410456300,4.678456298828125,-2.261010456545651,-0.7023790383040904,0.9974448114350437,0.27786269783973694,0.3664529621601105,-0.030977103859186172
1772376353420406500,4.688406494140625,-1.5832373055793345,-0.5965384906947613,0.6162240188956261,0.29335469007492065,0.486605167388916,-0.03318527340888977
1772376353430356500,4.6983564453125,-1.1486337362900376,-0.3700385965287685,0.2368710660547018,0.3158075213432312,0.5755688548088074,-0.04280620813369751
1772376353440305400,4.708305419921875,-0.8477540161833167,-0.21043723263740538,0.15685206518322228,0.32920482754707336,0.6161812543869019,-0.041085194796323776
1772376353450255600,4.718255615234375,-0.6055097326576709,-0.18317688526809214,0.20392419748157262,0.3427986800670624,0.6160510182380676,-0.03790564835071564
1772376353460205600,4.72820556640625,-0.532820197891444,-0.22691724279522896,0.29736674354970455,0.3485757112503052,0.5501612424850464,-0.03918696194887161
1772376353470155500,4.738155517578125,-0.4624614441603422,-0.21592881579101084,0.4926411861076951,0.3367030620574951,0.456063449382782,-0.04397665709257126
1772376353480105700,4.748105712890625,-0.30437633005082604,-0.18732757520675658,0.7547954542398452,0.312105655670166,0.39316654205322266,-0.05445987731218338
1772376353490055700,4.7580556640625,-0.4973291977934539,-0.3014198183327913,0.9115966660186647,0.28562131524086,0.3456413745880127,-0.08855393528938293
1772376353500005400,4.76800537109375,-1.079899807281792,-0.4979898536592722,0.8682131591051816,0.225995272397995,0.3031860589981079,-0.1594797670841217
1772376353509955600,4.77795556640625,-1.6486856370456515,-0.6557867984771728,0.732777683699131,0.15747559070587158,0.3108051121234894,-0.2483643740415573
1772376353519904500,4.787904541015625,-1.9683266101151704,-0.8384808686643839,0.48364334839880463,0.09684300422668457,0.3962259292602539,-0.30933353304862976
1772376353529854500,4.7978544921875,-2.0089273544423283,-0.9570628244251013,0.23202742541581392,0.03539082407951355,0.5442585349082947,-0.3668000102043152
1772376353539804400,4.807804443359375,-1.7554193341024218,-0.8319096735805273,0.08313391802161932,-0.03796674311161041,0.6274662613868713,-0.3886411488056183
1772376353549754600,4.817754638671875,-1.0364810829244553,-0.8026216197758913,0.1800286503702402,-0.09387235343456268,0.657608151435852,-0.38124048709869385
1772376353559704600,4.82770458984375,-0.5121088337741792,-0.8161638229161501,0.06857786166369914,-0.12539996206760406,0.6889970898628235,-0.373339980840683
1772376353569654500,4.837654541015625,-0.23597411721497774,-0.8520978906065225,-0.20370149464160203,-0.15492883324623108,0.6998907923698425,-0.36693960428237915
1772376353579606500,4.8476064453125,0.07231748658344149,-0.8625555717349052,-0.4318637690618634,-0.18272019922733307,0.7105880379676819,-0.34836190938949585
1772376353589555500,4.857555419921875,0.4365308110248297,-0.8179179731070995,-0.6151134273052216,-0.1809268295764923,0.7023237347602844,-0.31717097759246826
1772376353599505700,4.867505615234375,0.7442763252478093,-0.8981693214297294,-0.8386269991368055,-0.17092803120613098,0.6720121502876282,-0.2779320478439331
1772376353609455600,4.87745556640625,0.9424827296044677,-1.0203466713339089,-0.917338716802001,-0.14771537482738495,0.6214033365249634,-0.23249611258506775
1772376353619405600,4.887405517578125,1.0751979862663894,-1.1207903283357619,-0.9938678297311067,-0.11868159472942352,0.5872432589530945,-0.1852400302886963
1772376353629355800,4.897355712890625,1.0566066099777818,-1.052894603717327,-1.13300975843966,-0.10772588849067688,0.5396072864532471,-0.1769448220729828
1772376353639305500,4.907305419921875,1.0251505644842982,-0.618169307744503,-1.0915011054873467,-0.12270710617303848,0.4901151657104492,-0.1698717474937439
1772376353649255400,4.91725537109375,1.0639487894341348,-0.3691998076170683,-0.9862304667204618,-0.13546764850616455,0.47681134939193726,-0.14521247148513794
1772376353659205600,4.92720556640625,1.1266854507889599,-0.34119361031651496,-0.9117015876978636,-0.11748760938644409,0.45804068446159363,-0.09632180631160736
1772376353669154600,4.937154541015625,1.306030283613503,-0.5076911634624004,-1.0064753823697565,-0.07291588187217712,0.4842243492603302,-0.024727245792746544
1772376353679104500,4.9471044921875,1.334695967736095,-0.7623919007182121,-1.063590477515757,-0.0349733829498291,0.5023621320724487,0.030588775873184204
1772376353689054700,4.9570546875,1.1117862070165574,-0.8584276781499385,-1.1074790113419293,-0.019112927839159966,0.4831434190273285,0.08151507377624512
1772376353699004700,4.967004638671875,0.8735206178635359,-0.8917091855049133,-1.1811579955369234,-0.020127173513174057,0.454801470041275,0.11809094250202179
1772376353708954600,4.97695458984375,0.5138173912577331,-0.9326099356919526,-1.275585753250122,-0.06249673664569855,0.42317482829093933,0.14026334881782532
1772376353718904800,4.98690478515625,0.16119871608540415,-0.9462035767585039,-1.3990724321871995,-0.0969565361738205,0.3437853157520294,0.13467995822429657
1772376353728854800,4.996854736328125,-0.14090367768406867,-0.9320002793610096,-1.725449581643939,-0.07671597599983215,0.26234108209609985,0.09861650317907333
1772376353738803700,5.0068037109375,-0.07399228792786598,-0.7881903588414192,-2.2678547694824633,-0.0035860780626535416,0.2238239049911499,0.07826544344425201
1772376353748753700,5.016753662109375,0.7153921030037105,-0.5648959827184676,-2.4634406160771847,0.0396982803940773,0.2713205814361572,0.11016985774040222
1772376353758703600,5.02670361328125,1.749782351128757,-0.5187041403859853,-2.197490608923882,0.007461191155016422,0.34593895077705383,0.17737695574760437
1772376353768653600,5.036653564453125,2.4592554393470287,-0.8086334274113178,-1.8504167083971201,-0.07451916486024857,0.33706846833229065,0.20619769394397736
1772376353778603500,5.046603515625,2.5147996319144963,-1.338843296673894,-1.6768611995637417,-0.18691003322601318,0.22621533274650574,0.18568670749664307
1772376353788553700,5.0565537109375,2.2906661746188997,-1.9360230078816412,-1.4601704594895242,-0.3434005677700043,0.08205361664295197,0.1411844938993454
1772376353798503700,5.066503662109375,1.8752704330161212,-2.3080969096302986,-1.3392708744361996,-0.4334394037723541,-0.12757086753845215,0.10736772418022156
1772376353808453600,5.07645361328125,1.1280420530296862,-1.8578245004355907,-1.5270917861178517,-0.44977444410324097,-0.3689028024673462,0.06282209604978561
1772376353818402600,5.086402587890625,0.43534576595872637,-0.6645914517015218,-1.1207096643149852,-0.5074673891067505,-0.48047322034835815,0.03088081255555153
1772376353828352800,5.096352783203125,0.3943288420461118,0.7103034015625714,-0.13014072999879717,-0.5373568534851074,-0.5348456501960754,0.03611791878938675
1772376353838302700,5.106302734375,0.127609311825037,2.264689729580283,0.30455124822631474,-0.4214499890804291,-0.6415395736694336,0.032754991203546524
1772376353848252400,5.11625244140625,-1.1040066590562463,4.477939194780588,0.12490648260712622,-0.15352240204811096,-0.7201382517814636,-0.033967845141887665
1772376353858202600,5.12620263671875,-2.8902739897564054,7.247719549936056,-0.2237210771024227,0.0697711706161499,-0.6732663512229919,-0.16548772156238556
1772376353868152600,5.136152587890625,-3.9671968270540234,8.78734903832674,-0.34307445562705396,0.22480522096157074,-0.4216109812259674,-0.15436609089374542
1772376353878102500,5.1461025390625,-4.084226292675734,7.676746926528215,-0.7675495757423341,0.3226979970932007,0.1559934765100479,0.09981673955917358
1772376353888051500,5.156051513671875,-3.8754870961278676,3.4452859995812175,-0.47426513307020063,0.22984182834625244,0.7712146043777466,0.27771827578544617
1772376353898001700,5.166001708984375,-4.018777084426581,-1.0096662873655557,0.12696166157126426,0.021148093044757843,1.0326628684997559,0.1775372177362442
1772376353907951600,5.17595166015625,-4.045110964600742,-3.779692141714692,0.21436960365027188,-0.11708700656890869,1.0388970375061035,0.03409004583954811
1772376353917901600,5.185901611328125,-3.2598446765124796,-4.829178982815146,0.3587866962827742,-0.17830637097358704,0.9127252697944641,-0.02309362217783928
1772376353927851800,5.195851806640625,-2.4041189507976175,-4.225096652612089,0.8872991139777004,-0.30168020725250244,0.664447546005249,-0.05937040224671364
1772376353937801500,5.205801513671875,-1.6075971092015504,-3.027742140033841,1.4110603916227817,-0.49859902262687683,0.43975138664245605,-0.09904246032238007
1772376353947751400,5.21575146484375,-0.7439386907912791,-1.4768950920581816,1.6863491588771342,-0.6453733444213867,0.30292484164237976,-0.10138151049613953
1772376353957701600,5.22570166015625,-0.04497062997445464,0.28876608846485613,1.6702385665535926,-0.6593405604362488,0.16996392607688904,-0.06317891925573349
1772376353967650600,5.235650634765625,0.16792203299105166,1.3705115236133336,1.546457288584113,-0.5730581283569336,0.0681142583489418,-0.06347879022359848
1772376353977600500,5.2456005859375,-0.2675586113937199,1.504459390810132,1.441335556768626,-0.46670982241630554,0.04025132954120636,-0.13541927933692932
1772376353987550700,5.25555078125,-0.952673065033555,1.1094202085375786,1.2980951067000628,-0.36989378929138184,0.060868725180625916,-0.2078348696231842
1772376353997500700,5.265500732421875,-1.139114212794602,0.7235159343570471,0.9474515309929847,-0.2982448935508728,0.12321806699037552,-0.21291102468967438
1772376354007450600,5.27545068359375,-0.9104061410598456,0.6278723711133003,0.6621143940635025,-0.26522356271743774,0.25457796454429626,-0.15338565409183502
1772376354017400600,5.285400634765625,-0.7923074387714266,0.6745511201798915,0.6380069577671587,-0.27827250957489014,0.4171704649925232,-0.06930829584598541
1772376354027350800,5.295350830078125,-0.9309795580111443,0.7018430317312478,0.4953403620637953,-0.3076772689819336,0.5785577893257141,0.02084663137793541
1772376354037300500,5.305300537109375,-1.1118412982046604,0.6861819367408752,0.302468450602889,-0.3458822965621948,0.7468598484992981,0.10145043581724167
1772376354047249700,5.315249755859375,-1.1154038129918276,0.4927852707535028,0.2451706923663616,-0.3931691348552704,0.8845794200897217,0.17883150279521942
1772376354057199600,5.32519970703125,-0.759058518511802,0.05259001893699169,0.30981939788758756,-0.43066057562828064,0.9847174286842346,0.20901505649089813
1772376354067149600,5.335149658203125,-0.512003035312146,-0.3332435280948877,0.3695515436641872,-0.4449569582939148,1.0132701396942139,0.22034521400928497
1772376354077099500,5.345099609375,-0.3252814631745219,-0.39481531038880346,0.29191081623136994,-0.44170939922332764,1.030442476272583,0.2156606912612915
1772376354087049700,5.3550498046875,-0.2504763975590467,-0.3382850293934345,0.3382764076955616,-0.4394531846046448,0.9941513538360596,0.21137461066246033
1772376354096999700,5.364999755859375,-0.3323116540722549,-0.30909400622248645,0.5489030254252255,-0.43896105885505676,0.9650059938430786,0.1786726713180542
1772376354106949600,5.37494970703125,-0.6966551076993346,-0.3235457254230976,0.7432119839519262,-0.412863165140152,0.927913248538971,0.12874984741210938
1772376354116898600,5.384898681640625,-1.0997308814331888,-0.3357470353484154,0.821757112878561,-0.36784517765045166,0.8971638083457947,0.07835210114717484
1772376354126848800,5.394848876953125,-1.3903890672549604,-0.2783060692489147,0.8765114702425897,-0.3088037073612213,0.8961629867553711,0.04233311489224434
1772376354136798700,5.404798828125,-1.5424574052929878,-0.19662673394978045,0.9062638536233455,-0.2482994794845581,0.9158362746238708,0.017315657809376717
1772376354146748400,5.41474853515625,-1.6398311533302068,-0.15513853926360607,0.9618998891927302,-0.21473751962184906,0.9666054248809814,-0.020778730511665344
1772376354156698600,5.42469873046875,-1.6927261465631425,-0.09861351896524428,0.9865590410877019,-0.1901480257511139,1.0365983247756958,-0.0479525588452816
1772376354166648600,5.434648681640625,-1.5575050445601344,0.09381342520713806,0.9509802896410227,-0.16991280019283295,1.1106411218643188,-0.051354482769966125
1772376354176598500,5.4445986328125,-1.2472605531282723,0.20194646766781807,0.8941695112038404,-0.15481577813625336,1.1718494892120361,-0.04679694399237633
1772376354186547500,5.45454736328125,-1.0064676374547183,0.13520400473773478,0.7892069154728204,-0.14914323389530182,1.2214789390563965,-0.048719216138124466
1772376354196497700,5.46449755859375,-0.8888765924274921,0.04827858547866344,0.7534522960025817,-0.15512119233608246,1.2534555196762085,-0.06632170081138611
1772376354206447600,5.474447509765625,-0.7970575559079647,0.04579553649127483,0.7608984472900628,-0.16053752601146698,1.2749978303909302,-0.07630349695682526
1772376354216397600,5.4843974609375,-0.5715802827879786,0.11022504630386828,0.6775041247665882,-0.1613183617591858,1.2907767295837402,-0.08385249227285385
1772376354226347800,5.49434765625,-0.4993127728261053,0.15764029295146464,0.5758066683113575,-0.1541755050420761,1.2918074131011963,-0.09723061323165894
1772376354236297700,5.504297607421875,-0.40093905396610496,0.011406944677233695,0.5005985748529433,-0.1453869491815567,1.2755722999572754,-0.11054536700248718
1772376354246247400,5.514247314453125,-0.22552739587202666,-0.011354337707161903,0.4148007713843137,-0.15525555610656738,1.2456713914871216,-0.1325465440750122
1772376354256197600,5.52419775390625,-0.22018808067068457,0.020716624814271927,0.3475141551075503,-0.16340604424476624,1.212862253189087,-0.14811357855796814
1772376354266146600,5.534146484375,-0.19341800103634596,0.0694599051952362,0.18065237175915388,-0.17085224390029907,1.1942873001098633,-0.1502811312675476
1772376354276096500,5.544096435546875,-0.2565181619413197,0.09466039742529392,0.1421358863601461,-0.18827509880065918,1.1806058883666992,-0.1507059633731842
1772376354286046500,5.55404638671875,-0.2004609052851796,0.05086392579674721,0.18528065261431037,-0.18848629295825958,1.1616671085357666,-0.14360357820987701
1772376354295996700,5.56399658203125,-0.2805826358787715,-0.10022446129322052,0.18169632785413414,-0.1849951595067978,1.1228185892105103,-0.13978828489780426
1772376354305946600,5.573946533203125,-0.3468612806893885,-0.17609423353075981,0.13099197653327135,-0.18813423812389374,1.0987393856048584,-0.1428181678056717
1772376354315896600,5.583896484375,-0.36877690602988,-0.07486439458727837,0.16176822306904942,-0.18778234720230103,1.0997098684310913,-0.13851366937160492
1772376354325846800,5.5938466796875,-0.3734326228812337,-0.07163666471242905,0.20802841793000698,-0.17613022029399872,1.1009724140167236,-0.1358254849910736
1772376354335795700,5.603795654296875,-0.36595045043230057,-0.11342121199667453,0.13015903284046798,-0.15321505069732666,1.083295464515686,-0.1353820562362671
1772376354345745700,5.61374560546875,-0.3463907405681908,-0.13927052352428435,0.08169628643393516,-0.13278380036354065,1.0773332118988037,-0.14084766805171967
1772376354355695600,5.623695556640625,-0.28505861224904655,-0.16000000782012938,0.07624211268126964,-0.11164224147796631,1.1021928787231445,-0.14523442089557648
1772376354365645600,5.6336455078125,-0.2098014189518988,-0.11633856074810027,0.03651685428069904,-0.08493206650018692,1.1494122743606567,-0.14573003351688385
1772376354375595500,5.643595458984375,-0.18271672041043638,0.011755904245376586,-0.06096504857242107,-0.05427727475762367,1.1962292194366455,-0.13946495950222015
1772376354385545700,5.653545654296875,-0.19991861510202288,0.07672492776215076,-0.04900105453431606,-0.05440057814121246,1.2249034643173218,-0.1486493945121765
1772376354395495700,5.66349560546875,-0.10617211765125394,0.0577788197517395,0.05201890451814979,-0.05275421217083931,1.2961678504943848,-0.157594695687294
1772376354405444600,5.673444580078125,0.020587153215706346,0.1271376026600599,0.02495850016772747,-0.055134810507297516,1.3393754959106445,-0.17004629969596863
1772376354415394600,5.68339453125,0.06193082486465573,0.26052666693031784,0.19865385586321352,-0.0692593902349472,1.338563084602356,-0.18371611833572388
1772376354425344800,5.6933447265625,0.1527894919194281,0.20822598632872102,0.38065585213303565,-0.07450049370527267,1.3428654670715332,-0.19282732903957367
1772376354435294700,5.703294677734375,0.17280206011757254,0.052502925175428386,0.38352585461139677,-0.07727710157632828,1.3884577751159668,-0.19381274282932281
1772376354445244700,5.71324462890625,0.046280543529242275,-0.03416121279895305,0.3092290307790041,-0.062057673931121826,1.4279471635818481,-0.1910579800605774
1772376354455194600,5.723194580078125,-0.058481561193615195,-0.04009177189171314,0.1841454380393028,-0.04210104048252106,1.4511243104934692,-0.1914590746164322
1772376354465144600,5.73314453125,-0.1836404111266136,-0.024777298381924627,0.18343816655278206,-0.039559584110975266,1.477231740951538,-0.19555367529392242
1772376354475094500,5.743094482421875,-0.28519042193517086,0.05252630605101585,0.15162614722847936,-0.024781763553619385,1.522190809249878,-0.19109244644641876
1772376354485043500,5.75304345703125,-0.38672333547845483,0.10601941130757331,-0.01234275508946739,-0.0021587414667010307,1.586125373840332,-0.18052928149700165
1772376354494993700,5.76299365234375,-0.5399421587258577,0.2019406224489212,-0.23837504087686537,0.024975821375846863,1.6634173393249512,-0.16015098989009857
1772376354504943600,5.772943603515625,-0.5451229223646223,0.2440899113923311,-0.30731004541516305,0.049428168684244156,1.7590447664260864,-0.1501028835773468
1772376354514893600,5.7828935546875,-0.39739392870515583,0.27182956671118735,-0.24953005661964414,0.08211172372102737,1.8410232067108154,-0.1380544900894165
1772376354524843800,5.79284375,-0.20529563196524978,0.27252807036936283,-0.1441618026971817,0.11389948427677155,1.8967804908752441,-0.11550071090459824
1772376354534793700,5.802793701171875,-0.024185031577199697,0.2674398073196411,-0.11589900028705596,0.1397499293088913,1.944894552230835,-0.10252498835325241
1772376354544743400,5.812743408203125,0.04322743956893682,0.25604279951453207,-0.10218260962367057,0.1618293970823288,1.9765301942825317,-0.11241409927606583
1772376354554692600,5.822692626953125,0.04956584881022572,0.15242869578301907,-0.10088029485344886,0.1844610869884491,1.997046709060669,-0.12321395426988602
1772376354564642600,5.832642578125,0.11267740789204836,0.06664250968694686,-0.0674491681610234,0.19674785435199738,2.0289714336395264,-0.12467256933450699
1772376354574592500,5.842592529296875,0.23873656766563653,0.029804186633229254,-0.012668945703376084,0.21264778077602386,2.059485912322998,-0.12275590002536774
1772376354584541400,5.85254150390625,0.33405119121596216,0.09903846637904644,-0.10311083038449287,0.2361845225095749,2.089193105697632,-0.12093482166528702
1772376354594491400,5.862491455078125,0.4129093316145241,0.08342121053040027,-0.20749126057969405,0.25940030813217163,2.1189327239990234,-0.11779654771089554
1772376354604441300,5.87244140625,0.5242778488650918,0.0041477673292160035,-0.21855507264137267,0.26443180441856384,2.140080690383911,-0.10650128126144409
1772376354614391300,5.882391357421875,0.6439951653312891,-0.02203530619740486,-0.2840273512388579,0.275715708732605,2.1626627445220947,-0.09645955264568329
1772376354624340200,5.89234033203125,0.7463277048196643,-0.020448329266905783,-0.426006567466259,0.28628209233283997,2.183351993560791,-0.09282246977090836
1772376354634290400,5.90229052734375,0.8414884529825299,0.01892740330994129,-0.4585539518604055,0.25090816617012024,2.1906020641326904,-0.0907057523727417
1772376354644240400,5.912240478515625,0.9925088163375854,0.005047346517443657,-0.40413492739796636,0.21660318970680237,2.181051254272461,-0.1030614823102951
1772376354654190300,5.9221904296875,1.1787083373624831,-0.013334113347530364,-0.4729214633762836,0.2322041094303131,2.1521964073181152,-0.12217990309000015
1772376354664140500,5.932140625,1.3808594607569276,-0.11803308970630168,-0.490873299652338,0.27691325545310974,2.114269971847534,-0.1420510709285736
1772376354674090500,5.942090576171875,1.5308186976864933,-0.2512789461135864,-0.41563247296810146,0.32209599018096924,2.0492019653320312,-0.15748876333236694
1772376354684040200,5.952040283203125,1.470145033276081,-0.37317338742315764,-0.3515338025450706,0.35356655716896057,1.957813024520874,-0.17193694412708282
1772376354693990400,5.961990478515625,1.3520675199061631,-0.5239624993056059,-0.4211830928325653,0.4041484594345093,1.8933922052383423,-0.18942885100841522
1772376354703939300,5.971939208984375,1.2558400192946195,-0.6382341906517743,-0.5399006576716899,0.45593124628067017,1.8433865308761597,-0.19892407953739166
1772376354713889300,5.98188916015625,1.1746858769133686,-0.7586094595700502,-0.42761634075045585,0.46792709827423096,1.7764190435409546,-0.2019343227148056
1772376354723839200,5.991839111328125,1.077830015270412,-0.8581979610472917,-0.28518004667162894,0.4683271050453186,1.7288316488265991,-0.2058374583721161
1772376354733789400,6.00178955078125,0.8495111620489507,-0.7588514516323804,-0.32871874414682384,0.48122480511665344,1.6959171295166016,-0.19154766201972961
1772376354743739400,6.011739501953125,0.6309830504797399,-0.6154606333076954,-0.38328736968040467,0.5089898705482483,1.7087079286575317,-0.1708812564611435
1772376354753689300,6.021689453125,0.3992730204500258,-0.48575522598624227,-0.27243980756402014,0.5571032166481018,1.7510038614273071,-0.1476692259311676
1772376354763639600,6.0316396484375,0.28855631817169486,-0.11024492004811763,0.10660276415348052,0.6381126046180725,1.7386878728866577,-0.10350441932678223
1772376354773588500,6.04158837890625,-0.20808073263913393,0.6367454133987427,0.6126701258063316,0.7204357981681824,1.6501473188400269,-0.042305123060941696
1772376354783538400,6.051538330078125,-1.1420268853709101,1.3674544741302728,0.7023942358732224,0.8000839948654175,1.5753302574157715,-0.0034844877663999796
1772376354793488400,6.06148828125,-1.7171575541168451,1.7195324665546416,0.5454091919600963,0.895472526550293,1.5804837942123413,0.04791013523936272
1772376354803438300,6.071438232421875,-1.6572876073047518,1.6885481302261351,0.6962077292580157,1.027357816696167,1.6252294778823853,0.119228795170784
1772376354813388300,6.08138818359375,-1.3306842478767036,1.0907435651183128,1.0187234540462493,1.2002477645874023,1.724630355834961,0.14193695783615112
1772376354823338200,6.091338134765625,-1.0761648585371673,0.28938334358036516,1.2303864290863276,1.3534165620803833,1.8498753309249878,0.13302361965179443
1772376354833288400,6.101288330078125,-1.0271410807143897,-0.49846506995558737,1.3081214106738566,1.4664599895477295,2.0023341178894043,0.14016547799110413
1772376354843237400,6.1112373046875,-1.119164553764835,-0.9676485158473253,1.1432564271658658,1.526727557182312,2.1364662647247314,0.20098009705543518
1772376354853187300,6.121187255859375,-1.2079507253944872,-0.6918120515823364,0.5445669689822942,1.5385205745697021,2.232917070388794,0.2665916085243225
1772376354863137500,6.131137451171875,-1.3205235038682817,-0.1780284164637327,0.07920395816154778,1.4544183015823364,2.304612398147583,0.3176257610321045
1772376354873087500,6.14108740234375,-1.1592212543431668,0.6185019006997347,-0.12328794149458408,1.3320330381393433,2.3831253051757812,0.357742041349411
1772376354883037400,6.151037353515625,-1.1402829643130301,1.382365043014288,-0.6644068889148533,1.1955852508544922,2.369687080383301,0.33407771587371826
1772376354892987400,6.1609873046875,-1.2994067738205193,1.656958813741803,-0.9300709187336266,1.1206982135772705,2.340679883956909,0.3074834644794464
1772376354902937300,6.170937255859375,-1.185094896594435,2.210636652353406,-0.9919862537682056,1.1570407152175903,2.2720682621002197,0.24838685989379883
1772376354912887300,6.18088720703125,-0.9707985043108462,2.118719416156411,-0.932940336690098,1.248214840888977,2.194631576538086,0.18987078964710236
1772376354922836200,6.190836181640625,-0.4580187855377793,2.142000338500738,-0.866285990434885,1.3456425666809082,2.080138921737671,0.14760802686214447
1772376354932786400,6.200786376953125,0.07209799861386418,2.138796574023366,-0.780260734885931,1.3582653999328613,1.981804609298706,0.06613894551992416
1772376354942736400,6.210736328125,0.2989851385317743,1.4719845236629248,-0.3245154472380876,1.2890938520431519,1.8359957933425903,-0.04021226987242699
1772376354952686300,6.220686279296875,0.2785373937867582,0.49174657535552974,0.09001943975165486,1.1837701797485352,1.609931230545044,-0.167306587100029
1772376354962636500,6.230636474609375,-0.024609686730057,-0.37659517856538294,0.4731653551347553,1.1077589988708496,1.3712239265441895,-0.3128179907798767
1772376354972586500,6.24058642578125,-0.3945572439745068,-0.839735837161541,0.6317023046649992,1.0571497678756714,1.1729367971420288,-0.43137550354003906
1772376354982536200,6.2505361328125,-0.5895892560787499,-0.8651882583260536,0.5163362422108649,1.003686547279358,1.0035851001739502,-0.5394378304481506
1772376354992485400,6.2604853515625,-0.7599794327490031,-0.7095628123283386,0.5124065015465021,0.9390645027160645,0.8728666305541992,-0.6293202638626099
1772376355002435300,6.270435302734375,-0.9195506937630474,-0.5764087258577346,0.5483499215871095,0.8653527498245239,0.8586152791976929,-0.6757745742797852
1772376355012385300,6.28038525390625,-1.1638447494253517,-0.5521195032536983,0.46748833241164683,0.7888150215148926,0.9219637513160706,-0.7082998752593994
1772376355022335200,6.290335205078125,-1.5102691000021993,-0.702562578177452,0.32942674628570673,0.7173669338226318,1.0325192213058472,-0.7381357550621033
1772376355032285400,6.300285400390625,-1.73994777033478,-0.9643576576083898,0.28362551070600744,0.662268340587616,1.1420832872390747,-0.7559709548950195
1772376355042235400,6.3102353515625,-1.7957132044374942,-1.083230705270171,0.41294659488499164,0.6204361915588379,1.2174558639526367,-0.7707043290138245
1772376355052185300,6.320185302734375,-1.8217969092428683,-1.0118863015025854,0.6135264503747224,0.5847880840301514,1.2591034173965454,-0.7804587483406067
1772376355062134300,6.33013427734375,-1.776416675554216,-0.8480880704432725,0.7627107574090362,0.5446699857711792,1.295235276222229,-0.7819862961769104
1772376355072084500,6.34008447265625,-1.6166139438718556,-0.6602087065726518,0.835302530889213,0.5034506916999817,1.3432683944702148,-0.7724087238311768
1772376355082034400,6.350034423828125,-1.4349305120319127,-0.4486486073851585,0.8138549614518881,0.45659154653549194,1.3795828819274902,-0.7735291123390198
1772376355091984400,6.359984375,-1.368832484485209,-0.35953766078054905,0.7546300345450639,0.38773012161254883,1.4039287567138672,-0.7844136357307434
1772376355101934300,6.369934326171875,-1.2992410618647932,-0.4088870903611183,0.6703124596968293,0.29819759726524353,1.436094880104065,-0.8033196926116943
1772376355111884300,6.37988427734375,-1.1883856087028979,-0.5107511355549097,0.5794084921956062,0.2103501558303833,1.4787558317184448,-0.8250256180763245
1772376355121834200,6.389834228515625,-1.0879852063208817,-0.616087825295329,0.527115994900465,0.13338825106620789,1.5207555294036865,-0.850162148475647
1772376355131783400,6.399783447265625,-0.9492175908174365,-0.6581248860359191,0.4832856210023164,0.07636430114507675,1.5611481666564941,-0.8665227890014648
1772376355141733400,6.4097333984375,-0.8122376624483615,-0.6352338397920131,0.4903738256976008,0.035651225596666336,1.5712556838989258,-0.8894736170768738
1772376355151683300,6.419683349609375,-0.5804023986037821,-0.6153115802258253,0.4399003605231642,0.016402723267674446,1.5497455596923828,-0.9065122008323669
1772376355161633300,6.42963330078125,-0.305954246892035,-0.6317553500264883,0.4186325315669179,0.0029244646430015564,1.5084236860275269,-0.9221835732460022
1772376355171583500,6.43958349609375,-0.004176116640865803,-0.6701034931212664,0.4900213589981198,-0.018057310953736305,1.459417462348938,-0.9289290904998779
1772376355181533400,6.449533447265625,0.2901195489004254,-0.714310299116373,0.48858694228082894,-0.057779956609010696,1.418382167816162,-0.9182460904121399
1772376355191483100,6.459483154296875,0.5126211672104894,-0.6990940252840518,0.3109194680839777,-0.11150910705327988,1.4027754068374634,-0.9051907062530518
1772376355201433300,6.469433349609375,0.5661657103933394,-0.7067892559617758,0.127359428717196,-0.1797475516796112,1.4672622680664062,-0.9238885045051575
1772376355211382300,6.47938232421875,0.19472280002459882,-0.9353086732566356,-0.06649433338791132,-0.2300974726676941,1.464795708656311,-0.9041406512260437
1772376355221332200,6.489332275390625,0.46635852466411887,-0.9239198487579822,-0.16003887852579354,-0.2340213805437088,1.569939374923706,-0.8245664834976196
1772376355231282400,6.499282470703125,0.6638586804475635,-0.9506728311270475,-0.342877617880702,-0.22449319064617157,1.7117284536361694,-0.7131596803665161
1772376355241232400,6.509232421875,0.6504660418458282,-0.9206927034050225,-0.3936491892188787,-0.23018968105316162,1.8381537199020386,-0.6114216446876526
1772376355251182300,6.519182373046875,0.6754214732736349,-0.8094172712653875,-0.5419874008178711,-0.23001308739185333,1.8920460939407349,-0.5422417521476746
1772376355261132500,6.529132568359375,0.7625322590369731,-0.5896592525750398,-0.6774228762239217,-0.2282564640045166,1.9050016403198242,-0.5329568982124329
1772376355271082500,6.53908251953125,0.8893791351221502,-0.21675942139625548,-0.8329429621510207,-0.2318701148033142,1.7997225522994995,-0.5256859660148621
1772376355281031400,6.549031494140625,1.358034027095139,-0.08226561075448989,-1.1196977107934654,-0.22303560376167297,1.6957032680511475,-0.46774622797966003
1772376355290981400,6.5589814453125,1.6564081941217184,-0.42849253906309603,-1.5079786509774624,-0.20678120851516724,1.691650152206421,-0.35948413610458374
1772376355300931300,6.568931396484375,1.857045186626166,-0.6254775849312544,-1.803820523047447,-0.18179649114608765,1.573486566543579,-0.2832335829734802
1772376355310881300,6.57888134765625,2.075169905026257,-0.35187282524108887,-2.0107289970368147,-0.16923466324806213,1.4181649684906006,-0.23205740749835968
1772376355320831200,6.588831298828125,2.218673389945179,-0.19266250649392605,-1.9590109386287629,-0.14635944366455078,1.257501482963562,-0.16269376873970032
1772376355330781400,6.598781494140625,2.525635790966451,-0.31056349425315855,-2.0895826073907315,-0.11151094734668732,1.130031943321228,-0.07061878591775894
1772376355340731400,6.6087314453125,2.715415435500443,-0.6254705706685781,-2.1342365726314485,-0.0998297855257988,1.0581060647964478,0.015031938441097736
1772376355350680300,6.618680419921875,2.730749198232591,-0.7851356474459171,-1.9853467184990643,-0.10616213828325272,0.9680420160293579,0.08256180584430695
1772376355360630300,6.62863037109375,2.7148773831009865,-0.6453805552750825,-1.9115395778797566,-0.11534738540649414,0.8184157609939575,0.11313915997743607
1772376355370580500,6.63858056640625,2.563781104965508,-0.3937777840346098,-1.8509955311983823,-0.14128556847572327,0.6476920247077942,0.11989038437604904
1772376355380530400,6.648530517578125,2.4268565600454806,-0.27631694125831124,-1.6810688803866505,-0.19474053382873535,0.481026291847229,0.12788306176662445
1772376355390480400,6.65848046875,2.084411196102202,-0.3015162644445896,-1.6468535993129014,-0.2219458371400833,0.3159298598766327,0.10918527841567993
1772376355400430300,6.668430419921875,1.383917679283768,-0.23960429041087625,-1.873012424956262,-0.18121466040611267,0.13333502411842346,0.05220242217183113
1772376355410380300,6.67838037109375,0.6184473940335213,-0.08874445137977599,-2.268960100375861,-0.080085888504982,-0.021719302982091904,0.0008394431788474321
1772376355420329200,6.6883291015625,0.05846424473263323,0.06322305663228035,-2.65367969481647,0.014785496518015862,-0.10021011531352997,-0.01933160424232483
1772376355430279200,6.698279052734375,-0.23031360723525285,0.2171943056821823,-3.0459155101060866,0.08939345180988312,-0.097176693379879,-0.000015034573152661324
1772376355440229400,6.7082294921875,-0.2967844501497224,0.4085422224462032,-3.131492437365651,0.15908916294574738,-0.018713578581809998,0.03844687342643738
1772376355450179300,6.718179443359375,-0.3307458295276388,0.5963070200264453,-2.7093302703678606,0.2073138803243637,0.13697494566440582,0.08171571046113968
1772376355460129300,6.72812939453125,-0.620920433083549,0.7494441563397646,-1.9372538648508488,0.22157138586044312,0.30595436692237854,0.12338405847549438
1772376355470079500,6.73807958984375,-1.2849249517425894,0.9518903902232646,-0.9302870457023381,0.16230474412441254,0.38732966780662537,0.12566709518432617
1772376355480029400,6.748029541015625,-2.053347657057643,1.067936105504632,-0.147917355838418,0.037017665803432465,0.3992781937122345,0.07612617313861847
1772376355489978400,6.757978271484375,-2.59791572201848,1.026898577195406,0.061691755411773914,-0.08375559747219086,0.4512339234352112,0.02847745083272457
1772376355499928600,6.767928466796875,-2.5534888435319063,0.9123276106417179,0.11550269444584846,-0.16707685589790344,0.577511727809906,0.018503380939364433
1772376355509878300,6.777878173828125,-1.9947966838896274,0.5029881003379821,0.04662117366045713,-0.22292882204055786,0.752609372138977,0.03544735908508301
1772376355519828200,6.787828125,-1.3152166296318173,-0.2426139936208725,-0.18281535847932098,-0.2714652121067047,0.9191690683364868,0.05526474118232727
1772376355529778400,6.7977783203125,-0.8883018612794578,-0.9347814345121384,-0.3961658482149243,-0.30145978927612305,1.0120240449905396,0.048402830958366394
1772376355539728400,6.807728271484375,-0.9563978577103466,-1.355697400841117,-0.4150783462166786,-0.32171177864074707,1.0226126909255981,-0.0016222521662712097
1772376355549678300,6.81767822265625,-1.2847735605731605,-1.4409604398459195,-0.37179201606735585,-0.29358163475990295,0.9927809834480286,-0.06493690609931946
1772376355559627300,6.827627197265625,-1.5809797359108924,-1.0836123980641363,-0.34445290437340736,-0.2607493996620178,0.9381768703460693,-0.11407622694969177
1772376355569577500,6.837577392578125,-1.7007073545753955,-0.46944180456697937,0.019732289952039718,-0.2753003239631653,0.9126967191696167,-0.12656991183757782
1772376355579527700,6.847527587890625,-1.5106471395343541,0.11206044503748416,0.5219133116908371,-0.3348968029022217,0.9191250801086426,-0.09585807472467422
1772376355589477600,6.8574775390625,-1.2373654743187128,0.5142705418527126,0.9008366409428417,-0.42417940497398376,0.9649112224578857,-0.05449824780225754
1772376355599427600,6.867427490234375,-1.162907103249058,0.6027905368268489,1.2211102128274738,-0.45628780126571655,0.9873129725456238,-0.041176311671733856
1772376355609377500,6.87737744140625,-1.3519374637857078,0.4743552955716848,1.0920049633562565,-0.41157761216163635,0.9520323872566223,-0.04137066379189491
1772376355619327500,6.887327392578125,-1.3514718921005726,0.2332020221531391,0.9633842825315893,-0.38056856393814087,0.9308046102523804,-0.040489159524440765
1772376355629276400,6.8972763671875,-1.0822114452250302,0.08529577223062515,0.9383845735706389,-0.37328019738197327,0.9677135944366455,-0.0476665198802948
1772376355639226400,6.907226318359375,-0.9137210377614945,0.20396131462156772,0.9795553728707134,-0.3847235441207886,0.9338874220848083,-0.043373771011829376
1772376355649176600,6.917176513671875,-0.7446646669782697,0.2701671864569187,1.064504377490282,-0.3885832130908966,0.8992350101470947,-0.04584550857543945
1772376355659126500,6.92712646484375,-0.481090960502252,0.17435352734327314,1.1086335882045328,-0.38826656341552734,0.9119300246238708,-0.06230811029672623
1772376355669076500,6.937076416015625,-0.1929134855803102,0.14020225141644477,1.130746635813266,-0.3970562815666199,0.9358000159263611,-0.07130572944879532
1772376355679026700,6.947026611328125,-0.0020209113683551548,0.3092822222709656,1.1157032343298197,-0.41928064823150635,0.9404743909835815,-0.043015770614147186
1772376355688976600,6.9569765625,0.06824344207756221,0.3580173193454742,0.9489731876023113,-0.44787487387657166,0.9567933678627014,-0.018196240067481995
1772376355698925600,6.966925537109375,0.005467983082309365,0.38704642995297905,0.7826458764567971,-0.4743219316005707,1.0102545022964478,-0.0005783638916909695
1772376355708875800,6.976875732421875,0.07088884201981127,0.33350656294524667,0.7976840172432362,-0.4799427092075348,1.0728617906570435,0.01173350028693676
1772376355718825500,6.986825439453125,0.034004780128225685,0.33051907156705856,0.7359832017421722,-0.4527193307876587,1.136309266090393,-0.0005428730510175228
1772376355728775400,6.996775390625,-0.30707521374598146,0.4947843356162309,0.5127309111952781,-0.43264415860176086,1.2355519533157349,-0.014416800811886787
1772376355738725400,7.006725341796875,-0.4491128638960421,0.3800689921557903,0.5755915642559528,-0.42909470200538635,1.3222942352294922,-0.034313544631004333
1772376355748675600,7.016675537109375,-0.619943039418757,0.13946400026977063,0.6881241568498313,-0.41456910967826843,1.3761541843414307,-0.07907157391309738
1772376355758625500,7.02662548828125,-0.8622781430330126,-0.041949382457137106,0.6368067881971597,-0.40089672803878784,1.4527949094772339,-0.1200656145811081
1772376355768575500,7.036575439453125,-0.9732965316716581,-0.1389718328386545,0.5947714079570025,-0.3909921646118164,1.569141149520874,-0.14467960596084595
1772376355778524700,7.046524658203125,-1.0012626892227678,-0.16613222696483135,0.7214689386993646,-0.37547123432159424,1.6613965034484863,-0.15073111653327942
1772376355788474600,7.056474609375,-0.8196984267830848,-0.17719079659581183,0.7432400410026312,-0.3407084047794342,1.7383058071136475,-0.11652332544326782
1772376355798424600,7.066424560546875,-0.36894795174784956,-0.2280821949213743,0.6925420463573188,-0.30105075240135193,1.7979278564453125,-0.07621638476848602
1772376355808374500,7.07637451171875,-0.029824717964604494,-0.3249327958673239,0.6990612189929932,-0.2712211608886719,1.811149001121521,-0.05133162438869476
1772376355818324500,7.086324462890625,0.20523959092907607,-0.3188777336120605,0.6868946150548756,-0.26188305020332336,1.7811607122421265,-0.07011649757623672
1772376355828274400,7.0962744140625,0.33267354618720707,-0.2481336338251829,0.7076438269644976,-0.2529723346233368,1.7139148712158203,-0.10070764273405075
1772376355838224600,7.106224609375,0.4852858549088239,-0.21128362033367157,0.6697177086740732,-0.23287902772426605,1.6184258460998535,-0.1228366494178772
1772376355848173600,7.116173583984375,0.8568329563044011,-0.19262334352731703,0.5541594115834683,-0.20398442447185516,1.5159387588500977,-0.13318687677383423
1772376355858123500,7.12612353515625,1.243724049565196,-0.14496201316416263,0.472327589136362,-0.18663498759269714,1.4296190738677979,-0.14133216440677643
1772376355868073500,7.136073486328125,1.4849739152260124,-0.12127777071595192,0.45949967174530026,-0.18140454590320587,1.3518662452697754,-0.13607588410377502
1772376355878023700,7.146023681640625,1.6018790238156915,-0.11887538574934005,0.46135783029999583,-0.1867993026971817,1.2565618753433228,-0.13443590700626373
1772376355887973600,7.1559736328125,1.506816036938876,-0.15762217277288437,0.3590407806416973,-0.17787031829357147,1.152274489402771,-0.14766886830329895
1772376355897923600,7.165923583984375,1.3812762248642743,-0.1612362716168165,0.278070506927371,-0.16804325580596924,1.0518271923065186,-0.16035057604312897
1772376355907873500,7.17587353515625,1.2512594135060906,-0.135073071834445,0.19776951077673582,-0.1678229570388794,0.979232132434845,-0.1610526442527771
1772376355917822700,7.18582275390625,1.0924205584198237,-0.14715163216292856,0.05760408423934132,-0.1821584850549698,0.9182193875312805,-0.15893304347991943
1772376355927772400,7.1957724609375,0.9271579538963735,-0.20051380451619624,-0.05812489324305206,-0.20615628361701965,0.8617956638336182,-0.1599777340888977
1772376355937722400,7.205722412109375,0.8458694445457309,-0.29097908833920955,-0.07792261311411858,-0.24339686334133148,0.8063798546791077,-0.1524319350719452
1772376355947672600,7.215672607421875,0.8693465470492839,-0.33911797308623787,-0.11983458617031574,-0.26067784428596497,0.809724748134613,-0.13353388011455536
1772376355957622500,7.22562255859375,0.8334083877056837,-0.2877969511717558,-0.3493582120716572,-0.274201899766922,0.7755404114723206,-0.11928251385688782
1772376355967572500,7.235572509765625,0.7252824325729161,-0.26669629547595974,-0.35198154631257056,-0.2828468084335327,0.7298110127449036,-0.11301049590110779
1772376355977521400,7.245521484375,0.7372066060572863,-0.3228390384584665,-0.3907008608072996,-0.28628841042518616,0.6752601861953735,-0.11052736639976501
1772376355987471600,7.2554716796875,0.8085288710583001,-0.28445991570353507,-0.5060498259961604,-0.27283596992492676,0.6195753216743469,-0.11904655396938324
1772376355997421600,7.265421630859375,0.8818583842284977,-0.18949965854883194,-0.5119266090750694,-0.2749183177947998,0.5613671541213989,-0.1317407637834549
1772376356007371500,7.27537158203125,0.8370959901772439,-0.2214648226082325,-0.5263678068816662,-0.28155001997947693,0.5206225514411926,-0.14658541977405548
1772376356017321500,7.285321533203125,0.6685887777093797,-0.2424994273304939,-0.6756628808140754,-0.2872965931892395,0.5050907135009766,-0.1584375500679016
1772376356027271400,7.295271484375,0.5262037023611367,-0.3194511495858431,-0.7772726589858532,-0.28955286741256714,0.5001175999641418,-0.16350094974040985
1772376356037221400,7.305221435546875,0.4385246882557869,-0.4370382490903139,-0.8496972592055797,-0.2955673336982727,0.48570671677589417,-0.17291469871997833
1772376356047170600,7.315170654296875,0.465318514091894,-0.48246670583486556,-0.8802993182182312,-0.2988851070404053,0.47852757573127747,-0.18698406219482422
1772376356057120500,7.32512060546875,0.538472451499477,-0.46857612764835355,-0.9435375724196433,-0.2959012985229492,0.47052982449531555,-0.1939178705215454
1772376356067070500,7.335070556640625,0.702632939999923,-0.48076750070154667,-0.9639444006323814,-0.3001875877380371,0.45074284076690674,-0.1910610795021057
1772376356077020700,7.345020751953125,0.9136479725252836,-0.44264732114374633,-0.9693231710612773,-0.29475685954093933,0.4073841869831085,-0.17993278801441193
1772376356086970600,7.354970703125,1.0461050897076725,-0.3767933314859867,-1.074178214764595,-0.2840724289417267,0.37160664796829224,-0.16742420196533203
1772376356096920600,7.364920654296875,1.112327401221171,-0.23864041381478307,-1.2657318832337856,-0.27834558486938477,0.34671488404273987,-0.15623706579208374
1772376356106870500,7.37487060546875,1.170851194121316,-0.01683481494486332,-1.4303285711944103,-0.26540032029151917,0.3503970801830292,-0.14577756822109222
1772376356116819700,7.38481982421875,1.1151483769260346,0.16905016023814678,-1.538755043643713,-0.24715954065322876,0.36757102608680725,-0.12879379093647003
1772376356126769700,7.394769775390625,1.0343463359180838,0.1575116981357336,-1.5405518639326095,-0.20969797670841217,0.3733934760093689,-0.11404284834861755
1772376356136719400,7.40471923828125,1.0676908255066722,0.033138884013891215,-1.3137410041213036,-0.16026252508163452,0.36413341760635376,-0.10270178318023682
1772376356146669600,7.414669677734375,0.9680195411168038,-0.10627893902659416,-1.1098492476046085,-0.12094807624816895,0.34288713335990906,-0.09568168967962265
1772376356156619500,7.42461962890625,0.7114984565660357,-0.20279986962676047,-1.096445064695552,-0.09610185027122498,0.3475782871246338,-0.09184620529413223
1772376356166569500,7.434569580078125,0.4186138268664479,-0.22732640811800955,-1.1423451575398444,-0.10220039635896683,0.3760243058204651,-0.0842832401394844
1772376356176519700,7.444519775390625,0.29669984060619026,-0.24100538938045502,-1.1276409248828887,-0.1013077050447464,0.4162020981311798,-0.07831589877605438
1772376356186468600,7.454468505859375,0.31208383568823334,-0.2524263625830412,-1.037101991301775,-0.09592630714178085,0.43935367465019226,-0.08181576430797577
1772376356196418600,7.46441845703125,0.40492728335205463,-0.24778408973515031,-0.9102958125531673,-0.07405722886323929,0.45725759863853455,-0.09980808198451996
1772376356206368500,7.474368408203125,0.5178665205180645,-0.17032091082632542,-0.7755027267038822,-0.03624501824378967,0.450890451669693,-0.11960980296134949
1772376356216318700,7.484318603515625,0.6056395695824176,-0.16154723726212977,-0.8456710724294185,0.013249565847218037,0.45126593112945557,-0.1475628763437271
1772376356226268400,7.494268310546875,0.7932771605864167,-0.15907763227820396,-0.8340987080574035,0.05849170684814453,0.46136999130249023,-0.16297633945941925
1772376356236218400,7.50421826171875,0.9463617629949003,-0.06668225717544556,-0.6237666893601417,0.09364516288042068,0.48134100437164307,-0.15094123780727386
1772376356246168600,7.51416845703125,0.8659887610539794,0.1460141525655985,-0.40103813042640685,0.12237352877855301,0.540458083152771,-0.12232063710689545
1772376356256117500,7.524117431640625,0.7077018407620489,0.40561610586643215,-0.20571433230135588,0.14936228096485138,0.6136982440948486,-0.08283847570419312
1772376356266067500,7.5340673828125,0.6348129109662026,0.7771405570387839,0.12708788176681846,0.19213229417800903,0.6720126271247864,-0.01706879399716854
1772376356276017400,7.544017333984375,0.5210602750580757,1.467217163130641,0.5347931053996086,0.274290531873703,0.6782113909721375,0.0642031580209732
1772376356285967600,7.553967529296875,0.2924132858607918,2.254575747323036,0.7179892798900603,0.3914405405521393,0.6276212334632874,0.1261177361011505
1772376356295917600,7.56391748046875,-0.10769158230349421,2.7920775271594525,0.40466209307722745,0.5258529782295227,0.5870687365531921,0.138687863945961
1772376356305867500,7.573867431640625,-0.4044357735080644,2.9744167925596234,0.043939661225210876,0.6801653504371643,0.6113998889923096,0.1137123852968216
1772376356315817500,7.5838173828125,-0.5378169102001935,2.7487229540795086,-0.058356327378749843,0.8470097184181213,0.7325587868690491,0.08125138282775879
1772376356325766700,7.5937666015625,-0.6301767025329172,2.1721347800016404,0.05735328781604766,0.9864534735679626,0.8730355501174927,0.09026247262954712
1772376356335716600,7.603716552734375,-0.6886257496964187,1.1657786400973795,0.3964204074978828,1.0962764024734497,1.0035362243652344,0.11754309386014938
1772376356345666600,7.61366650390625,-0.8204701418079435,0.21843583017587662,0.7000380281358957,1.1868103742599487,1.1079237461090088,0.1567578762769699
1772376356355616500,7.623616455078125,-0.6622933308269828,-0.4675882856547832,0.7856605481028557,1.2688932418823242,1.2146919965744019,0.215779647231102
1772376356365566500,7.63356640625,-0.4998156077817082,-1.1673521730244159,0.6905418855160474,1.3269978761672974,1.271564245223999,0.2710251808166504
