time,seconds_elapsed,accel_x,accel_y,accel_z,gyro_x,gyro_y,gyro_z
1772376398990898200,0.071898193359375,-1.3534085592515765,-0.6837213918462395,-0.26074936977028845,-0.08956684917211533,-0.0695493221282959,-1.0785399675369263
1772376399000848400,0.081848388671875,-1.2325634808644652,-0.7478124634847044,-0.42822132090628146,-0.09555336833000183,0.046422556042671204,-1.045027256011963
1772376399010798300,0.09179833984375,-1.1128193494565783,-0.7173042202353477,-0.4484709127306938,-0.08608392626047134,0.11287540197372437,-1.0074959993362427
1772376399020747300,0.101747314453125,-0.9780251676287501,-0.5901867835804819,-0.4514718481123447,-0.06504228711128235,0.16101203858852386,-0.9742512106895447
1772376399030697200,0.111697265625,-0.9829331787407397,-0.3502726965680718,-0.5256383235633373,-0.00016888638492673635,0.17118960618972778,-0.9448031783103943
1772376399040647200,0.121647216796875,-1.0549228216093034,0.028908406837284562,-0.6586316665142774,0.12262654304504395,0.13836294412612915,-0.9278417825698853
1772376399050596400,0.131596435546875,-1.1621128110662102,0.45674511234015225,-0.7510428237080573,0.28998586535453796,0.04268025979399681,-0.9303401708602905
1772376399060546000,0.141546142578125,-1.1608782277699559,0.4743193474754691,-0.7633809117555618,0.45184481143951416,-0.09522780776023865,-0.9541552066802979
1772376399070496300,0.151496337890625,-1.1398000031016766,0.052669513913989066,-0.6448848807126283,0.560340940952301,-0.27479806542396545,-0.9899044632911682
1772376399080445200,0.161445068359375,-0.8267908692620695,-0.49561669478714465,-0.6576105067729949,0.6266259551048279,-0.29985761642456055,-1.0015523433685303
1772376399090395100,0.17139501953125,-0.24197313843406734,-0.6924526875734329,-0.7909118927597999,0.6677547097206116,-0.22607530653476715,-1.007348895072937
1772376399100344000,0.181343994140625,-0.269093273615092,-0.6146420104011893,-0.601568886077404,0.6623356938362122,-0.1406397670507431,-0.9716156721115112
1772376399110294000,0.1912939453125,-0.3064665803283453,-0.5305778257921338,-0.4315121791452169,0.6240867972373962,-0.07111992686986923,-0.8964676856994629
1772376399120244200,0.201244140625,-0.2355716008286923,-0.41560178556889293,-0.22357260854244232,0.5551972389221191,0.005484571680426598,-0.8209226131439209
1772376399130193200,0.211193115234375,-0.24321722021102904,-0.30236586701124907,-0.14511515789926052,0.4947723150253296,0.09895703941583633,-0.7517000436782837
1772376399140143000,0.22114306640625,-0.38707594830840825,-0.1467509424075484,-0.058306058496236796,0.4342016279697418,0.1056642159819603,-0.7018831968307495
1772376399150093300,0.23109326171875,-0.40642259994372726,-0.10042436777949333,-0.007426935130357742,0.422252357006073,-0.030462998896837234,-0.6221145987510681
1772376399160042200,0.241042236328125,-0.060264060696214435,-0.24043957219123838,-0.18030571374595164,0.406485915184021,-0.1544927954673767,-0.5789541006088257
1772376399169992200,0.2509921875,0.07539207172319293,-0.3368307389318943,-0.2838181106686592,0.3936089873313904,-0.28079521656036377,-0.5910106301307678
1772376399179942100,0.260942138671875,0.08939502424299717,-0.425400418266654,-0.6245213071197271,0.4136578142642975,-0.4488960802555084,-0.6349408030509949
1772376399189891000,0.27089111328125,-0.17388021074309945,-0.3250324568495154,-1.0966162565439939,0.45193713903427124,-0.5514316558837891,-0.728943943977356
1772376399199841300,0.28084130859375,-0.6406801224991678,0.009063888682425022,-1.6247575028389691,0.4900704026222229,-0.5666124820709229,-0.8454160094261169
1772376399209791200,0.290791259765625,-1.0095897149980069,0.4456961873203516,-2.0745178708583114,0.5381482243537903,-0.46058690547943115,-0.9227180480957031
1772376399219740200,0.300740234375,-1.1324581159062683,0.8449301909342408,-2.4037083241701125,0.5729399919509888,-0.28581804037094116,-0.9571253061294556
1772376399229690400,0.3106904296875,-1.1541363522943109,1.2121481770843268,-2.4653765525758264,0.5953460335731506,-0.11160144954919815,-0.9445273280143738
1772376399239639300,0.320639404296875,-0.9847280993334948,1.4751277901247142,-2.247460946881771,0.5981412529945374,-0.01960228756070137,-0.8972541093826294
1772376399249589200,0.33058935546875,-0.9284466785326599,1.8195903391093016,-1.9347043264985084,0.6002923846244812,0.008935737423598766,-0.8179873824119568
1772376399259539200,0.340539306640625,-0.6425812799453735,1.7877876721352337,-1.6632564525812863,0.6132766008377075,-0.0022452780976891518,-0.693709671497345
1772376399269488000,0.350488037109375,-0.3978236984245479,1.5185729640975594,-1.5062825145840644,0.6493721604347229,-0.0261005200445652,-0.5893943309783936
1772376399279438300,0.360438232421875,-0.5591404879316687,1.3947738582104443,-1.3622972374975681,0.7023975849151611,-0.06265373528003693,-0.5429556965827942
1772376399289388300,0.37038818359375,-0.9297589301750063,1.3585083666086195,-1.1722481283724306,0.7523646354675293,-0.1006995290517807,-0.5602752566337585
1772376399299337200,0.380337158203125,-1.1693468539729714,1.3108908753871917,-0.8995616525709629,0.7899210453033447,-0.13055463135242462,-0.6105616092681885
1772376399309287400,0.390287353515625,-1.2543120790749787,1.2347875866547227,-0.5808534303069114,0.8189107775688171,-0.17732669413089752,-0.6660643815994263
1772376399319237000,0.400237060546875,-1.2591034050047396,1.1991177228584884,-0.17764263201653957,0.8021203279495239,-0.2590758800506592,-0.7318156957626343
1772376399329186300,0.410186279296875,-1.2220530466355384,1.1699503728240728,0.304365224134922,0.7480655908584595,-0.3716028928756714,-0.7997662425041199
1772376399339136000,0.420135986328125,-1.1704700127840042,1.1745043828666208,0.7457219209462403,0.6466178297996521,-0.4823927879333496,-0.8667996525764465
1772376399349086200,0.430086181640625,-1.1357239858344197,1.224796061733365,1.088676695716381,0.5057550668716431,-0.5822637677192688,-0.9379188418388367
1772376399359035100,0.44003515625,-1.3485359847791492,1.2926017699807881,1.3404764508336782,0.339401513338089,-0.7068698406219482,-1.065487265586853
1772376399368985000,0.449985107421875,-1.7271739212185144,1.589281700310111,1.2706851217269897,0.19998601078987122,-0.7796196341514587,-1.1836577653884888
1772376399378934300,0.459934326171875,-1.4374236440218984,1.509968217359483,1.089594395083189,0.06646150350570679,-0.8391711115837097,-1.234574556350708
1772376399388884200,0.46988427734375,-1.0192040771700441,1.2416364296361804,0.9119809891611337,-0.046983782202005386,-0.9764779210090637,-1.2197664976119995
1772376399398834200,0.479834228515625,-0.6647871204040944,1.222348960842192,0.8086883724689483,-0.15587006509304047,-1.136164903640747,-1.1728700399398804
1772376399408783000,0.489783203125,-0.5290621605321765,1.2861392959684133,0.6546224308729172,-0.23964643478393555,-1.3165775537490845,-1.1266242265701294
1772376399418733000,0.499733154296875,-0.6614608985908329,1.3631041699662805,0.3608341303318739,-0.29790252447128296,-1.4443786144256592,-1.1121721267700195
1772376399428683300,0.509683349609375,-0.8918705866117029,1.497409764559567,-0.008071078252792357,-0.31211790442466736,-1.5037195682525635,-1.1226961612701416
1772376399438632200,0.519632080078125,-1.1796847081139683,1.5923431337073444,-0.5152502005398273,-0.2782883048057556,-1.4552662372589111,-1.1459341049194336
1772376399448582100,0.52958203125,-1.4192441364698112,1.6577938032612203,-0.9172282421648502,-0.22378705441951752,-1.3325059413909912,-1.1703643798828125
1772376399458532000,0.539531982421875,-1.6486935280911623,1.6486539267331362,-1.1155039123654364,-0.15615183115005493,-1.2056915760040283,-1.1817216873168945
1772376399468481300,0.549481201171875,-1.8252974647097289,1.6101543924689292,-1.208967793482542,-0.08772564679384232,-1.089247703552246,-1.1782636642456055
1772376399478431200,0.55943115234375,-1.8378141241945325,1.5616931438997388,-1.2389239558070897,-0.017422985285520554,-0.9801138043403625,-1.1950572729110718
1772376399488380200,0.569380126953125,-1.9643726117923854,1.5748264739781617,-1.0988660812973976,0.05249655619263649,-0.8737733960151672,-1.2343969345092773
1772376399498330000,0.579330078125,-1.990657392127812,1.49857880833894,-0.9119266286253929,0.11577645689249039,-0.7881416082382202,-1.276940941810608
1772376399508280300,0.5892802734375,-1.8918565338969229,1.4267504204466939,-0.6852659909397363,0.1551533341407776,-0.7255183458328247,-1.3133716583251953
1772376399518229200,0.599229248046875,-1.776583410423249,1.3037538631141186,-0.42140228854119777,0.16760094463825226,-0.704282820224762,-1.350480318069458
1772376399528179200,0.60917919921875,-1.6915224698618054,1.2768567960992454,-0.10295242495238781,0.16005823016166687,-0.7190770506858826,-1.3779815435409546
1772376399538129200,0.619129150390625,-1.726514288266003,1.2723679602473974,0.1324503221154213,0.13938544690608978,-0.762974202632904,-1.400366187095642
1772376399548078300,0.629078369140625,-1.6817818509615956,1.2957348073095083,0.30798925985097886,0.11850227415561676,-0.833101749420166,-1.4214447736740112
1772376399558028300,0.6390283203125,-1.6453924407191574,1.262467328479886,0.3126297791332006,0.10757186263799667,-0.9061375856399536,-1.4463095664978027
1772376399567978200,0.648978271484375,-1.6886887077406048,1.2093243518352508,0.3009960399627685,0.09738679975271225,-0.9663142561912537,-1.4946024417877197
1772376399577927200,0.65892724609375,-1.7467416682586072,1.172129762689769,0.25689386338591574,0.08163739740848541,-1.0038166046142578,-1.566041111946106
1772376399587877400,0.66887744140625,-1.8215023102104664,1.114423131391406,0.19430501300394534,0.05172223597764969,-1.0123687982559204,-1.6539605855941772
1772376399597827000,0.6788271484375,-1.9173481180280445,1.1086913097411393,0.20019699365198612,0.013169785030186176,-0.9961602091789246,-1.7534432411193848
1772376399607776300,0.6887763671875,-1.9210639236807823,1.1683911606833337,0.14677695363163948,-0.034959740936756134,-0.9786153435707092,-1.8334921598434448
1772376399617726200,0.698726318359375,-1.6798597968578337,1.2248808174073695,0.08402794425189494,-0.0770866870880127,-0.9888906478881836,-1.873305320739746
1772376399627675100,0.708675048828125,-1.3251923724621533,1.3122341066896914,0.0010971475869417189,-0.10392216593027115,-0.9955442547798157,-1.8780614137649536
1772376399637625000,0.718625,-1.121402030493319,1.432553846028447,-0.07391630008220672,-0.12148278206586838,-0.9768747091293335,-1.864137053489685
1772376399647575000,0.728574951171875,-1.004695440150425,1.4996563744425773,-0.11733750865757464,-0.13576513528823853,-0.9686780571937561,-1.8408534526824951
1772376399657524200,0.738524169921875,-0.8808700307782739,1.5223486832439899,-0.1629787313699722,-0.14422573149204254,-0.9722685217857361,-1.8085111379623413
1772376399667474000,0.748473876953125,-0.777253515893966,1.456526842290163,-0.24882103156745433,-0.14136870205402374,-0.9601196050643921,-1.777948021888733
1772376399677424000,0.758424072265625,-0.715578054029867,1.3549039123758673,-0.3337672597080469,-0.1302822381258011,-0.953105628490448,-1.766964077949524
1772376399687373000,0.768373046875,-0.7151134321928024,1.2953960768744348,-0.40144028148651123,-0.1194826140999794,-0.9544884562492371,-1.7763739824295044
1772376399697323000,0.778322998046875,-0.7845103551544249,1.268250588056445,-0.4572153602004051,-0.11645913124084473,-0.9576176404953003,-1.7909902334213257
1772376399707273000,0.78827294921875,-0.7360732181131839,1.226187516091764,-0.4601093280762434,-0.12857161462306976,-0.9859524965286255,-1.808336615562439
1772376399717222000,0.798221923828125,-0.6849683962326496,1.148213465051353,-0.41973640115559097,-0.15742243826389313,-1.0377330780029297,-1.8205864429473877
1772376399727172000,0.808172119140625,-0.599597586004436,1.0899892396196722,-0.444925202947855,-0.19070540368556976,-1.0982555150985718,-1.8299179077148438
1772376399737121000,0.81812109375,-0.6179533269062638,1.0453343975961207,-0.5249216997265815,-0.22992630302906036,-1.1455069780349731,-1.8507962226867676
1772376399747071000,0.828071044921875,-0.6370700422432273,1.0446554754212498,-0.6874363207161426,-0.2682022750377655,-1.2040728330612183,-1.8765360116958618
1772376399757021200,0.838021240234375,-0.665880760859698,1.0465122092038392,-0.938226606529951,-0.284012109041214,-1.2663415670394897,-1.904044270515442
1772376399766970000,0.84797021484375,-0.7273774320907891,1.026117071428895,-1.2776128751635552,-0.2716399133205414,-1.3094918727874756,-1.9352227449417114
1772376399776920000,0.857920166015625,-0.7802629268430173,1.05099636888057,-1.6540841350883244,-0.22690199315547943,-1.3304845094680786,-1.9694088697433472
1772376399786870000,0.8678701171875,-0.8445248250037432,1.1347104248777031,-2.0239637416630982,-0.1611284762620926,-1.299804925918579,-2.0024774074554443
1772376399796819000,0.87781884765625,-0.9135539375662803,1.2110399235814808,-2.267578436759114,-0.09113632887601852,-1.2446374893188477,-2.0227890014648438
1772376399806769200,0.88776904296875,-0.9729672266520559,1.3457421162769199,-2.343613044169545,-0.021390192210674286,-1.1974080801010132,-2.026742696762085
1772376399816719000,0.897718994140625,-0.9657909052819013,1.4492413614571094,-2.3839245962917803,0.058533135801553726,-1.1601132154464722,-2.0139598846435547
1772376399826668000,0.90766796875,-0.9476150509916246,1.5167220755338668,-2.369318563312292,0.1621282398700714,-1.1385055780410767,-1.996408224105835
1772376399836618200,0.9176181640625,-0.9677125940594822,1.5874357801824808,-2.302754379558563,0.2891719341278076,-1.150515079498291,-1.9760630130767822
1772376399846568200,0.927568115234375,-1.0192142332378775,1.6495231107831,-2.1947668830484153,0.4275451600551605,-1.163704752922058,-1.9685007333755493
1772376399856517000,0.93751708984375,-1.0536495137378572,1.6489762905552983,-2.001011320620775,0.5625141859054565,-1.1578023433685303,-1.9637398719787598
1772376399866467000,0.947467041015625,-1.0835783496640623,1.6045865292087196,-1.6793161915004253,0.6598950028419495,-1.109758973121643,-1.9640259742736816
1772376399876416000,0.957416015625,-1.1423469841707496,1.5085729636088012,-1.1490233201295137,0.696323812007904,-1.0509079694747925,-1.9822523593902588
1772376399886366200,0.9673662109375,-1.1724574602741746,1.417075998650491,-0.44670799471139905,0.6562774181365967,-1.0214225053787231,-2.004230260848999
1772376399896316200,0.977316162109375,-1.2021727265149353,1.3395116974547505,0.28767595514059063,0.5502899885177612,-1.0536116361618042,-2.0427167415618896
1772376399906265000,0.98726513671875,-1.3115839722178875,1.2965084220305085,0.8717273047059774,0.40506109595298767,-1.109156847000122,-2.1050868034362793
1772376399916215300,0.99721533203125,-1.4071693755336105,1.2886474793970584,1.188504851168394,0.23924976587295532,-1.213161587715149,-2.201744794845581
1772376399926165000,1.0071650390625,-1.8278309287101029,1.3621931926012039,1.3316121763765811,0.05228971317410469,-1.423759937286377,-2.329784393310547
1772376399936114200,1.0171142578125,-2.378081715482473,1.5407555698111652,1.2902823871225118,-0.16030670702457428,-1.663062334060669,-2.4916279315948486
1772376399946064000,1.02706396484375,-2.7070515117809175,1.7673069019034504,0.9081582160025834,-0.3746294379234314,-1.8451282978057861,-2.664951801300049
1772376399956014000,1.03701416015625,-2.961144346271455,1.9550319519951938,0.1943283938795328,-0.5555347204208374,-1.9460625648498535,-2.83059024810791
1772376399965963000,1.046962890625,-3.1098814940601587,2.1981565254867075,-0.6721732851326465,-0.6654109358787537,-1.9424351453781128,-2.973003387451172
1772376399975913000,1.056912841796875,-3.0208754691347477,2.5586361432924867,-1.5683622464001177,-0.6963123679161072,-1.8109040260314941,-3.0702271461486816
1772376399985862100,1.066862060546875,-2.6513106275975704,2.9438924749583,-2.2615765659958122,-0.637714147567749,-1.544345498085022,-3.0913267135620117
1772376399995812000,1.07681201171875,-2.001371678365767,3.1722374124690886,-2.642352245116234,-0.5340244770050049,-1.2022120952606201,-3.0253186225891113
1772376400005762000,1.086761962890625,-1.224810967041552,3.2536852770999074,-2.6173709485948082,-0.40527379512786865,-0.9015151858329773,-2.8734607696533203
1772376400015711000,1.0967109375,-0.5028254205895587,3.246624544933438,-2.281034715181589,-0.2813957929611206,-0.660785436630249,-2.657508134841919
1772376400025661000,1.106660888671875,0.04223363362546079,3.1890541072353717,-1.689333727645874,-0.1815134435892105,-0.5102871060371399,-2.412745475769043
1772376400035611100,1.116611083984375,0.3605131182165816,2.9649972223073244,-0.9591635960966348,-0.10510814189910889,-0.4807729125022888,-2.17234206199646
1772376400045560000,1.12656005859375,0.5170072368076071,2.538269939351082,-0.25191665949523445,-0.055517908185720444,-0.5584924817085266,-1.9669326543807983
1772376400055510000,1.136510009765625,0.4215439255015924,1.961620974996686,0.30612171241343017,-0.015734808519482613,-0.6825742125511169,-1.8224862813949585
1772376400065460000,1.1464599609375,0.07119347838903776,1.3800515053749083,0.7287947515428066,0.01417683158069849,-0.8298030495643616,-1.757454514503479
1772376400075409200,1.1564091796875,-0.43515367745272815,0.9046712506696581,1.037773022431135,0.026524845510721207,-1.006335735321045,-1.7700724601745605
1772376400085359000,1.166359130859375,-0.8727897463057189,0.4836640989258885,1.1937556113034486,0.009397188201546669,-1.1973319053649902,-1.8255997896194458
1772376400095309000,1.17630908203125,-1.114816514623165,0.14485679922401903,1.284604926007986,-0.05085097253322601,-1.3586333990097046,-1.9064549207687378
1772376400105258000,1.186258056640625,-1.2576824322909117,-0.046585225564241405,1.2911743675261735,-0.13927936553955078,-1.4762204885482788,-2.0052075386047363
1772376400115208200,1.196208251953125,-1.3777369448222219,-0.0994298037841916,1.2002449733227492,-0.25485071539878845,-1.5271031856536865,-2.1017560958862305
1772376400125157000,1.2061572265625,-1.4415131052926182,-0.03134410955160856,0.9768629189163446,-0.3831811845302582,-1.5175261497497559,-2.188535451889038
1772376400135107000,1.216107177734375,-1.4520450207009912,0.11414864948838949,0.6779711577564478,-0.5074018836021423,-1.4462701082229614,-2.247623920440674
1772376400145057300,1.226057373046875,-1.412489401512593,0.24324761534929273,0.2972942628353834,-0.6174237728118896,-1.3189765214920044,-2.2860665321350098
1772376400155006200,1.236006103515625,-1.248572950901091,0.3382546342551708,-0.1337479607105255,-0.6863165497779846,-1.1719671487808228,-2.3086678981781006
1772376400164956200,1.2459560546875,-1.0706780246239156,0.4091051170259714,-0.5513017571300268,-0.700007975101471,-1.0219178199768066,-2.3211021423339844
1772376400174906000,1.255906005859375,-0.8871990876693278,0.4649196509674191,-0.9088765934050083,-0.6579881310462952,-0.8858822584152222,-2.320676803588867
1772376400184855000,1.26585498046875,-0.6590117518730462,0.548533753721416,-1.106739591151476,-0.578146755695343,-0.7812345623970032,-2.3051962852478027
1772376400194805200,1.27580517578125,-0.44579351021498437,0.6134671214029193,-1.1048229438751935,-0.4774097502231598,-0.723346471786499,-2.276343822479248
1772376400204755000,1.2857548828125,-0.2347663123277947,0.6354688175916672,-0.9698615157216787,-0.37041935324668884,-0.706946849822998,-2.239684581756592
1772376400214704000,1.2957041015625,-0.09931830623373389,0.6464294798061251,-0.7473802095472812,-0.2905884385108948,-0.7205564379692078,-2.208246946334839
1772376400224654000,1.305654052734375,-0.008690452260151506,0.6056909344434738,-0.4360819712787866,-0.231315478682518,-0.7486371397972107,-2.183549165725708
1772376400234603300,1.315603271484375,0.08535656250715255,0.5698091814622283,-0.19412965643703936,-0.19295184314250946,-0.7748583555221558,-2.1645588874816895
1772376400244553200,1.32555322265625,0.16016250490546224,0.5603738291189074,-0.02871346878707409,-0.1782224029302597,-0.778145432472229,-2.1458938121795654
1772376400254503000,1.3355029296875,0.21485552400369196,0.604537965016067,0.13449673325121403,-0.19102315604686737,-0.7527614831924438,-2.1272940635681152
1772376400264452000,1.3454521484375,0.3026231114416383,0.6775666686087847,0.28501462697684765,-0.22080108523368835,-0.7129982113838196,-2.0967118740081787
1772376400274402000,1.355402099609375,0.4506150851525366,0.6965259283617139,0.4232476241469383,-0.26559361815452576,-0.6462873816490173,-2.0563089847564697
1772376400284352000,1.36535205078125,0.5896956390626729,0.7032792020142078,0.5012766202449799,-0.3028988838195801,-0.5844236016273499,-2.008389711380005
1772376400294301000,1.375301025390625,0.6986950160291046,0.6793202342778444,0.5681891790449619,-0.33937618136405945,-0.5263975858688354,-1.9559417963027954
1772376400304251100,1.385251220703125,0.7968892866689712,0.6366705945968627,0.6201748023480177,-0.3614271581172943,-0.4913337528705597,-1.9050757884979248
1772376400314201000,1.395201171875,0.8506935767665504,0.5373316839665174,0.6228565887778997,-0.3776194453239441,-0.46728676557540894,-1.8608886003494263
1772376400324150000,1.40514990234375,0.8693412132870405,0.42408319818824525,0.6146499014467001,-0.3795144557952881,-0.45257568359375,-1.8261456489562988
1772376400334100000,1.415099853515625,0.9176973209813236,0.3176014300659299,0.6003209318429231,-0.38155362010002136,-0.4591805934906006,-1.7882333993911743
1772376400344049000,1.425048828125,0.8956402413435279,0.1947469115525484,0.5517898329079151,-0.37700557708740234,-0.47761210799217224,-1.747922658920288
1772376400353999000,1.4349990234375,0.8843357341274618,0.05375146393179893,0.4486456847757101,-0.36071503162384033,-0.4833674430847168,-1.6930460929870605
1772376400363949000,1.444948974609375,0.8320845186907797,-0.04315466659367084,0.3045926031500101,-0.3312153220176697,-0.4832531213760376,-1.6495898962020874
1772376400373898000,1.45489794921875,0.7180236205510795,-0.10293342799097299,0.18589841918647287,-0.3078892230987549,-0.4693625867366791,-1.610446810722351
1772376400383848200,1.46484814453125,0.661068246011436,-0.16209698009938,0.15304419733285904,-0.29604655504226685,-0.46442916989326477,-1.577141284942627
1772376400393798100,1.474798095703125,0.6902507936149835,-0.23602175574898718,0.10622282492518424,-0.29691022634506226,-0.44830480217933655,-1.5436272621154785
1772376400403747000,1.4847470703125,0.7375838418718427,-0.3069596245422959,0.058577276653051374,-0.2923930585384369,-0.42925629019737244,-1.4979966878890991
1772376400413697000,1.494697021484375,0.7614256860345602,-0.37258272805362935,-0.01499649360179901,-0.2908287048339844,-0.3913957178592682,-1.4495433568954468
1772376400423647200,1.504647216796875,0.7639851612590253,-0.40742870824635025,-0.09068857118487357,-0.28226491808891296,-0.3423210382461548,-1.4003512859344482
1772376400433596200,1.51459619140625,0.7249966013688594,-0.45908436894267796,-0.17126374463438987,-0.259175568819046,-0.28288137912750244,-1.3503855466842651
1772376400443546000,1.524546142578125,0.759119162657857,-0.5174325130149722,-0.190254860830307,-0.23468178510665894,-0.24064135551452637,-1.2915548086166382
1772376400453495000,1.5344951171875,0.7885664256121963,-0.5983972703039646,-0.14297405421733855,-0.21357330679893494,-0.21839144825935364,-1.237576961517334
1772376400463445200,1.5444453125,0.8248052484028041,-0.6885168094292282,-0.06747369981408119,-0.19173139333724976,-0.1980292648077011,-1.183095932006836
1772376400473395200,1.554395263671875,0.8140371861509978,-0.8013774649336933,-0.03572539337575435,-0.16198281943798065,-0.17313216626644135,-1.128401279449463
1772376400483344100,1.56434423828125,0.781087321903184,-0.8621580968499183,-0.022208909198641776,-0.1312287449836731,-0.1439928263425827,-1.0810174942016602
1772376400493294000,1.574294189453125,0.675436086320877,-0.922985782778263,0.0230313314974308,-0.09858158230781555,-0.1168496161699295,-1.0414996147155762
1772376400503244300,1.584244384765625,0.5815469655290245,-1.0192056846052409,0.055330257555842394,-0.05962349474430084,-0.07155365496873856,-0.9969019293785095
1772376400513193200,1.594193115234375,0.5015479479996487,-1.120978544384241,0.0657084437072277,-0.010832519270479679,-0.02120312862098217,-0.9625620245933533
1772376400523143200,1.60414306640625,0.42068325355164704,-1.2577087357759476,0.181362529322505,0.02929629571735859,0.010166768915951252,-0.9360950589179993
1772376400533092900,1.6140927734375,0.35238121315464377,-1.367386961852014,0.3729810797214508,0.041411012411117554,0.019469458609819412,-0.9205211400985718
1772376400543042300,1.624042236328125,0.2497544399600476,-1.4469634796530007,0.5984527998834848,0.04328488931059837,-0.02990889735519886,-0.9349378347396851
1772376400552992000,1.633991943359375,0.0860724556915462,-1.485083659210801,0.7297773328393697,0.025912025943398476,-0.021591845899820328,-0.9445624947547913
1772376400562941200,1.643941162109375,0.29542004819503054,-1.5177558024957776,0.9399620520204305,-0.02399606443941593,-0.08150573074817657,-0.9330844283103943
1772376400572891000,1.653890869140625,0.2022984594432637,-1.522682152982056,1.0588836149990557,-0.0890728086233139,-0.16817858815193176,-0.9471789002418518
1772376400582841000,1.663841064453125,-0.020894356001354752,-1.3577031877055763,0.9609656770825385,-0.12913890182971954,-0.20132111012935638,-0.9809433221817017
1772376400592790000,1.6737900390625,-0.06765906631834805,-1.307740010140836,0.7664426374137401,-0.14871101081371307,-0.19706431031227112,-1.0045431852340698
1772376400602740000,1.683739990234375,-0.09300150603605434,-1.3500970966160297,0.6147276428580284,-0.15740132331848145,-0.21057042479515076,-1.04256272315979
1772376400612690000,1.69368994140625,-0.10128500319682061,-1.2837760739684103,0.47002691097855565,-0.15005072951316833,-0.19825702905654907,-1.061069369316101
1772376400622639000,1.70363916015625,0.1812665033358149,-1.2144888949915766,0.37819735306501384,-0.14659656584262848,-0.1759767085313797,-1.0484131574630737
1772376400632589000,1.713589111328125,0.3445701740775257,-1.145837383569777,0.4267243603467941,-0.1611776351928711,-0.1829185038805008,-1.0178701877593994
1772376400642539000,1.7235390625,0.4091585277136415,-0.9630345923110842,0.46210663937330243,-0.19142542779445648,-0.20095166563987732,-0.9980106353759766
1772376400652488200,1.73348828125,0.40429698609188197,-0.7435477917775511,0.46564299680590626,-0.22686544060707092,-0.2356225550174713,-0.9874498248100281
1772376400662438100,1.743438232421875,0.4853444897608831,-0.647768911716342,0.3734901982873678,-0.2737259566783905,-0.2602078318595886,-0.9703835844993591
1772376400672387000,1.753386962890625,0.6172548232480883,-0.6046005088582634,0.21490940961539745,-0.336899071931839,-0.28742560744285583,-0.9528541564941406
1772376400682337000,1.7633369140625,0.6297676833406091,-0.5437956192836165,-0.04752864389419555,-0.3923068940639496,-0.2893912196159363,-0.9366568326950073
1772376400692287200,1.773287353515625,0.6732235248379409,-0.4067351730242371,-0.38001463162004945,-0.42725956439971924,-0.24881772696971893,-0.916567325592041
1772376400702236200,1.783236083984375,0.7225170595128089,-0.28991438171714545,-0.7149509351074695,-0.4467606544494629,-0.17391343414783478,-0.8911622762680054
1772376400712186000,1.79318603515625,0.7875871322512626,-0.22282851217687127,-0.9804092132210731,-0.4401480257511139,-0.07971635460853577,-0.8495151996612549
1772376400722136000,1.803135986328125,0.9535636571977287,-0.1471525089457631,-1.138942071098089,-0.4155381917953491,-0.002379640005528927,-0.8002263903617859
1772376400732085200,1.813085205078125,1.144426201597601,-0.10405600228011608,-1.1348708761364221,-0.3901079297065735,0.029417438432574272,-0.7374770045280457
1772376400742035200,1.82303515625,1.3453836582280694,-0.08613090788051486,-1.06178518165946,-0.3692895174026489,0.02328852191567421,-0.6732799410820007
1772376400751985200,1.832985107421875,1.4296104860529302,-0.0743704735904932,-0.9610106852680445,-0.36816540360450745,-0.031437043100595474,-0.6134410500526428
1772376400761934000,1.84293408203125,1.4957156739927828,-0.043218671740591526,-0.910777458590269,-0.3638535737991333,-0.10085044801235199,-0.5546677112579346
1772376400771884300,1.85288427734375,1.494423442225158,-0.016173866818100215,-1.0163847819656133,-0.3464791178703308,-0.14282213151454926,-0.5063020586967468
1772376400781833200,1.862833251953125,1.4061954159349201,0.07342778591290115,-1.2051987963378428,-0.30763334035873413,-0.15983396768569946,-0.467991441488266
1772376400791783200,1.872783203125,1.3215053545124829,0.17607830530926585,-1.4307283841669558,-0.24408979713916779,-0.12564216554164886,-0.43298470973968506
1772376400801733000,1.882733154296875,1.3810392012380062,0.2413948270894587,-1.5719991415977477,-0.16782791912555695,-0.04991668090224266,-0.373045414686203
1772376400811682300,1.892682373046875,1.5479972115024923,0.3079180943109095,-1.5414859299123287,-0.09411109238862991,0.03238591551780701,-0.2968427836894989
1772376400821632300,1.90263232421875,1.794940320368856,0.37702918606847524,-1.3745985006660222,-0.031170886009931564,0.07461941987276077,-0.20419292151927948
1772376400831582000,1.91258203125,1.9951463741101323,0.43248789230957624,-1.1075304492682219,0.020374596118927002,0.07206012308597565,-0.10134829580783844
1772376400841531100,1.92253125,2.1581804889291525,0.4537850934907794,-0.885331467166543,0.05719423294067383,0.036613091826438904,-0.005087823141366243
1772376400851481000,1.932481201171875,2.192619203495234,0.4390566031754017,-0.7170446925163269,0.07706008106470108,-0.019460828974843025,0.07921720296144485
1772376400861430300,1.94243017578125,2.165247212444991,0.4097309938393533,-0.6189233409821987,0.0909830629825592,-0.07899559289216995,0.14020103216171265
1772376400871380000,1.9523798828125,2.0467051503032443,0.36280382296964525,-0.6462573381096124,0.09804869443178177,-0.11743725836277008,0.18325528502464294
1772376400881330000,1.962329833984375,1.9252191436640917,0.3584444587163627,-0.7675736872702836,0.11081672459840775,-0.11970467865467072,0.21591252088546753
1772376400891279000,1.972279052734375,1.8183954302363097,0.36034795425012706,-0.880920664986968,0.12625905871391296,-0.10794815421104431,0.2506590485572815
1772376400901229000,1.98222900390625,1.8034730247840285,0.4075862368956208,-0.9465700719833373,0.1512034684419632,-0.08578823506832123,0.28286710381507874
1772376400911179000,1.992178955078125,1.7763431719265876,0.4438941063344478,-0.9651187051087617,0.17328719794750214,-0.07124577462673187,0.32193514704704285
1772376400921128000,2.0021279296875,1.8379481258377433,0.4683068091876805,-0.9125719407916069,0.19776563346385956,-0.050398945808410645,0.37211114168167114
1772376400931078100,2.012078125,1.887364337044209,0.513466970384866,-0.8020370978862047,0.22385182976722717,-0.031164798885583878,0.4258963465690613
1772376400941028000,2.022028076171875,1.9125575227506457,0.5177674440577625,-0.672998630040884,0.2506808638572693,-0.0161639042198658,0.48435860872268677
1772376400950977000,2.03197705078125,1.9351535315707324,0.49972588367164134,-0.5431137744992971,0.27826404571533203,-0.0005604429170489311,0.5388250350952148
1772376400960927000,2.041927001953125,1.8986716207392513,0.4675343635104596,-0.3763146080583334,0.30539461970329285,0.025695020332932472,0.5830510854721069
1772376400970876200,2.051876220703125,1.8232364405266939,0.41266660889983175,-0.1792833849608898,0.31991228461265564,0.03938499838113785,0.6094379425048828
1772376400980826000,2.061826171875,1.7546040721967815,0.35909298575296994,0.010147884526848793,0.3321041762828827,0.047557931393384933,0.6298741102218628
1772376400990776000,2.071776123046875,1.6506386708095668,0.33896862774342296,0.17204758848845958,0.3390752673149109,0.04747803509235382,0.6441656947135925
1772376401000725000,2.08172509765625,1.5137882140390575,0.29561931536048647,0.2983241904050112,0.33470678329467773,0.04854506254196167,0.646174430847168
1772376401010675200,2.09167529296875,1.417450969442725,0.23818068734854458,0.4214145635008812,0.3328143358230591,0.042555078864097595,0.6423105001449585
1772376401020625200,2.101625244140625,1.3492689752288163,0.16003157200217247,0.5015922620654106,0.34348970651626587,0.03048899956047535,0.6344797611236572
1772376401030574000,2.111573974609375,1.2959648166731,0.08908464311957359,0.5711252324968576,0.3450995981693268,0.013796307146549225,0.617389440536499
1772376401040524300,2.121524169921875,1.2690481681749224,0.017993921852111815,0.6711544634789228,0.3455580770969391,-0.0011581177823245525,0.5892132520675659
1772376401050474200,2.13147412109375,1.2563900543928146,-0.08148790438026189,0.7442185306459664,0.34035640954971313,-0.007495375815778971,0.5570856928825378
1772376401060423200,2.141423095703125,1.2184186356559394,-0.13926234021782874,0.8230828085243701,0.3301098048686981,-0.007645288482308388,0.5168256759643555
1772376401070373000,2.151373046875,1.1722564578093588,-0.18989245725870132,0.8978425736933946,0.30345314741134644,-0.013343920931220055,0.476961612701416
1772376401080322000,2.161322021484375,1.1392290713459252,-0.2227063471019268,0.9560036707609891,0.27875590324401855,-0.022330179810523987,0.43561992049217224
1772376401090272300,2.171272216796875,1.1244031850706786,-0.22601620230227706,0.9946849913328886,0.24536225199699402,-0.02866770327091217,0.4011881649494171
1772376401100222200,2.18122216796875,1.0867634825062007,-0.2209039738550782,1.0057640192300081,0.21431538462638855,-0.03554185479879379,0.3694893717765808
1772376401110171100,2.191171142578125,1.1001129395533353,-0.23567981044352054,0.987822704347968,0.1797315776348114,-0.03383636474609375,0.345348596572876
1772376401120121300,2.201121337890625,1.1423021221157164,-0.2670937703609466,0.9577151508539915,0.15045738220214844,-0.03129838407039642,0.32279452681541443
1772376401130071000,2.211071044921875,1.200079992019385,-0.301565948805213,0.9025134881138801,0.12641116976737976,-0.01588480919599533,0.30153316259384155
1772376401140020200,2.221020263671875,1.213743191190809,-0.30995646827071904,0.8291115672945976,0.10688643902540207,-0.005076366476714611,0.28189530968666077
1772376401149970200,2.23097021484375,1.246898295687139,-0.3086439243674278,0.7518629079192877,0.09421458095312119,0.019731245934963226,0.2722136378288269
1772376401159919000,2.240919189453125,1.307157387947291,-0.2856038250416517,0.7278793902635574,0.07933735102415085,0.05060587450861931,0.2677905857563019
1772376401169869300,2.250869384765625,1.3266373105734586,-0.2573182262778282,0.6859019507557154,0.05966884270310402,0.07903991639614105,0.27356669306755066
1772376401179819000,2.260819091796875,1.38283163761273,-0.24327801048755646,0.6967232044994831,0.051947589963674545,0.09621621668338776,0.2907986640930176
1772376401189768200,2.270768310546875,1.4406274084992705,-0.22896686880141495,0.6697270610243081,0.0473531037569046,0.1012011244893074,0.3153966963291168
1772376401199718100,2.28071826171875,1.5244155526459215,-0.22059739212393759,0.6638567076861858,0.0491458922624588,0.09328755736351013,0.3433569669723511
1772376401209668000,2.290668212890625,1.5604244391381739,-0.21712942375242708,0.6744236944079399,0.046881407499313354,0.06638723611831665,0.37360116839408875
1772376401219617000,2.300616943359375,1.5640077044524252,-0.23150135571509597,0.6649316434413194,0.04756201058626175,0.04303033649921417,0.4060573875904083
1772376401229567000,2.31056689453125,1.5914650356985627,-0.26223814702332016,0.6038561202317476,0.0473039485514164,0.030940117314457893,0.4428572356700897
1772376401239517200,2.32051708984375,1.593771851336211,-0.2923275803387165,0.5318301639407873,0.05505988374352455,0.02502463385462761,0.4824076294898987
1772376401249466000,2.330466064453125,1.5895638782523571,-0.30843261970430613,0.4427671481311321,0.0684523805975914,0.03472520038485527,0.5278288722038269
1772376401259416000,2.340416015625,1.5236834389790892,-0.3114151426464319,0.35347675330638884,0.08457646518945694,0.04948277771472931,0.5683076977729797
1772376401269365000,2.350364990234375,1.460642753176391,-0.3509025189042091,0.28219489338099957,0.09373800456523895,0.06717309355735779,0.6015194058418274
1772376401279315200,2.360315185546875,1.4054109875589609,-0.4022615347415209,0.23023849617242811,0.10386304557323456,0.08544964343309402,0.628085196018219
1772376401289265200,2.37026513671875,1.3613584953427313,-0.4486021378949284,0.24104279878139495,0.10133330523967743,0.09354858845472336,0.6522622108459473
1772376401299214000,2.380214111328125,1.337292413970083,-0.463707644829154,0.23875498010516166,0.10096898674964905,0.08981730043888092,0.6779203414916992
1772376401309164000,2.3901640625,1.320127782548964,-0.4352753310710191,0.22056407437622547,0.10337994247674942,0.07782535254955292,0.7099970579147339
1772376401319114200,2.4001142578125,1.280362904524058,-0.4165115938901901,0.1663824023336172,0.11241602897644043,0.06148992106318474,0.7439772486686707
1772376401329063200,2.410063232421875,1.2317054027304053,-0.3938213309153914,0.10095102200210093,0.13695892691612244,0.04951555281877518,0.7861731648445129
1772376401339013000,2.42001318359375,1.2024503744125365,-0.40427199778109785,0.028691841477155682,0.16052460670471191,0.04052827134728432,0.8213932514190674
1772376401348962000,2.429962158203125,1.149702023108676,-0.4234636049851775,-0.015936989322304723,0.18618495762348175,0.03668053820729256,0.8482879996299744
1772376401358912300,2.439912353515625,1.0615070953704415,-0.42120238205492494,-0.04534545463621616,0.21208937466144562,0.04298707842826843,0.8731544017791748
1772376401368862200,2.4498623046875,0.9523431754920632,-0.4442690771266818,-0.04044306954741478,0.22933466732501984,0.05910107120871544,0.8912950754165649
1772376401378811100,2.45981103515625,0.8680353913854807,-0.45076311532109975,-0.01357435184419155,0.24706193804740906,0.08695881813764572,0.8984595537185669
1772376401388761000,2.469760986328125,0.8011217366069555,-0.4468912423238158,0.0615039777547121,0.25753241777420044,0.11808903515338898,0.9058434367179871
1772376401398711300,2.479711181640625,0.802091969878599,-0.43724224722981453,0.1554243704676628,0.26347267627716064,0.13256189227104187,0.9132870435714722
1772376401408660200,2.48966015625,0.8366955926828086,-0.4247463382720947,0.29913901391923425,0.2641800045967102,0.12689948081970215,0.9262664914131165
1772376401418610200,2.499610107421875,0.8535074651435017,-0.402969975271821,0.4432259978145361,0.24383805692195892,0.09426549077033997,0.9355985522270203
1772376401428560100,2.50956005859375,0.8676759834885597,-0.4062316074162721,0.5475543872952461,0.20716498792171478,0.056348737329244614,0.9388728737831116
1772376401438509300,2.51950927734375,0.8467631054498255,-0.4083396856114268,0.5935305410504341,0.1580888032913208,0.039765365421772,0.9301101565361023
1772376401448459300,2.529459228515625,0.7921162270482629,-0.4777811783671379,0.5686532894253731,0.10577234625816345,0.024083072319626808,0.9047256708145142
1772376401458408200,2.539408203125,0.7260911916725337,-0.48627720403373237,0.5137357043236493,0.056628841906785965,0.011407604441046715,0.8675744533538818
1772376401468358100,2.549358154296875,0.6757765703216194,-0.4649661204576492,0.4069043921113014,0.015965301543474197,0.020610157400369644,0.8248525261878967
1772376401478308000,2.55930810546875,0.6951544938780367,-0.4376745011672377,0.28071429943442344,-0.009512536227703094,0.054311107844114304,0.7870855927467346
1772376401488257300,2.56925732421875,0.7417436649650335,-0.38730888028144833,0.21410627653896808,-0.03434678167104721,0.09851078689098358,0.7598451972007751
1772376401498207000,2.57920703125,0.8563249337170272,-0.3376800492376089,0.23807108949422834,-0.05625707283616066,0.14028266072273254,0.7579008936882019
1772376401508157000,2.589156982421875,1.0271348701693117,-0.28586919797956944,0.35217443853616714,-0.1043015718460083,0.16658084094524384,0.767170250415802
1772376401518106000,2.599106201171875,1.1262153490591793,-0.266507494905591,0.5810159273922443,-0.1785328984260559,0.12580691277980804,0.7811932563781738
1772376401528056000,2.60905615234375,1.1161259897865354,-0.24195903684347866,0.750446611380577,-0.2835586369037628,0.0020940201357007027,0.7703813314437866
1772376401538005000,2.6190048828125,0.9211112941432744,-0.25806349168717857,0.7352811909526586,-0.39160555601119995,-0.1542775183916092,0.720478892326355
1772376401547955000,2.628954833984375,0.5966901741251349,-0.27476474338024853,0.4301683633208275,-0.4831581115722656,-0.2810823619365692,0.6341644525527954
1772376401557905200,2.6389052734375,0.27680487090572714,-0.27661270933449267,-0.1405459502875805,-0.5420949459075928,-0.35104694962501526,0.5207034349441528
1772376401567854000,2.64885400390625,0.05569587599784136,-0.24038112000226974,-0.7783727291822433,-0.5651842951774597,-0.313031941652298,0.4109952747821808
1772376401577804000,2.658803955078125,0.057925827006995674,-0.14817805260121822,-1.4063146584004163,-0.5317906737327576,-0.17069394886493683,0.3298461139202118
1772376401587754000,2.66875390625,0.22015169418305158,0.024434184032678604,-1.88447694503963,-0.46054956316947937,0.02399509958922863,0.29742932319641113
1772376401597703200,2.678703125,0.4775755727924406,0.1839744653865695,-2.143881914463639,-0.3461192548274994,0.23344342410564423,0.32753488421440125
1772376401607653000,2.688653076171875,0.7612722490385174,0.41665626305788755,-2.1799124282658098,-0.20496903359889984,0.41841885447502136,0.41386178135871887
1772376401617603000,2.69860302734375,1.0095597582511604,0.6686874888435006,-1.9834984602838754,-0.06734102964401245,0.5441132187843323,0.546208381652832
1772376401627552800,2.708552734375,1.236796734520048,0.8462009415224194,-1.6373860982656478,0.044730111956596375,0.5843114852905273,0.7009266018867493
1772376401637502700,2.718502685546875,1.3051321657299995,0.8882219279110432,-1.2144441790670155,0.12799449265003204,0.5355928540229797,0.8426057696342468
1772376401647451600,2.72845166015625,1.2379770303457975,0.8037439018040895,-0.8099532778382301,0.17691968381404877,0.42925310134887695,0.9442508816719055
1772376401657401900,2.73840185546875,1.0281315530564636,0.6590528145357966,-0.5268769254475831,0.2031947821378708,0.2970353960990906,0.9984133839607239
1772376401667351800,2.748351806640625,0.6220409615460782,0.5320405918210744,-0.4222147739678621,0.2067682147026062,0.1860113888978958,1.0030118227005005
1772376401677300700,2.75830078125,0.15644253453426063,0.406595472292602,-0.49482174501717086,0.19963102042675018,0.1527412384748459,0.9766306281089783
1772376401687250700,2.768250732421875,-0.2996143763460219,0.26953911768645045,-0.6061550448238849,0.16417208313941956,0.18205571174621582,0.9235362410545349
1772376401697201000,2.778200927734375,-0.6179236624203622,0.1710723137155175,-0.7052718371361494,0.12345229834318161,0.2750639021396637,0.8566014766693115
1772376401707149800,2.78814990234375,-0.7799705197677016,0.13406564835757015,-0.7436848621606826,0.07663925737142563,0.418313205242157,0.7859212160110474
1772376401717099800,2.798099853515625,-0.8063714007634669,0.13081249178051949,-0.6938508639335632,0.03700856491923332,0.5831754803657532,0.7183869481086731
1772376401727048700,2.808048583984375,-0.7094094483975321,0.16149989098906517,-0.5564426271498203,0.012665675953030586,0.7479958534240723,0.6769364476203918
1772376401736999000,2.8179990234375,-0.47516032834425564,0.21895780822336672,-0.3093283995002508,-0.00630537373945117,0.8764981031417847,0.6642258763313293
1772376401746948600,2.827948486328125,-0.15158004306443035,0.30092852768450973,0.007803951749205589,-0.009724872186779976,0.9626697301864624,0.675981879234314
1772376401756897800,2.837897705078125,0.14854304998870937,0.40503275302052494,0.3249327958673239,-0.001816152362152934,1.0058338642120361,0.7164578437805176
1772376401766847500,2.847847412109375,0.40861331492103636,0.5173556483864784,0.6131073481798172,0.022591453045606613,1.0087257623672485,0.783587634563446
1772376401776797700,2.857797607421875,0.5796682391103357,0.5743509165450931,0.8966577478229999,0.05136739835143089,0.9750956892967224,0.8729939460754395
1772376401786746600,2.86774658203125,0.6482654630616307,0.5266247042521834,1.145534893491864,0.07508577406406403,0.9208081960678101,0.966201901435852
1772376401796696600,2.877696533203125,0.5970717207886278,0.45120326030403374,1.3025187683612107,0.10755771398544312,0.8578797578811646,1.0516759157180786
1772376401806646800,2.887646728515625,0.4286050229942426,0.328080738504231,1.386682321691513,0.13259916007518768,0.805776059627533,1.1156527996063232
1772376401816595700,2.897595703125,0.15726013452745974,0.19798077890723942,1.4411650225073098,0.15942689776420593,0.7591947317123413,1.1527968645095825
1772376401826545700,2.907545654296875,-0.11996854214775375,0.0703819884762168,1.4711831441521643,0.16480354964733124,0.7124407887458801,1.160473346710205
1772376401836494600,2.91749462890625,-0.36213019802439955,-0.10470920549184083,1.5117548085153103,0.15373340249061584,0.6668259501457214,1.1415581703186035
1772376401846444500,2.927444580078125,-0.5394476166745648,-0.2941004352301359,1.5338479823797941,0.12445327639579773,0.6277206540107727,1.0949362516403198
1772376401856394800,2.937394775390625,-0.709262148881331,-0.4340250387489795,1.5564847616016864,0.07369616627693176,0.5932866334915161,1.0178786516189575
1772376401866343700,2.94734375,-0.8385410744190216,-0.5493444855824112,1.575499258673191,0.002809743629768491,0.5651708245277405,0.9193426966667175
1772376401876293600,2.957293701171875,-0.9061267101749777,-0.6332099327489733,1.5760387723773717,-0.0868646502494812,0.5426228642463684,0.8119088411331177
1772376401886243800,2.967243896484375,-0.9373311189949511,-0.6840399562761187,1.5644430271297691,-0.1904885172843933,0.5227870941162109,0.6954370737075806
1772376401896192800,2.97719287109375,-0.9427494177166372,-0.6681938601076602,1.4882693035095929,-0.2970282733440399,0.5053374767303467,0.5820027589797974
1772376401906142700,2.987142822265625,-0.8742539736393838,-0.6349211205810308,1.3519102835178374,-0.399191677570343,0.5008596181869507,0.48588818311691284
1772376401916091600,2.997091552734375,-0.8130720674458891,-0.5301134231507778,1.1195458812326191,-0.47254931926727295,0.5043336749076843,0.4130313992500305
1772376401926041600,3.00704150390625,-0.6877448021434247,-0.3809755856066942,0.8341033842325211,-0.5263928174972534,0.5158478617668152,0.36779069900512695
1772376401935991800,3.01699169921875,-0.5212789593100547,-0.2571832017213106,0.5840162782520055,-0.5559297204017639,0.5168085098266602,0.34818562865257263
1772376401945940700,3.026940673828125,-0.3496649034006521,-0.15625789868235587,0.3556932603120804,-0.5535648465156555,0.5175914764404297,0.3525441586971283
1772376401955890700,3.036890625,-0.18350724973361937,-0.06465104360878467,0.1614198114901781,-0.5313149690628052,0.5230540037155151,0.3763492703437805
1772376401965841000,3.0468408203125,-0.057056971750594675,0.02202010862827301,0.006139233407378196,-0.48401114344596863,0.5286892652511597,0.417402446269989
1772376401975789800,3.056789794921875,0.02919332472588867,0.08911357695311307,-0.07843523881137371,-0.4282015860080719,0.5278282761573792,0.4764116108417511
1772376401985739800,3.06673974609375,0.05275262562017888,0.1284782036140561,-0.09851181215643882,-0.3588904142379761,0.5375546813011169,0.5395152568817139
1772376401995688700,3.076688720703125,0.028125585896521806,0.14401421092003583,-0.09001754005551338,-0.29242536425590515,0.5481229424476624,0.6076482534408569
1772376402005638700,3.086638671875,-0.018636822865530846,0.09202683405131101,-0.008024901023507117,-0.22648707032203674,0.5499248504638672,0.6684412956237793
1772376402015588900,3.0965888671875,-0.10092793338745831,0.005556026691943407,0.17344751841425896,-0.18543285131454468,0.5434951186180115,0.7102298736572266
1772376402025537800,3.106537841796875,-0.21101642076484858,-0.15750278417691588,0.41739305289983747,-0.16546820104122162,0.5240037441253662,0.7299668192863464
1772376402035487700,3.11648779296875,-0.32419695587344466,-0.32901100509166714,0.6104769996762275,-0.16240988671779633,0.4893566370010376,0.7282037138938904
1772376402045437700,3.126437744140625,-0.49553581157065923,-0.4618281146928668,0.7551835767745971,-0.17390675842761993,0.44382965564727783,0.7047889828681946
1772376402055387000,3.136386962890625,-0.613969883293286,-0.5863906061679125,0.8664473184764385,-0.1876097321510315,0.39820918440818787,0.6686815023422241
1772376402065336800,3.1463369140625,-0.7186280161850154,-0.7205116379745304,0.9240589649677277,-0.20234739780426025,0.3639732003211975,0.6260544061660767
1772376402075286500,3.15628662109375,-0.8252722813926636,-0.7823002778895198,0.9202724321663379,-0.21372635662555695,0.3396521210670471,0.5765519738197327
1772376402085235700,3.166235595703125,-0.8507697838079183,-0.8301505549535155,0.9223001386016607,-0.2370484620332718,0.33107805252075195,0.5309192538261414
1772376402095185700,3.176185546875,-0.865097949694097,-0.8727017026960849,0.9564636894881725,-0.2683575749397278,0.3315533995628357,0.48641327023506165
1772376402105134800,3.186134765625,-0.8169511008363216,-0.9052816376529633,0.9601315643459558,-0.31825217604637146,0.3323875069618225,0.44852370023727417
1772376402115084500,3.19608447265625,-0.7606533864878118,-0.9361481928206979,1.017532198435068,-0.3703242540359497,0.3275569677352905,0.4168972373008728
1772376402125034800,3.20603466796875,-0.6885299611717463,-0.9399234735757112,0.9943401234179735,-0.43035537004470825,0.3243209421634674,0.3870466649532318
1772376402134983700,3.215983642578125,-0.6288114055290818,-0.9557881283141672,0.9127005356073379,-0.48373550176620483,0.3125532269477844,0.36516398191452026
1772376402144933600,3.22593359375,-0.6023294221211224,-0.9697956108786165,0.7968886290818452,-0.535586416721344,0.29467809200286865,0.34999144077301025
1772376402154883600,3.235883544921875,-0.5750816419724375,-0.9784713770262896,0.5811258175075054,-0.583402693271637,0.27917763590812683,0.34047627449035645
1772376402164832500,3.24583251953125,-0.5561635910127312,-1.0201913346417248,0.3474889110684395,-0.6220797300338745,0.2452564239501953,0.335124671459198
1772376402174782700,3.25578271484375,-0.5296481437265873,-1.0631174531765282,0.10729717615842818,-0.6496027708053589,0.2157091200351715,0.33130863308906555
1772376402184731600,3.265731689453125,-0.4774062806401401,-1.14150490732342,-0.23086042746305466,-0.6543636918067932,0.21525157988071442,0.3361039459705353
1772376402194681600,3.275681640625,-0.4329987644411623,-1.2025346916951238,-0.5717348888278008,-0.626312792301178,0.23774069547653198,0.34686437249183655
1772376402204631800,3.2856318359375,-0.31786256522014733,-1.2674509621113539,-0.8345534660875796,-0.5692638754844666,0.29678377509117126,0.3710094094276428
1772376402214580700,3.295580810546875,-0.14197218369841574,-1.3347880299337207,-1.0117091913700103,-0.49888691306114197,0.3972237706184387,0.41113099455833435
1772376402224530700,3.30553076171875,0.005160670698806643,-1.3851935444384813,-1.0164186842352152,-0.4391644597053528,0.5118957161903381,0.4614191949367523
1772376402234480600,3.315480712890625,0.14945165273360908,-1.4119712228573857,-0.7431915256857872,-0.4261637330055237,0.5879437923431396,0.5127139687538147
1772376402244429800,3.325429931640625,0.2711062208727002,-1.4671503815047442,-0.31614567829966544,-0.4686312973499298,0.6091598868370056,0.550423264503479
1772376402254379800,3.3353798828125,0.40979748320430515,-1.5549844400413333,0.07418576467335224,-0.5540525913238525,0.624552845954895,0.574041485786438
1772376402264328700,3.34532861328125,0.5352596999980509,-1.6527670611403882,0.3272732215136289,-0.6700513362884521,0.6364049315452576,0.5729376077651978
1772376402274278700,3.355278564453125,0.7090954870775341,-1.730271448842436,0.44235038402378557,-0.8103609085083008,0.5927037000656128,0.5412906408309937
1772376402284228900,3.365228759765625,0.855667711917311,-1.6984452548623084,0.4886690676063299,-0.9516932964324951,0.4542718231678009,0.48753687739372253
1772376402294177800,3.375177734375,0.8778925493374466,-1.494154854416847,0.3495651328206062,-1.0624229907989502,0.2565229535102844,0.3998435437679291
1772376402304127700,3.385127685546875,0.8068491743430495,-1.1394474633369593,-0.05411737463474273,-1.1164926290512085,0.05071175470948219,0.30414631962776184
1772376402314077700,3.39507763671875,0.7690013819858431,-0.6970276673387735,-0.584330751028657,-1.1005918979644775,-0.10619240254163742,0.20746849477291107
1772376402324027000,3.40502685546875,0.9488578906595706,-0.34592933360151945,-1.072307744717598,-1.0202096700668335,-0.20631740987300873,0.13981302082538605
1772376402333976800,3.414976806640625,1.2972966497987508,-0.09337671429030597,-1.4525608612686394,-0.8812140822410583,-0.20994983613491058,0.12292248010635376
1772376402343925800,3.42492578125,1.70521226477921,0.13338102709427474,-1.6402145996898412,-0.7148270010948181,-0.14228157699108124,0.17620061337947845
1772376402353875700,3.434875732421875,2.1892745692424476,0.39907779013887046,-1.5402081650614738,-0.5479868054389954,-0.04632790759205818,0.3021039366722107
1772376402363826000,3.444825927734375,2.588905609349906,0.6351598977729678,-1.2265168941766023,-0.4118095636367798,0.05537368729710579,0.4951580762863159
1772376402373774800,3.45477490234375,2.9271386162951587,0.779545060897246,-0.8174480175077915,-0.31438109278678894,0.16675035655498505,0.7235204577445984
1772376402383724800,3.464724853515625,3.113690823215246,0.8803012909796089,-0.40332185744941235,-0.2752068042755127,0.2551524043083191,0.9469324946403503
1772376402393674500,3.474674560546875,3.1996634717941284,0.9322774888671934,0.06432897204756736,-0.2801937162876129,0.3156639337539673,1.1573526859283447
1772376402403624000,3.4846240234375,3.2357635437011716,0.9334775123067199,0.4388245479851961,-0.30834653973579407,0.3405381143093109,1.3561930656433105
1772376402413573600,3.49457373046875,3.201006703096628,0.8608293324641882,0.6515671349555253,-0.3423178791999817,0.3286786675453186,1.527300238609314
1772376402423522800,3.504522705078125,3.0818039850890635,0.7505033830691129,0.7777771013766527,-0.3745565116405487,0.30059298872947693,1.6592590808868408
1772376402433472500,3.514472412109375,2.8815280809819694,0.6100296943001449,0.7718599862873554,-0.3959806561470032,0.24152976274490356,1.7489361763000488
1772376402443422700,3.524422607421875,2.6698914094269273,0.45967064439803357,0.6822521960765123,-0.39158645272254944,0.15900158882141113,1.7978429794311523
1772376402453371600,3.53437158203125,2.5038813475370407,0.305160612296313,0.5336147092700004,-0.3684758245944977,0.0509270504117012,1.8166509866714478
1772376402463321600,3.544321533203125,2.3575956845536825,0.17516140966005622,0.3247130156368017,-0.34143462777137756,-0.0732865184545517,1.8161604404449463
1772376402473271600,3.554271484375,2.2966147077597676,0.08395590192899108,0.08902151475548743,-0.30858728289604187,-0.2045793980360031,1.8029963970184326
1772376402483220700,3.564220703125,2.224954516041279,0.053824529168009755,-0.18722060770094393,-0.291428804397583,-0.3410959839820862,1.7681152820587158
1772376402493170700,3.574170654296875,2.1491620468236503,0.09163491212427616,-0.47065351844429965,-0.28331318497657776,-0.5148515105247498,1.7288496494293213
1772376402503119600,3.58411962890625,2.0944903993070123,0.15240451118983328,-0.8165110289186239,-0.2946707606315613,-0.7380805611610413,1.67559015750885
1772376402513069600,3.594069580078125,1.992698396436125,0.2093018353993073,-1.3315554777532814,-0.28173863887786865,-0.9627863168716431,1.6088085174560547
1772376402523019800,3.604019775390625,1.8442828818172214,0.235013163228333,-2.0714672511160375,-0.2201692759990692,-1.112735390663147,1.536636233329773
1772376402532968700,3.61396875,1.644307568091899,0.24974603745788335,-2.9859692831873894,-0.09637068957090378,-1.1303664445877075,1.455276370048523
1772376402542918700,3.623918701171875,1.4457847912624477,0.36316805317215617,-3.7885353733837603,0.09011290222406387,-1.0168135166168213,1.375179648399353
1772376402552868600,3.63386865234375,1.3002353335991501,0.5326715101357549,-4.33337933267653,0.30658790469169617,-0.772843599319458,1.3262052536010742
1772376402562817800,3.64381787109375,1.2998787752464414,0.7467570361476391,-4.472365778562426,0.5064908862113953,-0.4417509138584137,1.332565188407898
1772376402572767700,3.653767822265625,1.402958772101253,0.989984923883155,-4.125385986059904,0.6916899085044861,-0.09836208820343018,1.4391103982925415
1772376402582716700,3.663716552734375,1.6401742676794528,1.277572981544584,-3.449080715689063,0.8266575336456299,0.20517702400684357,1.579949975013733
1772376402592666600,3.67366650390625,1.8461917841784654,1.483843303760886,-2.502742698895931,0.9019347429275513,0.42395371198654175,1.897953987121582
1772376402602616800,3.683616943359375,1.933555010332912,1.542494522432983,-1.452341665560007,0.9286110997200012,0.5696595311164856,1.9478651285171509
1772376402612565800,3.693565673828125,1.8714350926369427,1.502634367340058,-0.6153454824954271,0.9446604251861572,0.6366408467292786,2.236497163772583
1772376402622515700,3.703515625,1.653135748322308,1.3508549292460084,0.02921440404653549,0.9461715221405029,0.6756615042686462,2.198204517364502
1772376402632465400,3.71346533203125,1.3531095763050018,1.2285403628282248,0.5157125573545694,0.9383741617202759,0.6713430285453796,2.3756561279296875
1772376402642414300,3.723414306640625,1.0284702104263006,1.0948360951289533,0.8692635449409485,0.9145391583442688,0.6419446468353271,2.26126766204834
1772376402652364300,3.7333642578125,0.7654108101479709,0.9121154291957616,1.1346364828586577,0.8896176218986511,0.5837061405181885,2.3522531986236572
1772376402662313200,3.743313232421875,0.5447558426178991,0.6743702106550336,1.3082692947119474,0.8554564714431763,0.5264252424240112,2.1735925674438477
1772376402672263400,3.753263427734375,0.3576761777576059,0.48835766356959937,1.4152660266190766,0.8154820799827576,0.4412775933742523,2.1796228885650635
1772376402682213400,3.76321337890625,0.24005539517924188,0.3573835514865815,1.4687170462995767,0.7777272462844849,0.3698106110095978,1.9549357891082764
1772376402692162300,3.773162353515625,0.10939780169948934,0.24363851436302064,1.4840215829372405,0.7527996301651001,0.2904449701309204,1.9145915508270264
1772376402702112500,3.783112548828125,-0.0013484189342707394,0.19289222359657288,1.4978484482377767,0.7189130187034607,0.2244635820388794,1.680679440498352
1772376402712062500,3.7930625,-0.07848930708616972,0.19179697570577262,1.5135662418514488,0.6913007497787476,0.14332979917526245,1.6226882934570312
1772376402722011400,3.803011474609375,-0.1013861985489726,0.2110157631777227,1.5136632724851369,0.643829882144928,0.09706855565309525,1.4081079959869385
1772376402731961300,3.81296142578125,-0.1316179629445076,0.2770905559793114,1.4966606997579335,0.6002070903778076,0.026230311021208763,1.3479838371276855
1772376402741910300,3.82291015625,-0.16719854102209208,0.3803498549237847,1.4724597399592398,0.5464653372764587,-0.004331325646489859,1.1636803150177002
1772376402751860500,3.832860595703125,-0.12824571003243326,0.5306897617340087,1.4039888458013534,0.4936836361885071,-0.027525193989276886,1.1217049360275269
1772376402761810200,3.84281005859375,-0.11248049708046018,0.6988152083426713,1.299855102109909,0.4431259036064148,-0.007928856648504734,1.0051671266555786
1772376402771759400,3.85275927734375,-0.08853190460763871,0.8536895437121391,1.1873632799178362,0.3969593048095703,0.005382931791245937,0.9927474856376648
1772376402781709300,3.862709228515625,-0.06868197962529957,0.985433763384819,1.122464983549714,0.3430952727794647,0.05170036479830742,0.9153115749359131
1772376402791659300,3.8726591796875,-0.05144333311989903,1.0666770453542471,1.1003414145469665,0.2966843247413635,0.08088094741106033,0.8978006839752197
1772376402801608400,3.8826083984375,-0.060222998033463954,1.119203059144318,1.103538749283552,0.23748654127120972,0.1200384646654129,0.8443320989608765
1772376402811558100,3.89255810546875,-0.03427066452279687,1.1544362850889562,1.1251192974507809,0.19002243876457214,0.12939420342445374,0.8193286657333374
1772376402821507300,3.90250732421875,-0.05602518101744353,1.1724874900862574,1.11930213560462,0.14353296160697937,0.14189454913139343,0.7873638272285461
1772376402831457300,3.912457275390625,-0.08240257153976709,1.193160275758803,1.120264258635044,0.10237692296504974,0.11513499170541763,0.75139319896698
1772376402841407200,3.9224072265625,-0.1250344929009676,1.2147516375809908,1.1120704307854175,0.058946359902620316,0.09734507650136948,0.7368241548538208
1772376402851356200,3.932356201171875,-0.19649554531816393,1.2066337975770234,1.0932190153211354,0.012677309103310108,0.07971470803022385,0.68523770570755
1772376402861306400,3.942306396484375,-0.29148422484975306,1.1531021138757467,1.056807393246889,-0.044340699911117554,0.09956830739974976,0.6782397031784058
1772376402871255300,3.95225537109375,-0.4484576879229396,1.097073060400784,0.9996902522742748,-0.10101934522390366,0.121710404753685,0.600192129611969
1772376402881205200,3.962205322265625,-0.5863793906541541,1.0592129930838943,0.9982716176480054,-0.16151970624923706,0.17971591651439667,0.6058202385902405
1772376402891155200,3.9721552734375,-0.6574190758541226,1.0291428489908576,1.0281079529851676,-0.22849465906620026,0.23600134253501892,0.5081772208213806
1772376402901104400,3.9821044921875,-0.6758413061209022,0.9809285609200596,1.107321190431714,-0.29152342677116394,0.3083826005458832,0.538342297077179
1772376402911054300,3.992054443359375,-0.6325603827990591,0.9054556790456175,1.2503683098852634,-0.35064390301704407,0.3351001441478729,0.4507935047149658
1772376402921004300,4.00200439453125,-0.5774055548753589,0.8607111129119992,1.4639485167235136,-0.41199594736099243,0.3301498591899872,0.51511150598526
1772376402930953200,4.011953125,-0.5567191790688782,0.8244654950544238,1.6633587439119815,-0.4858078360557556,0.25738611817359924,0.42023956775665283
1772376402940903400,4.0219033203125,-0.5318411967914551,0.7383014155566692,1.823244769963622,-0.562592089176178,0.1773085743188858,0.48869505524635315
1772376402950852400,4.031852294921875,-0.6157647308208049,0.6428345240540803,1.8458061458617447,-0.6422187089920044,0.06248529627919197,0.3639850616455078
1772376402960802300,4.04180224609375,-0.6871642257764935,0.5244977752260863,1.747663167017698,-0.7146891355514526,-0.0084605123847723,0.4189399182796478
1772376402970752300,4.051752197265625,-0.7893537765976041,0.41779169682860373,1.549392757514119,-0.7862743735313416,-0.07067841291427612,0.3358144760131836
1772376402980701400,4.061701416015625,-0.8544559980399906,0.3472057102128863,1.3066671202123163,-0.8491294980049133,-0.12105289846658707,0.293196439743042
1772376402990651400,4.0716513671875,-0.9486790269613266,0.3179948132976889,1.0542419266730547,-0.9090162515640259,-0.14691205322742462,0.24827361106872559
1772376403000601300,4.081601318359375,-1.016463400159776,0.30521950287669897,0.759814743706584,-0.960182249546051,-0.15331803262233734,0.2100420594215393
1772376403010550300,4.09155029296875,-0.9980274336285888,0.22018004349470138,0.4585539153277874,-0.9963586330413818,-0.1439727246761322,0.1849430948495865
1772376403020500500,4.10150048828125,-0.9430492043808102,0.14988821751996875,0.15415420440137387,-1.0159964561462402,-0.13685303926467896,0.17094312608242035
1772376403030449400,4.111449462890625,-0.8526825586266815,0.07339110716432333,-0.07293371878564357,-1.0195424556732178,-0.13899298012256622,0.17595811188220978
1772376403040399400,4.1213994140625,-0.7633296199597418,-0.05150850731059908,-0.29845512330830093,-1.0015612840652466,-0.14766928553581238,0.19626843929290771
1772376403050349300,4.131349365234375,-0.6999070952326059,-0.2528828741788864,-0.4449263719916343,-0.9944870471954346,-0.16894763708114624,0.22675810754299164
1772376403060298500,4.141298583984375,-0.7627516739413142,-0.4355260909616947,-0.48499417848587034,-1.0026649236679077,-0.2527000606060028,0.2387511283159256
1772376403070248400,4.15124853515625,-0.9720281191710383,-0.5700191709510982,-0.46144203798472877,-1.0412111282348633,-0.39695027470588684,0.21188028156757355
1772376403080198400,4.161198486328125,-1.283640757150948,-0.7108857314951718,-0.5834574753254652,-1.086376428604126,-0.525937020778656,0.14758357405662537
1772376403090147300,4.171147216796875,-1.5966687418214975,-0.897978913424164,-0.9330074105769395,-1.1147209405899048,-0.5881686210632324,0.05308099463582039
1772376403100097500,4.18109765625,-1.8228844122186303,-1.05572157077156,-1.3782073388129472,-1.1186473369598389,-0.579750120639801,-0.06587495654821396
1772376403110046500,4.19104638671875,-1.9143585808232426,-1.1325537583004683,-1.784122719886899,-1.0941575765609741,-0.5151832103729248,-0.18463987112045288
1772376403119996400,4.200996337890625,-1.8127094935543835,-1.1835855149447918,-2.091913826817274,-1.0310643911361694,-0.4127708673477173,-0.28011178970336914
1772376403129946000,4.210946044921875,-1.499475026526302,-1.1864863509528338,-2.2714678454130888,-0.9318715929985046,-0.29105064272880554,-0.3234339654445648
1772376403139895600,4.2208955078125,-1.0814812312543391,-1.1395016777422278,-2.2957506382763384,-0.7904872894287109,-0.19683837890625,-0.31329452991485596
1772376403149845200,4.23084521484375,-0.6988414387624711,-1.0698177545327692,-2.233862629640102,-0.6240525245666504,-0.13034550845623016,-0.26523256301879883
1772376403159795200,4.240795166015625,-0.37283977155461906,-1.0391472333937883,-2.1484020222365854,-0.44217970967292786,-0.08408907055854797,-0.1930380016565323
1772376403169744100,4.250744140625,-0.13039409283851272,-1.0443749049142002,-2.018303816205263,-0.25151145458221436,-0.08652246743440628,-0.11373434215784073
1772376403179694300,4.2606943359375,-0.029352406011428682,-1.0905955349497496,-1.7825544476568698,-0.07951892912387848,-0.13733984529972076,-0.04023987799882889
1772376403189643300,4.270643310546875,-0.0686835505278781,-1.2143591311320663,-1.5473428392469881,0.07086846232414246,-0.2294800877571106,0.0036499726120382547
1772376403199593200,4.28059326171875,-0.2633472042437643,-1.36455480716601,-1.391969906705618,0.1787123680114746,-0.3283030688762665,0.0051815565675497055
1772376403209543200,4.290543212890625,-0.6042378860909492,-1.529947321679443,-1.2902543300718068,0.2340763658285141,-0.397873193025589,-0.043354783207178116
1772376403219492400,4.300492431640625,-1.0018485993519424,-1.7003760767944156,-1.3144628886550664,0.24257051944732666,-0.4211835563182831,-0.1302822232246399
1772376403229442300,4.3104423828125,-1.3594433093711733,-1.8158149122238159,-1.4093033188223838,0.2133195996284485,-0.39864832162857056,-0.2555197477340698
1772376403239391200,4.32039111328125,-1.6406556214556096,-1.843812341696024,-1.5628636489838361,0.1629384458065033,-0.3340752124786377,-0.412000447511673
1772376403249341200,4.330341064453125,-1.8471094835452735,-1.7883213406205176,-1.7153624873936175,0.10187608003616333,-0.24949711561203003,-0.5875406265258789
1772376403259291400,4.34029150390625,-1.8598150897309182,-1.6404431477487087,-1.8600649728387593,0.037047017365694046,-0.16134168207645416,-0.7588329911231995
1772376403269240300,4.350240234375,-1.6746289104670284,-1.3932736827805638,-1.9840695381700992,-0.012642142362892628,-0.06112576276063919,-0.8974219560623169
1772376403279190300,4.360190185546875,-1.2981161494880913,-1.0669568852089344,-2.123565102621913,-0.027211498469114304,0.034338176250457764,-0.9836162328720093
1772376403289140200,4.37014013671875,-0.8517806413508952,-0.7021709485113621,-2.2532547278523443,0.010218672454357147,0.14491455256938934,-1.0006248950958252
1772376403299089400,4.38008935546875,-0.418305747297965,-0.3491306138608605,-2.283142501115799,0.1032404974102974,0.2560109794139862,-0.9689207077026367
1772376403309039400,4.390039306640625,-0.029522858074354005,-0.05354067072533071,-2.2022592846304176,0.23522791266441345,0.3699023127555847,-0.8724335432052612
1772376403318988300,4.39998828125,0.32681141268815844,0.23900289045162498,-1.9398107097268102,0.39812150597572327,0.46799319982528687,-0.7191382646560669
1772376403328938200,4.409938232421875,0.5994000906709581,0.44630292104184627,-1.5033856240987777,0.5698294043540955,0.5458313822746277,-0.5272635817527771
1772376403338888400,4.419888427734375,0.7327827982656657,0.5477339816458523,-0.9597551322489977,0.7237300276756287,0.5845465660095215,-0.3337300717830658
1772376403348837400,4.42983740234375,0.7161924596011638,0.5190292806871235,-0.34814883628189564,0.8639398813247681,0.5908600687980652,-0.16041132807731628
1772376403358787300,4.439787353515625,0.5114435017332435,0.4425375771589577,0.27556699967384335,0.9620142579078674,0.5542479753494263,-0.042486291378736496
1772376403368737300,4.4497373046875,0.21696239662244915,0.31531280767209824,0.8788578872382641,1.0269677639007568,0.4898371994495392,0.020565271377563477
1772376403378686500,4.4596865234375,-0.0805546603844501,0.19175730128251015,1.3380308112472294,1.0464191436767578,0.4196980595588684,0.0407046303153038
1772376403388636400,4.469636474609375,-0.33011670131124554,0.06983969829306005,1.7370523411542176,1.0307408571243286,0.34562990069389343,0.0331554189324379
1772376403398585300,4.47958544921875,-0.5480635789263993,-0.01595598628371954,2.083264071893692,0.9773229360580444,0.28092387318611145,0.003553318092599511
1772376403408535300,4.489535400390625,-0.6943041606590151,-0.07012392206192017,2.3332576543718577,0.898323655128479,0.2173679918050766,-0.04291399568319321
1772376403418485500,4.499485595703125,-0.8223219071544706,-0.10088701685518026,2.4767040022760627,0.7957949042320251,0.1547940969467163,-0.10704904049634933
1772376403428434400,4.509434326171875,-0.9192083100661634,-0.10108224716633557,2.5730343787401915,0.6855571866035461,0.10662129521369934,-0.18775387108325958
1772376403438384400,4.51938427734375,-0.9893003756850958,-0.10505042014494538,2.604693837851286,0.5650206208229065,0.08753681927919388,-0.27252891659736633
1772376403448333300,4.529333251953125,-1.0320536218710243,-0.0615127455830574,2.6114094098418947,0.43048709630966187,0.0895906463265419,-0.36642345786094666
1772376403458283500,4.539283447265625,-1.0291907797858117,0.0019024726204574106,2.619835292881727,0.28491124510765076,0.10661463439464569,-0.44422078132629395
1772376403468233500,4.5492333984375,-1.0026827120885253,0.0824823222450912,2.591429867130518,0.13854166865348816,0.1376410722732544,-0.5098761916160583
1772376403478182400,4.559182373046875,-0.9086458533890545,0.1782505347818136,2.5413749196290967,-0.015226845629513264,0.17352478206157684,-0.5532079339027405
1772376403488132400,4.56913232421875,-0.8087900792777538,0.281910523481667,2.4403484943032265,-0.13882635533809662,0.2005355954170227,-0.5720551013946533
1772376403498082300,4.579082275390625,-0.7002874728523194,0.3918792569369077,2.26044317805171,-0.24309363961219788,0.22542282938957214,-0.5720663070678711
1772376403508031500,4.589031494140625,-0.5772394775934517,0.46545127362608907,2.0396201604783535,-0.29967764019966125,0.2471076399087906,-0.5609166026115417
1772376403517981200,4.598981201171875,-0.4536764454845339,0.5154956997334956,1.8401017967402935,-0.33020439743995667,0.2525886595249176,-0.537663996219635
1772376403527930400,4.608930419921875,-0.29895854278579354,0.5495943686902522,1.6861533440440892,-0.3369440734386444,0.25245481729507446,-0.49971240758895874
1772376403537880300,4.61888037109375,-0.1608303211644292,0.5579419257968664,1.6126467938065527,-0.32396674156188965,0.24478648602962494,-0.45039597153663635
1772376403547830300,4.628830322265625,-0.07729717469215393,0.5354714430525899,1.5879717867553234,-0.31979408860206604,0.22366124391555786,-0.395855575799942
1772376403557779200,4.638779296875,0.01016534711830318,0.5123017259977758,1.5994062039613723,-0.312772661447525,0.1994757354259491,-0.3329399824142456
1772376403567729200,4.648729248046875,0.05766286522187292,0.4139056491754949,1.6085516334474086,-0.3090956509113312,0.17968231439590454,-0.27285686135292053
1772376403577679400,4.658679443359375,0.0770944186616689,0.2463352061010897,1.595889135751128,-0.31316709518432617,0.1501462608575821,-0.2274598330259323
1772376403587628300,4.668628173828125,0.07643105938211082,0.0927571941524744,1.608112657508254,-0.320717990398407,0.1211177334189415,-0.1953185647726059
1772376403597578200,4.678578125,-0.00010462941825389861,-0.050352615273743864,1.58542327131629,-0.3363209068775177,0.0958174467086792,-0.1848595291376114
1772376403607527200,4.688527099609375,-0.06290054667964577,-0.16600348601862788,1.5698054309457539,-0.3738490641117096,0.06502677500247955,-0.1821267157793045
1772376403617477400,4.698477294921875,-0.1104446073386818,-0.30364860029816626,1.5630062723249196,-0.4211313724517822,0.03049170970916748,-0.18676380813121796
1772376403627427300,4.70842724609375,-0.09370660383179784,-0.4360639972306788,1.4630506911009549,-0.47122082114219666,0.013518225401639938,-0.19431650638580322
1772376403637376300,4.718376220703125,-0.12638393474854528,-0.5517293348923326,1.3172738544225693,-0.5280020833015442,0.013679878786206245,-0.20508766174316406
1772376403647326200,4.728326171875,-0.1593074955113232,-0.6250104788761586,1.1471066728532313,-0.5868111252784729,0.01721169427037239,-0.21838337182998657
1772376403657275400,4.738275390625,-0.09655286010839044,-0.7044597170356661,0.9419956036746502,-0.6434115171432495,0.04196151718497276,-0.22110725939273834
1772376403667225300,4.748225341796875,-0.021008739628642796,-0.8195606988128274,0.7272849315017461,-0.6920918822288513,0.06175610050559044,-0.22395946085453033
1772376403677175300,4.75817529296875,0.038841552634909744,-0.9077993195623159,0.5122714769899844,-0.7318581938743591,0.07806609570980072,-0.22508305311203003
1772376403687124200,4.768124267578125,0.0763984722867608,-0.9642133537668734,0.2638847451865673,-0.7591250538825989,0.08197358250617981,-0.23716478049755096
1772376403697074400,4.778074462890625,0.044509588333964345,-1.0002207789544015,-0.013481412863731383,-0.7682327628135681,0.07814395427703857,-0.2403925359249115
1772376403707024400,4.7880244140625,0.07442191151678562,-1.0307123633299022,-0.2788017438113689,-0.7575769424438477,0.06770209968090057,-0.2447437196969986
1772376403716973300,4.797973388671875,0.1483035786770284,-1.052572678286582,-0.579061870715022,-0.7265961170196533,0.06821449846029282,-0.24516956508159637
1772376403726923300,4.80792333984375,0.23764943001605568,-1.0751383650336415,-0.843081640458107,-0.673225462436676,0.0796731635928154,-0.23039862513542175
1772376403736872400,4.81787255859375,0.35029710035696626,-1.0897235744208096,-1.080651794692874,-0.6008375287055969,0.11988583207130432,-0.19980183243751526
1772376403746822400,4.827822509765625,0.49254912391006944,-1.0950513453148305,-1.1754501392841339,-0.5289571285247803,0.19533029198646545,-0.15184195339679718
1772376403756772400,4.8377724609375,0.6086094522386789,-1.1316654311586172,-1.1473358054339886,-0.4749670922756195,0.28981444239616394,-0.09076475352048874
1772376403766721300,4.84772119140625,0.7400428523965179,-1.1950403904169797,-0.9932581734001636,-0.4575212597846985,0.3811558783054352,-0.017634933814406395
1772376403776671500,4.85767138671875,0.8569098939981311,-1.3115445169903337,-0.7565203783363104,-0.47681984305381775,0.48180925846099854,0.061373330652713776
1772376403786620400,4.867620361328125,0.9813957400403917,-1.5023212097376584,-0.49023091009557246,-0.5368810296058655,0.5914031863212585,0.13351212441921234
1772376403796570400,4.8775703125,1.1004277045909314,-1.7814708902038632,-0.18138123402297496,-0.6402108669281006,0.6521866321563721,0.1853790581226349
1772376403806520300,4.887520263671875,1.139156152240187,-2.0648491481505333,0.14643676189184188,-0.791076123714447,0.5858437418937683,0.2057218998670578
1772376403816469500,4.897469482421875,0.9567433832123875,-2.2609332996562124,0.32554712837338445,-0.9499416947364807,0.35656821727752686,0.1647544950246811
1772376403826419500,4.90741943359375,0.4886509474277496,-2.2597166173428294,0.15135259098410606,-1.098096251487732,0.01408603135496378,0.031339604407548904
1772376403836369200,4.917369140625,-0.15877762641832233,-2.0603625042557714,-0.4816501287549734,-1.2029736042022705,-0.35550612211227417,-0.1779654175043106
1772376403846318300,4.927318359375,-0.5417812107212842,-1.7628300487503408,-1.4644056128412484,-1.2440885305404663,-0.7300620079040527,-0.4069833755493164
1772376403856268300,4.937268310546875,-0.49314460558518763,-1.5862142755635082,-2.610055657145381,-1.186600923538208,-0.9810116291046143,-0.5930891036987305
1772376403866217500,4.947217529296875,-0.12393866048827766,-1.4585647778585553,-3.8183290386229753,-0.9937506318092346,-1.0125834941864014,-0.7126441597938538
1772376403876167400,4.95716748046875,0.2991080342590809,-1.218520342464745,-4.95671990557909,-0.6824579834938049,-0.8181091547012329,-0.7344098687171936
1772376403886117000,4.9671171875,0.7694738218031824,-0.8305923073716461,-5.56476763228178,-0.3035609722137451,-0.48939284682273865,-0.6382632851600647
1772376403896066300,4.97706640625,1.3651234008342026,-0.3608470628786832,-5.469051588323712,0.06618910282850266,-0.1691218912601471,-0.4313807189464569
1772376403906016300,4.987016357421875,2.0383923722490667,0.03377049644831568,-4.815305355763435,0.35484132170677185,0.04245595261454582,-0.1154903694987297
1772376403915965400,4.99696533203125,2.5960996125072238,0.2494353275408968,-3.8160447270780797,0.5158440470695496,0.1245441734790802,0.23687513172626495
1772376403925915100,5.0069150390625,2.762023165157437,0.42178178937807675,-2.7200439720839262,0.53800368309021,0.08056432008743286,0.5516079068183899
1772376403935865300,5.016865234375,2.49556418556869,0.4158211274079978,-1.9396072961091995,0.47615760564804077,-0.03328900784254074,0.7738356590270996
1772376403945814300,5.026814208984375,1.9947484608337283,0.27965163863897324,-1.6528998937398194,0.3826175630092621,-0.15178215503692627,0.8914558291435242
1772376403955764200,5.03676416015625,1.2777196965388953,0.10969367937352507,-1.8283476460605859,0.3053845763206482,-0.24364922940731049,0.9149443507194519
1772376403965714200,5.046714111328125,0.5626823983222246,-0.04246920508015901,-2.3108909242630005,0.2791281044483185,-0.30242758989334106,0.8713285326957703
1772376403975663400,5.056663330078125,-0.0034665801320224996,-0.1705561260879971,-2.8986545723497867,0.3274921774864197,-0.31221285462379456,0.7933604717254639
1772376403985613300,5.06661328125,-0.37947657922059297,-0.1833814861957915,-3.478137298825383,0.461588978767395,-0.2691207528114319,0.7116427421569824
1772376403995562200,5.076562255859375,-0.6196873841572552,-0.0967310844858177,-3.893735285001993,0.6596863269805908,-0.18106040358543396,0.6434375643730164
1772376404005512200,5.08651220703125,-0.7260171765882522,0.13416399416550992,-3.9471424655407663,0.8857029676437378,-0.0812244787812233,0.6013858318328857
1772376404015462400,5.09646240234375,-0.6041504270032048,0.38437637049350887,-3.5969670918673273,1.1015719175338745,0.01924566924571991,0.602859616279602
1772376404025411300,5.106411376953125,-0.2874048100490123,0.6144852124042809,-2.9518910724967715,1.2833473682403564,0.09463613480329514,0.6424116492271423
1772376404035361300,5.116361328125,0.035766017647087575,0.8305367777921259,-2.1261264775425195,1.4242855310440063,0.15804412961006165,0.7011319398880005
1772376404045310200,5.126310302734375,0.2225315750569105,1.0797997809734194,-1.2469926959723234,1.5208054780960083,0.22064350545406342,0.7773396372795105
1772376404055260400,5.136260498046875,0.2975499911621213,1.2562217120885848,-0.3847732243239879,1.5667120218276978,0.28530561923980713,0.8620665073394775
1772376404065210400,5.14621044921875,0.31979725960977373,1.3646841326341033,0.4343552936166525,1.5670466423034668,0.3464394807815552,0.9450930953025818
1772376404075159300,5.1561591796875,0.2708976196233183,1.4313964926868676,1.1930430791199207,1.52572500705719,0.3870907723903656,1.0172351598739624
1772376404085109200,5.166109130859375,0.19047456799559295,1.4637398424088954,1.862965954977274,1.4552184343338013,0.41015514731407166,1.0869721174240112
1772376404095059500,5.1760595703125,0.016361425279453397,1.3973681124873458,2.4557214200019835,1.3549692630767822,0.4029156267642975,1.1244080066680908
1772376404105008400,5.18600830078125,-0.16587240698486566,1.273996730493009,3.001998042446375,1.2273552417755127,0.34906744956970215,1.1162511110305786
1772376404114958300,5.195958251953125,-0.36203028131388126,1.0909225749470293,3.454973865380883,1.0685960054397583,0.2559763789176941,1.056210994720459
1772376404124907300,5.2059072265625,-0.6026060471054167,0.8359459433592855,3.7519583316147327,0.9011200666427612,0.12480703741312027,0.943905770778656
1772376404134857500,5.215857421875,-0.7900364981647581,0.581414717451483,3.8788627100408073,0.7517486810684204,-0.02277974784374237,0.7928145527839661
1772376404144807400,5.225807373046875,-0.8903969338625669,0.3896213950075209,3.831189689239859,0.6233358979225159,-0.17789897322654724,0.6152237057685852
1772376404154756400,5.23575634765625,-0.9274736687820404,0.29603008811846376,3.6085844644248484,0.5367913842201233,-0.3195759356021881,0.42268404364585876
1772376404164706300,5.245706298828125,-0.8797418304659426,0.28809520346596834,3.3354613507717845,0.47218284010887146,-0.4124552309513092,0.23699966073036194
1772376404174656500,5.255656494140625,-0.7616659975964576,0.39034050306230783,3.0456863775253296,0.42206481099128723,-0.4611726999282837,0.0891694575548172
1772376404184605400,5.26560546875,-0.5590022485047579,0.608501023428142,2.773003993377089,0.361082524061203,-0.4742080569267273,-0.013538192957639694
1772376404194555400,5.275555419921875,-0.3396476960487664,0.8794101142935454,2.5867192052215335,0.28416964411735535,-0.4531451165676117,-0.06534413248300552
1772376404204504300,5.28550439453125,-0.05454597531035542,1.1040373464554547,2.4814187558382748,0.18696556985378265,-0.4169510006904602,-0.07996498793363571
1772376404214454500,5.29545458984375,0.20920575461369006,1.2555876519687472,2.3839281034231186,0.07738795131444931,-0.38193443417549133,-0.0720527395606041
1772376404224404200,5.305404296875,0.3594683949366212,1.384567959886044,2.2381670488357543,-0.021798361092805862,-0.35154661536216736,-0.053184013813734055
1772376404234353400,5.315353515625,0.42005072780176994,1.4777080158762632,2.053459300738573,-0.10792098939418793,-0.3222973644733429,-0.024367013946175575
1772376404244303000,5.32530322265625,0.44326896017342804,1.5193787275224924,1.7706915759056805,-0.1666824221611023,-0.2881222069263458,0.0073557267896831036
1772376404254252500,5.33525244140625,0.4288953111777082,1.5085593734748661,1.5096329940557478,-0.19751915335655212,-0.25170719623565674,0.03696315363049507
1772376404264202200,5.3452021484375,0.4208159400206059,1.442369429861009,1.2161749483823776,-0.20487380027770996,-0.20635546743869781,0.059939321130514145
1772376404274152200,5.355152099609375,0.3947769511397928,1.3393759422458706,0.9573293664067983,-0.204289510846138,-0.15447334945201874,0.07068383693695068
1772376404284101000,5.36510107421875,0.324773075260967,1.2709645231902598,0.8204606433272361,-0.20670846104621887,-0.10322370380163193,0.06991899013519287
1772376404294051300,5.37505126953125,0.2815730716882273,1.1968924480244516,0.7580617625594138,-0.20526449382305145,-0.05584127455949783,0.07196909189224243
1772376404304000300,5.385000244140625,0.2646847729904577,1.098066747613251,0.7345406017184257,-0.21221430599689484,-0.020413510501384735,0.07440247386693954
1772376404313950200,5.3949501953125,0.2804481958441436,0.9993605819284915,0.7607330275952816,-0.21158367395401,0.003016446717083454,0.07695271819829941
1772376404323900200,5.404900146484375,0.3006968743531033,0.887497559159249,0.7694745524555444,-0.20728299021720886,0.008837291970849037,0.08694837242364883
1772376404333849300,5.414849365234375,0.32585491568092256,0.761590228946507,0.814528330668807,-0.19750413298606873,0.01042347215116024,0.09683961421251297
1772376404343799300,5.42479931640625,0.31882406719606365,0.6219251531466842,0.8619242880940436,-0.19271248579025269,0.013604315929114819,0.1008058488368988
1772376404353749200,5.434749267578125,0.26955592269077894,0.47468438139557834,0.9204805219590664,-0.19372102618217468,0.002988690510392189,0.10119973123073578
1772376404363698200,5.4446982421875,0.24343795028962192,0.33409766070619223,1.0172054506987334,-0.2105427086353302,-0.010875776410102844,0.09419872611761093
1772376404373648400,5.4546484375,0.20192538834717125,0.20312764027640223,1.109395074096322,-0.23579053580760956,-0.02729043737053871,0.08530190587043762
1772376404383597300,5.464597412109375,0.14013579858411102,0.08980828121900558,1.175153202164173,-0.26755645871162415,-0.03976393863558769,0.07595181465148926
1772376404393547300,5.47454736328125,0.10171371347028761,-0.017524112383276225,1.1812614559113979,-0.29797106981277466,-0.04392353072762489,0.061175260692834854
1772376404403497200,5.484497314453125,0.08999467063657939,-0.14323577389344572,1.132862458923459,-0.3299243152141571,-0.04048430919647217,0.048707265406847
1772376404413446400,5.4944462890625,0.10006656731776893,-0.2754201385490596,1.0681254905968904,-0.34725964069366455,-0.0314633846282959,0.03835662454366684
1772376404423396400,5.504396240234375,0.10629855704251676,-0.3995398546926677,1.0117945315659045,-0.3617246747016907,-0.05370328575372696,0.025217564776539803
1772376404433345300,5.51434521484375,0.08579652482699603,-0.5044838918536901,0.9586275895237922,-0.3739067614078522,-0.10335659235715866,-0.005722242873162031
1772376404443295200,5.524295166015625,0.07910944827850908,-0.6213859317034482,0.8833142821252346,-0.3907409608364105,-0.17357461154460907,-0.03856954723596573
1772376404453245400,5.534245361328125,0.10918200352434068,-0.7669856582492589,0.7667769839346409,-0.40805816650390625,-0.2685980498790741,-0.07699710130691528
1772376404463194400,5.5441943359375,0.09895944632608443,-0.8927128095895052,0.5244137502044439,-0.42815688252449036,-0.3527284860610962,-0.115516297519207
1772376404473144300,5.554144287109375,0.056410380942746995,-0.940519832033664,0.09819792390167713,-0.4276077449321747,-0.3874041736125946,-0.15445756912231445
1772376404483094300,5.56409423828125,-0.010882610275875776,-0.972937416035682,-0.3650491176784038,-0.41338592767715454,-0.3960195481777191,-0.18350008130073547
1772376404493043500,5.57404345703125,0.029750976874958722,-0.9547804125763475,-0.7424684721082448,-0.39668044447898865,-0.38463109731674194,-0.20682485401630402
1772376404502993400,5.583993408203125,0.06040488480585627,-0.9258638224326073,-1.0659171668976544,-0.39156636595726013,-0.36189690232276917,-0.21765795350074768
1772376404512942300,5.5939423828125,0.10989733958630822,-0.9350178005512804,-1.3178063538640736,-0.4014032781124115,-0.3425162732601166,-0.2261369228363037
1772376404522892300,5.603892333984375,0.10505393640943803,-0.9028633244648575,-1.5022691872894762,-0.42599722743034363,-0.3448742628097534,-0.2272411286830902
1772376404532842500,5.613842529296875,0.07066405682060867,-0.8364675560805946,-1.699529542967677,-0.45849764347076416,-0.33574891090393066,-0.21658316254615784
1772376404542791400,5.62379150390625,0.11417975701270625,-0.8845437508549541,-1.9536247155457733,-0.4812491238117218,-0.30257925391197205,-0.1889929622411728
1772376404552741400,5.633741455078125,0.11588274327199906,-0.9775318311538547,-2.1811586289346216,-0.5082325339317322,-0.30696946382522583,-0.1535649299621582
1772376404562690300,5.643690185546875,-0.08721408174103125,-1.043839409798011,-2.3222002537846564,-0.5461938381195068,-0.387479305267334,-0.14758309721946716
1772376404572640500,5.653640625,-0.5282324317097663,-1.0633139986619353,-2.5253660341143607,-0.5650495290756226,-0.4661695957183838,-0.1844971477985382
1772376404582590500,5.663590576171875,-1.0810641018208116,-1.0678764112066477,-2.9312340689152476,-0.5455811619758606,-0.5097863674163818,-0.26789918541908264
1772376404592539400,5.673539306640625,-1.548035497686267,-1.1271664392389356,-3.4336721341550347,-0.4961824417114258,-0.4650101065635681,-0.37685924768447876
1772376404602489300,5.6834892578125,-1.7500905402950941,-1.1644956145495176,-3.8865152706205843,-0.4094717800617218,-0.3320366144180298,-0.49636274576187134
1772376404612438500,5.6934384765625,-1.6209592795997858,-1.1344249589998274,-4.170627980321646,-0.2808927595615387,-0.164746955037117,-0.5892982482910156
1772376404622388500,5.703388427734375,-1.169224104376137,-0.9665938922278583,-4.223488632893562,-0.11772525310516357,-0.004947026260197163,-0.6196274161338806
1772376404632338400,5.71333837890625,-0.5913771624088286,-0.6819307090371847,-4.004562388852238,0.07117196172475815,0.12202957272529602,-0.5718375444412231
1772376404642287600,5.72328759765625,-0.05671917289728298,-0.3632789662007242,-3.5833857257604596,0.2697422206401825,0.2039959728717804,-0.4506931006908417
1772376404652237300,5.7332373046875,0.35392632370479404,-0.11238785036094485,-3.0196862593501805,0.4453926086425781,0.24766087532043457,-0.28114455938339233
1772376404662187500,5.7431875,0.5146116469079628,0.02915602492280304,-2.3967390696793793,0.5888727307319641,0.24260662496089935,-0.10802212357521057
1772376404672136400,5.753136474609375,0.33527514352034776,0.04045454078949988,-1.792608224159479,0.6885132789611816,0.22222597897052765,0.02224772982299328
1772376404682086400,5.76308642578125,-0.15179273596704004,-0.036943171667680144,-1.2587889322280883,0.7330868244171143,0.18142685294151306,0.07854820042848587
1772376404692035300,5.773035400390625,-0.7450581232752651,-0.16061163691245017,-0.7867945205688476,0.727056086063385,0.12452894449234009,0.07014673203229904
1772376404701985300,5.7829853515625,-1.2093296855974942,-0.4002241106297821,-0.43928281314671036,0.6819284558296204,0.07017911225557327,0.01367100141942501
1772376404711935500,5.792935546875,-1.5755759771712123,-0.5810060635853559,-0.27154081289768217,0.6191814541816711,0.03718920797109604,-0.08143766969442368
1772376404721884400,5.802884521484375,-1.922276514340937,-0.6363051222853362,-0.1967681882470846,0.5536654591560364,0.03127347677946091,-0.213088721036911
1772376404731834400,5.81283447265625,-2.161892787450552,-0.5738897287741304,-0.1901589992403984,0.487859845161438,0.05854184925556183,-0.3637871742248535
1772376404741783300,5.822783203125,-2.2337243902131916,-0.4342774060748517,-0.1853402007818222,0.4210195541381836,0.10815387964248657,-0.5075153708457947
1772376404751733500,5.8327333984375,-2.061744021742046,-0.2168839245587587,-0.14690847105681895,0.3631799519062042,0.16587844491004944,-0.6181520819664001
1772376404761683500,5.842683349609375,-1.6742415185846387,0.061236412859708066,-0.07355506555438042,0.3205517828464508,0.22305703163146973,-0.6752966046333313
1772376404771632400,5.85263232421875,-1.173340234458074,0.37671880494505167,0.007778232786059379,0.29278886318206787,0.2750914692878723,-0.6709740161895752
1772376404781582300,5.862582275390625,-0.7147421877276152,0.6633323915511369,0.06951543477475643,0.29431939125061035,0.32359349727630615,-0.6170966625213623
1772376404791531500,5.872531494140625,-0.3584720408430323,0.8714031873181461,0.15348492683768272,0.32721635699272156,0.3769483268260956,-0.5178142786026001
1772376404801481500,5.8824814453125,-0.13079720287984237,1.0068817712135611,0.25249767425358294,0.37863099575042725,0.4316844940185547,-0.3985615074634552
1772376404811431400,5.892431396484375,-0.04926576988510787,1.0877604576542972,0.4077718225955963,0.44406646490097046,0.47650763392448425,-0.27805906534194946
1772376404821380400,5.90238037109375,-0.08232051927950233,1.0504947029687464,0.7076531793147325,0.5021054148674011,0.4998317062854767,-0.16750837862491608
1772376404831330600,5.91233056640625,-0.20517744894567877,0.9323780266322195,1.0281021077662706,0.553582489490509,0.5075297951698303,-0.08655013889074326
1772376404841279500,5.922279541015625,-0.4282952629253268,0.7897720750749111,1.38594173245728,0.5836531519889832,0.5076737999916077,-0.03261290490627289
1772376404851229400,5.9322294921875,-0.6005792905181646,0.6422355352476239,1.7244266683369873,0.6000819206237793,0.48506566882133484,-0.0031508891843259335
1772376404861179400,5.942179443359375,-0.7385492528378963,0.5097312909878791,2.0033119987785817,0.5947046875953674,0.45299604535102844,0.0015588209498673677
1772376404871128600,5.952128662109375,-0.8640779589965939,0.4107869326330721,2.240478248387575,0.5691258311271667,0.42257261276245117,-0.008699409663677216
1772376404881078500,5.96207861328125,-1.0001271823868154,0.35956951722353697,2.3922388356506823,0.5248077511787415,0.3851964473724365,-0.027233485132455826
1772376404891028500,5.972028564453125,-1.0919609780840576,0.2935159133404493,2.531096686720848,0.46204873919487,0.3450714349746704,-0.055263519287109375
1772376404900977400,5.981977294921875,-1.1451613840043544,0.19386399123817682,2.6122569665819406,0.3859553933143616,0.30556267499923706,-0.08817605674266815
1772376404910927600,5.991927734375,-1.1324657877560704,0.09550123216360806,2.605931855213642,0.31174081563949585,0.26255902647972107,-0.12886196374893188
1772376404920876500,6.00187646484375,-1.1192795584466309,0.0015256021320819854,2.5202374390542506,0.24038159847259521,0.23902428150177002,-0.17708784341812134
1772376404930826500,6.011826416015625,-1.0795731326106934,-0.052323623085767025,2.3958096798747777,0.17893394827842712,0.22401124238967896,-0.2312043458223343
1772376404940776400,6.0217763671875,-1.0224799570355563,-0.07687222727835177,2.2998200796723363,0.12575054168701172,0.20220668613910675,-0.2761726677417755
1772376404950725600,6.0317255859375,-0.9445049561470746,-0.06554930762276052,2.2539029626280067,0.07587458938360214,0.15011392533779144,-0.30719688534736633
1772376404960675600,6.041675537109375,-0.7905162445057183,-0.06547668077796698,2.2227502839952704,0.024552639573812485,0.08780573308467865,-0.322464257478714
1772376404970624500,6.05162451171875,-0.6693044516980647,-0.06132379888221621,2.1902298241406677,-0.034229718148708344,0.025933582335710526,-0.3265674114227295
1772376404980574500,6.061574462890625,-0.6828720084752887,-0.04763093522489071,2.0415970135092736,-0.10515999794006348,-0.023361489176750183,-0.3323098421096802
1772376404990524400,6.0715244140625,-0.6943143167268484,-0.04817994740977883,1.8352935196757316,-0.16425953805446625,-0.07293996214866638,-0.3335908353328705
1772376405000473600,6.0814736328125,-0.6908902605623006,-0.06790405405536294,1.5583248365104199,-0.21759511530399323,-0.10319576412439346,-0.3295275568962097
1772376405010423300,6.09142333984375,-0.6902355229806154,-0.07977481685206293,1.262746729943156,-0.25980061292648315,-0.11628040671348572,-0.33302563428878784
1772376405020372500,6.10137255859375,-0.6892411781810224,-0.12610066082775592,0.9448211824893951,-0.27624741196632385,-0.10862350463867188,-0.3260378837585449
1772376405030322400,6.111322509765625,-0.6417762471728027,-0.17370821517705917,0.6360363883465529,-0.27264469861984253,-0.07261117547750473,-0.30616483092308044
1772376405040272400,6.1212724609375,-0.5950508094202727,-0.19766046091169118,0.39229719008803365,-0.2402237206697464,-0.023084081709384918,-0.2788662612438202
1772376405050221600,6.1312216796875,-0.5398099106483161,-0.21940847460031507,0.23256197068393228,-0.19563442468643188,0.026050973683595657,-0.23712070286273956
1772376405060171300,6.141171142578125,-0.4225950054571032,-0.30219094883576036,0.2195288861095905,-0.15050804615020752,0.05613759160041809,-0.19430957734584808
1772376405070120400,6.151120361328125,-0.33969175438620147,-0.39334012326970696,0.34392625015079975,-0.11546830832958221,0.07178419828414917,-0.15480105578899384
1772376405080070400,6.1610703125,-0.31265951668433845,-0.5415013708665967,0.5238707293689251,-0.09359131008386612,0.05893520638346672,-0.12741276621818542
1772376405090020400,6.171020263671875,-0.3494268933936953,-0.6594647563375532,0.6963368355304003,-0.08418183028697968,0.0333387665450573,-0.11811432987451553
1772376405099969300,6.18096923828125,-0.403896369401738,-0.7770167845286429,0.7866384532243013,-0.0865548849105835,0.011849102564156055,-0.12175383418798447
1772376405109919500,6.19091943359375,-0.4565867799732834,-0.8701011648088693,0.8063684050887823,-0.09709141403436661,0.010106596164405346,-0.1346408724784851
1772376405119869400,6.200869384765625,-0.45871867743544276,-0.9330663011573255,0.7902443687617778,-0.10877177864313126,0.005433536134660244,-0.14411766827106476
1772376405129818400,6.210818359375,-0.4075182131607085,-1.008349067287147,0.7435270412504672,-0.11582649499177933,0.003658805973827839,-0.1504373401403427
1772376405139768300,6.220768310546875,-0.3497932424880564,-1.0358829709008335,0.6779927850663662,-0.12949632108211517,-0.006245266646146774,-0.1572147011756897
1772376405149717500,6.230717529296875,-0.24924166813232004,-1.0759474163942038,0.5511532885700464,-0.12880656123161316,-0.015319189056754112,-0.15878038108348846
1772376405159667500,6.24066748046875,-0.15009681876935063,-1.122214077528566,0.37823242437839505,-0.12447857856750488,-0.029667459428310394,-0.15964016318321228
1772376405169617400,6.250617431640625,-0.03778371414504945,-1.1241454839825629,0.16697335396409033,-0.10851984471082687,-0.05039350688457489,-0.16980810463428497
1772376405179566300,6.26056640625,0.03668101360015571,-1.0988612589918076,-0.07224515199959278,-0.07635951042175293,-0.060556795448064804,-0.16094447672367096
1772376405189516500,6.2705166015625,0.10393486011847854,-1.047152552933991,-0.33618133511245246,-0.034262388944625854,-0.07063659280538559,-0.14116278290748596
1772376405199465500,6.280465576171875,0.15958390129990874,-1.0148173865184187,-0.5744751274466514,0.020331256091594696,-0.07325519621372223,-0.11426404118537903
1772376405209415400,6.29041552734375,0.17810791144073007,-0.9422577617421746,-0.7879805154830217,0.07325439155101776,-0.0655306950211525,-0.08841992914676666
1772376405219365400,6.300365478515625,0.2532613521024585,-0.9083703974485396,-0.9488555525720119,0.12347948551177979,-0.030826903879642487,-0.05909682437777519
1772376405229314600,6.310314453125,0.3594357347760349,-0.9379248471044004,-1.0503981107264757,0.1591258943080902,0.054754842072725296,-0.02820415422320366
1772376405239264500,6.320264404296875,0.5208429059803485,-1.009580070386827,-1.0734183363080023,0.170424684882164,0.14985962212085724,0.0041344910860061646
1772376405249213400,6.33021337890625,0.6510478603217751,-1.0351913353748619,-0.9226830004394054,0.14891938865184784,0.20976875722408295,0.04176948219537735
1772376405259163400,6.340163330078125,0.8309802837759256,-1.0273916214093566,-0.7154366727977991,0.10448741167783737,0.2719932198524475,0.08442327380180359
1772376405269113600,6.350113525390625,1.0121449524387716,-1.0647111521087587,-0.5741542249292135,0.03527079150080681,0.3526821732521057,0.1327202320098877
1772376405279062500,6.3600625,1.1872510517150163,-1.16089145257771,-0.3865004865080118,-0.07243943214416504,0.40641772747039795,0.17902450263500214
1772376405289012500,6.370012451171875,1.3181816169172524,-1.2871568024478852,-0.16445815627276897,-0.22339725494384766,0.35585257411003113,0.19598057866096497
1772376405298961400,6.37996142578125,1.1927096093818546,-1.3452755216784775,-0.0017857143729925154,-0.39850398898124695,0.19003181159496307,0.1723860204219818
1772376405308911600,6.38991162109375,0.6845404531441629,-1.2441092494904995,-0.1232388416558504,-0.5735846757888794,-0.0826825350522995,0.08207397162914276
1772376405318861600,6.399861572265625,0.042483050942420955,-0.9989765510469675,-0.6231172855406999,-0.719528317451477,-0.39148280024528503,-0.06060989946126938
1772376405328810500,6.409810546875,-0.39968642355650663,-0.7980740394741296,-1.4662234759181738,-0.8073683977127075,-0.6289835572242737,-0.21659070253372192
1772376405338760400,6.419760498046875,-0.43137678926251827,-0.6793697725079954,-2.5705051525235176,-0.792996346950531,-0.6765668392181396,-0.33716925978660583
1772376405348710700,6.429710693359375,-0.13006284245699642,-0.5056681332021952,-3.703497375306487,-0.6481595039367676,-0.5396159291267395,-0.40121084451675415
1772376405358659600,6.43965966796875,0.33730186357498165,-0.281142169457674,-4.645480119499564,-0.3836156725883484,-0.22964726388454437,-0.4065040946006775
1772376405368609500,6.449609619140625,0.7999732241589576,0.07041764431148767,-5.017506674975157,-0.05721999332308769,0.158127099275589,-0.3237612843513489
1772376405378558500,6.459558349609375,1.3740763764880597,0.521234681776911,-4.578510862076282,0.23301494121551514,0.4652496576309204,-0.1372055560350418
1772376405388508700,6.4695087890625,1.9948327781163155,0.9998393053561448,-3.4883471426725388,0.4263841211795807,0.6326881647109985,0.14947493374347687
1772376405398458400,6.479458251953125,2.4637480745911597,1.3344649354591964,-2.1347230409741402,0.5006104707717896,0.6428423523902893,0.48479875922203064
1772376405408407600,6.489407470703125,2.6234911850407716,1.4310435875959693,-0.9083160369127988,0.47637832164764404,0.522346556186676,0.7875248193740845
1772376405418357200,6.499357177734375,2.3886682836875317,1.35026909218207,-0.08203238652050494,0.40751147270202637,0.3312899172306061,1.0024425983428955
1772376405428306400,6.509306396484375,1.8092369951382279,1.1225178827807307,0.21927812621891496,0.3293255865573883,0.1465165764093399,1.1067754030227661
1772376405438256400,6.51925634765625,1.048225954319164,0.7593743064627051,0.11498305448591709,0.2628847658634186,0.011630669236183167,1.1049271821975708
1772376405448206300,6.529206298828125,0.35882702829316254,0.42020358027592297,-0.22544950833022592,0.21794100105762482,-0.06707292795181274,1.0312095880508423
1772376405458155500,6.539155517578125,-0.21171499748826025,0.18571677900925276,-0.6234177297919988,0.2079746574163437,-0.08278944343328476,0.9134616851806641
1772376405468105500,6.54910546875,-0.6435605002410709,0.12620675155073405,-1.0132032293200492,0.23527871072292328,-0.04410010576248169,0.7842645645141602
1772376405478054400,6.559054443359375,-0.8595149619299918,0.21700550511181355,-1.2586831337660551,0.28295791149139404,0.031039699912071228,0.6653289198875427
1772376405488004400,6.56900439453125,-0.850698252941668,0.41521351690366864,-1.2750772192060946,0.32392051815986633,0.11540517956018448,0.5900543928146362
1772376405497954300,6.578954345703125,-0.6274794262729585,0.6252746097050607,-1.0643547398865223,0.3578405976295471,0.19243387877941132,0.5651910305023193
1772376405507903500,6.588903564453125,-0.29601620572358367,0.8691440102145075,-0.7178717909902333,0.3711196482181549,0.24754880368709564,0.5912436842918396
1772376405517853400,6.598853515625,0.02927395221404731,1.1009643687508999,-0.3848492121696472,0.3928835988044739,0.27469444274902344,0.6526437401771545
1772376405527802400,6.60880224609375,0.268844778746739,1.27343076717332,-0.06520341679453849,0.42363646626472473,0.2802034616470337,0.7337402105331421
1772376405537752300,6.61875244140625,0.34067250905185936,1.4326272035256027,0.16558745256364343,0.4705142378807068,0.2775512635707855,0.8187099099159241
1772376405547702500,6.62870263671875,0.26096863854415714,1.4966269436188042,0.38548634102940554,0.5223681330680847,0.2741978168487549,0.9015718102455139
1772376405557651500,6.6386513671875,0.11637582401856779,1.4786340446799993,0.6285545081585645,0.5673636794090271,0.27083781361579895,0.95804363489151
1772376405567601400,6.648601318359375,-0.07481726750992237,1.369233466501534,0.9447638993442058,0.5819543600082397,0.2557259500026703,0.9851492643356323
1772376405577550300,6.65855029296875,-0.29273659953102465,1.2289902985528112,1.263629357996583,0.5670199990272522,0.24339276552200317,0.9827683568000793
1772376405587500500,6.66850048828125,-0.48874381334297357,1.1025992764763533,1.5538339548319577,0.5163185000419617,0.23010067641735077,0.9563332796096802
1772376405597450500,6.678450439453125,-0.6105149935990571,0.99219229773432,1.7728741806417703,0.44612792134284973,0.21283361315727234,0.9136722683906555
1772376405607399400,6.6883994140625,-0.7221681730099022,0.9498916176214813,1.957308957016468,0.36044952273368835,0.18870696425437927,0.8588470816612244
1772376405617349400,6.698349365234375,-0.7821683951381594,0.920014950273931,2.0611820039451123,0.2779381275177002,0.16312259435653687,0.7935782074928284
1772376405627299600,6.708299560546875,-0.7865372578721493,0.8636503812342882,2.0927222205907103,0.19333535432815552,0.12739495933055878,0.7241882681846619
1772376405637248500,6.71824853515625,-0.7021436221130192,0.8342968609780073,2.0536498548746107,0.12300118058919907,0.07803107053041458,0.6557297110557556
1772376405647198500,6.728198486328125,-0.5853847901262342,0.8167214567989111,1.9667057309150695,0.07396280020475388,0.024926044046878815,0.5970478057861328
1772376405657147400,6.7381474609375,-0.4714203380983323,0.807196964867413,1.8233488148599861,0.04168394207954407,-0.022670716047286987,0.5540696978569031
1772376405667097600,6.74809765625,-0.4043668364576995,0.841734902024269,1.6282792472243308,0.026617374271154404,-0.05627208575606346,0.5226681232452393
1772376405677047600,6.758047607421875,-0.36829569838419557,0.8668424552738666,1.45492817492187,0.023506099358201027,-0.0863848626613617,0.5078063607215881
1772376405686996500,6.76799658203125,-0.33137108528651293,0.8507292326018214,1.3445663504958152,0.02045358531177044,-0.11582451313734055,0.5044345259666443
1772376405696946400,6.777946533203125,-0.2845020743448287,0.8198881041362881,1.272183835852146,0.009392589330673218,-0.14645244181156158,0.49899962544441223
1772376405706895400,6.787895263671875,-0.28734365444630383,0.725276514288783,1.1832377244204282,-0.004789808765053749,-0.15924547612667084,0.4887416660785675
1772376405716845600,6.797845458984375,-0.3416781789630651,0.6563871024578809,1.0782155074566602,-0.03408609330654144,-0.15062583982944489,0.46715477108955383
1772376405726795500,6.80779541015625,-0.4518039296109229,0.5613651782438158,0.9560732288658619,-0.06702113896608353,-0.15138724446296692,0.44368380308151245
1772376405736744400,6.817744384765625,-0.48835824809148903,0.4531266295820474,0.8690338278383016,-0.09563644230365753,-0.14694049954414368,0.4103459119796753
1772376405746694700,6.827694580078125,-0.5732126332301646,0.36080402745455503,0.7321148358762264,-0.12263637036085129,-0.14531011879444122,0.37602388858795166
1772376405756643600,6.8376435546875,-0.6447993943862617,0.2919353661507368,0.5990320610761642,-0.14123570919036865,-0.1569477766752243,0.32714980840682983
1772376405766593500,6.847593505859375,-0.7414411748871207,0.2228475091382861,0.4220891017615795,-0.1441470831632614,-0.15718133747577667,0.2762988805770874
1772376405776543500,6.85754345703125,-0.7964430042061954,0.1486126446262002,0.23537059836387633,-0.1346791833639145,-0.14319896697998047,0.2189311385154724
1772376405786492400,6.867492431640625,-0.7731606205571442,0.07491846286207438,0.03397065866291523,-0.10902389138936996,-0.10261692106723785,0.17214952409267426
1772376405796442600,6.877442626953125,-0.7005743269696831,0.0508031355202198,-0.0491606290102005,-0.0816228836774826,-0.05278130620718002,0.13458199799060822
1772376405806391600,6.8873916015625,-0.6103764619112014,0.05943126313388347,-0.03715805652737617,-0.06046700105071068,-0.01155184768140316,0.11770769208669662
1772376405816341500,6.897341552734375,-0.5079778349166736,0.04356967713534832,0.0743441701054573,-0.039185065776109695,0.02709212154150009,0.11907472461462021
1772376405826291500,6.90729150390625,-0.4274820468463003,0.015303952115774153,0.231956406006217,-0.026600828394293785,0.049963612109422684,0.12636034190654755
1772376405836240600,6.91724072265625,-0.37396183438710867,-0.03883095817565918,0.4181763122320175,-0.016170375049114227,0.06211298704147339,0.1374415010213852
1772376405846190300,6.9271904296875,-0.3544170298311859,-0.09630787237137556,0.5322206245630979,-0.004439684562385082,0.06171990931034088,0.14570023119449615
1772376405856139500,6.937139404296875,-0.33422665738072244,-0.19307167181670665,0.6227420224875211,0.0032965156715363264,0.04986449331045151,0.1516842544078827
1772376405866089500,6.94708935546875,-0.3082060078741982,-0.30181817000061273,0.7125999880671501,0.0055250488221645355,0.032219987362623215,0.150691956281662
1772376405876039400,6.957039306640625,-0.3128578157354146,-0.37871523945927615,0.7238076107800007,0.005361801479011774,0.023801401257514954,0.15158948302268982
1772376405885988400,6.96698828125,-0.37010296700187023,-0.45667204710394144,0.7122767474621534,-0.003632492618635297,0.01722312718629837,0.14540642499923706
1772376405895938300,6.976938232421875,-0.4277044939579442,-0.5502136696323752,0.6826338888704776,-0.015857458114624023,0.01583276502788067,0.1281181424856186
1772376405905887500,6.986887451171875,-0.4595565164990723,-0.6437266505882143,0.641735476770997,-0.035368841141462326,0.007723173126578331,0.09937997162342072
1772376405915837400,6.99683740234375,-0.5150620575565844,-0.6937570481702685,0.6206476805567741,-0.05408012494444847,-0.002977163065224886,0.06028816103935242
1772376405925787400,7.006787353515625,-0.5355996360095218,-0.7839400079205632,0.5592495012640952,-0.08047071844339371,-0.015549680218100548,0.012094001285731792
1772376405935736300,7.016736328125,-0.5383987286761402,-0.8272764608219265,0.522470214921236,-0.10509777814149857,-0.03549223765730858,-0.038861535489559174
1772376405945686300,7.026686279296875,-0.5408453911758959,-0.8857163748309016,0.4970154556691646,-0.1483677476644516,-0.06518594920635223,-0.09995711594820023
1772376405955636500,7.036636474609375,-0.563056492331624,-0.930349005022645,0.4480068023502826,-0.20310334861278534,-0.12500371038913727,-0.16780899465084076
1772376405965585400,7.04658544921875,-0.5656919188691303,-1.0098457355856896,0.3449631919831037,-0.2640974521636963,-0.19527998566627502,-0.2485714852809906
1772376405975535400,7.056535400390625,-0.5801899979621171,-1.0716387594148515,0.15750526839494705,-0.32243213057518005,-0.24845193326473236,-0.3357655107975006
1772376405985484300,7.066484375,-0.6166117030389606,-1.0970083246015012,-0.1728705953091383,-0.3690260052680969,-0.26372966170310974,-0.43177035450935364
1772376405995434500,7.0764345703125,-0.5860215901924297,-1.0700929912775754,-0.5312438884854317,-0.4007740616798401,-0.2547719180583954,-0.513020932674408
1772376406005384400,7.086384521484375,-0.47016142407841977,-1.027551195885241,-0.8736772697299718,-0.4220801591873169,-0.2352222055196762,-0.5732920169830322
1772376406015333400,7.09633349609375,-0.35724315663520245,-0.911019012261182,-1.1446838296204804,-0.4317103326320648,-0.22481806576251984,-0.6172789335250854
1772376406025283600,7.10628369140625,-0.2911807118585333,-0.7721890721112489,-1.3900012369811534,-0.4140375852584839,-0.18835298717021942,-0.6379253268241882
1772376406035232500,7.116232421875,-0.24667484985161572,-0.638440965270251,-1.5857874284535645,-0.39003852009773254,-0.12807179987430573,-0.6353644728660583
1772376406045182500,7.126182373046875,-0.1457394638100639,-0.5251170761682092,-1.6557389165580272,-0.37342384457588196,-0.08855582028627396,-0.6091504693031311
1772376406055132400,7.13613232421875,-0.07964709881916641,-0.48018633981272574,-1.5374650038331745,-0.3745864927768707,-0.11794835329055786,-0.5675908327102661
1772376406065081300,7.146081298828125,-0.23461492115836588,-0.3949282692439854,-1.380022279280424,-0.40836602449417114,-0.23517005145549774,-0.5467273592948914
1772376406075031600,7.156031494140625,-0.6440868622027337,-0.366094096686691,-1.3932634536474942,-0.4506729245185852,-0.38355568051338196,-0.5749085545539856
1772376406084980500,7.16598046875,-1.1707358971785753,-0.41387262368872757,-1.6928367673307656,-0.4874357283115387,-0.47273269295692444,-0.6577898859977722
1772376406094930400,7.175930419921875,-1.6877908821180463,-0.48651919609606264,-2.226943644031882,-0.4819905459880829,-0.4658670425415039,-0.7831588387489319
1772376406104880600,7.185880615234375,-2.043886001229286,-0.4330006641373038,-2.770473598116636,-0.4308013916015625,-0.36931490898132324,-0.929287850856781
1772376406114829600,7.19582958984375,-2.1155612443864342,-0.2719790581844747,-3.1650814032346006,-0.3282088041305542,-0.19932380318641663,-1.042426586151123
1772376406124779500,7.205779541015625,-1.8524546439655125,-0.07004808034673332,-3.3010166448563334,-0.17822594940662384,0.023724999278783798,-1.0906827449798584
1772376406134728400,7.215728515625,-1.3978558960042893,0.24866876361519097,-3.0731314338117834,0.0024260287173092365,0.24814645946025848,-1.0519834756851196
1772376406144678400,7.225678466796875,-0.8809590973012149,0.6181922502286732,-2.5181506959080693,0.1615871787071228,0.41802310943603516,-0.9248543381690979
1772376406154628600,7.235628662109375,-0.3740802366023883,0.9162674343086779,-1.6528496248573064,0.29193738102912903,0.4904486835002899,-0.7244264483451843
1772376406164577500,7.24557763671875,-0.06282324365973473,1.0715450897820293,-0.7543845353513956,0.39002054929733276,0.44945570826530457,-0.5011376738548279
1772376406174527500,7.255527587890625,-0.06454042284116149,1.1369449059315024,-0.019555764341354368,0.4598047733306885,0.31741297245025635,-0.30610597133636475
1772376406184476400,7.265476318359375,-0.3451661672092974,1.0177727291926741,0.5150958867609501,0.5077952146530151,0.1325853317975998,-0.1831880360841751
1772376406194426600,7.275426513671875,-0.8788940545301884,0.7176344751030206,0.7995873666465282,0.5264222621917725,-0.04952770471572876,-0.1459856629371643
1772376406204376600,7.28537646484375,-1.4517740948051214,0.3990348277799785,0.827814513221383,0.5211750268936157,-0.1913367658853531,-0.18407605588436127
1772376406214325500,7.295325439453125,-2.020953453931212,0.112579208214581,0.7234229953765868,0.47739219665527344,-0.286642462015152,-0.2873641550540924
1772376406224275500,7.305275390625,-2.5818437081396577,-0.07113923658430577,0.6389373704850674,0.3981644809246063,-0.3522678315639496,-0.4554240107536316
1772376406234224600,7.315224609375,-3.0676077019542456,-0.13644333727434277,0.5298346062093973,0.2830957770347595,-0.3849741816520691,-0.6708191633224487
1772376406244174600,7.325174560546875,-3.3294396062642333,-0.13892960113212466,0.39505964053869247,0.15179286897182465,-0.3857435882091522,-0.8957468271255493
1772376406254124300,7.335124267578125,-3.309820129036903,-0.032863428073376416,0.21060791302919388,0.031750984489917755,-0.3338834047317505,-1.1026811599731445
1772376406264073500,7.345073486328125,-2.9937232583150264,0.1723204140804708,-0.03486380811035633,-0.06762487441301346,-0.24576473236083984,-1.2471946477890015
1772376406274023400,7.3550234375,-2.4855975028276442,0.4435083218872547,-0.23928221884965895,-0.12399306893348694,-0.13208657503128052,-1.319856882095337
1772376406283972600,7.36497265625,-1.8505422344729303,0.7165073707692324,-0.3856201965421438,-0.1306115686893463,-0.015351168811321259,-1.3170979022979736
1772376406293922300,7.37492236328125,-1.3006784011915324,0.9600188977517187,-0.4184112900316715,-0.0991104394197464,0.08453352749347687,-1.2564964294433594
1772376406303872300,7.384872314453125,-0.852943693780899,1.1372108633913098,-0.4054366576462984,-0.023656167089939117,0.16519029438495636,-1.135108232498169
1772376406313821400,7.394821533203125,-0.5136599356736987,1.2355772757276893,-0.3176321174651384,0.07571932673454285,0.21417167782783508,-0.9729956388473511
1772376406323771400,7.404771484375,-0.30566103609912093,1.2639109514169393,-0.15569734219014644,0.19026987254619598,0.21411149203777313,-0.8074111938476562
1772376406333720300,7.41472021484375,-0.31220753513313826,1.1474284521535039,0.0904389803379774,0.30090272426605225,0.15683133900165558,-0.6796958446502686
1772376406343670300,7.424670166015625,-0.4789352437730878,0.9199212806411087,0.38042847311794753,0.399432510137558,0.08432386070489883,-0.6082818508148193
1772376406353620500,7.434620361328125,-0.7559992770716547,0.645690205746144,0.6158645379334687,0.46154025197029114,0.003205730579793453,-0.5886592864990234
1772376406363569400,7.4445693359375,-1.1300100651670246,0.408492245824635,0.8289508237749338,0.4932161569595337,-0.05802220478653908,-0.6194957494735718
1772376406373519400,7.454519287109375,-1.4644371770232916,0.24120003516972063,1.0250760379433632,0.48178038001060486,-0.09213314950466156,-0.6793637871742249
1772376406383469300,7.46446923828125,-1.6660142268568277,0.12797434574514627,1.1707447380721567,0.44362500309944153,-0.11204666644334793,-0.75063556432724
1772376406393418500,7.47441845703125,-1.7484686381816863,0.07738982141166925,1.3072475504487753,0.37251806259155273,-0.12341442704200745,-0.8287245035171509
1772376406403368400,7.484368408203125,-1.8300250777535139,0.031535394340008495,1.4274503854095935,0.2772347033023834,-0.1382695436477661,-0.9019380211830139
1772376406413317400,7.4943173828125,-1.8068930623605846,0.030823300547897815,1.4521879363030195,0.18257422745227814,-0.16334940493106842,-0.970562219619751
1772376406423267300,7.504267333984375,-1.7434604546308516,0.030152269418537617,1.374746384704113,0.10242266207933426,-0.18253827095031738,-1.0313067436218262
1772376406433217500,7.514217529296875,-1.7284871957741677,0.08401596155315637,1.1738812825322151,0.03958715870976448,-0.19144511222839355,-1.0829473733901978
1772376406443166500,7.52416650390625,-1.7328244943261146,0.171363259486109,0.9220096312224865,-0.0022159467916935682,-0.18570494651794434,-1.1307896375656128
1772376406453114600,7.534114501953125,-1.6982880184739828,0.27539968028292056,0.6928355494111776,-0.04058970510959625,-0.16420145332813263,-1.1579475402832031
1772376406463064300,7.544064208984375,-1.5424313940688967,0.32895547551214693,0.495675731498003,-0.06406280398368835,-0.15146195888519287,-1.1678422689437866
1772376406473014300,7.55401416015625,-1.3886527449816464,0.4059608276508748,0.3306552651673555,-0.08491570502519608,-0.1298748105764389,-1.157637357711792
1772376406482963500,7.56396337890625,-1.2575848171353339,0.476036234395951,0.18962416171133517,-0.08583609759807587,-0.11065663397312164,-1.1332721710205078
1772376406492913400,7.573913330078125,-1.130462485109642,0.4992436531126499,0.0677607000619173,-0.08103983849287033,-0.08460718393325806,-1.100806713104248
1772376406502862300,7.5838623046875,-1.069132841008529,0.5211120783105492,-0.03614508009254932,-0.06600575894117355,-0.0618203766644001,-1.0638782978057861
1772376406512812300,7.593812255859375,-1.0361263512026517,0.5100831731654704,-0.0919599062949419,-0.047642458230257034,-0.044705357402563095,-1.0216865539550781
1772376406522762500,7.603762451171875,-0.9598038667615503,0.4644496953681111,-0.07239362055957317,-0.032849930226802826,-0.04064696654677391,-0.9788401126861572
1772376406532711400,7.61371142578125,-0.8797629463192075,0.38948403236344453,-0.028936756148934362,-0.017943954095244408,-0.04840235784649849,-0.9376303553581238
1772376406542661400,7.623661376953125,-0.8419104047216475,0.3253324627093971,0.0041822541207075115,0.00047260476276278496,-0.045424412935972214,-0.9004079103469849
1772376406552610300,7.6336103515625,-0.8253572562623769,0.21240166457816959,0.0010094693034887314,0.018416360020637512,-0.04914889484643936,-0.8635445237159729
1772376406562560500,7.643560546875,-0.8386017185650766,0.12705825381353497,-0.00001695113480091095,0.03915306180715561,-0.04888231307268143,-0.8352867364883423
1772376406572510500,7.653510498046875,-0.877215819119662,0.04843567573651671,-0.0059475102275609966,0.05430947244167328,-0.047827914357185364,-0.8191252946853638
1772376406582459400,7.66345947265625,-0.9004149083994328,-0.056333297118544574,-0.008612930044531822,0.07269327342510223,-0.05015471950173378,-0.8125185370445251
