time,seconds_elapsed,accel_x,accel_y,accel_z,gyro_x,gyro_y,gyro_z
1772376422136219100,0.07621923828125,0.00584525542948395,0.5079129895195365,-2.1542542553961277,0.06724751740694046,0.26066938042640686,-0.3726610541343689
1772376422146169000,0.086169189453125,0.17831072227014227,0.5828101173326373,-1.7204741313189267,0.2006860077381134,0.354388952255249,-0.2779981791973114
1772376422156118300,0.0961181640625,0.24669028488276526,0.6533019959241152,-1.1405728871703147,0.3269820213317871,0.39889371395111084,-0.18910793960094452
1772376422166068000,0.10606787109375,0.19290172207728026,0.645223026625812,-0.5050321733862161,0.42922502756118774,0.37708187103271484,-0.1168459951877594
1772376422176017200,0.11601708984375,0.08742525853998959,0.6070286127880216,0.0767968239545822,0.5075502395629883,0.3238332271575928,-0.06398573517799377
1772376422185967000,0.125967041015625,-0.024540603549219667,0.5323302224174141,0.6076397304236889,0.5380759239196777,0.2288806289434433,-0.0400678850710392
1772376422195916300,0.135916259765625,-0.21574264556914566,0.44615211439430713,1.074540033814311,0.5258880853652954,0.12583118677139282,-0.041538819670677185
1772376422205866000,0.145865966796875,-0.4615460098158568,0.30342092902213336,1.4168249464988707,0.45873725414276123,0.023792434483766556,-0.08222899585962296
1772376422215816000,0.15581591796875,-0.7515330914430319,0.1732689469769597,1.6674334460049867,0.34220853447914124,-0.08588021248579025,-0.1591416746377945
1772376422225765000,0.16576513671875,-1.050116517306119,0.039566871234774585,1.7610013720184563,0.1956382691860199,-0.1647779643535614,-0.2650265395641327
1772376422235715000,0.175715087890625,-1.2535231206543742,-0.08907704433500767,1.6459037512421606,0.049820903688669205,-0.23101292550563812,-0.39080774784088135
1772376422245664000,0.1856640625,-1.326821142707765,-0.09320026174485684,1.3757973550617695,-0.08161808550357819,-0.2492412030696869,-0.5224217176437378
1772376422255614000,0.195614013671875,-1.33306880492568,0.05268178887367248,0.9708359137117862,-0.182126984000206,-0.2380744069814682,-0.6320618391036987
1772376422265563100,0.205563232421875,-1.2360960389047861,0.3008487404465675,0.44520518893301486,-0.2600122094154358,-0.18792122602462769,-0.6989982724189758
1772376422275513000,0.21551318359375,-1.0074833173032849,0.5164084306642412,-0.08225333579480648,-0.3041900098323822,-0.1189153790473938,-0.7245842218399048
1772376422285463000,0.225463134765625,-0.6442885953199118,0.6761299138039351,-0.44863633242547507,-0.31438377499580383,-0.035411424934864044,-0.722854495048523
1772376422295412000,0.235411865234375,-0.28173586103450504,0.813056796811521,-0.7275900519281625,-0.27344533801078796,0.10335405170917511,-0.6681262254714966
1772376422305362200,0.245362060546875,-0.0318311258835718,1.0230945087373255,-0.9521902499526739,-0.1954174041748047,0.23675738275051117,-0.5663713812828064
1772376422315311000,0.25531103515625,0.2299662551023066,1.2015864510595797,-0.9219003256291151,-0.09727770835161209,0.3384263515472412,-0.4166855812072754
1772376422325261000,0.265260986328125,0.5187621907161548,1.2873545169770717,-0.7163958732187747,0.012025879696011543,0.3681536018848419,-0.24328476190567017
1772376422335210000,0.2752099609375,0.7160444294326007,1.2102812141686676,-0.3390390626311302,0.11781713366508484,0.33596521615982056,-0.0910593792796135
1772376422345160200,0.28516015625,0.6732398183856159,1.0283321171298623,0.15152677850723265,0.2033597230911255,0.270964115858078,0.011261130683124065
1772376422355110100,0.295110107421875,0.3972795085452497,0.7450482594683766,0.5586082807511091,0.26206672191619873,0.20190466940402985,0.06270163506269455
1772376422365059000,0.30505908203125,0.07436112124025822,0.49276510474830865,0.843836842739582,0.2874269485473633,0.15109661221504211,0.07460436969995499
1772376422375009000,0.315009033203125,-0.23128749376870691,0.28728374095261094,1.1233522877782582,0.2667196989059448,0.12014935910701752,0.04934782162308693
1772376422384958000,0.3249580078125,-0.4749264465231448,0.09795505505651235,1.3641864122450351,0.20778317749500275,0.1114293783903122,0.0061311074532568455
1772376422394908200,0.334908203125,-0.6614725890286266,-0.049206513978540894,1.5306407107710838,0.12916383147239685,0.11857207864522934,-0.05354836955666542
1772376422404857000,0.344857177734375,-0.7812503304451703,-0.18993658866137264,1.6186206075191496,0.0388893261551857,0.1385369896888733,-0.11431052535772324
1772376422414807000,0.35480712890625,-0.8389912293393165,-0.24506314033865928,1.6677379819095133,-0.04389161616563797,0.16122637689113617,-0.17381013929843903
1772376422424757200,0.36475732421875,-0.7941377229385077,-0.2522486679285765,1.6656845565110443,-0.11981168389320374,0.151544988155365,-0.2168886363506317
1772376422434706200,0.3747060546875,-0.6662813044846058,-0.23037498203366993,1.6623340770393609,-0.1865551620721817,0.10871941596269608,-0.24430374801158905
1772376422444656000,0.38465625,-0.49703043404258784,-0.21220833396315572,1.6305676504224538,-0.22709618508815765,0.045787595212459564,-0.2536122798919678
1772376422454605000,0.39460498046875,-0.3595948708605021,-0.1464969676464796,1.4672446356594562,-0.25690969824790955,-0.010319213382899761,-0.24992483854293823
1772376422464555000,0.404554931640625,-0.28591932073161,-0.07497896087765693,1.1990689152806997,-0.26791226863861084,-0.049006689339876175,-0.2351701408624649
1772376422474504200,0.414504150390625,-0.25352745569273827,-0.00982815105319023,0.8915238920658827,-0.26670390367507935,-0.057949602603912354,-0.2156716138124466
1772376422484454100,0.4244541015625,-0.24859365255236623,0.03390489995032549,0.5861018523544073,-0.25773942470550537,-0.04508306831121445,-0.18651479482650757
1772376422494404000,0.434404052734375,-0.2609434310376644,0.04445405875444412,0.3541565522640943,-0.23847076296806335,-0.023554379120469093,-0.1548273265361786
1772376422504353000,0.44435302734375,-0.27100736360810695,0.04204144465476274,0.20151684407889842,-0.22075915336608887,0.007919124327600002,-0.12228402495384216
1772376422514303200,0.45430322265625,-0.2952237401716411,0.0442108976483345,0.1265413903325796,-0.19850042462348938,0.044464461505413055,-0.08540839701890945
1772376422524252200,0.464252197265625,-0.3003146335698664,-0.01500350786447525,0.10570026235580443,-0.1727609783411026,0.07736222445964813,-0.041292332112789154
1772376422534202000,0.4742021484375,-0.33935594656057655,-0.10330430712997912,0.13137129470705985,-0.15096591413021088,0.09784598648548126,-0.09618279337882996
1772376422544151000,0.484151123046875,-0.3438659713309258,-0.20670710619837043,0.17897066574990747,-0.11750010401010513,0.11235914379358292,0.08284500986337662
1772376422554101200,0.494101318359375,-0.39861382588893174,-0.3024348405942321,0.3113818248987198,-0.094196617603302,0.09306364506483078,-0.05601874366402626
1772376422564051200,0.50405126953125,-0.45493872050531203,-0.41632454688549037,0.4651543365061283,-0.07131446897983551,0.06881769001483917,0.11012601852416992
1772376422574000000,0.514000244140625,-0.5275350240301341,-0.5216232427030801,0.6040238780140876,-0.06266257166862488,0.04155103117227554,-0.049422964453697205
1772376422583950000,0.5239501953125,-0.5990713701732456,-0.63353317335397,0.6924912660181523,-0.05380462855100632,0.033090170472860336,0.10651017725467682
1772376422593899300,0.533899169921875,-0.7060683212760835,-0.7115890574589371,0.7516121480286121,-0.062566377222538,0.02190777286887169,-0.07525075972080231
1772376422603849200,0.54384912109375,-0.7895166390091181,-0.7970669082581996,0.8345143031209706,-0.07921592891216278,0.024395696818828583,0.06683686375617981
1772376422613798100,0.553798095703125,-0.8199429030634462,-0.8867632535353303,0.8980933335840702,-0.11799529939889908,0.027336835861206055,-0.13871809840202332
1772376422623748000,0.563748046875,-0.8524627783961594,-0.9578387772336602,0.8917501020371913,-0.15452614426612854,0.04086462780833244,-0.010650680400431156
1772376422633698300,0.5736982421875,-0.8962092734031378,-0.9960957349136471,0.8084457958847284,-0.1933879405260086,0.03531789034605026,-0.22046613693237305
1772376422643647200,0.583647216796875,-0.8750483388874679,-1.0006348396480083,0.6549263822555541,-0.1984490156173706,0.031178273260593414,-0.0860113874077797
1772376422653597000,0.593596923828125,-0.7791478052079677,-0.9966063147842883,0.4320160370141268,-0.19609370827674866,0.03156416490674019,-0.27638161182403564
1772376422663545900,0.6035458984375,-0.6381352603219449,-0.9739797646954655,0.19342998373508452,-0.16265639662742615,0.016420632600784302,-0.12048840522766113
1772376422673495800,0.613495849609375,-0.4763951308362186,-0.8984212503641843,-0.024430676901340483,-0.12429297715425491,0.0077691711485385895,-0.27246373891830444
1772376422683444700,0.62344482421875,-0.3220064600918442,-0.838993494361639,-0.21946575774550436,-0.07895959168672562,-0.00424940837547183,-0.09075679630041122
1772376422693394700,0.633394775390625,-0.241253884248808,-0.7940554514825343,-0.3116477823585272,-0.0645262748003006,-0.022814884781837463,-0.22814200818538666
1772376422703345000,0.643344970703125,-0.2172483739569783,-0.7949217129230499,-0.33231296924650666,-0.04752678796648979,-0.0650201290845871,-0.058986812829971313
1772376422713293800,0.6532939453125,-0.17067432737387717,-0.8039388398542999,-0.446950571295619,-0.030332962051033974,-0.09259335696697235,-0.19462664425373077
1772376422723243800,0.663243896484375,-0.1439837427165359,-0.863977128970623,-0.5814525652438401,-0.0017854722682386637,-0.06246715039014816,-0.046847838908433914
1772376422733192700,0.673192626953125,-0.11712401203736662,-0.9236220348551869,-0.6909808614552021,0.008982263505458832,-0.004102347884327173,-0.17570503056049347
1772376422743143000,0.683142822265625,-0.13946268509551882,-0.8861720096439123,-0.7671504934221506,0.020494043827056885,0.0765078142285347,-0.017913799732923508
1772376422753091800,0.693091796875,-0.016891002111509443,-0.9360036697834729,-0.7157365325272083,0.013230123557150364,0.1710435152053833,-0.13014069199562073
1772376422763041800,0.703041748046875,0.11421068187393248,-0.9962547248676419,-0.5181120197117328,-0.013106674887239933,0.21113181114196777,0.01618296653032303
1772376422772991700,0.71299169921875,0.3863393776621669,-1.1288885868564247,-0.15102642776966094,-0.07459838688373566,0.19295957684516907,-0.10083185136318207
1772376422782941000,0.72294091796875,0.6725553432527929,-1.245600072570145,0.24680150843858717,-0.15641336143016815,0.07627691328525543,0.013169552199542522
1772376422792891000,0.732890869140625,0.7848994275372475,-1.3392206055536866,0.4916407768934965,-0.2614520788192749,-0.05780697986483574,-0.12364180386066437
1772376422802839800,0.74283984375,0.6567275864586234,-1.3292597680315374,0.46957799816727636,-0.3603126108646393,-0.20444782078266144,-0.058152541518211365
1772376422812789800,0.752789794921875,0.3725701608330011,-1.1888646243914962,0.13423545196652412,-0.45143070816993713,-0.2771734893321991,-0.21966154873371124
1772376422822738700,0.76273876953125,0.06706584966555237,-1.0030468692257999,-0.45699674901366233,-0.5049559473991394,-0.3114832639694214,-0.18585537374019623
1772376422832689000,0.77268896484375,-0.0943099034871906,-0.8091419614553451,-1.1003455062001943,-0.5355756878852844,-0.3087036609649658,-0.3480781614780426
1772376422842638800,0.782638916015625,-0.07622706124261021,-0.6828098299592733,-1.6177549306005239,-0.5288214087486267,-0.2667008340358734,-0.30955955386161804
1772376422852587800,0.792587890625,0.1538858357887715,-0.49416883406639095,-2.115157924282551,-0.4734051525592804,-0.18447931110858917,-0.39595937728881836
1772376422862538000,0.8025380859375,0.43893611860089,-0.27356998063772914,-2.4838415990710256,-0.3780946135520935,-0.1056755781173706,-0.29601386189460754
1772376422872487000,0.81248681640625,0.7325896137811243,-0.010356851102411746,-2.6237697097212074,-0.2532092332839966,-0.007342277094721794,-0.2892848253250122
1772376422882436900,0.822436767578125,0.9485573733430355,0.28765418170019985,-2.6064754605710503,-0.1163424476981163,0.07186838984489441,-0.12134482711553574
1772376422892385800,0.8323857421875,1.203303118784353,0.5912834927760064,-2.408003975537419,0.020567292347550392,0.17673912644386292,-0.013654920272529125
1772376422902335700,0.842335693359375,1.4406325230658052,0.8295841532424092,-2.0027005888819693,0.13575886189937592,0.23314620554447174,0.1983574777841568
1772376422912285000,0.852284912109375,1.5585774960972367,0.9516953060425818,-1.463591373848915,0.21123845875263214,0.280154824256897,0.3423962891101837
1772376422922235000,0.86223486328125,1.55245886708647,0.9458326976194977,-0.8659516439139843,0.274214506149292,0.27834761142730713,0.4668274223804474
1772376422932184600,0.8721845703125,1.43192343917042,0.8344687104135752,-0.35284430062174793,0.3348277807235718,0.2747962176799774,0.5524454712867737
1772376422942133800,0.8821337890625,1.2909212695479393,0.7261033205017448,0.05733925929069519,0.3806634545326233,0.23859110474586487,0.6114041209220886
1772376422952083700,0.892083740234375,1.1712339098285882,0.6726449942976236,0.43188042793571946,0.4035426378250122,0.15648604929447174,0.6468279361724854
1772376422962033000,0.902032958984375,1.114411367888376,0.630459757257998,0.8096142551422119,0.3892078995704651,0.042547766119241714,0.6793440580368042
1772376422971982600,0.911982666015625,1.063207542612776,0.571687834815681,1.1029185715585947,0.33736446499824524,-0.09467897564172745,0.6909736394882202
1772376422981931800,0.921931884765625,1.0041414595294744,0.4751712881296873,1.2690215724289418,0.2671683430671692,-0.2435036152601242,0.6857202649116516
1772376422991881700,0.9318818359375,0.9755712716706096,0.3801911572307348,1.2069997082799673,0.18648144602775574,-0.357341468334198,0.6556623578071594
1772376423001831700,0.941831787109375,0.872845202820003,0.2827028429031372,0.9226432529509067,0.10482946038246155,-0.43142423033714294,0.6079561114311218
1772376423011780900,0.95178076171875,0.6853967777125537,0.31189123572558164,0.4404050951749086,0.03838364779949188,-0.4909420609474182,0.5564357042312622
1772376423021730600,0.96173046875,0.46548298393860454,0.45555707159936426,-0.153659698882699,-0.016593320295214653,-0.5312684178352356,0.5176446437835693
1772376423031679700,0.9716796875,0.2487236721402034,0.6387444782614707,-0.8016618348330259,-0.051658838987350464,-0.5748894214630127,0.4777289032936096
1772376423041629700,0.981629638671875,0.12050108725503086,0.748643069089949,-1.365428521260619,-0.05927867442369461,-0.5782745480537415,0.4285179376602173
1772376423051579000,0.991578857421875,0.05338230182584375,0.7811790187746286,-1.975371267929673,-0.00034765154123306274,-0.4793720841407776,0.3867391049861908
1772376423061528600,1.001528564453125,-0.004440722393803298,0.9134922705069184,-2.650186592003703,0.11567588895559311,-0.2817085385322571,0.35709360241889954
1772376423071478800,1.011478759765625,-0.03123169868569821,1.141020046415925,-2.9919980419576166,0.26537150144577026,-0.011873256415128708,0.37512853741645813
1772376423081427700,1.021427734375,0.08866057248860597,1.367252521817386,-2.9602444748222827,0.4108615815639496,0.2715475261211395,0.44100502133369446
1772376423091377700,1.031377685546875,0.33756566561032086,1.5435995610654354,-2.335743041446805,0.5048153400421143,0.4741363525390625,0.5438635945320129
1772376423101326600,1.04132666015625,0.6208802472036331,1.6063234360039234,-1.2134499073326588,0.5429957509040833,0.5733615159988403,0.6464621424674988
1772376423111276800,1.05127685546875,0.7591792222820222,1.5586571372047067,-0.0920645357131958,0.5514993667602539,0.6279623508453369,0.7417652010917664
1772376423121225700,1.061225830078125,0.6976012294430285,1.4752876568615436,0.8166425463438034,0.5297290682792664,0.6076706647872925,0.8091405034065247
1772376423131175700,1.07117578125,0.5846021883811802,1.3153957855910061,1.596806835117936,0.48458051681518555,0.5390130281448364,0.8447670340538025
1772376423141125600,1.081125732421875,0.371791029686667,1.101673832194507,2.188895945188403,0.4224250018596649,0.4482327997684479,0.8342393040657043
1772376423151074600,1.091074462890625,0.1241555911745876,0.8488380120277405,2.60837807932198,0.341102659702301,0.3349294662475586,0.7770518064498901
1772376423161024800,1.101024658203125,-0.11123214098718016,0.5649918443083762,2.9101918654084202,0.23271602392196655,0.2253773957490921,0.6831285357475281
1772376423170973700,1.1109736328125,-0.2777172730429098,0.3432660326763987,3.04999371933043,0.1153147742152214,0.11192324012517929,0.573858916759491
1772376423180923600,1.120923583984375,-0.42754959565717726,0.15789748258292674,3.0350182685166596,-0.007340835407376289,0.015346633270382881,0.43671542406082153
1772376423190872600,1.13087255859375,-0.49298389859814196,0.02165449018627405,2.9063983183443542,-0.11695213615894318,-0.07232477515935898,0.301386296749115
1772376423200822800,1.14082275390625,-0.5461558821415529,-0.04752046058773994,2.633774970906973,-0.20962561666965485,-0.11809679120779037,0.17443369328975677
1772376423210771700,1.150771728515625,-0.5005774955322966,-0.04703793776780366,2.264027466279268,-0.27603569626808167,-0.1425563395023346,0.08713945746421814
1772376423220721700,1.1607216796875,-0.42209279155600815,0.1011640802308917,1.8300158715337513,-0.31672000885009766,-0.1567126363515854,0.04584740847349167
1772376423230671600,1.170671630859375,-0.2803717696070671,0.26232991696000096,1.415588098180294,-0.3400796353816986,-0.14709079265594482,0.03519946336746216
1772376423240620800,1.180620849609375,-0.14109784854929894,0.3689475864216685,1.0537556044608354,-0.36367684602737427,-0.18309620022773743,0.03393632546067238
1772376423250570800,1.19057080078125,-0.04703227521199733,0.37729602031111714,0.8453431556493043,-0.3722894787788391,-0.19394902884960175,0.03339124843478203
1772376423260519700,1.200519775390625,0.02613558112308383,0.3290937149390578,0.5575421128243208,-0.36391544342041016,-0.20420272648334503,0.025122400373220444
1772376423270469600,1.2104697265625,0.00425272554103285,0.2676315304994583,0.2307271564722061,-0.33712509274482727,-0.18723386526107788,0.013809291645884514
1772376423280418800,1.220418701171875,-0.006032813890837133,0.23199586123377083,-0.1142635080397129,-0.2869037389755249,-0.14563289284706116,0.00437078345566988
1772376423290368800,1.23036865234375,-0.02618252553734928,0.20984014352709054,-0.3912918124377727,-0.23276235163211823,-0.0697193518280983,0.00893815141171217
1772376423300318700,1.240318603515625,-0.013285196171887219,0.21696868023276328,-0.5221317767471074,-0.17679521441459656,-0.005885510239750147,0.022768212482333183
1772376423310267600,1.250267578125,0.06348426485173404,0.16876637486070392,-0.5017588508039713,-0.13373015820980072,0.05275800824165344,0.04328484460711479
1772376423320217900,1.2602177734375,0.1407472450133413,0.10471008227467536,-0.30850363911390305,-0.11234363168478012,0.08058244735002518,0.06468494236469269
1772376423330166800,1.270166748046875,0.1570352762630209,0.029145430463552474,-0.04877893621623516,-0.10167966037988663,0.08691930025815964,0.07576284557580948
1772376423340116700,1.28011669921875,0.1360748692881316,-0.1047413541957736,0.22431670490801334,-0.10103809833526611,0.07417900115251541,0.07528933137655258
1772376423350065700,1.290065673828125,0.09581102876514196,-0.24532968232035635,0.4508025705486536,-0.11286050826311111,0.04977641999721527,0.06174967810511589
1772376423360016000,1.300015869140625,0.05515935796834528,-0.3732525901392102,0.5712035584300756,-0.11499476432800293,0.027289751917123795,0.0390145368874073
1772376423369965800,1.3099658203125,0.02213401733152568,-0.48491088411659,0.6579127045899629,-0.11628744751214981,-0.0023764781653881073,0.01456880196928978
1772376423379914800,1.319914794921875,0.009126469057239591,-0.5799085506722331,0.6799760678380727,-0.12155651301145554,-0.0344473272562027,-0.016152625903487206
1772376423389864700,1.32986474609375,0.008073270209878683,-0.619922288891673,0.6830296101897955,-0.13412003219127655,-0.07597419619560242,-0.04512912780046463
1772376423399813600,1.339813720703125,0.0057356210425496094,-0.6823468886226415,0.6814560772627591,-0.14628615975379944,-0.11324620246887207,-0.0726691409945488
1772376423409763800,1.349763916015625,0.03809475285559893,-0.7254509940728545,0.5853256072849035,-0.15501786768436432,-0.14005964994430542,-0.09946777671575546
1772376423419712800,1.359712646484375,0.07904471247922629,-0.7353241533115505,0.4211123656839132,-0.1569792777299881,-0.1538628190755844,-0.1229693740606308
1772376423429662700,1.369662841796875,0.10578929234612733,-0.7092936399981379,0.2286445049792528,-0.15111178159713745,-0.15559189021587372,-0.14261215925216675
1772376423439611600,1.379611572265625,0.16228702277876436,-0.6576075841635465,0.06860942584574223,-0.13107895851135254,-0.14920084178447723,-0.1456657350063324
1772376423449561900,1.389561767578125,0.2410513474140316,-0.60578182759732,-0.08496201023161411,-0.11162468791007996,-0.14888492226600647,-0.13465994596481323
1772376423459511800,1.39951171875,0.33060755356810984,-0.5751195628300309,-0.1870867521882057,-0.09596050530672073,-0.16856782138347626,-0.12354738265275955
1772376423469460700,1.409460693359375,0.39511568157486615,-0.5871376251429319,-0.2576572489738464,-0.07319293916225433,-0.2064620703458786,-0.11823359876871109
1772376423479410700,1.41941064453125,0.4254065192138776,-0.6202978442057967,-0.33227380627989767,-0.04736773297190666,-0.2343384474515915,-0.11606525629758835
1772376423489360000,1.42935986328125,0.4186044379835948,-0.686715605226159,-0.4996610017418861,-0.02574206329882145,-0.25909677147865295,-0.12641535699367523
1772376423499309800,1.439309814453125,0.41738830365948376,-0.7506105697706341,-0.6750251674324274,-0.001436459133401513,-0.26465773582458496,-0.14568732678890228
1772376423509258800,1.4492587890625,0.43472160617839545,-0.752449767896533,-0.8903478340238332,0.028696579858660698,-0.2488844096660614,-0.1604565680027008
1772376423519208700,1.459208740234375,0.45473253040872513,-0.7427084183439612,-1.086239239436388,0.05861399695277214,-0.2350870966911316,-0.1668766438961029
1772376423529159000,1.469158935546875,0.4608160881061107,-0.6921586730629206,-1.1868255197793245,0.08144635707139969,-0.24298490583896637,-0.17200034856796265
1772376423539107800,1.47910791015625,0.4460488732155412,-0.6062585051983594,-1.1971674655735491,0.08534655719995499,-0.2341429442167282,-0.17321661114692688
1772376423549057800,1.489057861328125,0.406418362160027,-0.5169651877641678,-1.2131465404719113,0.06748972833156586,-0.17988424003124237,-0.16865918040275574
1772376423559006700,1.4990068359375,0.3986399832434952,-0.5107090499788522,-1.1654992386341094,0.006367518566548824,-0.1474594622850418,-0.15616415441036224
1772376423568957000,1.50895703125,0.441746097987704,-0.6459989794343709,-0.9175923993021249,-0.10871287435293198,-0.21493715047836304,-0.15748611092567444
1772376423578905900,1.51890576171875,0.31354316765107215,-0.7973971631258726,-0.6720803461521864,-0.24698473513126373,-0.39980900287628174,-0.20056433975696564
1772376423588855800,1.528855712890625,-0.1641019997788593,-0.8068532659962773,-0.7620353423655033,-0.36087873578071594,-0.598365843296051,-0.2948216199874878
1772376423598804700,1.5388046875,-0.8276326538484543,-0.7389984579101204,-1.3987994604647158,-0.42077723145484924,-0.6831870079040527,-0.4206956624984741
1772376423608755000,1.5487548828125,-1.3809852790936827,-0.6099450847566127,-2.2461580475896596,-0.46451836824417114,-0.6560020446777344,-0.5765929222106934
1772376423618705000,1.558704833984375,-1.6483356545642018,-0.567002891869843,-2.85608851929903,-0.46332499384880066,-0.4749995172023773,-0.7294458746910095
1772376423628653800,1.56865380859375,-1.6648723633453248,-0.43060178630203005,-3.4532442651093005,-0.4027414917945862,-0.17913465201854706,-0.853061318397522
1772376423638603800,1.578603759765625,-1.4879156677663326,-0.13355243813842535,-3.7396442089647053,-0.28295889496803284,0.13721106946468353,-0.89774489402771
1772376423648552700,1.588552734375,-1.0402692231610418,0.2826347461029887,-3.6453532293736934,-0.11432282626628876,0.42498528957366943,-0.8299225568771362
1772376423658503000,1.5985029296875,-0.39720907365754243,0.7354457338646054,-3.091274993267655,0.07432431727647781,0.6241194009780884,-0.668258011341095
1772376423668451800,1.608451904296875,0.24855143911214544,1.0721204054519533,-2.154479296323657,0.2391158789396286,0.7109026312828064,-0.45000725984573364
1772376423678401800,1.61840185546875,0.6373319811150431,1.1550590931624174,-1.1106325069367884,0.389438271522522,0.7201685309410095,-0.21977511048316956
1772376423688351700,1.628351806640625,0.751236446584016,1.1473936731010674,-0.1476297710686922,0.5129361748695374,0.6623656749725342,-0.021989259868860245
1772376423698301000,1.638301025390625,0.6124284260049462,1.0279001554533838,0.7301216162323951,0.5899255275726318,0.506591796875,0.11018688976764679
1772376423708251000,1.6482509765625,0.3436054572312161,0.8558853001907467,1.4195780445992945,0.6382672786712646,0.32217442989349365,0.1857413500547409
1772376423718199800,1.65819970703125,-0.026924868337251245,0.6341062970668077,1.899635351204872,0.6466357707977295,0.14188748598098755,0.19119976460933685
1772376423728149800,1.668149658203125,-0.507673664338328,0.336989728885889,2.1807044554263353,0.6028837561607361,-0.013391844928264618,0.14526662230491638
1772376423738099000,1.678098876953125,-1.047623239185661,0.03191840230822563,2.2844442313641307,0.509196937084198,-0.11710093170404434,0.04328087344765663
1772376423748049000,1.688048828125,-1.4972987054005265,-0.17832973749786615,2.277804062697291,0.3631405234336853,-0.1858273297548294,-0.11768324673175812
1772376423757997800,1.697997802734375,-1.9542197588294743,-0.3214347246184945,2.248863214895129,0.17793765664100647,-0.23657360672950745,-0.316604882478714
1772376423767947800,1.70794775390625,-2.2582620346203446,-0.34509880106151103,2.111529796913266,-0.010209263302385807,-0.2533624470233917,-0.5313926339149475
1772376423777897700,1.717897705078125,-2.3110360318221153,-0.26567075182050465,1.8227052562594412,-0.17701396346092224,-0.2267145961523056,-0.7269429564476013
1772376423787847000,1.727846923828125,-2.121221608235687,-0.03372165233790874,1.3286977502346038,-0.2880163788795471,-0.164298415184021,-0.8683556318283081
1772376423797796600,1.737796630859375,-1.6658286411568521,0.32782004174143076,0.8356564588934182,-0.368609756231308,-0.1286109834909439,-0.94157874584198
1772376423807745800,1.747745849609375,-1.1181045963831244,0.6327127968817949,0.5365343961089849,-0.40187951922416687,-0.09858961403369904,-0.9494754672050476
1772376423817695700,1.75769580078125,-0.4240996378663927,0.7999056388154625,0.20431378132104872,-0.3691471517086029,-0.04621163010597229,-0.8876126408576965
1772376423827645000,1.76764501953125,0.11046839007306844,1.0681687452167272,-0.0867313579916954,-0.27540913224220276,0.009041829034686089,-0.7584773302078247
1772376423837594600,1.7775947265625,0.5286487939583138,1.3069915298610926,-0.31300095053315163,-0.13067005574703217,0.061849117279052734,-0.5781992077827454
1772376423847544600,1.787544677734375,0.8665849733814597,1.438458686158061,-0.3858382232069969,0.033105429261922836,0.1037106066942215,-0.36064741015434265
1772376423857493800,1.79749365234375,1.0480092428285628,1.492140884245932,-0.2845674677312374,0.1707754135131836,0.09430193901062012,-0.15392565727233887
1772376423867443700,1.807443603515625,0.9848087633542716,1.3405369488492607,0.03866495395898819,0.2520435154438019,0.034950848668813705,-0.00017048767767846584
1772376423877393000,1.817392822265625,0.6942066916339099,0.9928791109547018,0.5175543858289718,0.2777893543243408,-0.036297231912612915,0.06336907297372818
1772376423887342600,1.827342529296875,0.27362543715201315,0.5581488465458154,0.8932230971992016,0.2647700309753418,-0.05815226584672928,0.05789944902062416
1772376423897291800,1.837291748046875,-0.18869915582090616,0.2605284204959869,1.003203228831291,0.21562618017196655,-0.07748708128929138,-0.00045254104770720005
1772376423907241700,1.84724169921875,-0.6158103235282003,0.03283610167503357,1.081504027608037,0.12565895915031433,-0.07984305173158646,-0.09832293540239334
1772376423917191000,1.85719091796875,-0.8559018859993666,-0.1589423154607415,1.1935989594370127,0.02009284868836403,-0.05887998640537262,-0.1949903517961502
1772376423927140600,1.867140625,-0.9893605814397335,-0.22502894483059643,1.155000056451559,-0.07938054203987122,-0.044213831424713135,-0.28909024596214294
1772376423937090800,1.8770908203125,-1.0011544065427034,-0.24459639960974452,1.0728712238192557,-0.16619452834129333,-0.01874469220638275,-0.36762261390686035
1772376423947039700,1.887039794921875,-0.885731426269561,-0.20103695160746574,0.9361515538215637,-0.22960753738880157,-0.006280210334807634,-0.4207563102245331
1772376423956989700,1.89698974609375,-0.6854375481143593,-0.11850947504639625,0.770773360094428,-0.27495771646499634,-0.003792818170040846,-0.43670305609703064
1772376423966938600,1.906938720703125,-0.4353443777192384,0.00670592737942934,0.5635024825334548,-0.2884186804294586,-0.015324408188462257,-0.42349421977996826
1772376423976888600,1.916888671875,-0.22371651052515953,0.12954846319407223,0.3421154013365507,-0.28221938014030457,-0.03265546262264252,-0.38191989064216614
1772376423986837800,1.926837646484375,-0.10110705281402915,0.21133418147712946,0.10280337187051772,-0.260979026556015,-0.0375773087143898,-0.327670156955719
1772376423996787700,1.93678759765625,-0.0005422536505386233,0.26724574605226514,-0.08985153583884238,-0.22138313949108124,-0.03112047351896763,-0.26627257466316223
1772376424006737700,1.946737548828125,0.04939670278839767,0.29704701007604595,-0.20802081914544104,-0.18526285886764526,-0.019001401960849762,-0.20330069959163666
1772376424016686600,1.9566865234375,0.04125935436636209,0.30318741252720355,-0.23225743477940558,-0.15885308384895325,0.0008996007964015007,-0.14253242313861847
1772376424026636800,1.96663671875,-0.0070513798162341115,0.24510844078511,-0.18407061923742293,-0.14039482176303864,0.036038853228092194,-0.08479519188404083
1772376424036585700,1.976585693359375,-0.08882968197781592,0.16247545802295207,-0.0935889688014984,-0.1288342922925949,0.0755215510725975,-0.041789401322603226
1772376424046535700,1.98653564453125,-0.19155297434944657,0.06354863532483578,0.05035656079649925,-0.11891878396272659,0.10685166716575623,-0.007783909328281879
1772376424056484600,1.996484619140625,-0.24211992649361488,-0.0574237227037549,0.2641325824677944,-0.11346383392810822,0.12145058810710907,0.014740574173629284
1772376424066434800,2.006434814453125,-0.25176519526056945,-0.2142453927487135,0.5060802211344242,-0.11666573584079742,0.11173010617494583,0.03044598549604416
1772376424076383700,2.0163837890625,-0.25298834384735674,-0.32016806568354367,0.74495795083642,-0.11900932341814041,0.07174993306398392,0.0427444651722908
1772376424086333700,2.026333740234375,-0.24727873402889816,-0.402054321731627,0.9413117130637169,-0.12040560692548752,0.027649903669953346,0.05347428843379021
1772376424096283600,2.03628369140625,-0.2519977619074285,-0.4784761748939752,1.0455600230455397,-0.12545177340507507,-0.02052880823612213,0.06345129013061523
1772376424106232600,2.046232666015625,-0.285068476055935,-0.5712114494755863,1.093617074728012,-0.1341657191514969,-0.0561322420835495,0.0707697793841362
1772376424116182800,2.056182861328125,-0.33246359323095526,-0.6290101429715752,1.0666238538622856,-0.14108994603157043,-0.07216766476631165,0.0724337175488472
1772376424126131700,2.066131591796875,-0.3717924909913912,-0.7080217203661799,0.995217490774393,-0.15164755284786224,-0.0656009316444397,0.07084187865257263
1772376424136081700,2.07608154296875,-0.4037738755332306,-0.7992644183024764,0.8884025451749563,-0.15274691581726074,-0.05394667387008667,0.06358502805233002
1772376424146030600,2.086030517578125,-0.4349130370972678,-0.8594497146740555,0.7952654117941856,-0.1545708328485489,-0.028648581355810165,0.05721312761306763
1772376424155980800,2.095980712890625,-0.4634903122840449,-0.9244479642853141,0.753195617827773,-0.16129851341247559,-0.005022612400352955,0.03984345868229866
1772376424165929700,2.1059296875,-0.452039966856502,-0.9870919058553874,0.7394049928843974,-0.1754988431930542,0.01475989818572998,0.019172875210642815
1772376424175879700,2.115879638671875,-0.45874015861488876,-1.0553136475577949,0.7284475455403328,-0.18983730673789978,0.012674376368522644,-0.0008391831070184708
1772376424185830000,2.125829833984375,-0.4537928018731996,-1.0854949969403445,0.6952274129837751,-0.20198358595371246,0.007642476819455624,-0.022579848766326904
1772376424195778800,2.13577880859375,-0.43153588881436733,-1.117223721895367,0.589655160921812,-0.20066584646701813,-0.0060136811807751656,-0.042688846588134766
1772376424205728800,2.145728759765625,-0.3713716352308169,-1.1321598636120558,0.42566812929213044,-0.1886281967163086,-0.015631455928087234,-0.06172500550746918
1772376424215677700,2.155677734375,-0.3061614233693108,-1.12780634457767,0.19437574015259743,-0.16386133432388306,-0.02973475679755211,-0.07469166815280914
1772376424225627600,2.165627685546875,-0.24058840607739984,-1.07212201288715,-0.028569676402211187,-0.1345207393169403,-0.03195551410317421,-0.07599719613790512
1772376424235576800,2.175576904296875,-0.15462324668522923,-1.017759869711101,-0.24359306778609752,-0.10969209671020508,-0.02696128934621811,-0.06297513842582703
1772376424245526800,2.18552685546875,-0.07439385446608066,-0.9580515432015061,-0.42586803577840326,-0.09044679999351501,-0.0028965934179723263,-0.036668021231889725
1772376424255476700,2.195476806640625,-0.049949185572005804,-0.940120603583008,-0.5905383734971285,-0.08537640422582626,-0.021922215819358826,-0.033670369535684586
1772376424265425700,2.20542578125,-0.07418123462870717,-1.0209496056631207,-0.57777884516716,-0.06703928112983704,0.052390702068805695,-0.028056131675839424
1772376424275375900,2.2153759765625,0.005958579610846937,-1.023545175114274,-0.8313397647380828,-0.024860134348273277,0.1283206194639206,-0.002631200011819601
1772376424285324800,2.22532470703125,-0.012601049832627177,-0.9270352042995392,-1.0071569348931313,0.011882166378200054,0.1684613823890686,0.018882082775235176
1772376424295274800,2.235274658203125,0.09422902027070522,-0.9612190673217177,-0.887162774246931,0.03762215003371239,0.2114836871623993,0.04609718918800354
1772376424305223700,2.2452236328125,0.2228670906215906,-1.048395684862882,-0.7274556118935346,0.0480634830892086,0.24296849966049194,0.07688754796981812
1772376424315174000,2.255173828125,0.3623364246536046,-1.1145571330346167,-0.49957098537087435,0.023424182087183,0.24039481580257416,0.10024692863225937
1772376424325122800,2.265122802734375,0.5551001264996827,-1.2673559773042797,-0.13065525539219378,-0.06160910427570343,0.16250330209732056,0.11159341782331467
1772376424335072800,2.27507275390625,0.7689402263831346,-1.513219035848975,0.22320903592705726,-0.17209327220916748,-0.0016792449168860912,0.10408197343349457
1772376424345022700,2.285022705078125,0.7794391893699765,-1.6825681790336966,0.2823322560250759,-0.2808759808540344,-0.24182361364364624,0.05770188942551613
1772376424354971600,2.2949716796875,0.3542907000377774,-1.589562124686688,-0.0761433284819126,-0.380801796913147,-0.549225389957428,-0.05064508691430092
1772376424364921900,2.304921875,-0.3371199311368167,-1.284303751104325,-0.8806798419684171,-0.4232926368713379,-0.7612519860267639,-0.18041107058525085
1772376424374870800,2.314870849609375,-0.8080906988367438,-1.0344890323244034,-2.1551602643251417,-0.41369515657424927,-0.8693238496780396,-0.32861199975013733
1772376424384820700,2.32482080078125,-0.9086679190903901,-0.9860517491526901,-3.1802374713122843,-0.3338973820209503,-0.8192378282546997,-0.45044293999671936
1772376424394769700,2.334769775390625,-0.6832873843431473,-0.7954514358855783,-4.130275511667132,-0.16239061951637268,-0.6021203994750977,-0.5173817276954651
1772376424404719900,2.344719970703125,-0.4056575338553637,-0.44285117315277456,-4.861559741938114,0.07512030005455017,-0.256208598613739,-0.4931337237358093
1772376424414668800,2.354668701171875,0.04192242138497531,0.06099164431840181,-5.018318575879931,0.34295788407325745,0.0839252844452858,-0.37189918756484985
1772376424424618800,2.36461865234375,0.6518398144170642,0.6137625972181558,-4.441458014601468,0.5631144046783447,0.3757789433002472,-0.1729862242937088
1772376424434568700,2.374568603515625,1.245570261953771,0.9814977391101419,-3.324470001158118,0.6925589442253113,0.5519174933433533,0.09753021597862244
1772376424444518000,2.384517822265625,1.5423222346059977,1.2354213545136152,-1.9497177712351084,0.7168031930923462,0.6302081942558289,0.36431175470352173
1772376424454467800,2.3944677734375,1.5551662263490258,1.2775611449763178,-0.6765466779112815,0.6692713499069214,0.647150993347168,0.572597086429596
1772376424464416800,2.404416748046875,1.2937100234836338,1.0967264389201998,0.2902800001591444,0.6058861613273621,0.6046321988105774,0.7066766619682312
1772376424474366700,2.41436669921875,0.9495923424139618,0.823935333700478,0.8357932370156049,0.5639264583587646,0.5401437878608704,0.7645887136459351
1772376424484316000,2.42431591796875,0.5608879891861229,0.5999842472344636,1.0683826802283525,0.5542824864387512,0.4568091928958893,0.7571189999580383
1772376424494265900,2.434265869140625,0.2368083030167967,0.40219343794137236,1.1423305444926022,0.5626581311225891,0.3604179620742798,0.7094665765762329
1772376424504215800,2.4442158203125,0.009657909052819012,0.272372879807651,1.191388297650218,0.5735677480697632,0.237212136387825,0.6445083022117615
1772376424514164700,2.454164794921875,-0.04259659431949257,0.16437223155498504,1.2850520852535963,0.5684332251548767,0.07845896482467651,0.5586695671081543
1772376424524115000,2.464114990234375,-0.05842369352653622,0.11793050611466169,1.3875713794857263,0.5341247916221619,-0.11677588522434235,0.4635631740093231
1772376424534063900,2.47406396484375,-0.05372073999997228,0.10841098261922598,1.397730369928479,0.46811968088150024,-0.3000365197658539,0.36241045594215393
1772376424544013800,2.484013916015625,-0.020746654626354576,0.12859306216537952,1.254412616840005,0.3961486220359802,-0.4374510645866394,0.28597787022590637
1772376424553962800,2.493962646484375,0.03719626964591443,0.28709961655735966,0.8280185113608837,0.3277474641799927,-0.5286164283752441,0.23545877635478973
1772376424563913000,2.503912841796875,-0.0010904986504465342,0.5582470462232828,0.15368307975828646,0.26717790961265564,-0.6001339554786682,0.203280970454216
1772376424573862000,2.51386181640625,-0.06923566798530519,0.8149462638199328,-0.4328554104477167,0.20943258702754974,-0.6652123332023621,0.16276949644088745
1772376424583811800,2.523811767578125,-0.11216739427698776,0.9329796457871794,-0.947432241770625,0.17417389154434204,-0.6818130016326904,0.12755519151687622
1772376424593761800,2.53376171875,-0.1581749660837464,1.016301487596333,-1.6437568023413418,0.18343636393547058,-0.6111167073249817,0.08939636498689651
1772376424603710700,2.543710693359375,-0.24657767308745532,1.1263728046432138,-2.3814175819069145,0.2402297854423523,-0.45152539014816284,0.05562600493431091
1772376424613661000,2.553660888671875,-0.30218632745957,1.3402046481549739,-2.9635137057512995,0.33659201860427856,-0.20608338713645935,0.055100295692682266
1772376424623609900,2.56360986328125,-0.2726392025936395,1.572884399999678,-3.2488375448077913,0.453676700592041,0.07053367793560028,0.09245002269744873
1772376424633559800,2.573559814453125,-0.08278053800668567,1.8135852534756063,-3.096502372527122,0.5652234554290771,0.3277583122253418,0.1827319860458374
1772376424643508700,2.5835087890625,0.2079940224700607,2.039316501356661,-2.484956282314658,0.6429576277732849,0.47183725237846375,0.3086835443973541
1772376424653459200,2.593459228515625,0.4913688280843198,2.2006310989066957,-1.4373592004835605,0.6966570615768433,0.5273396372795105,0.43403559923171997
1772376424663408000,2.603408203125,0.6705415922775865,2.188694285136461,-0.4606348132550716,0.7266890406608582,0.5569527745246887,0.5360099673271179
1772376424673358000,2.613358154296875,0.616696385647729,2.113892726652324,0.336294147837162,0.7190839052200317,0.5374139547348022,0.6040880680084229
1772376424683308000,2.62330810546875,0.5213880091750994,2.0107345499947664,1.0961170748502016,0.6850561499595642,0.48415157198905945,0.6363916993141174
1772376424693257200,2.63325732421875,0.3894417275916785,1.882833561746776,1.7368758155435322,0.6165734529495239,0.4212186932563782,0.646438717842102
1772376424703207000,2.64320703125,0.2968920387100428,1.6715090248808264,2.236054002204537,0.517220675945282,0.36489439010620117,0.6188035607337952
1772376424713156000,2.653156005859375,0.16232370152734218,1.4361457330405711,2.5890859343528745,0.3926643133163452,0.30459511280059814,0.5590758323669434
1772376424723106000,2.66310595703125,-0.03731569477450102,1.2715344320327042,2.839455364406109,0.2576614320278168,0.23735257983207703,0.4699702262878418
1772376424733055200,2.67305517578125,-0.1687107722159475,1.1285852199956774,2.9839935992002484,0.11961513012647629,0.14682641625404358,0.3601830005645752
1772376424743005000,2.6830048828125,-0.1651738667940721,0.9629206105425954,3.02419993738234,-0.008641133084893227,0.04654184728860855,0.2569797933101654
1772376424752955000,2.692954833984375,-0.1307296358026564,0.8913754235059023,2.908507857844233,-0.10795866698026657,-0.08413973450660706,0.16343438625335693
1772376424762904000,2.702904052734375,-0.0288843683745712,0.8266665122300386,2.628412567090988,-0.1691455990076065,-0.17620180547237396,0.0770321786403656
1772376424772854000,2.71285400390625,0.0036280908366665243,0.8287102930173277,2.1568466099768875,-0.18590673804283142,-0.22219592332839966,0.029045479372143745
1772376424782803000,2.722802978515625,0.03406721437256783,0.9205895352914929,1.6295733786880968,-0.19063904881477356,-0.21379537880420685,0.006181126926094294
1772376424792753000,2.7327529296875,0.1357605974408798,0.9928861252173781,1.2245610839337109,-0.21275712549686432,-0.19196757674217224,0.005233574192970991
1772376424802701800,2.742701904296875,0.25627377699250353,1.0033025975525378,1.050709076371789,-0.228008434176445,-0.1823766976594925,0.02407461404800415
1772376424812652000,2.752652099609375,0.3653845601778477,0.9387146823078394,0.9274328253149986,-0.24514561891555786,-0.12800373136997223,0.0468563586473465
1772376424822601000,2.76260107421875,0.36684031194411215,0.884120922333002,0.7447030992925167,-0.26747527718544006,-0.09432234615087509,0.06103364750742912
1772376424832551000,2.772551025390625,0.2840769625342451,0.8051859173059464,0.6706260556906462,-0.29124024510383606,-0.07700727134943008,0.06758476048707962
1772376424842501000,2.782501220703125,0.23080288858953862,0.6553288255766033,0.5529594612091779,-0.29959943890571594,-0.04087023437023163,0.06466223299503326
1772376424852450000,2.792449951171875,0.15620183937987311,0.4784601005420088,0.4278261841088533,-0.3073748052120209,-0.03749014809727669,0.04683662950992584
1772376424862400000,2.80239990234375,0.11786860159328207,0.30783611511588094,0.35062545552849766,-0.30542147159576416,-0.024069078266620636,0.017598340287804604
1772376424872349000,2.812348876953125,0.06796040561879053,0.13477934958487747,0.2539613170653581,-0.2923376262187958,-0.01884901523590088,-0.016623545438051224
1772376424882299000,2.822298828125,0.06741661759829148,0.009156535401940346,0.2439993104994297,-0.2795417904853821,-0.03055669367313385,-0.047981347888708115
1772376424892248000,2.832248046875,0.12066276235645636,-0.035846973928809166,0.24231764102280137,-0.2593129277229309,-0.04217899218201637,-0.07357299327850342
1772376424902198000,2.842197998046875,0.19607405023677274,-0.11302519841641187,0.2639233236312866,-0.24360565841197968,-0.052805688232183456,-0.08853545784950256
1772376424912147000,2.85214697265625,0.2615206646700389,-0.10693915650099516,0.3185007169932127,-0.23770196735858917,-0.05635328218340874,-0.09527565538883209
1772376424922097000,2.862096923828125,0.30787520501725374,-0.12420271825194358,0.3782610659509897,-0.244035005569458,-0.057866260409355164,-0.0940062403678894
1772376424932047000,2.872047119140625,0.3762837745286524,-0.18841507818251846,0.454766798004508,-0.2568970024585724,-0.051734331995248795,-0.08917633444070816
1772376424941996000,2.88199609375,0.41864977496266365,-0.2684299874007702,0.4818202246248722,-0.26909154653549194,-0.04943476617336273,-0.08436509221792221
1772376424951946000,2.891946044921875,0.4168997894901782,-0.32881840512901545,0.45163200711011886,-0.2754024267196655,-0.04814739525318146,-0.08381728082895279
1772376424961895000,2.90189501953125,0.4156002511989325,-0.4127522413566708,0.39107729290425775,-0.26573553681373596,-0.07062061876058578,-0.0864943340420723
1772376424971845000,2.91184521484375,0.44795222261883316,-0.4638765716552734,0.32908056319653983,-0.2408597618341446,-0.09971645474433899,-0.08790874481201172
1772376424981794000,2.9217939453125,0.4776038855714723,-0.5349003651663661,0.2535579969614744,-0.20166653394699097,-0.14016497135162354,-0.08621639758348465
1772376424991744000,2.931743896484375,0.4873468790918588,-0.5602329593434929,0.16517010393440723,-0.16322194039821625,-0.17908281087875366,-0.08561132848262787
1772376425001693000,2.94169287109375,0.49994065893348305,-0.5917115089297295,0.11586275992989539,-0.12699741125106812,-0.2118864804506302,-0.08217449486255646
1772376425011643100,2.95164306640625,0.5330031532429158,-0.6321273982092738,0.08026946850121021,-0.10337651520967484,-0.2453664094209671,-0.07870572805404663
1772376425021593000,2.961593017578125,0.5181320395864546,-0.6480442215263843,0.054062429577112193,-0.09358401596546173,-0.27587172389030457,-0.07874778658151627
1772376425031542000,2.9715419921875,0.4667772615328431,-0.6598471797838806,0.02769289356768131,-0.09650656580924988,-0.29113614559173584,-0.0874728336930275
1772376425041492000,2.981491943359375,0.4270741966977715,-0.6710349287524819,-0.05532090520560741,-0.10480135679244995,-0.28495877981185913,-0.1039256677031517
1772376425051441000,2.99144091796875,0.3612074936889112,-0.7206313188314437,-0.17844868770241737,-0.13235709071159363,-0.26667457818984985,-0.12499766051769257
1772376425061391000,3.00139111328125,0.2805587070139125,-0.7302709615752101,-0.22955577460527418,-0.16054630279541016,-0.2457171231508255,-0.15383577346801758
1772376425071340000,3.011340087890625,0.2004555349903181,-0.7649018377125263,-0.3319429668903351,-0.1955689936876297,-0.2305954247713089,-0.1884547472000122
1772376425081290000,3.0212900390625,0.1762093295441009,-0.7644573088154196,-0.4844248541653156,-0.2094995379447937,-0.23126086592674255,-0.2245604395866394
1772376425091239000,3.031239013671875,0.21035112525653094,-0.7330225983709097,-0.6285585998117923,-0.20597751438617706,-0.24074997007846832,-0.2519254684448242
1772376425101189000,3.041189208984375,0.24928808282362297,-0.6244564251899719,-0.8034411194652319,-0.19270360469818115,-0.253365159034729,-0.26680639386177063
1772376425111139000,3.05113916015625,0.2977519800076261,-0.4828390462785959,-0.9658756609559058,-0.17040255665779114,-0.24243713915348053,-0.2666165232658386
1772376425121088000,3.061087890625,0.37979740867279466,-0.3712684305846691,-1.0700742865771053,-0.16034343838691711,-0.24288317561149597,-0.24682588875293732
1772376425131038000,3.071037841796875,0.4348568864632398,-0.28242724083215,-1.0287421592354773,-0.16120071709156036,-0.2544974982738495,-0.23303577303886414
1772376425140987100,3.080987060546875,0.47202794860266145,-0.3320332755222916,-0.8864192624032496,-0.16441209614276886,-0.1921038031578064,-0.2105734944343567
1772376425150937000,3.09093701171875,0.3321653044041246,-0.24576778147667644,-0.8347124560415744,-0.18702952563762665,-0.15213347971439362,-0.1910778284072876
1772376425160886000,3.100885986328125,0.297332950877957,-0.2452624623030424,-0.6763210524618625,-0.21441355347633362,-0.1050545871257782,-0.16494527459144592
1772376425170836000,3.1108359375,0.35302396803759034,-0.34483956560343504,-0.44669455070793623,-0.26344501972198486,-0.0919872522354126,-0.15288808941841125
1772376425180785000,3.120784912109375,0.3981223160449415,-0.49993280442059035,-0.1999357123672962,-0.3193894028663635,-0.14362457394599915,-0.1534290909767151
1772376425190735000,3.130735107421875,0.384830434403941,-0.6196420106455683,-0.01059679733812809,-0.3630889356136322,-0.22346986830234528,-0.1714421808719635
1772376425200685000,3.14068505859375,0.289488977645617,-0.6931921077638864,-0.06684066260755062,-0.39034563302993774,-0.28947797417640686,-0.19387154281139374
1772376425210634000,3.150634033203125,0.0890685687676072,-0.6981675580888986,-0.25840134533941744,-0.419771671295166,-0.324546754360199,-0.230182945728302
1772376425220584200,3.160584228515625,-0.08602145615667105,-0.6455524047106505,-0.43873570065796375,-0.4561241865158081,-0.32608476281166077,-0.26603108644485474
1772376425230533000,3.170533203125,-0.1786218888448551,-0.6242880828857421,-0.6347767436742783,-0.5029401779174805,-0.2844028174877167,-0.2962888777256012
1772376425240483000,3.180483154296875,-0.1906191823643632,-0.6190016669154167,-0.8377484627366065,-0.5336710810661316,-0.20940807461738586,-0.31984299421310425
1772376425250432000,3.190431884765625,-0.1308566231831908,-0.5518538380548358,-1.0741413898855448,-0.5317021608352661,-0.16169488430023193,-0.3402356207370758
1772376425260382000,3.2003818359375,0.025267383453808724,-0.4334029613278806,-1.2512947770804166,-0.4880201816558838,-0.09526196122169495,-0.3467295467853546
1772376425270331100,3.2103310546875,0.27557489071935415,-0.3214218651369214,-1.4430886840462684,-0.4071330726146698,-0.0806390717625618,-0.3173242509365082
1772376425280281000,3.220281005859375,0.40308381090983747,-0.1247381403028965,-1.524230259206891,-0.28478217124938965,-0.054047130048274994,-0.26000019907951355
1772376425290231000,3.23023095703125,0.6898457199454308,0.007661474538594484,-1.5615940674394369,-0.13446378707885742,-0.0312091913074255,-0.16865508258342743
1772376425300180000,3.240179931640625,0.8341958117563277,0.20288535595312712,-1.5176058726310728,0.015160491690039635,0.0022403420880436897,-0.057486362755298615
1772376425310130200,3.250130126953125,1.0045734942711888,0.32130627593323585,-1.395183023533225,0.16152195632457733,0.040155768394470215,0.06527364253997803
1772376425320079000,3.2600791015625,1.137100023427978,0.3409786523915827,-1.1826403430491685,0.3005886375904083,0.08726376295089722,0.19045370817184448
1772376425330029000,3.270029052734375,1.1781466118264943,0.34035306783914565,-0.8619991068959235,0.40694543719291687,0.10992060601711273,0.2923007309436798
1772376425339978000,3.27997802734375,1.090831974054128,0.3195163237765431,-0.475915969017148,0.48496514558792114,0.11782591789960861,0.37254777550697327
1772376425349928200,3.28992822265625,0.9251979789350181,0.29989217037409543,-0.07902677496373653,0.5266113877296448,0.11967841535806656,0.43210458755493164
1772376425359877000,3.299877197265625,0.7069882125999778,0.23733400739133356,0.27331074517965315,0.5408118963241577,0.10202757269144058,0.4740868806838989
1772376425369827000,3.3098271484375,0.4646955598879605,0.18893208779394627,0.5685445683538913,0.5094188451766968,0.07810785621404648,0.49417802691459656
1772376425379777000,3.319777099609375,0.27681309074480087,0.11299509553909301,0.793390265572071,0.45501044392585754,0.03285565227270126,0.4979691803455353
1772376425389726200,3.329726318359375,0.0899639649710618,0.023402795158326623,0.889872617727518,0.3843242824077606,-0.006716258358210325,0.477138489484787
1772376425399676200,3.33967626953125,-0.026850944584514945,-0.044371933428943154,0.8306184647262096,0.30655956268310547,-0.07516608387231827,0.4263293445110321
1772376425409625000,3.349625,-0.25175931350905445,-0.03696954821795225,0.689013360774517,0.2291150987148285,-0.11049451678991318,0.3550277352333069
1772376425419575000,3.359574951171875,-0.4159205691944807,-0.026994682170450687,0.39133682062327857,0.16319453716278076,-0.10782269388437271,0.2872684597969055
1772376425429524000,3.36952392578125,-0.47942624216042456,0.07633622070550918,0.002881692916154861,0.11449144780635834,-0.09747470915317535,0.21953681111335754
1772376425439474200,3.37947412109375,-0.5423157194567844,0.2629559399038553,-0.40245501148700713,0.07625637203454971,-0.03006104566156864,0.17142730951309204
1772376425449423000,3.389423095703125,-0.4803594313573092,0.43467648839503525,-0.8035194453984499,0.05511540547013283,0.07576552033424377,0.14381591975688934
1772376425459373000,3.399373046875,-0.32098036844711747,0.5877414362549781,-1.0816273617267609,0.06574097275733948,0.19251689314842224,0.1426216959953308
1772376425469323300,3.4093232421875,-0.1309645770696923,0.7741586186185478,-1.3064713053792714,0.12554864585399628,0.30991676449775696,0.1938912719488144
1772376425479272200,3.419272216796875,0.1956433854682371,0.9659855510711669,-1.4696329921007156,0.22941096127033234,0.3772002160549164,0.27812135219573975
1772376425489222100,3.42922216796875,0.5250511713251471,1.1761804993852973,-1.4281798687279224,0.3404102027416229,0.39031973481178284,0.39011260867118835
1772376425499171000,3.439171142578125,0.7044771065618842,1.3243366324156522,-1.24834177249372,0.44550612568855286,0.3838173449039459,0.507570743560791
1772376425509121000,3.44912109375,0.6810268920652568,1.400910169008374,-0.9382090708732604,0.5124963521957397,0.35251107811927795,0.6031438708305359
1772376425519070200,3.4590703125,0.4872674206474796,1.3585826008886097,-0.6151414843559265,0.5357831120491028,0.3312089443206787,0.6527356505393982
1772376425529020200,3.469020263671875,0.24568647813508285,1.1701879809722304,-0.3326525764644146,0.5396444201469421,0.32560643553733826,0.6795768141746521
1772376425538969000,3.478968994140625,-0.009915829336643218,1.0307079063504934,-0.16845803956389427,0.5234746336936951,0.35863029956817627,0.6755295395851135
1772376425548919000,3.4889189453125,-0.20488383629396556,0.939974326980114,-0.0233101484388113,0.4818984270095825,0.40871742367744446,0.6527688503265381
1772376425558869200,3.498869140625,-0.36233868967592714,0.858255244192481,0.15225041660666466,0.4179746210575104,0.4580680727958679,0.6225969791412354
1772376425568818200,3.508818115234375,-0.4235161754226312,0.8047077784001827,0.3500853573024273,0.33873891830444336,0.486747145652771,0.5909191966056824
1772376425578768100,3.51876806640625,-0.4573720485994592,0.7744991026192903,0.4956161102652549,0.2549492418766022,0.4895312190055847,0.5539411902427673
1772376425588717000,3.528717041015625,-0.38821572946067895,0.7392416190162301,0.5186199692338704,0.19138169288635254,0.48397666215896606,0.5325506925582886
1772376425598667300,3.538667236328125,-0.24020291389115153,0.7573685195982456,0.38187458027303217,0.15198008716106415,0.48329609632492065,0.5237160921096802
1772376425608616200,3.5486162109375,-0.10614700147630646,0.8196130865871906,0.17379121728539465,0.13513906300067902,0.4930901527404785,0.5269004702568054
1772376425618566100,3.558566162109375,0.011378281413397053,0.9160279264643788,0.011399930414557457,0.1206086203455925,0.501019299030304,0.5447875261306763
1772376425628515000,3.56851513671875,0.13983020323365927,0.9730144267946481,-0.08725216699540615,0.11041643470525742,0.5008131265640259,0.5608309507369995
1772376425638465300,3.57846533203125,0.34569731494393197,0.9080699531972408,-0.1318313134342432,0.10957842320203781,0.5165315866470337,0.5674166083335876
1772376425648414700,3.588414794921875,0.5496328010044992,0.8849392529785632,-0.14674188231825827,0.1242859959602356,0.5559889674186707,0.6144214272499084
1772376425658363600,3.59836376953125,0.6351952613472939,1.0698615206092597,-0.18674539140462873,0.14242570102214813,0.607552707195282,0.6944146156311035
1772376425668313600,3.608313720703125,0.7989478996992111,1.1830389869779347,-0.10627192476391792,0.15022289752960205,0.6619022488594055,0.7919805645942688
1772376425678262500,3.618262451171875,0.8895730502590536,1.161505492822826,0.005408581045269966,0.14173291623592377,0.7120678424835205,0.908197820186615
1772376425688212500,3.62821240234375,0.9851830034941434,1.1541443164050578,0.12931085504591464,0.13921941816806793,0.7510823607444763,1.035507082939148
1772376425698161700,3.63816162109375,0.9929607978887856,1.1315806024193764,0.27713468738198277,0.12487588822841644,0.7592970728874207,1.1441401243209839
1772376425708111600,3.648111572265625,0.9983708402387798,1.0127733134701848,0.39634091252088544,0.11870907247066498,0.7362330555915833,1.2329035997390747
1772376425718060500,3.658060546875,1.039127359649539,0.8619798176735639,0.48018940855264663,0.12761612236499786,0.7213229537010193,1.3129574060440063
1772376425728010500,3.668010498046875,1.0859821959353984,0.7232575756818056,0.48444881956279273,0.1425119936466217,0.702742338180542,1.3820444345474243
1772376425737960700,3.677960693359375,1.0057846236266195,0.649091100230813,0.5214209981292486,0.13690143823623657,0.6711990833282471,1.4428038597106934
1772376425747909600,3.68790966796875,0.88072799195908,0.6107815355807542,0.6248673440784216,0.1078876405954361,0.6252403855323792,1.5003914833068848
1772376425757859600,3.697859619140625,0.877240076778084,0.5529869337379932,0.6484224071890116,0.0784263163805008,0.5897045135498047,1.5707688331604004
1772376425767808500,3.70780859375,0.9634650926828384,0.4946133629634976,0.5360714547723532,0.06575925648212433,0.5593934655189514,1.6417237520217896
1772376425777758700,3.7177587890625,0.9329665671098977,0.5078899009048938,0.33613866501450534,0.069552481174469,0.5628007054328918,1.7089366912841797
1772376425787707600,3.727707763671875,0.9007755584053695,0.5727578021347522,0.10177285977900027,0.08110474050045013,0.5949892997741699,1.7872117757797241
1772376425797657600,3.73765771484375,0.9153132023237646,0.6228340846851468,-0.07753098344802856,0.09562373906373978,0.6273908019065857,1.8753002882003784
1772376425807606500,3.7476064453125,0.9231715146087109,0.7151245381087065,-0.14723989496827125,0.10272345691919327,0.637900710105896,1.971795678138733
1772376425817556700,3.757556640625,0.9302416721906512,0.8247539566069841,-0.19085107315778732,0.12181449681520462,0.6272110342979431,2.0717780590057373
1772376425827506400,3.76750634765625,0.8746907576214522,0.9154889972820878,-0.2825789242625236,0.15312926471233368,0.6113271117210388,2.139388084411621
1772376425837455600,3.77745556640625,0.7336324008323252,0.9414502447515726,-0.3895096051961183,0.21812844276428223,0.657163679599762,2.2146806716918945
1772376425847405300,3.7874052734375,0.6552563448622822,1.1480074210852385,-0.6499181987047195,0.3091467618942261,0.7012280821800232,2.2862558364868164
1772376425857354500,3.7973544921875,0.7135575079876929,1.354749890857935,-0.7712830631822347,0.3989769518375397,0.7752096652984619,2.3659298419952393
1772376425867304400,3.807304443359375,0.9258334272943437,1.527540698929131,-0.6420102020591497,0.4587758183479309,0.8394802808761597,2.4510719776153564
1772376425877253600,3.817253662109375,1.1451783351391553,1.720934442307055,-0.3155845372855663,0.4710831344127655,0.8856511116027832,2.531888008117676
1772376425887203300,3.827203369140625,1.2237908302135765,1.909279377862811,0.0841214677542448,0.43096446990966797,0.891433596611023,2.618197441101074
1772376425897152500,3.837152587890625,1.3062034482233225,2.119623963780701,0.3875684080004692,0.3546326756477356,0.8768125772476196,2.681962251663208
1772376425907102500,3.8471025390625,1.3116212354883552,2.210404889424145,0.5390051701366901,0.26338398456573486,0.9031068086624146,2.749559164047241
1772376425917051600,3.8570517578125,1.3451764452181756,2.308086680497229,0.5306394928514957,0.16320598125457764,0.9339643120765686,2.8157858848571777
1772376425927001600,3.867001708984375,1.455286779101193,2.3438673111915587,0.44567105287909503,0.06507621705532074,0.9807965159416199,2.885014057159424
1772376425936951300,3.876951416015625,1.5747737208776176,2.3094188058838245,0.4051046492129564,-0.04200815036892891,1.0040743350982666,2.9467580318450928
1772376425946900500,3.886900390625,1.6106772472992539,2.28422152852416,0.44853170300722117,-0.16371354460716248,0.9855090379714966,3.0021250247955322
1772376425956850400,3.896850341796875,1.5481015486598013,2.243184000214934,0.4509574688494205,-0.2818535268306732,0.9137771725654602,3.050006628036499
1772376425966799600,3.906799560546875,1.4064393076933919,2.2414064691483975,0.34557635544538495,-0.380344420671463,0.7833579182624817,3.0815436840057373
1772376425976749300,3.916749267578125,1.1748214129265397,2.2743720424219966,0.023131869262456892,-0.4270024299621582,0.6242618560791016,3.087486505508423
1772376425986698800,3.92669873046875,0.9158278007823973,2.316562832419574,-0.5286667314738035,-0.4083477854728699,0.5303252339363098,3.062084436416626
1772376425996648400,3.9366484375,0.6992617100011557,2.2518524598389864,-1.1416624359726906,-0.3321549594402313,0.5564095377922058,3.0110464096069336
1772376426006597600,3.94659765625,0.5706174291051924,2.258221994870901,-1.7142162399679421,-0.24186472594738007,0.6477815508842468,2.9566383361816406
1772376426016547300,3.95654736328125,0.5881926506211981,2.3248630432531234,-1.9575696537792682,-0.16013199090957642,0.7922989726066589,2.9070611000061035
1772376426026497500,3.96649755859375,0.8744539531908929,2.3009265796095133,-1.8581553398251534,-0.11343371868133545,0.973404586315155,2.916186809539795
1772376426036446500,3.976446533203125,1.3078554532140492,2.3351991438284516,-1.5704647716373203,-0.10624638944864273,1.1226810216903687,2.9929816722869873
1772376426046396400,3.986396484375,1.7556956668257713,2.4429592613235114,-1.05826051466465,-0.14333677291870117,1.213795781135559,3.0957980155944824
1772376426056344600,3.996344482421875,2.0770034040637313,2.3536259041398764,-0.5426490795969963,-0.20287960767745972,1.250152826309204,3.1995809078216553
1772376426066293500,4.00629345703125,2.1955498501196504,2.163379226616025,-0.1551192500412464,-0.25491830706596375,1.2290738821029663,3.276329278945923
1772376426076243500,4.016243408203125,2.0723012177221474,1.8654536801397799,0.018394903868436813,-0.2740492820739746,1.1721487045288086,3.2992734909057617
1772376426086192600,4.026192626953125,1.7718889689967035,1.461133459302783,-0.11132511650025843,-0.25437331199645996,1.1051025390625,3.2687180042266846
1772376426096142600,4.036142578125,1.4796416142873465,1.0997133457764983,-0.3606336393237114,-0.2016201913356781,1.0324044227600098,3.189302682876587
1772376426106092500,4.046092529296875,1.204234992806986,0.8052920080289244,-0.6265355695515871,-0.13281582295894623,0.9774641394615173,3.086184501647949
1772376426116041500,4.05604150390625,1.0346208420105278,0.5721531142398715,-0.8126941009789704,-0.07171323895454407,0.9482221007347107,2.968761682510376
1772376426125991700,4.06599169921875,1.0350039230439811,0.37680531418472524,-0.9180126705408096,-0.03268275037407875,0.9408016800880432,2.854844808578491
1772376426135940600,4.075940673828125,1.1486052408479153,0.28013883763402697,-0.9325187502771616,-0.012400451116263866,0.951628565788269,2.7594361305236816
1772376426145890600,4.085890625,1.3489558176264167,0.30025632751137016,-0.9115595488786696,0.0026413488667458296,0.9602950215339661,2.688526153564453
1772376426155839500,4.095839599609375,1.611161815945804,0.37454379899352785,-0.8812129259318113,0.010580990463495255,0.982685387134552,2.650235652923584
1772376426165789700,4.105789794921875,1.8230194367751478,0.4913517308190465,-0.8592834181964397,0.016613315790891647,1.0013827085494995,2.6334598064422607
1772376426175738600,4.115738525390625,2.0180752681463954,0.5658031606912612,-0.8708873467504977,0.0347607247531414,1.0306838750839233,2.625051259994507
1772376426185688600,4.1256884765625,2.142523339461535,0.6104588794976472,-0.9106365888148545,0.04711725935339928,1.0567023754119873,2.6106553077697754
1772376426195638500,4.135638427734375,2.168949135702848,0.6229314075797796,-0.9254770150721072,0.06576395779848099,1.07243013381958,2.590914011001587
1772376426205587700,4.145587646484375,2.1919697996757925,0.5928311606094241,-0.9477817858606576,0.09311968088150024,1.077507495880127,2.562566041946411
1772376426215537700,4.15553759765625,2.1903398603864015,0.5672726487219333,-0.9968851317256688,0.13449735939502716,1.0821925401687622,2.53570294380188
1772376426225486600,4.165486572265625,2.1622940617278217,0.5691492562487721,-1.0300853905379772,0.18783274292945862,1.0599557161331177,2.5038111209869385
1772376426235436500,4.1754365234375,2.1805309985555708,0.6203185947328805,-1.0016776266992091,0.23509810864925385,1.0308046340942383,2.478022336959839
1772376426245385500,4.185385498046875,2.1538757774725554,0.6726353496864438,-0.9349117828935384,0.2732665240764618,0.9868459701538086,2.4531822204589844
1772376426255335700,4.195335693359375,2.1343663364909586,0.7431751590728759,-0.8785796548187732,0.29706302285194397,0.9449093341827393,2.4360578060150146
1772376426265284600,4.20528466796875,2.06218416672498,0.8266431313544511,-0.8225777816116809,0.30506500601768494,0.9117191433906555,2.4151837825775146
1772376426275234600,4.215234619140625,1.960758805209398,0.8910963143035769,-0.8067962751120329,0.29644888639450073,0.8987886905670166,2.3892099857330322
1772376426285184500,4.2251845703125,1.8514577418826519,0.9196426098302006,-0.8212351348310708,0.26991021633148193,0.9075057506561279,2.3528835773468018
1772376426295133700,4.2351337890625,1.717584108965844,0.9209113145917653,-0.847740279918909,0.2400674819946289,0.9263511896133423,2.3007993698120117
1772376426305083400,4.24508349609375,1.591259283993393,0.9401508525907992,-0.8759270944833755,0.20461973547935486,0.9322972297668457,2.247648000717163
1772376426315032600,4.255032470703125,1.5093109224945307,0.9982105351105331,-0.8852309294015168,0.1683005541563034,0.9303486347198486,2.199834108352661
1772376426324982500,4.264982421875,1.506108327060938,1.0321046214058995,-0.8828039945155381,0.13872161507606506,0.9252161979675293,2.1475718021392822
1772376426334931700,4.274931640625,1.5160627348423004,1.0535089362233876,-0.977453286024928,0.12156541645526886,0.907124400138855,2.1046087741851807
1772376426344881400,4.28488134765625,1.5784677530899642,1.143716445893049,-1.119020396053791,0.13443328440189362,0.8841716647148132,2.0816001892089844
1772376426354830600,4.29483056640625,1.5845049874275923,1.2827242268279193,-1.278217270797491,0.16307519376277924,0.8532034754753113,2.0738494396209717
1772376426364780500,4.304780517578125,1.6275968179181217,1.4490446698412298,-1.4121832581728695,0.21483905613422394,0.8238138556480408,2.084333658218384
1772376426374730500,4.31473046875,1.669565343467146,1.5814663503840565,-1.5381173302620648,0.2853255569934845,0.8163908123970032,2.1155638694763184
1772376426384679700,4.3246796875,1.6321908677101133,1.6783908933490514,-1.586250954312086,0.3551717698574066,0.8213730454444885,2.1501643657684326
1772376426394629400,4.33462939453125,1.5209532833628356,1.767518498827517,-1.521990371325612,0.4096267819404602,0.8409569263458252,2.178619623184204
1772376426404578600,4.34457861328125,1.3987448076680302,1.7533096484720705,-1.315655313310027,0.4292028844356537,0.8556735515594482,2.190770387649536
1772376426414528500,4.354528564453125,1.276662880962342,1.656867336066067,-1.0210089346349238,0.4172913134098053,0.8617538213729858,2.1837685108184814
1772376426424478500,4.364478515625,1.0783053046319633,1.5528063653498887,-0.6987877358138561,0.3803391456604004,0.8421162366867065,2.1566057205200195
1772376426434428400,4.374428466796875,0.8882869559712707,1.4294725388869642,-0.4314087187707424,0.33915281295776367,0.8112898468971252,2.1164586544036865
1772376426444377300,4.38437744140625,0.7200488427683711,1.3240192370295525,-0.3118395055383444,0.3078708052635193,0.7758339047431946,2.055453300476074
1772376426454327600,4.39432763671875,0.5742405149731785,1.2229212077721954,-0.2832593077421188,0.2908385694026947,0.7410789728164673,1.9872645139694214
1772376426464276500,4.4042763671875,0.4878021851113066,1.1941086625248194,-0.29472587365210057,0.2962626516819,0.7176623344421387,1.9236714839935303
1772376426474226400,4.414226318359375,0.5471646573252975,1.2319196300029753,-0.4008949225634336,0.30877137184143066,0.7087371349334717,1.8814393281936646
1772376426484175400,4.42417529296875,0.5095511121153831,1.2982248705595731,-0.4268114541083574,0.31854650378227234,0.7706902623176575,1.8500829935073853
1772376426494125600,4.43412548828125,0.46847438430693,1.4052593041285872,-0.4120949464917183,0.3140375316143036,0.7745329737663269,1.8232324123382568
1772376426504074500,4.444074462890625,0.48402628330178554,1.438603939847648,-0.2550216397732496,0.2899729311466217,0.7917822599411011,1.8124239444732666
1772376426514024400,4.4540244140625,0.4967080336878076,1.4397498950123786,-0.1184247193723917,0.2663542330265045,0.77619868516922,1.8062182664871216
1772376426523974400,4.463974365234375,0.5429737815067172,1.4107298444941638,0.023498364487290382,0.24789080023765564,0.7297565937042236,1.7756603956222534
1772376426533923600,4.473923583984375,0.4734440990108996,1.3496090208381413,0.08265490233302115,0.23991262912750244,0.660188615322113,1.7482426166534424
1772376426543873500,4.48387353515625,0.44424971483908593,1.3154159515962003,0.05796586675643921,0.2638973295688629,0.5827798843383789,1.7322373390197754
1772376426553822500,4.493822509765625,0.5100326120220124,1.2294447643220423,-0.058631637188792225,0.31375768780708313,0.5341631174087524,1.6929429769515991
1772376426563772400,4.5037724609375,0.45365795997977254,1.1107003114759921,-0.15041034169793127,0.36827924847602844,0.536135196685791,1.6568009853363037
1772376426573721300,4.513721435546875,0.4103854391600936,1.0316755823388695,-0.15812193898856639,0.39651864767074585,0.5763328075408936,1.641800880432129
1772376426583671600,4.523671630859375,0.4667808782620355,0.9426967376813292,-0.017793430843949316,0.348503440618515,0.5841664671897888,1.628275752067566
1772376426593620500,4.533620361328125,0.3420014561006799,0.8006687321424484,0.28439970994889735,0.24167893826961517,0.5585818290710449,1.5920792818069458
1772376426603570400,4.5435703125,0.1052233655590564,0.6712377578482032,0.5700988120585679,0.08651864528656006,0.511642575263977,1.4907441139221191
1772376426613520600,4.553520751953125,-0.2443504620246589,0.48637306562364097,0.5875777701258659,-0.056109778583049774,0.4551638960838318,1.3361799716949463
1772376426623469600,4.563469482421875,-0.550164058336988,0.2903361142605543,0.380657021176815,-0.16314354538917542,0.45264294743537903,1.1495435237884521
1772376426633419500,4.57341943359375,-0.7469339270845056,0.23769553418010472,-0.05420680648386478,-0.20697464048862457,0.5537567734718323,0.9745414853096008
1772376426643368400,4.583368408203125,-0.7664543278515339,0.400618151448667,-0.5441624067693949,-0.20387393236160278,0.7141647934913635,0.8521202206611633
1772376426653319400,4.5933193359375,-0.5710852658126503,0.7187792612239718,-0.7698135751515627,-0.18214042484760284,0.85527503490448,0.8099734783172607
1772376426663268400,4.603268310546875,-0.15361330245770513,1.0376242616102098,-0.6050672495871782,-0.15800578892230988,0.9146400690078735,0.8558093905448914
1772376426673218300,4.61321826171875,0.32469854872003195,1.2693325380742548,-0.20360650983452797,-0.1350187212228775,0.8962094187736511,0.941675066947937
1772376426683167200,4.623167236328125,0.6426300144579261,1.4458669165879487,0.17879530918300152,-0.09726043045520782,0.8302099108695984,1.0380895137786865
1772376426693117400,4.633117431640625,0.771032595552504,1.5411778868764638,0.36853812883794307,-0.03922269865870476,0.7145649790763855,1.1211415529251099
1772376426703067400,4.6430673828125,0.7508432094827294,1.569557301403582,0.3999713779777288,0.05818134918808937,0.6299819350242615,1.1966732740402222
1772376426713016300,4.653016357421875,0.5998111556898802,1.5574918928176165,0.28009178362190723,0.17256158590316772,0.6064815521240234,1.253743290901184
1772376426722966300,4.66296630859375,0.31731852147132156,1.5170207662194966,0.17857611347436902,0.2711446285247803,0.6246991753578186,1.2873917818069458
1772376426732915500,4.67291552734375,0.04795234006582759,1.4521435126394033,0.29913492226600646,0.3238884210586548,0.6643154621124268,1.3088607788085938
1772376426742865400,4.682865478515625,-0.10673229968412778,1.3388880125984548,0.6816437087893485,0.31740814447402954,0.6978561282157898,1.3177988529205322
1772376426752814300,4.692814453125,-0.17525902481563388,1.1790563470825552,1.1620371154814957,0.25669360160827637,0.7366843223571777,1.3498311042785645
1772376426762764300,4.702764404296875,-0.19600306735979392,1.0571756420373917,1.4762205537974833,0.1613929122686386,0.7266197204589844,1.387107014656067
1772376426772713200,4.712713134765625,-0.32467180684357877,0.9154390206605195,1.8147592656910418,0.024318508803844452,0.6651546955108643,1.3850165605545044
1772376426782663400,4.722663330078125,-0.5010726221054792,0.6379208869189024,2.0158149219989774,-0.13546955585479736,0.5503026843070984,1.3348197937011719
1772376426792612400,4.7326123046875,-0.8756210972741245,0.3471399515002966,1.9658920764446257,-0.31165623664855957,0.36065518856048584,1.223347783088684
1772376426802562300,4.742562255859375,-1.237824324002117,0.06475128911286591,1.705672868028283,-0.48538491129875183,0.12620164453983307,1.0563472509384155
1772376426812512500,4.752512451171875,-1.5828567818291484,-0.10344079299122094,1.1154483827859163,-0.594041109085083,-0.07505013048648834,0.8632676601409912
1772376426822461400,4.76246142578125,-1.788190407717228,-0.09798603471666574,0.2213981871128082,-0.6465405225753784,-0.15279178321361542,0.652806282043457
1772376426832411400,4.772411376953125,-1.8782041483804583,-0.005354512770473957,-0.7458183670580387,-0.6520774364471436,-0.15798358619213104,0.4737781286239624
1772376426842360300,4.7823603515625,-1.718344571944326,0.09740355865359306,-1.6020727928221226,-0.5944005846977234,-0.03016703948378563,0.3476734459400177
1772376426852310500,4.792310546875,-1.4319659631378947,0.3688672146618366,-2.2409897050410508,-0.526176393032074,0.1853044182062149,0.28577905893325806
1772376426862259500,4.802259521484375,-1.1020443460073321,0.7010191481277346,-2.528116209605336,-0.47158217430114746,0.44606703519821167,0.3117824196815491
1772376426872209400,4.81220947265625,-0.7148019550908357,1.0505319662392139,-2.4156068517565727,-0.43020376563072205,0.6983248591423035,0.42772647738456726
1772376426882158300,4.822158447265625,-0.30418692669225855,1.3728876050949095,-1.9625953729867933,-0.42060279846191406,0.8764981031417847,0.6069425940513611
1772376426892108300,4.8321083984375,0.006899029665580019,1.5964520303308962,-1.3660744179487228,-0.41473883390426636,0.9370375871658325,0.826379120349884
1772376426902058200,4.842058349609375,0.23379231619648633,1.6374375361919402,-0.7898129916071891,-0.3883671462535858,0.9134659767150879,1.0302848815917969
1772376426912007400,4.85200732421875,0.27071557758729903,1.5032476769328116,-0.3606640344619751,-0.3204600512981415,0.8398694396018982,1.183561086654663
1772376426921957400,4.861957275390625,0.07069769422872924,1.2822747294947505,-0.18700199651420116,-0.21039292216300964,0.7474143505096436,1.287350058555603
1772376426931906300,4.87190625,-0.2349418150251731,1.043276880544424,-0.08322948735058307,-0.09824001789093018,0.6337128281593323,1.3354089260101318
1772376426941856500,4.8818564453125,-0.6068551193846389,0.7492465879410505,0.10301029261946677,-0.009278721176087856,0.5181409120559692,1.3394864797592163
1772376426951805400,4.891805419921875,-0.9725528006322681,0.4585559611544013,0.3295896817624569,0.031460825353860855,0.43457287549972534,1.2992786169052124
1772376426961755400,4.90175537109375,-1.2129613931633532,0.1978612441807985,0.5546849698275327,0.03292716294527054,0.37256914377212524,1.2302385568618774
1772376426971704300,4.911704345703125,-1.4166133495748041,-0.004664484679698944,0.7736497923135757,-0.019452178850769997,0.33673253655433655,1.1258424520492554
1772376426981654500,4.921654541015625,-1.55912139371559,-0.16922931619733572,0.9939122533947229,-0.10481208562850952,0.2940862774848938,1.0070666074752808
1772376426991604200,4.931604248046875,-1.5726600897245109,-0.2787117274403572,1.1128273866325615,-0.21053177118301392,0.252495676279068,0.8777122497558594
1772376427001553400,4.941553466796875,-1.5398640277989208,-0.3752703597024083,1.107772441330552,-0.30312827229499817,0.2367342859506607,0.7642011642456055
1772376427011503000,4.951503173828125,-1.4377508301496504,-0.37553923977166415,0.9716969144552946,-0.36208590865135193,0.23277251422405243,0.6822735667228699
1772376427021452300,4.961452392578125,-1.3140424712859093,-0.2707543386951089,0.6780278563797474,-0.38134855031967163,0.23098713159561157,0.6368522644042969
1772376427031402200,4.97140234375,-1.185816123541072,-0.12404781995117664,0.3494043893009424,-0.3706343472003937,0.23896953463554382,0.6229366660118103
1772376427041351400,4.981351318359375,-1.071252463511005,-0.030961832235753533,0.10875848088264464,-0.34593644738197327,0.23687975108623505,0.6230074763298035
1772376427051301000,4.991301025390625,-0.9373652404602616,-0.04363602036982774,-0.030112814190983772,-0.31349676847457886,0.2106507569551468,0.622880220413208
1772376427061250300,5.001250244140625,-0.834703615147993,-0.09019114305675029,-0.10795593232810496,-0.2785249352455139,0.17581048607826233,0.6137117743492126
1772376427071200300,5.0112001953125,-0.7997756557602435,-0.14100421544909478,-0.2075380040645599,-0.23966285586357117,0.1438772827386856,0.6016696095466614
1772376427081150200,5.021150146484375,-0.8657146202877163,-0.18479864125102757,-0.32840485589206214,-0.19308549165725708,0.13017292320728302,0.584799587726593
1772376427091099100,5.03109912109375,-0.9418473543103784,-0.1993631731763482,-0.4493979644477367,-0.14789119362831116,0.15060847997665405,0.5658794641494751
1772376427101049000,5.041049072265625,-1.041609166527912,-0.17843524369895458,-0.5366594837933778,-0.09871672838926315,0.19266459345817566,0.5545114874839783
1772376427110998300,5.050998291015625,-1.1030249545425177,-0.2044607885763049,-0.518693618991971,-0.07378896325826645,0.23808011412620544,0.5345425605773926
1772376427120948200,5.0609482421875,-1.1471690705649553,-0.24820406871289014,-0.33067046273648737,-0.06465858221054077,0.27252569794654846,0.5078569054603577
1772376427130897400,5.0708974609375,-1.1465152097661047,-0.34289135414510963,-0.06008534312844276,-0.07085651159286499,0.2922891676425934,0.4744005501270294
1772376427140847000,5.08084716796875,-1.1505557173285632,-0.41596389687955376,0.20621640007197856,-0.08259546756744385,0.28395721316337585,0.43400439620018005
1772376427150796300,5.09079638671875,-1.1717347720228135,-0.47072892176806924,0.4357131379663944,-0.09315119683742523,0.2670902609825134,0.3889850974082947
1772376427160746200,5.100746337890625,-1.1755923242338,-0.5477706603944301,0.6176373928248882,-0.10585767030715942,0.24748270213603973,0.3349604606628418
1772376427170696200,5.1106962890625,-1.1731527490619569,-0.576279254259169,0.7151748069912195,-0.11555127799510956,0.20214250683784485,0.28142496943473816
1772376427180645000,5.12064501953125,-1.137415007661283,-0.5713844679549336,0.7794161007553339,-0.12250399589538574,0.15985096991062164,0.23142145574092865
1772376427190595300,5.13059521484375,-1.0871337771233172,-0.6058762278825044,0.7556769132494926,-0.11162165552377701,0.11460878700017929,0.18613141775131226
1772376427200544300,5.140544189453125,-1.0474535817071795,-0.5642161837607622,0.6731476831227541,-0.09620461612939835,0.07522649317979813,0.1437099277973175
1772376427210494200,5.150494140625,-0.9833861101400106,-0.49912937908321614,0.5889712703108787,-0.07117803394794464,0.032685838639736176,0.11171048134565353
1772376427220443100,5.160443115234375,-0.868648262586817,-0.4618064873829484,0.47502457313537594,-0.05524381250143051,0.011020759120583534,0.08908586204051971
1772376427230393300,5.170393310546875,-0.7175398556221276,-0.4335778795033693,0.35460078890025615,-0.04090109467506409,0.004448085092008114,0.07518505305051804
1772376427240342300,5.18034228515625,-0.6151219759378582,-0.40258009917140003,0.22841771048605441,-0.03881903737783432,0.01752127707004547,0.0670192688703537
1772376427250292200,5.190292236328125,-0.5523559058254585,-0.36796149799376726,0.09098317021727562,-0.04233931750059128,0.05023013427853584,0.06374828517436981
1772376427260242200,5.2002421875,-0.5382371449062601,-0.3453752799153328,-0.0239244809448719,-0.061452027410268784,0.0813121497631073,0.05850078910589218
1772376427270191000,5.210191162109375,-0.4370375184379518,-0.3240872849538922,-0.19495733943283558,-0.05678839609026909,0.13185571134090424,0.06163917854428291
1772376427280141300,5.220141357421875,-0.3357196358848363,-0.2919415036305785,-0.3491992221176624,-0.05242374166846275,0.16019999980926514,0.05374690145254135
1772376427290090200,5.23009033203125,-0.21754713770784437,-0.32217706741839647,-0.3906219503521919,-0.030205169692635536,0.21987344324588776,0.06561227142810822
1772376427300040200,5.240040283203125,-0.15746785899400711,-0.20934417670369146,-0.4866723408311605,-0.013221925124526024,0.2710796296596527,0.08314786106348038
1772376427309989000,5.249989013671875,-0.06704970224834979,-0.17368921821564434,-0.403576124471426,-0.0006848613265901804,0.3408847153186798,0.11713442206382751
1772376427319939300,5.259939208984375,0.05326108659896999,-0.13535042747110126,-0.3423948027998209,0.003157281083986163,0.42771950364112854,0.16564629971981049
1772376427329888300,5.26988818359375,0.2077771283163689,-0.15340747768729923,-0.21113573629558086,-0.02449573390185833,0.4784473776817322,0.2122972309589386
1772376427339838200,5.279838134765625,0.4648168847126886,-0.2620984462916851,0.08274608774781227,-0.06873137503862381,0.4770846366882324,0.2546164393424988
1772376427349788200,5.2897880859375,0.6548790359824895,-0.39881285559237,0.33581600893139835,-0.11423815041780472,0.44038206338882446,0.2932174503803253
1772376427359737300,5.2997373046875,0.803529528401047,-0.5063935248672962,0.5121691856592894,-0.1801372766494751,0.3394985795021057,0.3152939975261688
1772376427369687300,5.309687255859375,0.8409783845685422,-0.5837105733036995,0.640581046038866,-0.26074936985969543,0.20222248136997223,0.33103567361831665
1772376427379636200,5.31963623046875,0.8493364630691707,-0.6565268031895161,0.5860299561619758,-0.35827723145484924,0.055652208626270294,0.339193195104599
1772376427389586200,5.329586181640625,0.7366198922105133,-0.6630494829565287,0.3410848892450332,-0.4587794244289398,-0.08916424214839935,0.3290095031261444
1772376427399535400,5.339535400390625,0.5025486860074102,-0.6661366353169084,-0.14532441673576832,-0.5387754440307617,-0.18612487614154816,0.30960625410079956
1772376427409485300,5.3494853515625,0.37372039031405,-0.6180144094437361,-0.8496493284106255,-0.5673710107803345,-0.23429706692695618,0.27278488874435425
1772376427419434200,5.359434326171875,0.33820231954604385,-0.6650371496424079,-1.5600778176575898,-0.538033664226532,-0.1920260339975357,0.24839754402637482
1772376427429384200,5.36938427734375,0.3955089186761528,-0.5890224159762263,-2.248960245528817,-0.46416187286376953,-0.12055259197950363,0.243998721241951
1772376427439334400,5.37933447265625,0.5233564231712371,-0.42735593624860047,-2.7726456814587115,-0.3420599400997162,-0.0036438186652958393,0.26954323053359985
1772376427449283300,5.389283447265625,0.7247608929168432,-0.2758426017448306,-3.0292835242569445,-0.2062479555606842,0.11796724051237106,0.34304749965667725
1772376427459233300,5.3992333984375,0.9887455913465469,-0.041296763767302035,-3.0209727920293807,-0.0608191192150116,0.2218363732099533,0.4580419957637787
1772376427469182200,5.40918212890625,1.2864274652600287,0.1944882606163621,-2.7780560160696504,0.08299112319946289,0.34203416109085083,0.6148706674575806
1772376427479132400,5.41913232421875,1.5735707748286425,0.3477119061693549,-2.3306261368244887,0.1815938651561737,0.4158726930618286,0.7882328629493713
1772376427489081300,5.429081298828125,1.6946010005243122,0.435178592698276,-1.667850794634223,0.24097761511802673,0.427949458360672,0.9460899829864502
1772376427499031300,5.43903125,1.6630683826632797,0.39086598824113605,-0.9681962128579616,0.28283318877220154,0.4182393252849579,1.072069525718689
1772376427508980200,5.448980224609375,1.5151901897914706,0.217713361120224,-0.4593500341415405,0.3316100537776947,0.4199775159358978,1.1602630615234375
1772376427518930200,5.45893017578125,1.2768626413181423,0.09241641789078713,-0.12715689188241958,0.3768845796585083,0.3796631097793579,1.2045255899429321
1772376427528880400,5.46888037109375,1.1321068182505667,-0.026753274630010128,0.20210487309992312,0.4081555902957916,0.3228134512901306,1.228050947189331
1772376427538829300,5.478829345703125,1.0714905831158161,-0.17871961359828709,0.5306599511176348,0.4062833786010742,0.2415580302476883,1.2329678535461426
1772376427548779300,5.488779296875,1.0298828537032008,-0.3230634948641062,0.7951204503655434,0.3849177360534668,0.15702949464321136,1.2194018363952637
1772376427558728200,5.498728271484375,0.9851290813498198,-0.45598435710072516,0.9982751247793435,0.3322047293186188,0.056364670395851135,1.1883901357650757
1772376427568678400,5.508678466796875,0.9332524713791907,-0.5653843507573009,1.0641899047136305,0.27330482006073,-0.05315621197223663,1.1405590772628784
1772376427578627300,5.51862744140625,0.8596583889886736,-0.6680626349434257,0.9819920984983443,0.20290735363960266,-0.17633166909217834,1.0610074996948242
1772376427588577300,5.528577392578125,0.8048359348244964,-0.7911328420341014,0.7528384749531746,0.16649238765239716,-0.29080620408058167,0.9757898449897766
1772376427598526200,5.538526123046875,0.6682349958356469,-0.7665683096200228,0.2728939810723066,0.15748345851898193,-0.37737441062927246,0.8881127238273621
1772376427608476400,5.548476318359375,0.47124534685760733,-0.5899576509997249,-0.3212847947537899,0.16855596005916595,-0.432084858417511,0.801388144493103
1772376427618426400,5.55842626953125,0.38166988801378754,-0.38918753363490105,-0.918425927516818,0.19050200283527374,-0.43756964802742004,0.7417738437652588
1772376427628375300,5.568375244140625,0.41582697262689466,-0.2378270516052842,-1.3609569288045167,0.21660670638084412,-0.4115847647190094,0.6946223378181458
1772376427638325200,5.5783251953125,0.5715889775510877,-0.15770020644515753,-1.749047314852476,0.2720009684562683,-0.2947782576084137,0.6550208926200867
1772376427648274200,5.588274169921875,0.6210062116708606,-0.07969196087419986,-2.108434168985486,0.35359007120132446,-0.11150238662958145,0.6284579038619995
1772376427658223600,5.5982236328125,0.6281451236400752,0.1159694351747632,-2.2969173439681527,0.4461578130722046,0.10013981908559799,0.6242556571960449
1772376427668172500,5.608172607421875,0.712535836789757,0.3955035849139094,-2.1361130340278147,0.5188738703727722,0.27660512924194336,0.6552085280418396
1772376427678122800,5.618122802734375,0.879791222565621,0.5737342459514737,-1.5706027188032865,0.551922619342804,0.37860286235809326,0.7046562433242798
1772376427688071700,5.62807177734375,1.077591238078475,0.6366767320767045,-0.7909820353865623,0.5597906708717346,0.40201908349990845,0.7546693086624146
1772376427698021600,5.638021728515625,1.1752517671678215,0.5877914128765463,-0.05893383500576019,0.5700480937957764,0.41484883427619934,0.7875382900238037
1772376427707971600,5.6479716796875,1.0843697923026978,0.5732485082611442,0.35744682598114014,0.5740772485733032,0.40352433919906616,0.7969422936439514
1772376427717920800,5.657920654296875,0.9805896843545139,0.5195613417372107,0.7956617176353931,0.5673101544380188,0.3546755909919739,0.7928975224494934
1772376427727870700,5.66787060546875,0.9201037245359271,0.3793614284083247,1.153494912585616,0.5493534207344055,0.29238322377204895,0.7764180302619934
1772376427737819600,5.677819580078125,0.8808063909575342,0.26400077278167006,1.392482532402873,0.5249016284942627,0.22501613199710846,0.7413375377655029
1772376427747769600,5.68776953125,0.7185236790277063,0.18004384793937206,1.556748380973935,0.48897916078567505,0.1455632597208023,0.6849642395973206
1772376427757718500,5.697718505859375,0.5541973324410617,0.12906126419901848,1.6860574824541805,0.43662193417549133,0.0686572939157486,0.6082130074501038
1772376427767668700,5.707668701171875,0.41441480427403,0.0934364085882902,1.7194786905407904,0.38154885172843933,0.015795299783349037,0.525829553604126
1772376427777617700,5.71761767578125,0.31668877220042047,0.01725683974921703,1.6818173606663942,0.32320138812065125,-0.029568985104560852,0.4322607219219208
1772376427787567600,5.727567626953125,0.28571249131420623,-0.025640637212991712,1.6148925269067287,0.2657792866230011,-0.05233106017112732,0.3436071276664734
1772376427797517800,5.737517822265625,0.2771135167297907,0.022343056972324846,1.4308692539423704,0.22413891553878784,-0.04084644466638565,0.2645362913608551
1772376427807466800,5.747466796875,0.2945622075229883,0.14493600194007158,1.198059445977211,0.1840137243270874,-0.01911463961005211,0.20736490190029144
1772376427817416700,5.757416748046875,0.37520452792458237,0.31338994985073804,1.0396323865622281,0.1482274979352951,-0.0010922309011220932,0.1769164502620697
1772376427827365600,5.76736572265625,0.5385014583982527,0.41485652015954255,0.9009072219610214,0.1155385747551918,0.03245149180293083,0.16610883176326752
1772376427837315600,5.777315673828125,0.6592480448469519,0.48262423448413605,0.7875403705000877,0.08635325729846954,0.052384454756975174,0.16468457877635956
1772376427847264800,5.7872646484375,0.6904619521476328,0.5789534419044852,0.7017050845652818,0.06431938707828522,0.0692858174443245,0.16842208802700043
1772376427857214700,5.797214599609375,0.7158125203728676,0.6151411920949816,0.5793780970573424,0.057137906551361084,0.09975557774305344,0.17285598814487457
1772376427867163600,5.80716357421875,0.664074076763913,0.5986614741981029,0.484465186175704,0.057512082159519196,0.10435645282268524,0.16562576591968536
1772376427877113600,5.817113525390625,0.6044323126845061,0.5844380107954145,0.45152679316997524,0.06994850933551788,0.08688052743673325,0.15899929404258728
1772376427887063800,5.827063720703125,0.5797968339260667,0.5169768782019615,0.46127369568049903,0.07991320639848709,0.08262810856103897,0.14677534997463226
1772376427897012700,5.8370126953125,0.5260556721925735,0.45512715574949975,0.4599263727247715,0.07968710362911224,0.0593763142824173,0.13558128476142883
1772376427906962700,5.846962646484375,0.5199141737628727,0.4053542400598526,0.507279660052061,0.08181606978178024,0.05403071269392967,0.11468092352151871
1772376427916911600,5.85691162109375,0.48060434602908786,0.33993104303479194,0.5194909068495035,0.06067563593387604,0.06487376987934113,0.09273940324783325
1772376427926861800,5.86686181640625,0.4085949024815112,0.2855053331032395,0.5511509504824876,0.02795540541410446,0.07756629586219788,0.0676833912730217
1772376427936810800,5.876810791015625,0.36347953027412294,0.25075053832530975,0.5849532668411731,-0.0018640090711414814,0.09165521711111069,0.0426640585064888
1772376427946760700,5.8867607421875,0.3986749814916402,0.18762392780482767,0.6118219845443964,-0.039242662489414215,0.09650290012359619,0.017690269276499748
1772376427956709600,5.896709716796875,0.39378640573248264,0.1506473653241992,0.6144581782668829,-0.07082003355026245,0.0840454250574112,-0.005156990140676498
1772376427966659800,5.906659912109375,0.37971542947776615,0.15194646522402763,0.5495189653664827,-0.10163990408182144,0.051040053367614746,-0.033055540174245834
1772376427976609800,5.91660986328125,0.3638395226929337,0.13517623994797467,0.4259925389409065,-0.10825839638710022,0.02044832333922386,-0.04824887216091156
1772376427986558700,5.926558837890625,0.35894908377025275,0.09943097282797098,0.16472528277635573,-0.09955772757530212,-0.0015780082903802395,-0.06805555522441864
1772376427996508700,5.9365087890625,0.35965193480998275,0.0987891677930951,-0.0810579885303974,-0.07443372905254364,-0.0130865927785635,-0.08392319828271866
1772376428006457600,5.94645751953125,0.34930692027583715,0.14252134201377628,-0.3069026336580515,-0.0388014055788517,-0.00568349938839674,-0.0940777137875557
1772376428016407800,5.95640771484375,0.34481128935702143,0.18919278455674648,-0.43857320357263085,-0.014027083292603493,-0.003572145476937294,-0.0964236930012703
1772376428026356700,5.966356689453125,0.3611657734390348,0.24635142658352852,-0.4548872095137834,-0.0009848994668573141,-0.001549560111016035,-0.08792351186275482
1772376428036306700,5.976306640625,0.37186581195592877,0.2669225054472685,-0.3914987331867218,0.0035557900555431843,0.01179554034024477,-0.07790230214595795
1772376428046255600,5.986255615234375,0.3868996418934315,0.23752339248359203,-0.30076866094768046,-0.009314239025115967,-0.0016902689822018147,-0.07130599021911621
1772376428056205800,5.996205810546875,0.38193105970062313,0.20304127716720102,-0.20585808815360068,-0.012161691673099995,-0.004920417442917824,-0.06633759289979935
1772376428066154800,6.00615478515625,0.3574695127369836,0.13176701602637766,-0.21842706234753131,-0.009140937589108944,-0.003718729130923748,-0.06509627401828766
1772376428076104700,6.016104736328125,0.30916948261149224,0.03682371000647545,-0.2687900528848171,-0.00390516291372478,-0.005452446639537811,-0.0706620141863823
1772376428086054700,6.0260546875,0.29897865399206053,-0.04860796356350183,-0.2840408135086298,0.012584302574396133,-0.02995869144797325,-0.0733937919139862
1772376428096003800,6.03600390625,0.31955957839637994,-0.15863807181715964,-0.30355916844904424,0.02489236742258072,-0.052132438868284225,-0.07456957548856735
1772376428105953800,6.045953857421875,0.35690007881857455,-0.2715443200290203,-0.3058300359904766,0.03897473216056824,-0.09682424366474152,-0.07742603868246078
1772376428115902700,6.05590283203125,0.37323994985334574,-0.3378723569393158,-0.3140998516857624,0.057922057807445526,-0.1502254158258438,-0.08050278574228287
1772376428125852700,6.065852783203125,0.33502489508632566,-0.3734261931404471,-0.33465222584903237,0.06435070931911469,-0.19862529635429382,-0.09180298447608948
1772376428135801900,6.0758017578125,0.2288354975067079,-0.33420389755964275,-0.3800263220578432,0.05585256591439247,-0.205936461687088,-0.10876332223415375
1772376428145751800,6.085751708984375,0.15642837814474478,-0.3564198210209608,-0.5244353775143623,0.04136842116713524,-0.1486968696117401,-0.12485883384943008
1772376428155700700,6.09570068359375,0.24588052113614975,-0.46677112405300136,-0.7316781980246305,0.013538120314478874,-0.040047887712717056,-0.13192102313041687
1772376428165650700,6.105650634765625,0.370025590916723,-0.5478577541559935,-0.836587602263689,-0.030241474509239197,0.036005888134241104,-0.14656808972358704
1772376428175600600,6.1156005859375,0.3971840122815221,-0.5189037546113133,-0.9096662824779749,-0.08566318452358246,0.09866154938936234,-0.161458358168602
1772376428185549800,6.1255498046875,0.2800934093234129,-0.3957031991392374,-1.0819780748605727,-0.1439829021692276,0.13594596087932587,-0.18460482358932495
1772376428195499800,6.135499755859375,0.05081597673548385,-0.23471184219419955,-1.3459808934688566,-0.22039619088172913,0.105618417263031,-0.2244209498167038
1772376428205448700,6.14544873046875,-0.18732936530504374,-0.20843349159955976,-1.5936393109977245,-0.2897045910358429,0.10720919817686081,-0.2776210606098175
1772376428215399000,6.15539892578125,-0.33222163770124313,-0.22140783172398804,-2.0124638580054044,-0.3202499747276306,0.18115000426769257,-0.35374724864959717
1772376428225347800,6.165347900390625,-0.6272479556046426,-0.1637260426059365,-2.554746442377567,-0.2619837820529938,0.34129446744918823,-0.42393988370895386
1772376428235297800,6.1752978515625,-0.613503434825316,-0.06820318313241004,-3.0086954942584034,-0.12785209715366364,0.5137764811515808,-0.464870810508728
1772376428245246700,6.185246826171875,-0.44595114846210926,0.10117810875624418,-3.095489980614185,0.04174976423382759,0.6867859363555908,-0.4723007082939148
1772376428255196700,6.19519677734375,-0.17000649284860117,0.29983780983835456,-2.739033334714174,0.18969447910785675,0.8233075141906738,-0.4251800775527954
1772376428265146600,6.205146728515625,0.16578304820097983,0.46797874627709385,-1.995095374575257,0.29873910546302795,0.9003221392631531,-0.3297872543334961
1772376428275095800,6.215095703125,0.4981039815582335,0.6837827666446566,-1.0763333469718694,0.3710668385028839,0.8939688801765442,-0.20271934568881989
1772376428285045500,6.22504541015625,0.7290140933819115,0.7915016753464936,-0.1206990940451622,0.40384769439697266,0.8125882744789124,-0.07809537649154663
1772376428294994700,6.23499462890625,0.8526537709236145,0.7494128844186663,0.7191805355012416,0.4117144048213959,0.6714562177658081,0.029951728880405426
1772376428304944600,6.244944580078125,0.8790526791580021,0.6629805093735456,1.3435212253570556,0.4103672206401825,0.48089277744293213,0.12412328273057938
1772376428314893800,6.254893798828125,0.8098479177676141,0.6117758073151112,1.7484522715687751,0.4124402403831482,0.26192688941955566,0.1941380500793457
1772376428324843500,6.264843505859375,0.7015796315547078,0.4718687394529581,1.8676333622664212,0.41522103548049927,0.0757160484790802,0.22928611934185028
1772376428334792700,6.274792724609375,0.45813883172087366,0.31157734747081994,1.7377309710681437,0.4266880750656128,-0.07307662069797516,0.24504190683364868
1772376428344742700,6.28474267578125,0.22417656578496098,0.22984511294066903,1.5622089844673872,0.42527636885643005,-0.1661047339439392,0.2364940345287323
1772376428354692600,6.294692626953125,-0.07919106214735656,0.17656944982707498,1.412027775350213,0.3945932984352112,-0.2129310965538025,0.19076648354530334
1772376428364641800,6.304641845703125,-0.4024619892170653,0.04898410339951515,1.2896522725254296,0.33039504289627075,-0.21888701617717743,0.12971347570419312
1772376428374591500,6.314591552734375,-0.6747054339587688,0.0140492758795619,1.2626882777541875,0.22620978951454163,-0.20745034515857697,0.057445134967565536
1772376428384540700,6.324540771484375,-0.8061883723467588,0.0004503741160035133,1.392623986700177,0.09676551073789597,-0.20556215941905975,-0.023011455312371254
1772376428394490600,6.33449072265625,-0.8429498307719826,0.033308979883790016,1.4830121136337517,-0.04080673307180405,-0.22058291733264923,-0.11547853797674179
1772376428404439800,6.344439697265625,-0.7353682847142219,0.0489817653119564,1.3908774352937936,-0.1516112983226776,-0.22132205963134766,-0.20454509556293488
1772376428414389500,6.354389404296875,-0.5609352258613333,0.06742869162857532,1.173189793136716,-0.2391377091407776,-0.20120693743228912,-0.28738299012184143
1772376428424339700,6.364339599609375,-0.4049561441203579,0.17460516401678322,0.9124240567535161,-0.29269808530807495,-0.13165752589702606,-0.35278594493865967
1772376428434288600,6.37428857421875,-0.2036944803789258,0.2704439575716853,0.636578824660182,-0.3106704354286194,-0.05257149785757065,-0.3821907043457031
1772376428444238600,6.384238525390625,0.0982226930167526,0.398743882009387,0.3478244266331196,-0.29125234484672546,0.0317007452249527,-0.37499648332595825
1772376428454187500,6.3941875,0.31038126955404877,0.5451867813810706,0.15835399417877197,-0.24524171650409698,0.10835237801074982,-0.3379170298576355
1772376428464137700,6.4041376953125,0.5409758491551503,0.6470373825713992,0.08666939867138862,-0.17784589529037476,0.14995494484901428,-0.26131439208984375
1772376428474086700,6.414086669921875,0.7180523351889103,0.7491510186120868,0.0949964975118637,-0.09513290971517563,0.15829595923423767,-0.14667171239852905
1772376428484036600,6.42403662109375,0.8379705810546875,0.8534285546883941,0.17237024457156658,-0.02204866148531437,0.130113884806633,-0.03550409898161888
1772376428493985500,6.433985595703125,0.8437455111943185,0.7559890479385852,0.34906536660492415,0.027909843251109123,0.0662536770105362,0.037587955594062805
1772376428503935500,6.443935546875,0.7103438797034323,0.607682400521636,0.5553928258359432,0.06404885649681091,-0.01549016684293747,0.06568890810012817
1772376428513884700,6.453884765625,0.4975429136093706,0.4161921526774764,0.6738046857267618,0.0757710263133049,-0.05282848700881004,0.05819743126630783
1772376428523834600,6.463834716796875,0.24800631765108555,0.28456863677501676,0.7315005033701658,0.05676748976111412,-0.07031884789466858,0.034148868173360825
1772376428533784600,6.47378466796875,-0.011648352217674254,0.23541677559316157,0.8255003910601139,0.0026720319874584675,-0.08310361206531525,0.003343287156894803
1772376428543733500,6.4837333984375,-0.1629231652578339,0.1884922350719571,0.9198241038769484,-0.07478264719247818,-0.09199141710996628,-0.02310764044523239
1772376428553683700,6.49368359375,-0.23700671166572718,0.18435148200541734,0.902610518747568,-0.14870107173919678,-0.0879274383187294,-0.05259495973587036
1772376428563632600,6.503632568359375,-0.28774540364760903,0.15207827491015194,0.8074012552678584,-0.21924053132534027,-0.07182233035564423,-0.0875127986073494
1772376428573582600,6.51358251953125,-0.29922084698379037,0.1497463248312473,0.6287631824731826,-0.2625352740287781,-0.05462469905614853,-0.12976332008838654
1772376428583531500,6.523531494140625,-0.34139804684743286,0.186963125808537,0.34451369464993475,-0.2833203375339508,0.01722133532166481,-0.1621289849281311
1772376428593481700,6.533481689453125,-0.39743268981296564,0.26766630955189463,0.1603916374862194,-0.3061167299747467,0.04103638604283333,-0.18526679277420044
1772376428603431700,6.543431640625,-0.28534966761749236,0.30345453903079034,0.08492576987445354,-0.31800100207328796,0.06475048512220383,-0.18515820801258087
1772376428613380600,6.553380615234375,-0.18195899737831203,0.35182021827101706,-0.0031646015107631683,-0.31911471486091614,0.11177445203065872,-0.17746911942958832
1772376428623330600,6.56333056640625,-0.0671834846958518,0.3491735031545162,-0.05575578949153423,-0.3093775510787964,0.13276153802871704,-0.14844052493572235
1772376428633279500,6.573279541015625,0.016817973407916725,0.3837050105705857,-0.06236030232310295,-0.2814527153968811,0.18232455849647522,-0.10012945532798767
1772376428643229700,6.583229736328125,0.058999703316204244,0.40609336798936124,-0.13306231653392314,-0.2584574520587921,0.23799917101860046,-0.05193120241165161
1772376428653178600,6.5931787109375,0.07143292230125516,0.35495267107784745,0.03264087136387825,-0.2326042652130127,0.2573243975639343,0.02147803269326687
1772376428663128600,6.603128662109375,0.12284622560907155,0.33802579393535853,0.17289865235984325,-0.20646512508392334,0.27744391560554504,0.0908387079834938
1772376428673077500,6.613077392578125,0.07273589465860276,0.2327422956869006,0.2955687542170286,-0.18119172751903534,0.29272139072418213,0.13326072692871094
1772376428683027700,6.62302783203125,0.009892521526291966,0.04204465952515602,0.47788639230728147,-0.16423849761486053,0.26809006929397583,0.16479116678237915
1772376428692977700,6.632977783203125,-0.11280202065240591,-0.10588058735877275,0.7076075866073369,-0.15192162990570068,0.22455643117427826,0.17364856600761414
1772376428702926600,6.642926513671875,-0.2014241973593831,-0.2751306540831923,0.8753209452837705,-0.15109701454639435,0.18284529447555542,0.17001557350158691
1772376428712876500,6.65287646484375,-0.2646908739376813,-0.45434389641731976,0.9789391406685113,-0.16004016995429993,0.1437639445066452,0.160669207572937
1772376428722825500,6.662825439453125,-0.3145556326292455,-0.5993257833257317,1.0202712680101393,-0.16371457278728485,0.11095082759857178,0.144173726439476
1772376428732775700,6.672775634765625,-0.3540476850621402,-0.6841109756857157,1.0503799905478954,-0.18086425960063934,0.07983285933732986,0.128800630569458
1772376428742724600,6.682724609375,-0.3615688012819737,-0.7802025749579071,1.0043927308768033,-0.18517543375492096,0.05055970698595047,0.11031610518693924
1772376428752674600,6.692674560546875,-0.35362339523546393,-0.8865984183624386,0.8733516910374164,-0.18895232677459717,0.03995579853653908,0.08763129264116287
1772376428762623500,6.70262353515625,-0.3430164418295026,-0.9320207376271485,0.788742732027173,-0.19114550948143005,0.014202238060534,0.06537362933158875
1772376428772573700,6.71257373046875,-0.3608800153002143,-0.9782602184936403,0.6609305911064147,-0.19831687211990356,0.010584867559373379,0.04550565034151077
1772376428782522600,6.722522705078125,-0.32651027431711555,-1.02533351983577,0.53870706397295,-0.212489515542984,-0.014110863208770752,0.02804853767156601
1772376428792472600,6.73247265625,-0.2692334127381444,-1.0817767070695756,0.41449791598021984,-0.21348100900650024,-0.038434043526649475,0.01264348067343235
1772376428802422500,6.742422607421875,-0.21982056253254412,-1.1263137679323554,0.17815408867001534,-0.20699481666088104,-0.05271531641483307,-0.0037592181470245123
1772376428812371700,6.752371826171875,-0.2193559406954795,-1.1095628318786621,-0.029936288580298422,-0.18302716314792633,-0.06541167199611664,-0.021206917241215706
1772376428822321700,6.76232177734375,-0.2593898814527318,-1.0700532437890768,-0.26223522441387176,-0.15604645013809204,-0.0796588882803917,-0.02736298367381096
1772376428832270600,6.7722705078125,-0.26446028005219996,-1.0463684168189764,-0.4482172302305698,-0.1264166533946991,-0.0785699263215065,-0.036134105175733566
1772376428842220500,6.782220458984375,-0.29796375959478316,-1.0301549486428498,-0.6217611947566271,-0.0880119651556015,-0.07524965703487396,-0.04360330477356911
1772376428852169700,6.792169677734375,-0.31888792621251194,-1.0116001780375838,-0.7520593072742223,-0.045611511915922165,-0.06489581614732742,-0.0518798753619194
1772376428862119700,6.80211962890625,-0.31418654358852655,-1.0015253587469457,-0.9685270522475242,0.015181935392320156,-0.041015658527612686,-0.056646984070539474
1772376428872069600,6.812069580078125,-0.31358156343270094,-0.9401686805084347,-1.0317296506136655,0.09124235063791275,-0.011232994496822357,-0.05265596881508827
1772376428882018600,6.8220185546875,-0.23974720601290464,-0.8514353350445628,-1.1266349627107382,0.1844295710325241,0.0534544363617897,-0.030316457152366638
1772376428891968800,6.83196875,-0.14833883265350012,-0.8119669557482003,-1.0027350267976523,0.25202324986457825,0.08098006993532181,-0.00951477326452732
1772376428901917700,6.841917724609375,0.0013273030810058116,-0.7885653296336531,-0.6387339568674564,0.27895301580429077,0.10046447068452835,0.0187754575163126
1772376428911867600,6.85186767578125,0.18420096761882304,-0.7978034058392047,-0.2233686104029417,0.2918680012226105,0.11532677710056305,0.05379362776875496
1772376428921816600,6.861816650390625,0.31571371662318704,-0.8182941129431128,0.10517536169886589,0.2747437059879303,0.1297222077846527,0.08521353453397751
1772376428931766800,6.871766845703125,0.38838374297134576,-0.8306222641184926,0.34997780527472494,0.2372962087392807,0.15504328906536102,0.11019691079854965
1772376428941715700,6.8817158203125,0.39977585540562866,-0.8280874849438666,0.570235005658865,0.18199311196804047,0.18861252069473267,0.1322450488805771
1772376428951665700,6.891665771484375,0.4886003862842917,-0.9444573176130652,0.7257552377164364,0.10158669948577881,0.21303902566432953,0.1431802660226822
1772376428961615600,6.90161572265625,0.577420825509727,-1.0689338843703269,0.9043594082415103,-0.006018273998051882,0.21388286352157593,0.13813573122024536
1772376428971564500,6.911564453125,0.7090494559787214,-1.274420216602087,1.0816466509491205,-0.12275926768779755,0.13603201508522034,0.12071012705564499
1772376428981514800,6.9215146484375,0.8139091027919203,-1.3775801468253135,1.1196890890955924,-0.24038934707641602,-0.03265642374753952,0.07505715638399124
1772376428991463700,6.931463623046875,0.6698024643480778,-1.326483581316471,0.9526549448549747,-0.3460606634616852,-0.30774179100990295,-0.00731787970289588
1772376429001413600,6.94141357421875,0.3385136505175382,-1.1342170884028075,0.48328620552420615,-0.4060206711292267,-0.5590713024139404,-0.11195582896471024
1772376429011362600,6.951362548828125,0.04706639667730778,-0.8664704070910811,-0.5091922156751155,-0.40491974353790283,-0.7123223543167114,-0.21844923496246338
1772376429021312800,6.961312744140625,-0.19469379312582313,-0.5682248348802328,-1.6747440612792968,-0.35037538409233093,-0.7780455350875854,-0.3284687399864197
1772376429031261700,6.97126171875,-0.1166695462681353,-0.3723784376531839,-2.6311902151107787,-0.20031052827835083,-0.6546913981437683,-0.3742370307445526
1772376429041211600,6.981211669921875,0.2094651362022385,0.024378362192213534,-3.4181612612903116,0.0017818213673308492,-0.40361613035202026,-0.34028366208076477
1772376429051161600,6.99116162109375,0.6579100742414593,0.5098021642670035,-3.66527782702744,0.21860626339912415,-0.08550847321748734,-0.22437304258346558
1772376429061110800,7.00111083984375,1.1681927155017853,0.9835159470647573,-3.3672844760119913,0.3884583115577698,0.23652200400829315,-0.0446590781211853
1772376429071060700,7.011060791015625,1.6418185277551411,1.2991007766112685,-2.5291134039491414,0.4422619044780731,0.49798738956451416,0.17246632277965546
1772376429081009700,7.021009765625,2.067000919356942,1.4102657341137528,-1.2823252906382083,0.390043169260025,0.6196595430374146,0.3898122012615204
1772376429090959600,7.030959716796875,2.2999277778305114,1.3012737367361784,-0.02925532057881355,0.29197946190834045,0.6149318814277649,0.5749863386154175
1772376429100908500,7.040908447265625,2.2715207446441052,1.0768526946708559,0.8422305765867233,0.19122256338596344,0.5167800188064575,0.6930942535400391
1772376429110858800,7.050858642578125,2.0164121572397646,0.8364686520591378,1.2605711394697428,0.11326679587364197,0.35370293259620667,0.7437411546707153
1772376429120807700,7.0608076171875,1.7176850851222871,0.6132865041390061,1.3856594083845615,0.05994629114866257,0.13885076344013214,0.7408759593963623
1772376429130757600,7.070757568359375,1.4431681790232658,0.410756391364336,1.2563304331600664,0.0397491455078125,-0.09177392721176147,0.7096951603889465
1772376429140707800,7.080707763671875,1.2351095120854676,0.22128625117093323,0.8910732256889343,0.062400396913290024,-0.2914063334465027,0.6534390449523926
1772376429150656800,7.09065673828125,1.0576881946694106,0.15629355451762675,0.3526291965663433,0.1068059429526329,-0.4236815571784973,0.6088367104530334
1772376429160606700,7.100606689453125,0.8793019777439535,0.2558981303468346,-0.2461597034037113,0.14455917477607727,-0.4839816689491272,0.5826599597930908
1772376429170555600,7.1105556640625,0.7508847105368971,0.44415538761913775,-0.705171883893013,0.15009722113609314,-0.5083519816398621,0.5718650817871094
1772376429180505900,7.120505859375,0.7046541436292231,0.5803045642524958,-0.9644494275450706,0.11389230191707611,-0.5148249268531799,0.5741628408432007
1772376429190454800,7.130454833984375,0.6743221337296068,0.6452145510584115,-1.1059294438123701,0.05067311227321625,-0.4907214641571045,0.5647187232971191
1772376429200404700,7.14040478515625,0.5718069311507046,0.6819359697341919,-1.2461235119223595,-0.002881275024265051,-0.3986935019493103,0.5444929003715515
1772376429210353700,7.150353759765625,0.4203400661371648,0.7172437222197652,-1.5466916818618774,-0.025741316378116608,-0.2656249403953552,0.5106484293937683
1772376429220303600,7.1603037109375,0.33646040778215974,0.8015630506336688,-1.7982944531023501,-0.014411726966500282,-0.09362665563821793,0.4795762896537781
1772376429230253800,7.17025390625,0.3455293744985014,0.9170674986451863,-1.9794974079489707,0.037681568413972855,0.0929059386253357,0.4779970347881317
1772376429240202800,7.18020263671875,0.40780725923515854,1.07401016472131,-1.9647545968472957,0.12114401161670685,0.255124032497406,0.5118211507797241
1772376429250152700,7.190152587890625,0.5423435573117807,1.252101709549129,-1.661972257989645,0.21252691745758057,0.37611913681030273,0.5785059332847595
1772376429260101600,7.2001015625,0.6688559042129665,1.3749854541569948,-1.0666203467309474,0.30211254954338074,0.41427314281463623,0.6649169325828552
1772376429270051800,7.2100517578125,0.7942718707121909,1.3933277510553597,-0.3349129226118326,0.3651655316352844,0.44739940762519836,0.7497263550758362
1772376429280000800,7.220000732421875,0.7874575145222246,1.35368693780154,0.3127431763797998,0.3900831937789917,0.4136517643928528,0.8197733163833618
1772376429289950700,7.22995068359375,0.6114842404900118,1.26354167971313,0.9762526780635118,0.38622188568115234,0.370116263628006,0.851131021976471
1772376429299899600,7.239899658203125,0.5089055807534605,1.0428346897348761,1.5408558153152465,0.3465346097946167,0.30454158782958984,0.8458611965179443
1772376429309849900,7.249849853515625,0.3626347134804353,0.8253414011061191,1.9745792407691478,0.2784673869609833,0.19712403416633606,0.8114073276519775
1772376429319799600,7.259799560546875,0.22479646951528265,0.647018970131874,2.2579121982693673,0.1886805146932602,0.11071373522281647,0.7581990361213684
1772376429329748700,7.269748779296875,0.0548518172559794,0.5204661816224455,2.363162378770113,0.08901941776275635,0.019467178732156754,0.6988595724105835
1772376429339698400,7.279698486328125,-0.06389814288225025,0.42892011682540176,2.324109302276373,-0.009897219017148018,-0.060001567006111145,0.6084267497062683
1772376429349647600,7.289647705078125,-0.15874233590923248,0.3251215964376926,2.1600766779392955,-0.09682732075452805,-0.11512687057256699,0.5151522159576416
1772376429359597600,7.29959765625,-0.22813597093522547,0.23781126951426265,1.88772162604928,-0.16365505754947662,-0.13662487268447876,0.43277883529663086
1772376429369546800,7.309546630859375,-0.24145872263852505,0.2930634933978319,1.5578624796956777,-0.2066906839609146,-0.13242879509925842,0.3795047104358673
1772376429379496400,7.319496337890625,-0.18861927725141867,0.39843174732029435,1.2177812145352362,-0.24274447560310364,-0.12022113800048828,0.35260307788848877
1772376429389445600,7.329445556640625,-0.10220413646888919,0.4445817963376641,0.9176654645383358,-0.2592235803604126,-0.09614749997854233,0.3462008535861969
1772376429399395600,7.3393955078125,-0.027355268244305623,0.4436509452283382,0.6862444805830716,-0.2699657380580902,-0.07496482133865356,0.33628490567207336
1772376429409345500,7.349345458984375,0.028241156833898273,0.40032939763516184,0.526088405418396,-0.2727902829647064,-0.053966324776411057,0.3255574405193329
1772376429419294700,7.359294677734375,0.03437699270779267,0.3508820606380701,0.41257893061637874,-0.276310533285141,-0.04524450749158859,0.3065583109855652
1772376429429244400,7.369244384765625,0.03963571695359423,0.2647361013188958,0.3225216430723667,-0.26605311036109924,-0.03728671744465828,0.2887987792491913
1772376429439193600,7.379193603515625,0.024341519046854228,0.22016572270840404,0.22950959737598894,-0.24738484621047974,-0.03804823383688927,0.269733190536499
1772376429449143600,7.3891435546875,0.006976469682808965,0.167001995536685,0.16832067691981792,-0.23573990166187286,-0.03149126470088959,0.24965350329875946
1772376429459092700,7.3990927734375,-0.012097666887752712,0.10867606329619883,0.14902502481937407,-0.22730553150177002,-0.030103355646133423,0.23293210566043854
1772376429469042400,7.40904248046875,-0.05246644735625013,0.06724398271143436,0.15703998897075652,-0.222672700881958,-0.028321433812379837,0.21679973602294922
1772376429478992000,7.418991943359375,-0.08037358646281063,-0.012307692909240721,0.14435820205211639,-0.2086329311132431,-0.014651289209723473,0.19928790628910065
1772376429488941600,7.428941650390625,-0.1180304958904162,-0.06652268269956112,0.14086393019556998,-0.20200245082378387,-0.011016074568033218,0.17474234104156494
1772376429498891500,7.4388916015625,-0.17649837561855092,-0.14444471129179,0.15549100596308707,-0.20019203424453735,-0.007928946986794472,0.14783766865730286
1772376429508840400,7.44884033203125,-0.1912887887216173,-0.22971768716871738,0.164282799705863,-0.19425664842128754,-0.021321717649698257,0.12394458055496216
1772376429518790700,7.458790771484375,-0.19446360109914093,-0.2986214197859168,0.16280395932495592,-0.1841077208518982,-0.05305687338113785,0.09843128174543381
1772376429528739600,7.468739501953125,-0.21023385555241256,-0.36079204475581644,0.10360007520616053,-0.16897565126419067,-0.08220995962619781,0.0716012641787529
1772376429538689500,7.478689453125,-0.23270906927073373,-0.3985460213497281,0.0019727613776922225,-0.15381769835948944,-0.1008589118719101,0.04315940663218498
1772376429548638500,7.488638427734375,-0.27599980160053816,-0.4424585205733776,-0.082317633202672,-0.1408209502696991,-0.11821846663951874,0.012214543297886848
1772376429558588700,7.498588623046875,-0.31171182403806597,-0.46896015852987766,-0.18156302033066749,-0.11816401034593582,-0.12630246579647064,-0.015399995259940624
1772376429568537600,7.50853759765625,-0.35966117756236343,-0.49065673429220913,-0.3396691772282123,-0.08927856385707855,-0.11764532327651978,-0.053632333874702454
1772376429578487600,7.518487548828125,-0.3953050666671246,-0.48977615206539626,-0.4453425515770912,-0.060924313962459564,-0.12233218550682068,-0.09087197482585907
1772376429588437500,7.5284375,-0.37546990086250004,-0.45456484569162126,-0.49009237840771674,-0.034038376063108444,-0.12293725460767746,-0.12393005937337875
1772376429598386400,7.538386474609375,-0.3423915513968095,-0.434982777865231,-0.5350163927614688,0.000026980414986610413,-0.11859236657619476,-0.14831441640853882
1772376429608336600,7.548336669921875,-0.2784709774870425,-0.3668398004874587,-0.5419681115955114,0.029291391372680664,-0.117751345038414,-0.16809238493442535
1772376429618285600,7.55828564453125,-0.22909246794246135,-0.30386311983168124,-0.5052653976202011,0.044452372938394547,-0.1440107822418213,-0.18611830472946167
1772376429628235500,7.568235595703125,-0.18782763368338345,-0.23966683425307272,-0.4550234031140804,0.06204015389084816,-0.17155399918556213,-0.1949424296617508
1772376429638184400,7.578184326171875,-0.13899999948721378,-0.20959669016003607,-0.4620505252718925,0.08960665017366409,-0.1752234697341919,-0.20310303568840027
1772376429648134700,7.588134765625,-0.113807800161466,-0.20430676705837247,-0.5259995580911636,0.12002101540565491,-0.17014828324317932,-0.21490085124969482
1772376429658083300,7.598083251953125,-0.09704462568070739,-0.23232494705766438,-0.5575853674441575,0.14881329238414764,-0.18201844394207,-0.2292163372039795
1772376429668033500,7.608033447265625,-0.03633753392472863,-0.2514125093653798,-0.48601300013959403,0.16819950938224792,-0.20716001093387604,-0.2509631812572479
1772376429677983500,7.6179833984375,0.033742001006193456,-0.25101240413188936,-0.38241935467422006,0.17477676272392273,-0.23746605217456818,-0.273578405380249
1772376429687932400,7.627932373046875,0.037293702138401566,-0.24292846639752386,-0.2852864296555519,0.17312400043010712,-0.25886425375938416,-0.2958722710609436
1772376429697882400,7.63788232421875,0.04837934243939817,-0.2850967523023486,-0.18674597592651843,0.14978080987930298,-0.25179725885391235,-0.3145357668399811
1772376429707831600,7.64783154296875,0.17476981652658433,-0.3989885044202208,-0.10061492191553115,0.09781747311353683,-0.24184902012348175,-0.3294702470302582
1772376429717781500,7.657781494140625,0.35915428748615086,-0.5665238761812448,0.05884148054718971,0.0004736620467156172,-0.2985132038593292,-0.3416772484779358
