time,seconds_elapsed,z,y,x
1772568142744174800,0.1171748046875,0.12083997577428818,-0.18602658808231354,0.020233292132616043
1772568142754246000,0.127245849609375,0.12564930319786072,-0.1716119945049286,0.016172543168067932
1772568142764317000,0.13731689453125,0.11276546120643616,-0.15966026484966278,0.01101320143789053
1772568142774389000,0.147388916015625,0.09749062359333038,-0.14335815608501434,0.00983219500631094
1772568142784460000,0.1574599609375,0.08403526991605759,-0.12240999191999435,0.0268402062356472
1772568142794532000,0.167531982421875,0.06916936486959457,-0.09625829011201859,0.040930069983005524
1772568142804603100,0.17760302734375,0.05703573673963547,-0.06860296428203583,0.033846061676740646
1772568142814675200,0.18767529296875,0.05114172399044037,-0.026639863848686218,0.021926922723650932
1772568142824746200,0.197746337890625,0.04340497776865959,0.012440427206456661,0.0032368600368499756
1772568142834818000,0.207818115234375,0.01953277550637722,0.04356818646192551,-0.01176730077713728
1772568142844888800,0.217888916015625,0.008579459972679615,0.045242249965667725,-0.017262201756238937
1772568142854961000,0.2279609375,0.007774057798087597,0.04090888798236847,-0.014943459071218967
1772568142865032000,0.238031982421875,0.002389678731560707,0.03939967229962349,-0.00927785038948059
1772568142875104000,0.24810400390625,-0.005000186152756214,0.03969981521368027,-0.009240444749593735
1772568142885175000,0.258175048828125,-0.007675597444176674,0.04246683791279793,-0.012825326062738895
1772568142895247000,0.2682470703125,-0.010381258092820644,0.04031660035252571,-0.012213701382279396
1772568142905318100,0.278318115234375,-0.010789786465466022,0.024339497089385986,-0.01681697368621826
1772568142915390000,0.288389892578125,-0.003809000365436077,0.0002601952292025089,-0.0112261101603508
1772568142925461000,0.2984609375,0.004277421627193689,-0.02555968426167965,0.009257061406970024
1772568142935533000,0.308532958984375,0.00981086678802967,-0.05356871336698532,0.03799952566623688
1772568142945604000,0.31860400390625,0.017593689262866974,-0.05316178500652313,0.0683094933629036
1772568142955676200,0.32867626953125,0.02328498661518097,-0.05263484641909599,0.07346063107252121
1772568142965747200,0.338747314453125,0.02425464428961277,-0.05382581055164337,0.058559440076351166
1772568142975819000,0.348819091796875,0.021205859258770943,-0.0612812265753746,0.03877811133861542
1772568142985889800,0.358889892578125,0.021356860175728798,-0.05971049517393112,0.025291861966252327
1772568142995962000,0.368962158203125,0.022147756069898605,-0.04518681392073631,0.01397655252367258
1772568143006033000,0.379032958984375,0.024354984983801842,-0.02664215862751007,0.0008873818442225456
1772568143016104000,0.38910400390625,0.02680456079542637,-0.008502569049596786,0.006331148557364941
1772568143026176000,0.399176025390625,0.022019658237695694,0.009234882891178131,0.024451296776533127
1772568143036247000,0.4092470703125,0.022363880649209023,0.028202716261148453,0.033095505088567734
1772568143046319000,0.419319091796875,0.025433439761400223,0.04575774073600769,0.028287701308727264
1772568143056390100,0.42939013671875,0.03280901536345482,0.04626660421490669,0.024458063766360283
1772568143066462000,0.4394619140625,0.030745066702365875,0.046573132276535034,0.0221464391797781
1772568143076533000,0.449532958984375,0.03981475532054901,0.04026959836483002,0.020065851509571075
1772568143086605000,0.45960498046875,0.04743591696023941,0.038333214819431305,0.026137325912714005
1772568143096676000,0.469676025390625,0.04881636053323746,0.039536960422992706,0.029264289885759354
1772568143106748200,0.479748046875,0.0414481945335865,0.032614607363939285,0.02642136439681053
1772568143116819200,0.489819091796875,0.026959823444485664,0.015438983216881752,0.04384257271885872
1772568143126891300,0.499891357421875,0.023220211267471313,0.011779800057411194,0.06739769876003265
1772568143136962000,0.509962158203125,0.02355990745127201,0.006987442262470722,0.08077087998390198
1772568143147033900,0.520033935546875,0.023626219481229782,0.01723714917898178,0.075874924659729
1772568143157105000,0.53010498046875,0.013513616286218166,0.028123818337917328,0.05808126926422119
1772568143167177000,0.540177001953125,0.009096231311559677,0.040981560945510864,0.04725605249404907
1772568143177248000,0.550248046875,0.0061607868410646915,0.037966661155223846,0.03469756245613098
1772568143187320000,0.560320068359375,-0.006724385544657707,0.02419731765985489,0.012617295607924461
1772568143197391000,0.57039111328125,-0.03250531107187271,-0.002777604153379798,0.010541249997913837
1772568143207463000,0.580462890625,-0.05360127612948418,-0.026384394615888596,0.03151124343276024
1772568143217534000,0.590533935546875,-0.06491180509328842,-0.04036799073219299,0.04904784634709358
1772568143227606000,0.60060595703125,-0.06901493668556213,-0.04620111361145973,0.055924929678440094
1772568143237677000,0.610677001953125,-0.0725613683462143,-0.05604582279920578,0.06283514201641083
1772568143247749000,0.6207490234375,-0.07580669224262238,-0.05086783692240715,0.0628013163805008
1772568143257820200,0.630820068359375,-0.07878363877534866,-0.034130267798900604,0.06273013353347778
1772568143267892200,0.640892333984375,-0.08390463143587112,-0.014288388192653656,0.05111183226108551
1772568143277963000,0.650962890625,-0.0835762619972229,0.005304488819092512,0.02163543365895748
1772568143288034000,0.661033935546875,-0.08045797049999237,0.017254091799259186,-0.014342008158564568
1772568143298105900,0.67110595703125,-0.073483906686306,0.01524064689874649,-0.03353450074791908
1772568143308177000,0.681177001953125,-0.06603105366230011,0.006983782630413771,-0.031628210097551346
1772568143318249000,0.6912490234375,-0.05327806621789932,0.00015177717432379723,-0.02806927263736725
1772568143328320000,0.701320068359375,-0.043179892003536224,-0.018900476396083832,-0.017113294452428818
1772568143338392000,0.71139208984375,-0.029669642448425293,-0.03747100010514259,-0.0050819930620491505
1772568143348463000,0.721463134765625,-0.014330899342894554,-0.06304454058408737,0.007699581794440746
1772568143358535200,0.73153515625,-0.00580152403563261,-0.07456960529088974,0.026706798002123833
1772568143368606200,0.741606201171875,-0.0069085992872715,-0.07444337010383606,0.0319681391119957
1772568143378678000,0.751677978515625,-0.008974154479801655,-0.053523872047662735,0.027031276375055313
1772568143388748500,0.76174853515625,-0.015671737492084503,-0.04521188139915466,0.0071087004616856575
1772568143398820600,0.771820556640625,-0.0225259717553854,-0.04059872031211853,-0.010958358645439148
1772568143408891600,0.7818916015625,-0.02584267035126686,-0.0507056824862957,-0.012058244086802006
1772568143418963700,0.791963623046875,-0.0212620347738266,-0.05125296115875244,-0.0017001451924443245
1772568143429034800,0.80203466796875,-0.011232569813728333,-0.05331052094697952,0.0074984123930335045
1772568143439106800,0.81210693359375,-0.008285610005259514,-0.04733032360672951,0.021508658304810524
1772568143449177600,0.822177490234375,-0.001488689798861742,-0.04952769726514816,0.03308834880590439
1772568143459249400,0.83224951171875,-0.0108188446611166,-0.04712042957544327,0.03306710720062256
1772568143469320400,0.842320556640625,-0.01521093025803566,-0.04973618686199188,0.02236093208193779
1772568143479392500,0.852392578125,-0.02075944095849991,-0.06601116806268692,0.016039878129959106
1772568143489463600,0.862463623046875,-0.020252108573913574,-0.08444663137197495,0.020581364631652832
1772568143499534600,0.87253466796875,-0.02217058092355728,-0.09428777545690536,0.039129454642534256
1772568143509606700,0.882606689453125,-0.02943355217576027,-0.09013085067272186,0.043151360005140305
1772568143519677700,0.892677734375,-0.0354129821062088,-0.07273278385400772,0.047346364706754684
1772568143529749500,0.90274951171875,-0.044040825217962265,-0.055974580347537994,0.0374055840075016
1772568143539820500,0.912820556640625,-0.0506049282848835,-0.03880121931433678,0.020038485527038574
1772568143549892600,0.922892578125,-0.05676668882369995,-0.029651660472154617,-0.0000052647665143013
1772568143559963600,0.932963623046875,-0.0657958909869194,-0.023457583039999008,-0.0039434172213077545
1772568143570035700,0.94303564453125,-0.0709826648235321,-0.010216878727078438,0.00664584431797266
1772568143580106500,0.9531064453125,-0.061827246099710464,0.005141039378941059,0.011233937926590443
1772568143590178800,0.9631787109375,-0.05043584480881691,0.030418697744607925,0.004379493184387684
1772568143600249600,0.97324951171875,-0.04337361827492714,0.040927767753601074,-0.009074622765183449
1772568143610321400,0.9833212890625,-0.04042576253414154,0.04118742793798447,-0.02575666457414627
1772568143620392400,0.993392333984375,-0.032198868691921234,0.019865889102220535,-0.021335404366254807
1772568143630464500,1.003464599609375,-0.017409004271030426,0.009920313954353333,-0.0019856737926602364
1772568143640535600,1.01353564453125,-0.0006335964426398277,-0.00010189460590481758,0.01230955682694912
1772568143650607600,1.023607666015625,0.006914334837347269,0.0014179712161421776,0.00990552268922329
1772568143660678700,1.0336787109375,0.022012457251548767,0.016548659652471542,-0.0005105799064040184
1772568143670750700,1.043750732421875,0.02527988702058792,0.016096986830234528,-0.021995365619659424
1772568143680821800,1.05382177734375,0.02066381275653839,0.01363941840827465,-0.032641321420669556
1772568143690892800,1.063892822265625,0.020390039309859276,0.008679280057549477,-0.024409756064414978
1772568143700964600,1.073964599609375,0.013596540316939354,0.010410740040242672,-0.009530249051749706
1772568143711035600,1.08403564453125,0.004992665257304907,0.015753306448459625,0.004331504926085472
1772568143721107700,1.094107666015625,-0.004498124122619629,0.017040276899933815,-0.0020683780312538147
1772568143731178500,1.104178466796875,-0.01612228900194168,-0.0015358044765889645,-0.018968531861901283
1772568143741250600,1.11425048828125,-0.016023604199290276,-0.021495498716831207,-0.030531425029039383
1772568143751321600,1.124321533203125,-0.011564141139388084,-0.049821410328149796,-0.04044664278626442
1772568143761393700,1.1343935546875,0.001714610494673252,-0.07193545997142792,-0.04184047877788544
1772568143771464700,1.144464599609375,0.013127055019140244,-0.08209382742643356,-0.022875044494867325
1772568143781536500,1.15453662109375,0.029839547351002693,-0.08663938194513321,-0.009506662376224995
1772568143791607600,1.164607666015625,0.039892446249723434,-0.07894284278154373,-0.0026546157896518707
1772568143801679600,1.1746796875,0.04634718969464302,-0.07160214334726334,-0.000561966560781002
1772568143811750700,1.184750732421875,0.04621509835124016,-0.0665498599410057,0.002316111698746681
1772568143821822700,1.19482275390625,0.050256289541721344,-0.047796476632356644,0.0010349461808800697
1772568143831893800,1.204893798828125,0.049176111817359924,-0.038534268736839294,-0.016730468720197678
1772568143841965600,1.214965576171875,0.04464016854763031,-0.03925898298621178,-0.03096187487244606
1772568143852036600,1.22503662109375,0.03330868110060692,-0.04036526009440422,-0.031219668686389923
1772568143862107400,1.235107421875,0.02949899062514305,-0.062211401760578156,-0.02514653280377388
1772568143872179500,1.245179443359375,0.0267932191491127,-0.07449842989444733,-0.01858237385749817
1772568143882250500,1.25525048828125,0.021013684570789337,-0.07479514181613922,-0.010568482801318169
1772568143892322600,1.265322509765625,0.017528671771287918,-0.06641576439142227,-0.011640671640634537
1772568143902393600,1.2753935546875,0.006119986530393362,-0.06961628049612045,-0.01939868927001953
1772568143912465700,1.285465576171875,-0.00807945616543293,-0.06812597811222076,-0.018261253833770752
1772568143922536700,1.29553662109375,-0.018360575661063194,-0.056668467819690704,-0.004522738978266716
1772568143932608500,1.3056083984375,-0.008842969313263893,-0.029288507997989655,0.004579146392643452
1772568143942679600,1.315679443359375,-0.0007063546217978001,0.016245463863015175,-0.0019723521545529366
1772568143952751600,1.325751708984375,0.003706237068399787,0.0466073639690876,-0.0207391157746315
1772568143962822700,1.33582275390625,-0.0015683555975556374,0.061862777918577194,-0.03686084598302841
1772568143972894700,1.345894775390625,-0.005865631625056267,0.06847726553678513,-0.041268110275268555
1772568143982965800,1.3559658203125,-0.009913066402077675,0.06697414815425873,-0.03419135510921478
1772568143993037800,1.366037841796875,-0.004299390595406294,0.0615580789744854,-0.013730820268392563
1772568144003108600,1.376108642578125,0.0041296398267149925,0.06179402768611908,-0.0042354390025138855
1772568144013180400,1.386180419921875,0.013339383527636528,0.06125340610742569,-0.0001749172806739807
1772568144023251500,1.39625146484375,0.024088136851787567,0.0757361426949501,0.004920738749206066
1772568144033323500,1.406323486328125,0.04330497235059738,0.08712568879127502,0.0007888451218605042
1772568144043394600,1.41639453125,0.05581546202301979,0.08007752895355225,-0.016017161309719086
1772568144053465600,1.426465576171875,0.06045575439929962,0.05544382333755493,-0.022407682612538338
1772568144063537700,1.43653759765625,0.06468166410923004,0.02239293046295643,-0.010969938710331917
1772568144073608700,1.446608642578125,0.06337138265371323,-0.021535111591219902,0.0034353667870163918
1772568144083680500,1.456680419921875,0.06328506767749786,-0.04984734579920769,0.025991134345531464
1772568144093751600,1.46675146484375,0.06562013179063797,-0.06895099580287933,0.038335952907800674
1772568144103823600,1.47682373046875,0.0628402903676033,-0.07708851993083954,0.03788567706942558
1772568144113894700,1.486894775390625,0.054782092571258545,-0.09413647651672363,0.029307633638381958
1772568144123966700,1.496966796875,0.03949770703911781,-0.10999031364917755,0.020116491243243217
1772568144134037500,1.50703759765625,0.021390073001384735,-0.11324150115251541,0.020183337852358818
1772568144144109800,1.51710986328125,0.0006594974547624588,-0.11928214132785797,0.02965185046195984
1772568144154180600,1.5271806640625,-0.011264272965490818,-0.12213864922523499,0.014357582665979862
1772568144164252400,1.53725244140625,-0.019502775743603706,-0.1239374503493309,-0.006621008273214102
1772568144174323500,1.547323486328125,-0.02632739022374153,-0.139032781124115,-0.009556343778967857
1772568144184395500,1.5573955078125,-0.02377791330218315,-0.1478903889656067,0.0071832574903965
1772568144194466600,1.567466552734375,-0.015567922033369541,-0.14457236230373383,0.0207254309207201
1772568144204538600,1.57753857421875,-0.010013407096266747,-0.13784676790237427,0.023938067257404327
1772568144214609700,1.587609619140625,-0.010107150301337242,-0.12079907953739166,0.034704163670539856
1772568144224680700,1.5976806640625,-0.00887141190469265,-0.10402323305606842,0.04979633539915085
1772568144234752800,1.607752685546875,-0.011451216414570808,-0.06933662295341492,0.06339896470308304
1772568144244823800,1.61782373046875,-0.017688699066638947,-0.03103257715702057,0.06381697207689285
1772568144254895600,1.6278955078125,-0.022962024435400963,0.00016475655138492584,0.05436381697654724
1772568144264966700,1.637966552734375,-0.03373844921588898,0.0031320177949965,0.04658915102481842
1772568144275038700,1.648038818359375,-0.035834092646837234,0.003721641842275858,0.04900863394141197
1772568144285109500,1.658109619140625,-0.02741767093539238,0.006384336389601231,0.056327302008867264
1772568144295181600,1.668181640625,-0.00792786106467247,-0.00553384143859148,0.04609357565641403
1772568144305252600,1.678252685546875,0.014953713864088058,-0.000004224013537168503,0.031238878145813942
1772568144315324700,1.68832470703125,0.029852502048015594,-0.00673855934292078,0.010178601369261742
1772568144325395700,1.698395751953125,0.019627390429377556,-0.012005621567368507,0.0024743666872382164
1772568144335467500,1.708467529296875,0.001178608275949955,-0.0204989742487669,0.012448703870177269
1772568144345538600,1.71853857421875,-0.004043553490191698,-0.04128940775990486,0.03259901702404022
1772568144355610600,1.728610595703125,0.003043117932975292,-0.026380233466625214,0.05195673927664757
1772568144365681700,1.738681640625,-0.018234528601169586,-0.027159443125128746,0.04189487174153328
1772568144375753700,1.748753662109375,-0.03468034788966179,-0.00894634984433651,0.014728500507771969
1772568144385824800,1.75882470703125,-0.03609176725149155,-0.0021920730359852314,-0.005453026853501797
1772568144395896600,1.768896484375,-0.03364884853363037,-0.011266261339187622,-0.004781111143529415
1772568144405967600,1.778967529296875,-0.02732130140066147,-0.02033698558807373,-0.00010608229786157608
1772568144416038400,1.789038330078125,-0.01805802807211876,-0.028256161138415337,-0.005599917843937874
1772568144426110500,1.7991103515625,-0.016513492912054062,-0.027389176189899445,-0.0189125444740057
1772568144436181500,1.809181396484375,-0.008417749777436256,-0.021990947425365448,-0.027805637568235397
1772568144446253600,1.819253662109375,0.0036541344597935677,-0.016894817352294922,-0.02327948436141014
1772568144456324600,1.82932470703125,0.010930156335234642,-0.008560456335544586,-0.009470194578170776
1772568144466396700,1.839396728515625,0.012556133791804314,-0.0012664904352277517,0.0027313241735100746
1772568144476467700,1.8494677734375,0.008586958982050419,0.008990408852696419,-0.003711661323904991
1772568144486539500,1.85953955078125,0.0042829993180930614,0.006262363865971565,-0.020619673654437065
1772568144496610600,1.869610595703125,0.003576995339244604,-0.005923728458583355,-0.03617945685982704
1772568144506682600,1.8796826171875,0.0062574357725679874,-0.0238450039178133,-0.03436322137713432
1772568144516753700,1.889753662109375,0.01979401707649231,-0.029941778630018234,-0.022650636732578278
1772568144526825700,1.89982568359375,0.0331147164106369,-0.0027966140769422054,-0.013471778482198715
1772568144536896800,1.909896728515625,0.04690270125865936,0.018002673983573914,-0.008463437668979168
1772568144546968600,1.919968505859375,0.060643959790468216,0.03433840349316597,-0.010598475113511086
1772568144557039600,1.93003955078125,0.05938614904880524,0.04143466427922249,-0.005337932612746954
1772568144567111700,1.940111572265625,0.06011151894927025,0.04144299030303955,-0.005219562444835901
1772568144577182500,1.950182373046875,0.057377785444259644,0.02892347052693367,-0.01464688591659069
1772568144587254500,1.960254638671875,0.05150235444307327,0.016212431713938713,-0.025667108595371246
1772568144597325600,1.97032568359375,0.04828925058245659,-0.006063844542950392,-0.02327745407819748
1772568144607396600,1.980396728515625,0.049277130514383316,-0.029856055974960327,-0.004800095222890377
1772568144617468700,1.99046875,0.04426399618387222,-0.0438443087041378,0.011839335784316063
1772568144627539700,2.000539794921875,0.04206432029604912,-0.041509583592414856,0.011451692320406437
1772568144637611500,2.010611572265625,0.03869568556547165,-0.027052883058786392,0.004579936154186726
1772568144647682600,2.0206826171875,0.04062118008732796,-0.0074647339060902596,-0.006689191795885563
1772568144657754600,2.030754638671875,0.04441165551543236,0.0031801871955394745,-0.015294398181140423
1772568144667825700,2.04082568359375,0.039228614419698715,0.0018579275347292423,-0.021002084016799927
1772568144677897700,2.050897705078125,0.027330676093697548,-0.022739827632904053,-0.02109130099415779
1772568144687968800,2.06096875,0.010031642392277718,-0.04518215358257294,-0.013499354012310505
1772568144698040800,2.071040771484375,-0.004084175918251276,-0.052160169929265976,-0.003952188417315483
1772568144708111600,2.081111572265625,-0.011629628017544746,-0.05371105670928955,-0.003193676471710205
1772568144718183400,2.091183349609375,-0.01195373572409153,-0.034847088158130646,-0.005328466184437275
1772568144728254500,2.10125439453125,-0.006120591424405575,-0.011500213295221329,-0.012782960198819637
1772568144738326500,2.111326416015625,-0.0023687295615673065,0.008067096583545208,-0.022267010062932968
1772568144748397600,2.1213974609375,-0.001681385561823845,0.019480496644973755,-0.03228747844696045
1772568144758469600,2.1314697265625,-0.00007683038711547852,0.011970117688179016,-0.033760737627744675
1772568144768540700,2.141540771484375,0.009221683256328106,0.007440646179020405,-0.022304408252239227
1772568144778611700,2.15161181640625,0.013980751857161522,-0.00013551441952586174,-0.010869593359529972
1772568144788683800,2.161683837890625,0.01941019296646118,0.022322092205286026,-0.009654751978814602
1772568144798754800,2.1717548828125,0.01844399981200695,0.05265443027019501,-0.01559812854975462
1772568144808826600,2.18182666015625,0.019685298204421997,0.08203788101673126,-0.019039198756217957
1772568144818897700,2.191897705078125,0.01825091987848282,0.09553797543048859,-0.03139999508857727
1772568144828969700,2.2019697265625,0.010704674758017063,0.0907515212893486,-0.039627090096473694
1772568144839040500,2.21204052734375,0.008317150175571442,0.06232094019651413,-0.04472411423921585
1772568144849112600,2.222112548828125,0.005541665013879538,0.019844986498355865,-0.03993833810091019
1772568144859183600,2.23218359375,0.00780029222369194,-0.01448742114007473,-0.03971756249666214
1772568144869255400,2.24225537109375,0.009598558768630028,-0.03109453059732914,-0.03332836180925369
1772568144879326500,2.252326416015625,0.012157589197158813,-0.035581957548856735,-0.026767663657665253
1772568144889398500,2.2623984375,0.010766237042844296,-0.03988466039299965,-0.019351009279489517
1772568144899469600,2.272469482421875,0.011280760169029236,-0.05417065694928169,-0.014913915656507015
1772568144909541600,2.282541748046875,0.012842478230595589,-0.06250154972076416,-0.006030210759490728
1772568144919612700,2.29261279296875,0.013765795156359673,-0.06608828902244568,-0.0022407984361052513
1772568144929684700,2.302684814453125,0.012794148176908493,-0.06541562080383301,-0.002145867794752121
1772568144939755800,2.312755859375,0.014919083565473557,-0.051977306604385376,-0.0015772823244333267
1772568144949827600,2.32282763671875,0.02159804105758667,-0.038684140890836716,0.001294109970331192
1772568144959898600,2.332898681640625,0.024585843086242676,-0.02425592951476574,0.006297656334936619
1772568144969970700,2.342970703125,0.027505850419402122,-0.01811990700662136,0.004622510634362698
1772568144980041500,2.35304150390625,0.025657616555690765,-0.009372754022479057,-0.001090768724679947
1772568144990112500,2.363112548828125,0.02086266502737999,-0.006275733932852745,-0.011325323954224586
1772568145000184600,2.3731845703125,0.015735812485218048,-0.003789406968280673,-0.020584601908922195
1772568145010255600,2.383255615234375,0.004776012152433395,0.008137893863022327,-0.015006188303232193
1772568145020327700,2.39332763671875,0.002196474466472864,0.02985331043601036,-0.012686042115092278
1772568145030398700,2.403398681640625,-0.002818359062075615,0.06237020343542099,-0.019649334251880646
1772568145040470500,2.413470458984375,-0.007386478595435619,0.07949353009462357,-0.031014109030365944
1772568145050541600,2.42354150390625,-0.013325335457921028,0.07186181098222733,-0.03656616061925888
1772568145060613600,2.433613525390625,-0.021363023668527603,0.0525730699300766,-0.033817775547504425
1772568145070684700,2.4436845703125,-0.02264386974275112,0.023836331441998482,-0.027537822723388672
1772568145080756700,2.4537568359375,-0.020390568301081657,0.003052223939448595,-0.019388549029827118
1772568145090827800,2.463827880859375,-0.021999407559633255,-0.00793987512588501,-0.010604515671730042
1772568145100899600,2.473899658203125,-0.014408600516617298,-0.007207506336271763,-0.004516796208918095
1772568145110970600,2.483970703125,-0.008360875770449638,-0.009732784703373909,0.006660478189587593
1772568145121042700,2.494042724609375,-0.0043544163927435875,-0.002179793082177639,0.015296043828129768
1772568145131113500,2.504113525390625,0.002182610332965851,-0.0014340414199978113,0.009845123626291752
1772568145141185500,2.514185546875,0.006393068004399538,0.006066751666367054,-0.006647034548223019
1772568145151256600,2.524256591796875,0.00975136086344719,-0.0004472718574106693,-0.018413133919239044
1772568145161328600,2.53432861328125,0.013571132905781269,-0.003296854440122843,-0.015581129118800163
1772568145171399700,2.544399658203125,0.018114745616912842,-0.010162115097045898,-0.008471187204122543
1772568145181471500,2.554471435546875,0.02394174225628376,-0.006963392253965139,-0.0014447029680013657
1772568145191542500,2.56454248046875,0.028338083997368813,0.0021085022017359734,0.005201046355068684
1772568145201613600,2.574613525390625,0.026959631592035294,0.012567002326250076,0.010057852603495121
1772568145211685600,2.584685546875,0.023807339370250702,0.02253514528274536,0.010740800760686398
1772568145221756700,2.594756591796875,0.028022058308124542,0.03486904129385948,0.007089606486260891
1772568145231828700,2.604828857421875,0.02622629515826702,0.04286801069974899,0.0002347966656088829
1772568145241899800,2.614899658203125,0.023304007947444916,0.04767261818051338,-0.0013609696179628372
1772568145251971800,2.624971923828125,0.020213564857840538,0.044482484459877014,-0.00053387600928545
1772568145262042600,2.635042724609375,0.011516213417053223,0.058752767741680145,-0.0024787820875644684
1772568145272114400,2.645114501953125,-0.0012355884537100792,0.06529431790113449,-0.0061919367872178555
1772568145282185500,2.655185546875,-0.005895587615668774,0.0511137880384922,-0.006239873822778463
1772568145292257500,2.665257568359375,-0.006934580858796835,0.024948032572865486,-0.00740458257496357
1772568145302328600,2.67532861328125,-0.006364398170262575,-0.0045848265290260315,-0.003988279961049557
1772568145312400600,2.685400634765625,-0.0035011395812034607,-0.03650074824690819,0.00375550240278244
1772568145322471700,2.6954716796875,0.004393535666167736,-0.04873930662870407,0.005167776718735695
1772568145332543500,2.70554345703125,0.0002582329325377941,-0.05069489777088165,0.0076896995306015015
1772568145342614500,2.715614501953125,0.006887639872729778,-0.05954191833734512,0.013569692149758339
1772568145352686600,2.7256865234375,0.01444074884057045,-0.05776655673980713,0.024014059454202652
1772568145362757600,2.735757568359375,0.02550937980413437,-0.05661846697330475,0.02785620093345642
1772568145372829700,2.74582958984375,0.036528993397951126,-0.045950643718242645,0.022640153765678406
1772568145382904300,2.755904296875,0.042295269668102264,-0.03885544836521149,0.014851472340524197
1772568145392976400,2.765976318359375,0.04253901541233063,-0.029040401801466942,0.010697097517549992
1772568145403047400,2.77604736328125,0.038190875202417374,-0.020809635519981384,0.008094391785562038
1772568145413118500,2.786118408203125,0.03241483122110367,-0.003975493833422661,0.01019583735615015
1772568145423190300,2.796190185546875,0.02284715697169304,0.012197350151836872,0.013396424241364002
1772568145433261300,2.80626123046875,0.014470420777797699,0.018187265843153,0.01082590501755476
1772568145443333400,2.81633349609375,-0.0013351738452911377,0.008817201480269432,0.0004443693906068802
1772568145453404400,2.826404296875,-0.00009768223389983177,-0.006906503811478615,-0.0027687810361385345
1772568145463476500,2.8364765625,-0.002198916394263506,-0.01854611560702324,0.0010200981050729752
1772568145473547500,2.846547607421875,-0.0009469017386436462,-0.018565956503152847,-0.0034653926268219948
1772568145483619300,2.856619384765625,-0.004424457438290119,-0.015725694596767426,-0.0018278146162629128
1772568145493690400,2.8666904296875,-0.005907571874558926,-0.017945706844329834,0.005450604483485222
1772568145503762200,2.87676220703125,-0.010943609289824963,-0.007254446391016245,0.010366266593337059
1772568145513833200,2.886833251953125,-0.018069341778755188,-0.008370810188353062,0.0053437575697898865
1772568145523905300,2.8969052734375,-0.027488145977258682,-0.01001105085015297,0.0004158448427915573
1772568145533976300,2.906976318359375,-0.03348269313573837,-0.012659795582294464,-0.002447785809636116
1772568145544048400,2.91704833984375,-0.04026097059249878,-0.008781966753304005,0.0021163392812013626
1772568145554119400,2.927119384765625,-0.041928164660930634,-0.0008984450250864029,0.0029089869931340218
1772568145564191200,2.937191162109375,-0.03859442099928856,0.004924822598695755,0.00024529360234737396
1772568145574262300,2.94726220703125,-0.03720904514193535,0.002366856671869755,-0.009929579682648182
1772568145584334300,2.957334228515625,-0.03547346219420433,0.001493339892476797,-0.01825195737183094
1772568145594405400,2.9674052734375,-0.03909752145409584,-0.0008348622359335423,-0.01906292699277401
1772568145604477400,2.9774775390625,-0.03800749033689499,0.0046216887421905994,-0.021983083337545395
1772568145614548500,2.987548583984375,-0.03561927005648613,0.0047654639929533005,-0.027032895013689995
1772568145624620500,2.99762060546875,-0.03682062029838562,0.005682656541466713,-0.02929684892296791
1772568145634691600,3.007691650390625,-0.03704105317592621,0.010206703096628189,-0.027851764112710953
1772568145644762400,3.017762451171875,-0.033346716314554214,0.010076474398374557,-0.020761363208293915
1772568145654834200,3.027834228515625,-0.034139953553676605,0.015017004683613777,-0.023108692839741707
1772568145664905200,3.0379052734375,-0.038178637623786926,0.007058680057525635,-0.030393503606319427
1772568145674977300,3.047977294921875,-0.038537535816431046,-0.0058526587672531605,-0.02550223469734192
1772568145685048300,3.05804833984375,-0.02838503196835518,-0.019032908603549004,-0.009310748428106308
1772568145695120400,3.068120361328125,-0.020976191386580467,-0.014721016399562359,0.005129209719598293
1772568145705191400,3.07819140625,-0.007973041385412216,-0.009447424672544003,0.007907683961093426
1772568145715263500,3.088263427734375,-0.0009693177416920662,-0.005553615745157003,0.014116431586444378
1772568145725334500,3.09833447265625,0.00558125926181674,0.0024081706069409847,0.010111303068697453
1772568145735406300,3.10840625,0.01733388938009739,0.011345837265253067,0.0103299580514431
1772568145745477400,3.118477294921875,0.023811228573322296,0.022900760173797607,0.0036408957093954086
1772568145755549400,3.128549560546875,0.030876286327838898,0.02959268167614937,-0.0021877149119973183
1772568145765620500,3.138620361328125,0.037772275507450104,0.026255477219820023,0.0006762482225894928
1772568145775692500,3.148692626953125,0.04584942013025284,0.004518023692071438,-0.002330710180103779
1772568145785763300,3.158763427734375,0.04738180339336395,-0.03327915817499161,0.0008214069530367851
1772568145795835100,3.168835205078125,0.045014623552560806,-0.06131894886493683,0.018834229558706284
1772568145805906200,3.17890625,0.04116528853774071,-0.08089318126440048,0.038578372448682785
1772568145815978200,3.188978271484375,0.03752969205379486,-0.07553819566965103,0.04144155606627464
1772568145826049300,3.19904931640625,0.03398315981030464,-0.058771733194589615,0.03198360651731491
1772568145836121300,3.209121337890625,0.031413543969392776,-0.04412917047739029,0.022702649235725403
1772568145846192400,3.2191923828125,0.030430572107434273,-0.03145678713917732,0.015962187200784683
1772568145856264400,3.229264404296875,0.020421981811523438,-0.027600429952144623,0.012825516983866692
1772568145866335500,3.23933544921875,0.004129828419536352,-0.032737936824560165,0.005086638033390045
1772568145876407300,3.2494072265625,-0.009765831753611565,-0.0311744287610054,0.0008301613852381706
1772568145886478300,3.259478271484375,-0.01912231557071209,-0.025106679648160934,0.00422276183962822
1772568145896550400,3.26955029296875,-0.024799779057502747,-0.02508430927991867,0.0006627887487411499
1772568145906621400,3.279621337890625,-0.03377170488238335,-0.016581635922193527,0.00448602344840765
1772568145916692200,3.289692138671875,-0.036461006850004196,-0.0036207963712513447,0.004920722916722298
1772568145926764300,3.299764404296875,-0.035369109362363815,0.012270285747945309,0.0029694251716136932
1772568145936835300,3.30983544921875,-0.03558209538459778,0.03477396443486214,-0.0072721391916275024
1772568145946907400,3.319907470703125,-0.031524766236543655,0.04949645325541496,-0.02555260993540287
1772568145956978400,3.329978515625,-0.03378080204129219,0.05108159780502319,-0.04159484803676605
1772568145967050200,3.34005029296875,-0.016123510897159576,0.03943319618701935,-0.031212780624628067
1772568145977121300,3.350121337890625,0.006338952109217644,0.01853969879448414,-0.0016162348911166191
1772568145987193300,3.360193359375,0.011527055874466896,0.007453225553035736,0.022577518597245216
1772568145997264400,3.370264404296875,0.015311069786548615,0.002204103395342827,0.027713987976312637
1772568146007336400,3.38033642578125,0.024755971506237984,0.007553861942142248,0.03928568959236145
1772568146017407500,3.390407470703125,0.03019188530743122,0.0319477804005146,0.03924524784088135
1772568146027479300,3.400479248046875,0.034369852393865585,0.04894514009356499,0.029898349195718765
1772568146037550300,3.41055029296875,0.03815740346908569,0.05333173647522926,0.016023900359869003
1772568146047622400,3.420622314453125,0.03138818219304085,0.04388124495744705,0.006118272431194782
1772568146057693400,3.430693359375,0.02475840598344803,0.012830880470573902,-0.0013920338824391365
1772568146067765500,3.440765625,0.028995495289564133,-0.029476895928382874,-0.0026682205498218536
1772568146077836300,3.450836181640625,0.03141247108578682,-0.060279279947280884,0.006587694399058819
1772568146087908400,3.460908447265625,0.038666658103466034,-0.07882846146821976,0.021691545844078064
1772568146097979400,3.4709794921875,0.04621841758489609,-0.08535870164632797,0.03714268282055855
1772568146108051200,3.48105126953125,0.04821019247174263,-0.08549292385578156,0.04797003045678139
1772568146118122200,3.491122314453125,0.054695844650268555,-0.08004599064588547,0.05983458459377289
1772568146128194300,3.5011943359375,0.0580303892493248,-0.06842422485351562,0.061558984220027924
1772568146138265300,3.511265380859375,0.06370548903942108,-0.060864876955747604,0.04853620007634163
1772568146148337400,3.52133740234375,0.06557049602270126,-0.06121375411748886,0.03146667033433914
1772568146158408400,3.531408447265625,0.07069017738103867,-0.05982368066906929,0.02272897958755493
1772568146168480500,3.54148046875,0.0805278941988945,-0.06539607793092728,0.030571188777685165
1772568146178551600,3.551551513671875,0.08658970892429352,-0.07503116130828857,0.02803456410765648
1772568146188622600,3.56162255859375,0.09234693646430969,-0.08025708794593811,0.033609889447689056
1772568146198694400,3.5716943359375,0.08539572358131409,-0.0798930674791336,0.038671303540468216
1772568146208765200,3.58176513671875,0.07480299472808838,-0.06786170601844788,0.0524560883641243
1772568146218837200,3.591837158203125,0.06602005660533905,-0.04861992970108986,0.059472449123859406
1772568146228908300,3.601908203125,0.052558038383722305,-0.02659079246222973,0.058572836220264435
1772568146238980400,3.61198046875,0.040461111813783646,-0.0035299155861139297,0.05751645192503929
1772568146249051400,3.622051513671875,0.0259799063205719,0.004808974452316761,0.04768192768096924
1772568146259123200,3.632123291015625,0.017165571451187134,0.0025164936669170856,0.04109702631831169
1772568146269194200,3.6421943359375,-0.004389256238937378,-0.0017126058228313923,0.03489958494901657
1772568146279266300,3.652266357421875,-0.013133441098034382,0.011656960472464561,0.03276766091585159
1772568146289337300,3.66233740234375,-0.02422364056110382,0.042963482439517975,0.017594564706087112
1772568146299409400,3.672409423828125,-0.03670608997344971,0.062152061611413956,-0.007485578302294016
1772568146309480400,3.68248046875,-0.051671721041202545,0.07162278890609741,0.0019071251153945923
1772568146319552500,3.692552490234375,-0.06392091512680054,0.09320691227912903,0.018086865544319153
1772568146329623600,3.70262353515625,-0.06868238002061844,0.09686903655529022,0.025006555020809174
1772568146339695400,3.7126953125,-0.07011889666318893,0.11679895967245102,0.03100072406232357
1772568146349766100,3.72276611328125,-0.07191892713308334,0.13031315803527832,0.02081466279923916
1772568146359838200,3.732838134765625,-0.06945859640836716,0.1351676881313324,-0.0016211383044719696
1772568146369909200,3.7429091796875,-0.060669898986816406,0.14257845282554626,-0.0220252126455307
1772568146379981300,3.752981201171875,-0.05508317053318024,0.12202911078929901,-0.026597682386636734
1772568146390048800,3.763048828125,-0.04499085620045662,0.08262843638658524,-0.02458379790186882
1772568146400120800,3.773120849609375,-0.037868682295084,0.04050721973180771,-0.0032419776543974876
1772568146410192000,3.78319189453125,-0.02987014502286911,0.01529880240559578,0.019802354276180267
1772568146420263700,3.793263671875,-0.021883562207221985,0.0004573375917971134,0.022902578115463257
1772568146430334700,3.803334716796875,-0.014372115023434162,0.0005183243192732334,0.01702125370502472
1772568146440406800,3.81340673828125,-0.011107777245342731,-0.000058951787650585175,0.020618123933672905
1772568146450477800,3.823477783203125,-0.0031180279329419136,0.004035924561321735,0.01943887583911419
1772568146460550000,3.8335498046875,0.00014375802129507065,0.004291089251637459,0.017050907015800476
1772568146470620700,3.84362060546875,-0.0013582650572061539,0.01133514940738678,-0.0030855201184749603
1772568146480691700,3.853691650390625,-0.0037301238626241684,0.003531157970428467,-0.031808070838451385
1772568146490763800,3.863763671875,-0.01879163086414337,-0.019688677042722702,-0.048605162650346756
1772568146500834800,3.873834716796875,-0.035721126943826675,-0.05647978559136391,-0.03621481731534004
1772568146510906600,3.88390673828125,-0.04474258795380592,-0.07802369445562363,0.009610729292035103
1772568146520977700,3.893977783203125,-0.05131303146481514,-0.07831041514873505,0.036337144672870636
1772568146531049700,3.9040498046875,-0.051769763231277466,-0.06489686667919159,0.0399252213537693
1772568146541120800,3.914120849609375,-0.05786590650677681,-0.03378152847290039,0.028388071805238724
1772568146551192800,3.92419287109375,-0.05697375163435936,-0.003632147330790758,0.02241673320531845
1772568146561263900,3.934263916015625,-0.053083278238773346,0.0032377419993281364,0.015533402562141418
1772568146571335700,3.944335693359375,-0.046567585319280624,-0.005591169930994511,0.014452425763010979
1772568146581406700,3.95440673828125,-0.037133652716875076,-0.0018719285726547241,0.02175205573439598
1772568146591478800,3.964478759765625,-0.017447298392653465,0.005081318784505129,0.027313265949487686
1772568146601549600,3.974549560546875,0.00043877260759472847,0.011153123341500759,0.031969863921403885
1772568146611622000,3.984621826171875,0.011397147551178932,0.0273699089884758,0.030763987451791763
1772568146621691600,3.994691650390625,0.017440149560570717,0.03669140487909317,0.03259052336215973
1772568146631763700,4.004763671875,0.027401171624660492,0.06143403798341751,0.0397416427731514
1772568146641834800,4.014834716796875,0.023789189755916595,0.10220663994550705,0.03591128811240196
1772568146651906800,4.02490673828125,0.014471853151917458,0.1475277841091156,0.011761212721467018
1772568146661977900,4.034977783203125,-0.004293452017009258,0.17651841044425964,-0.023996109142899513
1772568146672049700,4.045049560546875,-0.02473001554608345,0.1546570509672165,-0.05176781862974167
1772568146682120700,4.05512060546875,-0.035508766770362854,0.09587337076663971,-0.05828097462654114
1772568146692192800,4.06519287109375,-0.034562814980745316,0.032786011695861816,-0.03838849067687988
1772568146702263800,4.075263916015625,-0.02487834170460701,-0.016973551362752914,-0.006040565669536591
1772568146712336000,4.0853359375,-0.01879355125129223,-0.05125189572572708,0.011693690903484821
1772568146722406700,4.09540673828125,-0.025202494114637375,-0.06592704355716705,0.009877132251858711
1772568146732479000,4.10547900390625,-0.041636060923337936,-0.05667442828416824,0.012686500325798988
1772568146742549800,4.1155498046875,-0.049797553569078445,-0.04060538113117218,0.015281256288290024
1772568146752621600,4.12562158203125,-0.05056427791714668,-0.021263374015688896,0.009310182183980942
1772568146762692600,4.135692626953125,-0.055169470608234406,0.0015367805026471615,-0.0000320998951792717
1772568146772764700,4.1457646484375,-0.05704353004693985,0.015525300055742264,-0.011346539482474327
1772568146782835700,4.155835693359375,-0.052556950598955154,0.02990560419857502,-0.021025728434324265
1772568146792906800,4.16590673828125,-0.049197904765605927,0.04312819987535477,-0.025406626984477043
1772568146802978800,4.175978759765625,-0.04166627302765846,0.039467714726924896,-0.02630855143070221
1772568146813049900,4.1860498046875,-0.034221142530441284,0.026282140985131264,-0.01535603404045105
1772568146823121700,4.19612158203125,-0.02506236732006073,0.005905931815505028,0.004306347109377384
1772568146833192700,4.206192626953125,-0.018243342638015747,-0.009824828244745731,0.012733920477330685
1772568146843264800,4.2162646484375,-0.012230864726006985,-0.023185107856988907,0.011987049132585526
1772568146853335600,4.22633544921875,-0.006743952631950378,-0.033590611070394516,0.008093239739537239
1772568146863407900,4.236407958984375,-0.0020204754546284676,-0.04180280491709709,-0.0003491407260298729
1772568146873478700,4.246478759765625,0.0014584115706384182,-0.044883813709020615,-0.0030455905944108963
1772568146883550700,4.25655078125,0.0017903163097798824,-0.03690681234002113,-0.004823022522032261
1772568146893621800,4.266621826171875,0.0017445096746087074,-0.007073817774653435,-0.016054637730121613
1772568146903693600,4.276693603515625,-0.005595519673079252,0.0203382670879364,-0.027315832674503326
1772568146913764600,4.2867646484375,-0.01649610511958599,0.03705625981092453,-0.03235906362533569
1772568146923836700,4.296836669921875,-0.0208137109875679,0.05099590867757797,-0.028467152267694473
1772568146933907700,4.30690771484375,-0.021426504477858543,0.03261610493063927,-0.01659344881772995
1772568146943979800,4.316979736328125,-0.019418062642216682,0.005398865789175034,0.006356182508170605
1772568146954050800,4.32705078125,-0.010182751342654228,-0.017815910279750824,0.02614932879805565
1772568146964123000,4.337122802734375,0.002340929117053747,-0.018618620932102203,0.03748701140284538
1772568146974194000,4.34719384765625,0.012634046375751495,-0.0031744176521897316,0.026436757296323776
1772568146984265700,4.357265625,0.019349996000528336,0.009950539097189903,0.009593168273568153
1772568146994336800,4.367336669921875,0.016828250139951706,0.02829119749367237,0.0012367013841867447
1772568147004408800,4.377408935546875,0.01834557019174099,0.035780370235443115,-0.010650334879755974
1772568147014479600,4.387479736328125,0.014804098755121231,0.04434243217110634,-0.01426743995398283
1772568147024551700,4.3975517578125,0.0190145131200552,0.04069650173187256,-0.01413643267005682
1772568147034622700,4.407622802734375,0.019958602264523506,0.020031435415148735,-0.01657642051577568
1772568147044694800,4.41769482421875,0.02294088527560234,-0.00001670699566602707,-0.008244665339589119
1772568147054765800,4.427765869140625,0.027718329802155495,-0.026348181068897247,-0.004869640804827213
1772568147064837600,4.437837646484375,0.02764860913157463,-0.049941420555114746,0.00987832248210907
1772568147074908700,4.44790869140625,0.02247755043208599,-0.05157846584916115,0.017853690311312675
1772568147084980700,4.457980712890625,0.01663091778755188,-0.03624741733074188,0.02525883913040161
1772568147095051800,4.4680517578125,0.014604520052671432,-0.019243931397795677,0.020596977323293686
1772568147105122800,4.478122802734375,0.005523695144802332,-0.006790025159716606,0.018957942724227905
1772568147115195000,4.48819482421875,0.012711035087704659,0.007000621408224106,0.02061815932393074
1772568147125266000,4.498265869140625,0.011726165190339088,0.013911193236708641,0.018568022176623344
1772568147135337700,4.508337646484375,0.015748605132102966,0.01655757613480091,0.009554818272590637
1772568147145408500,4.518408447265625,0.01541721262037754,0.01767510548233986,-0.004700657911598682
1772568147155480600,4.52848046875,0.010525251738727093,0.013141339644789696,-0.013411857187747955
1772568147165551600,4.538551513671875,-0.0010573812760412693,0.010241422802209854,-0.012905837967991829
1772568147175623700,4.548623779296875,-0.00899466685950756,0.008926354348659515,0.003720010630786419
1772568147185694700,4.55869482421875,-0.01533530093729496,0.008187626488506794,0.018655763939023018
1772568147195766800,4.568766845703125,-0.009713899344205856,0.01680295169353485,0.028028758242726326
1772568147205837800,4.578837890625,-0.0032195700332522392,0.03414176404476166,0.020482514053583145
1772568147215909600,4.58890966796875,0.006504696793854237,0.04942431300878525,0.006545926444232464
1772568147225980700,4.598980712890625,0.017952432855963707,0.06461658328771591,-0.002219744957983494
1772568147236052700,4.609052734375,0.026441257447004318,0.07582183182239532,-0.002153431996703148
1772568147246123800,4.619123779296875,0.03297208994626999,0.091620534658432,-0.003983485512435436
1772568147256195800,4.62919580078125,0.031137438490986824,0.1037091612815857,-0.016525376588106155
1772568147266267000,4.639266845703125,0.025630217045545578,0.1124618649482727,-0.022528111934661865
1772568147276338700,4.649338623046875,0.01584469899535179,0.11622411757707596,-0.007061006501317024
1772568147286409700,4.65940966796875,0.01735726185142994,0.12591621279716492,0.01210115384310484
1772568147296481800,4.669481689453125,0.01694793440401554,0.1343507170677185,0.01180767361074686
1772568147306552600,4.679552490234375,0.01471034623682499,0.13226920366287231,-0.0054554687812924385
1772568147316624600,4.689624755859375,0.004917104262858629,0.10390040278434753,-0.02594982460141182
1772568147326695700,4.69969580078125,-0.0032866690307855606,0.05798610672354698,-0.02929917350411415
1772568147336767700,4.709767822265625,-0.00839567743241787,0.01483091525733471,-0.016403349116444588
1772568147346838800,4.7198388671875,-0.008363794535398483,-0.018550079315900803,-0.0023760003969073296
1772568147356910600,4.72991064453125,-0.006165355909615755,-0.03458070755004883,-0.005428515840321779
1772568147366981600,4.739981689453125,-0.008325401693582535,-0.041149064898490906,-0.022311609238386154
1772568147377053700,4.7500537109375,-0.01296063233166933,-0.050836846232414246,-0.02836843580007553
1772568147387124500,4.76012451171875,-0.020101476460695267,-0.0679292157292366,-0.01624155417084694
1772568147397196500,4.770196533203125,-0.020696423947811127,-0.07105869054794312,0.004169711843132973
1772568147407267600,4.780267578125,-0.01873040199279785,-0.0639825388789177,0.016247466206550598
1772568147417338600,4.790338623046875,-0.020675841718912125,-0.036074742674827576,0.01529591903090477
1772568147427410700,4.80041064453125,-0.019662849605083466,-0.013427719473838806,-0.002416652627289295
1772568147437481700,4.810481689453125,-0.017311545088887215,-0.001534308074042201,-0.01938338577747345
1772568147447553500,4.820553466796875,-0.013093962334096432,-0.01257314532995224,-0.03388160467147827
1772568147457624600,4.83062451171875,-0.006383862346410751,-0.04494626820087433,-0.03283791244029999
1772568147467696600,4.840696533203125,0.0012415586970746517,-0.06779502332210541,-0.025403857231140137
1772568147477767700,4.850767578125,0.009992972016334534,-0.0801190584897995,-0.007960952818393707
1772568147487839700,4.86083984375,0.01682564988732338,-0.06516378372907639,0.004597414284944534
1772568147497910500,4.87091064453125,0.01983235776424408,-0.031894244253635406,0.0014301175251603127
1772568147507982800,4.88098291015625,0.022142484784126282,0.008401014842092991,-0.0185958631336689
1772568147518053600,4.8910537109375,0.02111264131963253,0.03572744131088257,-0.03628537803888321
1772568147528125400,4.90112548828125,0.017778966575860977,0.040835052728652954,-0.049818623811006546
1772568147538196500,4.911196533203125,0.019196035340428352,0.032831452786922455,-0.05362747609615326
1772568147548268500,4.9212685546875,0.019635755568742752,0.015922412276268005,-0.04199705272912979
1772568147558339600,4.931339599609375,0.019652532413601875,0.0018808948807418346,-0.01613003760576248
1772568147568411600,4.94141162109375,0.031049905344843864,-0.0028129916172474623,-0.003237055614590645
1772568147578482700,4.951482666015625,0.0356459878385067,-0.0026049986481666565,0.0022514527663588524
1772568147588554500,4.961554443359375,0.04090951010584831,0.004884474445134401,-0.0037102093920111656
1772568147598625500,4.97162548828125,0.04498414695262909,0.009782293811440468,-0.006267642602324486
1772568147608697600,4.981697509765625,0.0467134453356266,0.006627713330090046,-0.0061477115377783775
1772568147618768600,4.9917685546875,0.04542740434408188,-0.0026363590732216835,0.00013974588364362717
1772568147628840700,5.0018408203125,0.04522497206926346,-0.0013107035774737597,0.0017256224527955055
1772568147638911700,5.011911865234375,0.042735982686281204,-0.009152647107839584,-0.00441402941942215
1772568147648983800,5.02198388671875,0.044152189046144485,-0.019302353262901306,-0.00832575187087059
1772568147659054600,5.0320546875,0.04809579625725746,-0.037588685750961304,-0.014087501913309097
1772568147669126400,5.04212646484375,0.04460000619292259,-0.048959050327539444,-0.01451881229877472
1772568147679197400,5.052197509765625,0.03887021541595459,-0.06223037838935852,-0.006087244022637606
1772568147689269500,5.06226953125,0.03984176367521286,-0.060485776513814926,0.013713042251765728
1772568147699340500,5.072340576171875,0.04189399629831314,-0.03981591761112213,0.02338244765996933
1772568147709412600,5.08241259765625,0.04788813367486,-0.012223005294799805,0.017341068014502525
1772568147719483600,5.092483642578125,0.04776030406355858,0.015540714375674725,0.001855584792792797
1772568147729555700,5.1025556640625,0.04351433739066124,0.020591899752616882,-0.013485233299434185
1772568147739626800,5.112626708984375,0.03280976042151451,0.013245834968984127,-0.015193118713796139
1772568147749697800,5.12269775390625,0.02907700464129448,0.0024477504193782806,-0.009594857692718506
1772568147759769600,5.13276953125,0.021119745448231697,0.00005463371053338051,-0.011071580462157726
1772568147769840600,5.142840576171875,0.015598840080201626,-0.0073431627824902534,-0.0177669245749712
1772568147779912700,5.15291259765625,0.013208120130002499,-0.006701873615384102,-0.02818494476377964
1772568147789983500,5.1629833984375,0.003716191975399852,-0.01773461513221264,-0.03729047626256943
1772568147800055600,5.1730556640625,-0.0006633764132857323,-0.02834278531372547,-0.02767513133585453
1772568147810126600,5.183126708984375,-0.009706678800284863,-0.036544688045978546,-0.009665670804679394
1772568147820198700,5.19319873046875,-0.004494072869420052,-0.035089537501335144,0.008911474607884884
1772568147830269700,5.203269775390625,0.007094238419085741,-0.0275375135242939,0.008241700939834118
1772568147840341500,5.213341552734375,0.018372459337115288,-0.009810181334614754,-0.0048831552267074585
1772568147850412500,5.22341259765625,0.027794264256954193,-0.0040167090483009815,-0.01821310818195343
1772568147860484600,5.233484619140625,0.0347570963203907,-0.00745112169533968,-0.02646571211516857
1772568147870555600,5.2435556640625,0.04631689935922623,-0.010640222579240799,-0.031666386872529984
1772568147880627700,5.253627685546875,0.05014093220233917,-0.022575179114937782,-0.030289532616734505
1772568147890698800,5.26369873046875,0.055731046944856644,-0.03175482898950577,-0.016931260004639626
1772568147900770600,5.2737705078125,0.05897051841020584,-0.028645586222410202,0.0012155193835496902
1772568147910841600,5.283841552734375,0.06969891488552094,-0.018736932426691055,0.012400778941810131
1772568147920913700,5.29391357421875,0.07812409102916718,-0.004254395142197609,0.017078619450330734
1772568147930984400,5.303984375,0.09914107620716095,0.01849113032221794,0.00863389577716589
1772568147941056800,5.314056884765625,0.08210163563489914,0.01608123630285263,-0.005640913732349873
1772568147951127600,5.32412744140625,0.06698793172836304,-0.016986867412924767,-0.016105983406305313
1772568147961199600,5.33419970703125,0.0445241704583168,-0.04184294864535332,-0.019359033554792404
1772568147971270700,5.344270751953125,0.05165913701057434,-0.04914034157991409,-0.02646743506193161
1772568147981342500,5.354342529296875,0.059327445924282074,-0.057039812207221985,-0.029976416379213333
1772568147991413500,5.36441357421875,0.05690363049507141,-0.07248857617378235,-0.010315333493053913
1772568148001484500,5.374484619140625,0.04183120280504227,-0.07501431554555893,0.009167288430035114
1772568148011556600,5.384556640625,0.029256531968712807,-0.06206539645791054,0.00969791691750288
1772568148021627600,5.394627685546875,0.013054126873612404,-0.03668280690908432,0.002549460157752037
1772568148031699700,5.40469970703125,0.0063286349177360535,-0.017223123461008072,-0.003984696231782436
1772568148041770800,5.414770751953125,-0.0004909215494990349,-0.017559213563799858,-0.010394126176834106
1772568148051842800,5.4248427734375,0.004380492493510246,-0.0213125329464674,-0.012979100458323956
1772568148061913900,5.434913818359375,0.005655081011354923,-0.01433371938765049,-0.015970895066857338
1772568148071985700,5.444985595703125,0.004638271406292915,-0.007785113528370857,-0.0270979143679142
1772568148082056400,5.455056396484375,0.0029197335243225098,-0.0007106922566890717,-0.03119705244898796
1772568148092128500,5.46512841796875,-0.010652268305420876,-0.003055072855204344,-0.019382469356060028
1772568148102199600,5.475199462890625,-0.021659111604094505,-0.0029775749426335096,0.0011459747329354286
1772568148112271600,5.485271728515625,-0.025159038603305817,0.002316256519407034,0.008476591669023037
1772568148122342700,5.4953427734375,-0.027670133858919144,0.003697105683386326,-0.0042288172990083694
1772568148132414500,5.50541455078125,-0.029142478480935097,-0.00966121070086956,-0.012118983082473278
1772568148142485500,5.515485595703125,-0.032254382967948914,-0.01718916743993759,-0.00837111659348011
1772568148152557600,5.5255576171875,-0.028172887861728668,-0.02989647164940834,-0.01456480473279953
1772568148162628600,5.535628662109375,-0.029717788100242615,-0.026690823957324028,-0.024105845019221306
1772568148172700700,5.54570068359375,-0.030915850773453712,-0.025463707745075226,-0.03841330111026764
1772568148182771700,5.555771728515625,-0.03531912341713905,-0.02337579056620598,-0.0378018356859684
1772568148192843800,5.56584375,-0.03773527219891548,-0.03287118673324585,-0.021955285221338272
1772568148202914800,5.575914794921875,-0.03986899554729462,-0.04475900158286095,0.0025109099224209785
1772568148212986600,5.585986572265625,-0.043464817106723785,-0.05308032035827637,0.02761523425579071
1772568148223057400,5.596057373046875,-0.03732942417263985,-0.036038219928741455,0.042682066559791565
1772568148233129500,5.60612939453125,-0.022933974862098694,-0.016536425799131393,0.046656835824251175
1772568148243200500,5.616200439453125,-0.0006273370236158371,0.018125947564840317,0.03819597139954567
1772568148253271600,5.626271484375,0.020345117896795273,0.0572015754878521,0.019406113773584366
1772568148263343600,5.636343505859375,0.03453870117664337,0.09808589518070221,-0.003517311066389084
1772568148273414700,5.64641455078125,0.04392480477690697,0.12921875715255737,-0.01227174699306488
1772568148283486700,5.65648681640625,0.049314241856336594,0.14397984743118286,-0.007708154618740082
1772568148293557800,5.666557861328125,0.0473027378320694,0.1392332911491394,0.005105404183268547
1772568148303629600,5.676629638671875,0.05051637440919876,0.11650800704956055,0.009975528344511986
1772568148313700600,5.68670068359375,0.050448402762413025,0.08186601102352142,0.013260465115308762
1772568148323772700,5.696772705078125,0.0561494305729866,0.048782091587781906,0.013133164495229721
1772568148333843700,5.70684375,0.07290510088205338,0.017615916207432747,0.020686564967036247
1772568148343915800,5.716915771484375,0.07980401813983917,-0.022483833134174347,0.02905954234302044
1772568148353986600,5.726986572265625,0.08078744262456894,-0.0366702601313591,0.035969436168670654
1772568148364058400,5.737058349609375,0.0833858847618103,-0.04412924125790596,0.03147721290588379
1772568148374129400,5.74712939453125,0.07376537472009659,-0.03866416588425636,0.024669207632541656
1772568148384201500,5.757201416015625,0.048336178064346313,-0.05322553217411041,0.014023487456142902
1772568148394273000,5.76727294921875,0.04227961227297783,-0.079798124730587,0.02003336139023304
1772568148404345300,5.777345458984375,0.03576658293604851,-0.09547801315784454,0.022238994017243385
1772568148414416100,5.787416015625,0.028477495536208153,-0.11021734029054642,0.019618650898337364
1772568148424488200,5.79748828125,0.016686350107192993,-0.11492367833852768,0.03602159023284912
1772568148434559200,5.807559326171875,0.008981527760624886,-0.10832522809505463,0.05703416466712952
1772568148444631000,5.817631103515625,0.008064068853855133,-0.10487883538007736,0.06862077862024307
1772568148454702000,5.8277021484375,0.004622368142008781,-0.09016230702400208,0.08196745812892914
1772568148464773000,5.837773193359375,0.013535169884562492,-0.05753165856003761,0.07631463557481766
1772568148474845200,5.84784521484375,0.016268253326416016,-0.03820999339222908,0.05372039973735809
1772568148484916200,5.857916259765625,0.013001619838178158,-0.009640399366617203,0.024596065282821655
1772568148494988300,5.86798828125,0.015576282516121864,0.003026522696018219,0.001066998578608036
1772568148505059300,5.878059326171875,0.030990391969680786,0.004785007797181606,-0.0009886957705020905
1772568148515131100,5.888131103515625,0.03255242854356766,0.013837290927767754,0.009528503753244877
1772568148525202000,5.898201904296875,0.03336789086461067,0.07094638794660568,0.001103593036532402
1772568148535274200,5.908274169921875,0.020266562700271606,0.08318167179822922,-0.04365285113453865
1772568148545345000,5.918344970703125,0.013489349745213985,0.08388181775808334,-0.059919171035289764
1772568148555417000,5.9284169921875,-0.00581625709310174,0.08906616270542145,-0.02876625955104828
1772568148565488000,5.938488037109375,-0.01067652739584446,0.08104632049798965,0.004047614522278309
1772568148575560200,5.948560302734375,-0.0033453949727118015,0.07582417130470276,0.02004445716738701
1772568148585631200,5.95863134765625,0.0008365665562450886,0.0705907940864563,0.024613376706838608
1772568148595703000,5.968703125,0.005491219460964203,0.06539788842201233,0.019390685483813286
1772568148605774000,5.978774169921875,0.006989780347794294,0.044969309121370316,0.01598370261490345
1772568148615846100,5.98884619140625,0.006549442186951637,0.015166841447353363,0.004510822705924511
1772568148625917200,5.998917236328125,0.0035153029020875692,-0.028097808361053467,0.009272289462387562
1772568148635989200,6.0089892578125,0.0013966718688607216,-0.054648492485284805,0.0261506587266922
1772568148646060300,6.019060302734375,-0.00007365969941020012,-0.05208919569849968,0.03456544876098633
1772568148656132000,6.029132080078125,-0.00029224948957562447,-0.051713988184928894,0.03181484714150429
1772568148666203100,6.039203125,-0.004981543868780136,-0.04445501044392586,0.0258171409368515
1772568148676274200,6.049274169921875,-0.005005343351513147,-0.039629459381103516,0.01939358189702034
1772568148686346000,6.059345947265625,-0.004715325776487589,-0.03271722421050072,0.017578639090061188
1772568148696417000,6.0694169921875,-0.010531242936849594,-0.026308363303542137,0.009976998902857304
1772568148706489000,6.079489013671875,-0.014382440596818924,-0.037606824189424515,0.00616255309432745
1772568148716560100,6.08956005859375,-0.01840118132531643,-0.044690102338790894,0.011849963106215
1772568148726632200,6.099632080078125,-0.025702236220240593,-0.046727150678634644,0.015244693495333195
1772568148736703200,6.109703125,-0.02542266622185707,-0.042435601353645325,0.013374016620218754
1772568148746775000,6.119775146484375,-0.027087941765785217,-0.03673244267702103,0.008828000165522099
1772568148756846000,6.12984619140625,-0.028137672692537308,-0.016595447435975075,0.003140498884022236
1772568148766918100,6.139918212890625,-0.030637048184871674,-0.007199815474450588,-0.014150074683129787
1772568148776989200,6.1499892578125,-0.03777310997247696,0.0004731845110654831,-0.027177974581718445
1772568148787061200,6.160061279296875,-0.04341528192162514,0.006320420652627945,-0.034329626709222794
1772568148797132300,6.17013232421875,-0.0475466214120388,0.016725663095712662,-0.028998812660574913
1772568148807204400,6.180204345703125,-0.04405868053436279,0.04155857488512993,-0.023815501481294632
1772568148817275100,6.190275146484375,-0.04539421200752258,0.07221221923828125,-0.02364867925643921
1772568148827347000,6.200346923828125,-0.0503586120903492,0.09204690903425217,-0.021506696939468384
1772568148837418000,6.21041796875,-0.052124109119176865,0.10794674605131149,-0.007704812102019787
1772568148847489000,6.220489013671875,-0.047675829380750656,0.12253661453723907,-0.001802980899810791
1772568148857561000,6.23056103515625,-0.04383814334869385,0.11288059502840042,-0.008183680474758148
1772568148867632000,6.240632080078125,-0.03369123116135597,0.09232844412326813,-0.002887718379497528
1772568148877704200,6.2507041015625,-0.02871319279074669,0.076934814453125,-0.00807565450668335
1772568148887775200,6.260775146484375,-0.027104109525680542,0.06323791295289993,-0.018395669758319855
1772568148897847300,6.270847412109375,-0.020271290093660355,0.05917641520500183,-0.012235869653522968
1772568148907918300,6.28091845703125,-0.01290791667997837,0.053296152502298355,-0.007019003853201866
1772568148917990100,6.290990234375,-0.007661426439881325,0.03849869966506958,-0.0014702323824167252
1772568148928061200,6.301061279296875,-0.0013816924765706062,0.028228217735886574,0.007577058859169483
1772568148938133200,6.31113330078125,0.0029069622978568077,0.009398344904184341,0.020499324426054955
1772568148948204000,6.3212041015625,0.008130219765007496,-0.012183645740151405,0.024101248010993004
1772568148958276400,6.3312763671875,0.01034736167639494,-0.0408891923725605,0.024558858945965767
1772568148968347100,6.34134716796875,0.014688847586512566,-0.05949670076370239,0.02191966585814953
1772568148978419000,6.3514189453125,0.01476611290127039,-0.07535826414823532,0.016623646020889282
1772568148988490000,6.361489990234375,0.00992501899600029,-0.09506218880414963,0.01456448994576931
1772568148998561000,6.37156103515625,0.005115733481943607,-0.1102445051074028,0.02594975009560585
1772568149008633000,6.381633056640625,0.0001057949848473072,-0.12209556996822357,0.04034813120961189
1772568149018704100,6.3917041015625,-0.0013839202001690865,-0.1267007440328598,0.050541289150714874
1772568149028776200,6.401776123046875,0.0015458236448466778,-0.1263422816991806,0.055472128093242645
1772568149038847200,6.41184716796875,0.014470703899860382,-0.13142821192741394,0.043757013976573944
1772568149048919300,6.421919189453125,0.025130005553364754,-0.1329219788312912,0.05656815320253372
1772568149058990300,6.431990234375,0.01952604204416275,-0.1441798061132431,0.05827396363019943
1772568149069062100,6.442062255859375,0.023624379187822342,-0.1557706892490387,0.07199004292488098
1772568149079133200,6.45213330078125,0.05334118381142616,-0.13772337138652802,0.07166722416877747
1772568149089205200,6.462205322265625,0.061599113047122955,-0.0739222913980484,0.03713960573077202
1772568149099276000,6.472276123046875,0.04616934433579445,-0.06163369491696358,-0.007063898723572493
1772568149109348000,6.48234814453125,0.037658415734767914,-0.0823509618639946,-0.008851146325469017
1772568149119419100,6.492419189453125,0.03493340685963631,-0.08535593748092651,0.019187074154615402
1772568149129491200,6.5024912109375,0.013643831014633179,-0.07152268290519714,0.044888440519571304
1772568149139562200,6.512562255859375,0.0029728063382208347,-0.03312325477600098,0.04936398193240166
1772568149149634000,6.522634033203125,-0.001382261049002409,0.01987791247665882,0.03753262013196945
1772568149159705000,6.532705078125,-0.02046549879014492,0.06629128754138947,0.017179030925035477
1772568149169776000,6.542776123046875,-0.041602473706007004,0.07903850823640823,-0.0149323008954525
1772568149179848200,6.55284814453125,-0.058640968054533005,0.06254198402166367,-0.028521329164505005
1772568149189919200,6.562919189453125,-0.06605280935764313,0.039322949945926666,-0.02234172821044922
1772568149199991300,6.5729912109375,-0.06215997412800789,0.011586058884859085,-0.00730860186740756
1772568149210062300,6.583062255859375,-0.054681021720170975,-0.006281354930251837,0.016276352107524872
1772568149220134100,6.593134033203125,-0.04493178054690361,-0.0036393641494214535,0.03184458613395691
1772568149230205200,6.603205078125,-0.036693025380373,0.01303601823747158,0.03816186636686325
1772568149240277000,6.613277099609375,-0.029365165159106255,0.05195978656411171,0.03288682550191879
1772568149250348000,6.62334814453125,-0.025107035413384438,0.08532226830720901,0.016953667625784874
1772568149260420000,6.633420166015625,-0.021525612100958824,0.10105771571397781,0.0011498453095555305
1772568149270491100,6.6434912109375,-0.016173191368579865,0.09055714309215546,-0.00405983068048954
1772568149280563200,6.653563232421875,-0.010872351936995983,0.06798379868268967,0.00261861365288496
1772568149290634200,6.66363427734375,-0.006138582713901997,0.03598324954509735,0.016168244183063507
1772568149300706000,6.6737060546875,0.007616262882947922,0.008861946873366833,0.023364562541246414
1772568149310777000,6.683777099609375,0.021351782605051994,-0.00957005750387907,0.028070900589227676
1772568149320848100,6.69384814453125,0.03512529656291008,-0.02063233032822609,0.026760417968034744
1772568149330920200,6.703920166015625,0.04409642145037651,-0.02442946471273899,0.034470800310373306
1772568149340991200,6.7139912109375,0.053444910794496536,-0.031163327395915985,0.033182546496391296
1772568149351063300,6.724063232421875,0.0505623035132885,-0.03891579061746597,0.02274935133755207
1772568149361134000,6.734134033203125,0.04700106754899025,-0.04032856225967407,0.01143527403473854
1772568149371206100,6.7442060546875,0.043608203530311584,-0.04295177757740021,0.011706650257110596
1772568149381277200,6.754277099609375,0.038928207010030746,-0.04930565506219864,0.013506890274584293
1772568149391348200,6.76434814453125,0.032356325536966324,-0.055896978825330734,0.013276259414851665
1772568149401419300,6.774419189453125,0.028282122686505318,-0.07115678489208221,0.015721209347248077
1772568149411491000,6.784490966796875,0.023709474131464958,-0.08253087103366852,0.021007850766181946
1772568149421562000,6.79456201171875,0.020154450088739395,-0.08679293096065521,0.02588387206196785
1772568149431634200,6.80463427734375,0.01644732989370823,-0.07981358468532562,0.02894251048564911
1772568149441705200,6.814705322265625,0.014536160975694656,-0.0590629056096077,0.025659069418907166
1772568149451777300,6.82477734375,0.014771318063139915,-0.0458642803132534,0.014248753897845745
1772568149461848300,6.834848388671875,0.01137383934110403,-0.03947336599230766,0.007194002158939838
1772568149471919400,6.84491943359375,0.0052813258953392506,-0.04293600469827652,0.0018405169248580933
1772568149481991200,6.8549912109375,0.007135950960218906,-0.03970585763454437,0.0026314752176404
1772568149492062200,6.865062255859375,0.008543431758880615,-0.03836788609623909,-0.002200031653046608
1772568149502134300,6.87513427734375,0.011019574478268623,-0.016940919682383537,-0.008800391107797623
1772568149512205000,6.885205078125,0.008808351121842861,-0.005336462054401636,-0.01991589367389679
1772568149522277400,6.89527734375,0.008500311523675919,-0.00011050654575228691,-0.013257515616714954
1772568149532348200,6.90534814453125,0.009695803746581078,0.006824098527431488,-0.0005316007882356644
1772568149542420200,6.915420166015625,0.012385299429297447,0.01217070035636425,0.001235458068549633
1772568149552491300,6.9254912109375,0.013085976243019104,0.023585807532072067,-0.0027757957577705383
1772568149562563000,6.93556298828125,0.003920149523764849,0.04023241996765137,-0.01128401793539524
1772568149572634000,6.945634033203125,-0.00033025583252310753,0.05450669676065445,-0.021163281053304672
1772568149582706200,6.9557060546875,-0.01112511195242405,0.061712946742773056,-0.02277875319123268
1772568149592777200,6.965777099609375,-0.021311970427632332,0.06327036023139954,-0.02987634390592575
1772568149602848300,6.97584814453125,-0.03176230192184448,0.05833762139081955,-0.034806329756975174
1772568149612920300,6.98592041015625,-0.03844150900840759,0.043926455080509186,-0.03936832398176193
1772568149622991400,6.995991455078125,-0.035430748015642166,0.013724314980208874,-0.0409732423722744
1772568149633063400,7.0060634765625,-0.02733021229505539,-0.01581786572933197,-0.035716429352760315
1772568149643134500,7.016134521484375,-0.016771633177995682,-0.045377057045698166,-0.020014068111777306
1772568149653206300,7.026206298828125,-0.005042807199060917,-0.0572664737701416,-0.0003879023715853691
1772568149663277000,7.036277099609375,0.005949242506176233,-0.05918411538004875,0.003615608438849449
1772568149673349000,7.04634912109375,0.017932668328285217,-0.0409848727285862,0.0016603153198957443
1772568149683420200,7.056420166015625,0.02596680447459221,-0.021678319200873375,-0.013355594128370285
1772568149693492200,7.0664921875,0.03937555477023125,-0.014219338074326515,-0.024446062743663788
1772568149703563300,7.076563232421875,0.04158683121204376,-0.0085241524502635,-0.02301923558115959
1772568149713635300,7.08663525390625,0.04282813146710396,0.004679001402109861,-0.01082675252109766
1772568149723706400,7.096706298828125,0.046653710305690765,0.022263571619987488,-0.0012853490188717842
1772568149733777400,7.10677734375,0.047601792961359024,0.03948996216058731,-0.005194336641579866
1772568149743849200,7.11684912109375,0.04360995069146156,0.04040762037038803,-0.014601459726691246
1772568149753920300,7.126920166015625,0.037959519773721695,0.02030767872929573,-0.02612442523241043
1772568149763992300,7.136992431640625,0.02644350565969944,-0.005076232366263866,-0.03153734281659126
1772568149774063400,7.1470634765625,0.02157657966017723,-0.032658856362104416,-0.029125584289431572
1772568149784135400,7.157135498046875,0.023763421922922134,-0.04673590511083603,-0.02221142314374447
1772568149794206200,7.167206298828125,0.025706466287374496,-0.04462667927145958,-0.020860668271780014
1772568149804278000,7.177278076171875,0.03577439486980438,-0.05997858941555023,-0.00405587162822485
1772568149814349000,7.18734912109375,0.036636192351579666,-0.06424843519926071,0.009626650251448154
1772568149824421000,7.197421142578125,0.035300202667713165,-0.07255787402391434,0.010989727452397346
1772568149834492200,7.2074921875,0.02305339276790619,-0.08448750525712967,0.00758141465485096
1772568149844564200,7.217564208984375,0.012140998616814613,-0.08918152004480362,0.014133738353848457
1772568149854635300,7.22763525390625,0.009789161384105682,-0.08153824508190155,0.020026780664920807
1772568149864706300,7.237706298828125,0.007687430828809738,-0.06235990673303604,0.0176276583224535
1772568149874778400,7.2477783203125,0.010421432554721832,-0.04321097582578659,0.009536707773804665
1772568149884849400,7.257849365234375,0.009861273691058159,-0.033698420971632004,0.006589989177882671
1772568149894921200,7.267921142578125,0.001220647245645523,-0.06167412921786308,0.031977374106645584
1772568149904992300,7.2779921875,0.004961027763783932,-0.05002046748995781,0.04046429321169853
1772568149915064300,7.288064208984375,0.009746195748448372,-0.014655819162726402,0.011162330396473408
1772568149925135000,7.298135009765625,0.004244731739163399,0.0023308759555220604,-0.0018933489918708801
1772568149935207200,7.308207275390625,-0.00012338487431406975,0.003572442103177309,-0.0008067786693572998
1772568149945278200,7.3182783203125,-0.007234381977468729,0.0001199888065457344,0.011635926552116871
1772568149955350300,7.328350341796875,-0.016579682007431984,0.0005064131692051888,0.009994355030357838
1772568149965421300,7.33842138671875,-0.02890949696302414,0.005698755849152803,-0.008105432614684105
1772568149975492400,7.348492431640625,-0.048980679363012314,0.017724791541695595,-0.024274015799164772
1772568149985564200,7.358564208984375,-0.05873160809278488,0.023817667737603188,-0.018833039328455925
1772568149995635200,7.36863525390625,-0.061412349343299866,0.0386810377240181,-0.009994007647037506
1772568150005707300,7.378707275390625,-0.05855841189622879,0.05715957656502724,-0.0029982980340719223
1772568150015778300,7.3887783203125,-0.056711241602897644,0.08361302316188812,-0.0045458609238266945
1772568150025850400,7.398850341796875,-0.05276218801736832,0.11365677416324615,-0.024734240025281906
1772568150035921400,7.40892138671875,-0.05584825575351715,0.11512550711631775,-0.043555863201618195
1772568150045993200,7.4189931640625,-0.05276491120457649,0.09943003952503204,-0.04137241840362549
1772568150056064300,7.429064208984375,-0.043942391872406006,0.07370469719171524,-0.018239134922623634
1772568150066136000,7.439135986328125,-0.02608788013458252,0.051099155098199844,0.0009332485496997833
1772568150076207000,7.44920703125,-0.0033530057407915592,0.03862703964114189,0.0025894679129123688
1772568150086279200,7.459279052734375,0.015562452375888824,0.023596622049808502,0.0009461482986807823
1772568150096350200,7.46935009765625,0.035842422395944595,0.027946097776293755,0.020774712786078453
1772568150106421200,7.479421142578125,0.04772967845201492,0.04744622856378555,0.025073282420635223
1772568150116493300,7.489493408203125,0.0522751621901989,0.04578042030334473,-0.0004363376647233963
1772568150126564400,7.499564453125,0.048761092126369476,0.04461432248353958,-0.011214280501008034
1772568150136636200,7.50963623046875,0.04264381155371666,0.03605039417743683,-0.006042688153684139
1772568150146707200,7.519707275390625,0.043504394590854645,0.026091810315847397,0.002211672253906727
1772568150156779300,7.529779296875,0.033585187047719955,0.011899558827280998,0.001784500665962696
1772568150166850300,7.539850341796875,0.026176482439041138,0.004814308602362871,0.011629326269030571
1772568150176922400,7.54992236328125,0.02108052559196949,-0.008384850807487965,0.015548700466752052
1772568150186993200,7.5599931640625,0.014191336929798126,-0.01645960845053196,0.012039207853376865
1772568150197065500,7.5700654296875,0.006445266772061586,-0.015954140573740005,0.006222066469490528
1772568150207136300,7.58013623046875,-0.0035040369257330894,-0.01856430433690548,0.0032361289486289024
1772568150217207300,7.590207275390625,-0.007362424395978451,-0.020925462245941162,0.008904135785996914
1772568150227279000,7.600279052734375,-0.00835019163787365,-0.012467635795474052,0.017149195075035095
1772568150237350100,7.61035009765625,-0.009847154840826988,-0.005821716506034136,0.013700935058295727
1772568150247422200,7.620422119140625,-0.0037995590828359127,0.006676532793790102,0.01032585185021162
1772568150257493200,7.6304931640625,-0.0016866070218384266,0.02163657546043396,0.019421879202127457
1772568150267565300,7.6405654296875,0.00445766095072031,0.04207359999418259,0.02533421479165554
1772568150277636400,7.65063623046875,0.0030698878690600395,0.07141604274511337,0.025585351511836052
1772568150287708200,7.660708251953125,0.005593469366431236,0.10263967514038086,0.017519928514957428
1772568150297779200,7.670779296875,0.005407580640166998,0.12289168685674667,0.011057768017053604
1772568150307851300,7.680851318359375,-0.002259334083646536,0.12772652506828308,0.005978398956358433
1772568150317922300,7.69092236328125,-0.012051509693264961,0.11254410445690155,-0.0029546422883868217
1772568150327994400,7.700994384765625,-0.022541437298059464,0.08830784261226654,-0.01226523146033287
1772568150338065200,7.711065185546875,-0.028250722214579582,0.05455521121621132,-0.015241846442222595
1772568150348136200,7.72113623046875,-0.024283884093165398,0.028016407042741776,-0.005857053212821484
1772568150358208300,7.731208251953125,-0.015594787895679474,0.00716758519411087,0.006445419974625111
1772568150368279300,7.741279296875,-0.010966095142066479,0.0021167341619729996,0.012592241168022156
1772568150378351000,7.75135107421875,-0.010149038396775723,0.009631108492612839,0.01069154404103756
1772568150388422100,7.761422119140625,-0.012831045314669609,0.027084162458777428,-0.0000292900949716568
1772568150398494200,7.771494140625,-0.02197474241256714,0.03716769069433212,-0.006460291333496571
1772568150408565200,7.781565185546875,-0.026603849604725838,0.03789456933736801,-0.006177373230457306
1772568150418637300,7.79163720703125,-0.02975410409271717,0.016845477744936943,-0.000883275642991066
1772568150428708400,7.801708251953125,-0.025855593383312225,-0.006783720571547747,0.01211727038025856
1772568150438780400,7.811780517578125,-0.019046954810619354,-0.032452598214149475,0.018626302480697632
1772568150448851500,7.8218515625,-0.011559655889868736,-0.04231760650873184,0.020058579742908478
1772568150458922500,7.831922607421875,0.0004346892237663269,-0.054305024445056915,0.01573307253420353
1772568150468994300,7.841994384765625,0.00973506923764944,-0.06111256405711174,0.01243655290454626
1772568150479065000,7.852065185546875,0.011498615145683289,-0.06398744881153107,0.001796690747141838
1772568150489137200,7.86213720703125,0.006776149850338697,-0.08858643472194672,-0.010172905400395393
1772568150499208200,7.872208251953125,-0.002199768554419279,-0.09881989657878876,0.006898755207657814
1772568150509280300,7.8822802734375,-0.005812550894916058,-0.08632175624370575,0.029895316809415817
1772568150519351300,7.892351318359375,-0.005524396896362305,-0.06618000566959381,0.03968296945095062
1772568150529423400,7.90242333984375,-0.0010476550087332726,-0.02735629864037037,0.03295968845486641
1772568150539494400,7.912494384765625,0.0004919180646538734,-0.0016235052607953548,0.009218941442668438
1772568150549565400,7.9225654296875,-0.0006193597801029682,0.019223317503929138,-0.015188583172857761
1772568150559637200,7.93263720703125,0.0001668049953877926,0.0270032100379467,-0.030702561140060425
1772568150569708300,7.942708251953125,0.002137751318514347,0.029144953936338425,-0.02477479726076126
1772568150579780400,7.9527802734375,-0.0009741522371768951,0.03569366782903671,-0.021626675501465797
1772568150589851400,7.962851318359375,0.0032719348091632128,0.03327906131744385,-0.010144900530576706
1772568150599923500,7.97292333984375,-0.0028536017052829266,0.03997158631682396,-0.0013934867456555367
1772568150609994200,7.982994140625,-0.00771061796694994,0.04199444130063057,0.0007651820778846741
1772568150620066000,7.993066162109375,-0.012568223290145397,0.04554896056652069,0.006782062351703644
1772568150630137000,8.00313720703125,-0.006802922114729881,0.046099953353405,0.014503207057714462
1772568150640209200,8.013209228515626,-0.00077858567237854,0.042814940214157104,0.01177959330379963
1772568150650280200,8.0232802734375,0.002456590998917818,0.04637877270579338,0.010801470838487148
1772568150660351200,8.033351318359376,0.007698757108300924,0.0535927452147007,0.0015978533774614334
1772568150670423300,8.04342333984375,0.005893045570701361,0.038809340447187424,-0.015061138197779655
1772568150680494300,8.053494384765624,0.007042998448014259,0.003733378369361162,-0.018592489883303642
1772568150690566400,8.06356640625,0.006856606341898441,-0.027483170852065086,-0.0025280825793743134
1772568150700637400,8.073637451171875,0.01639711484313011,-0.04867926985025406,0.017446691170334816
1772568150710709200,8.083709228515625,0.010685139335691929,-0.05969342589378357,0.021879121661186218
1772568150720780300,8.0937802734375,0.0067862714640796185,-0.05508855730295181,0.017895031720399857
1772568150730852400,8.103852294921875,-0.004501625895500183,-0.05167761445045471,0.01527001429349184
1772568150740923100,8.113923095703125,-0.01486798096448183,-0.04443967342376709,0.016936086118221283
1772568150750995500,8.123995361328125,-0.025183461606502533,-0.03291116654872894,0.01090525183826685
1772568150761066200,8.134066162109375,-0.034951671957969666,-0.02693476900458336,0.001625201664865017
1772568150771137300,8.14413720703125,-0.03613343834877014,-0.024845033884048462,-0.009192165918648243
1772568150781209300,8.154209228515626,-0.029520811513066292,-0.03199615329504013,-0.014897988177835941
1772568150791280400,8.1642802734375,-0.015862995758652687,-0.028233669698238373,-0.010157663375139236
1772568150801352200,8.174352294921874,-0.003472905606031418,-0.024018950760364532,-0.006666792556643486
1772568150811423200,8.18442333984375,0.014818569645285606,-0.016779590398073196,-0.00003841239959001541
1772568150821495300,8.194495361328125,0.028790045529603958,-0.0060137612745165825,0.007119897753000259
1772568150831566300,8.20456640625,0.037632718682289124,0.027281412854790688,0.01585148461163044
1772568150841638400,8.214638427734375,0.0435798205435276,0.05063147842884064,0.01091078668832779
1772568150851709400,8.22470947265625,0.04094376415014267,0.08021454513072968,0.0054589491337537766
1772568150861781200,8.23478125,0.036180172115564346,0.10638968646526337,-0.007608650252223015
1772568150871852300,8.244852294921875,0.022384699434041977,0.10303355753421783,-0.022999003529548645
1772568150881923000,8.254923095703125,0.008854776620864868,0.0885520875453949,-0.027211856096982956
1772568150891995100,8.2649951171875,0.006460240110754967,0.053294941782951355,-0.0300992913544178
1772568150902066200,8.275066162109376,0.014961582608520985,0.0033225887455046177,-0.027775682508945465
1772568150912138200,8.28513818359375,0.016881370916962624,-0.029469802975654602,-0.015924394130706787
1772568150922209300,8.295209228515626,0.018888596445322037,-0.04857638478279114,-0.0063873473554849625
1772568150932281300,8.30528125,0.011718535795807838,-0.0722949355840683,0.0018962947651743889
1772568150942352400,8.315352294921874,0.005762642249464989,-0.08024420589208603,0.006245503202080727
1772568150952424200,8.325424072265625,-0.004836118780076504,-0.09055230766534805,0.009476040489971638
1772568150962495200,8.3354951171875,-0.012839184142649174,-0.09870956838130951,0.016763780266046524
1772568150972566300,8.345566162109375,-0.02020057663321495,-0.09404195845127106,0.02787696197628975
1772568150982638300,8.355638427734375,-0.022893298417329788,-0.08165772259235382,0.018357491120696068
1772568150992709400,8.36570947265625,-0.022007472813129425,-0.0761178508400917,0.009702119044959545
1772568151002781400,8.375781494140625,-0.014723727479577065,-0.07235320657491684,0.0024154437705874443
1772568151012852200,8.385852294921875,-0.009560924023389816,-0.08260317891836166,0.001446053385734558
1772568151022924300,8.39592431640625,-0.005588552448898554,-0.08946721255779266,0.008545507676899433
1772568151032995300,8.405995361328126,-0.004576550796627998,-0.07705038040876389,0.010955489240586758
1772568151043067100,8.416067138671876,-0.0057917507365345955,-0.0502517893910408,0.0051300907507538795
1772568151053138200,8.42613818359375,-0.008543948642909527,-0.0273171104490757,-0.003617451526224613
1772568151063210200,8.436210205078124,-0.013824996538460255,-0.007954331114888191,-0.006564771756529808
1772568151073281300,8.44628125,-0.02490214817225933,-0.003584509715437889,-0.005965214688330889
1772568151083352300,8.456352294921874,-0.03457075357437134,0.002838502172380686,-0.0038733016699552536
1772568151093424400,8.46642431640625,-0.0326320044696331,0.01503257267177105,0.0055727269500494
1772568151103495400,8.476495361328125,-0.031152885407209396,0.045285552740097046,0.0030294079333543777
1772568151113567200,8.486567138671875,-0.02896527200937271,0.0736512839794159,-0.01297430507838726
1772568151123638300,8.49663818359375,-0.027896814048290253,0.09475257247686386,-0.02518889307975769
1772568151133710300,8.50671044921875,-0.020781412720680237,0.0954710841178894,-0.026676476001739502
1772568151143781000,8.516781005859375,-0.019127588719129562,0.08015577495098114,-0.021205276250839233
1772568151153853200,8.526853271484375,-0.013616766780614853,0.07626727223396301,-0.0059019518084824085
1772568151163924200,8.53692431640625,-0.004503163974732161,0.06888312846422195,0.009971019811928272
1772568151173995300,8.546995361328126,0.0030795051716268063,0.07142111659049988,0.02394638955593109
1772568151184067300,8.5570673828125,0.008672942407429218,0.0781884714961052,0.028719305992126465
1772568151194138400,8.567138427734376,0.009351811371743679,0.079388827085495,0.02384256385266781
1772568151204210200,8.577210205078124,0.015072280541062355,0.060731783509254456,0.0008269939571619034
1772568151214282200,8.5872822265625,0.021426379680633545,0.045220278203487396,-0.005300960969179869
1772568151224354300,8.597354248046875,0.031126411631703377,0.02713288553059101,-0.003411182202398777
1772568151234425300,8.60742529296875,0.043152861297130585,0.015603162348270416,0.0069235023111104965
1772568151244497400,8.617497314453125,0.042558711022138596,0.02682732231914997,0.010755792260169983
1772568151254568400,8.627568359375,0.028987860307097435,0.044952888041734695,0.007717697881162167
1772568151264639500,8.637639404296875,0.021096382290124893,0.04846932366490364,-0.0009330492466688156
1772568151274711300,8.647711181640625,0.007249274756759405,0.032165613025426865,-0.010837431065738201
1772568151284782000,8.657781982421875,-0.0017396928742527962,0.0014883941039443016,-0.013406848534941673
1772568151294854100,8.667854248046876,-0.008185102604329586,-0.04855119436979294,-0.007433250080794096
1772568151304925200,8.67792529296875,-0.014972435310482979,-0.100848488509655,0.008024003356695175
1772568151314997200,8.687997314453124,-0.006987658329308033,-0.13020750880241394,0.023929059505462646
1772568151325068300,8.698068359375,-0.0022602807730436325,-0.1317657232284546,0.021925561130046844
1772568151335140400,8.708140380859374,0.00966556090861559,-0.10458573698997498,0.006236712448298931
1772568151345211400,8.71821142578125,0.014387344941496849,-0.0627536028623581,-0.00769747793674469
1772568151355283200,8.728283203125,0.021166512742638588,-0.033289045095443726,-0.012573170475661755
1772568151365354200,8.738354248046875,0.029880110174417496,-0.010956045240163803,-0.0035549085587263107
1772568151375425300,8.74842529296875,0.03668756037950516,-0.0032474654726684093,0.002317831851541996
1772568151385497300,8.758497314453125,0.03570778667926788,-0.0010210629552602768,-0.0019759824499487877
1772568151395569400,8.7685693359375,0.030503293499350548,0.0042842673137784,-0.0037982426583766937
1772568151405641200,8.77864111328125,0.024113837629556656,0.0013262946158647537,0.0023392783477902412
1772568151415712300,8.788712158203126,0.009759482927620411,0.002001494634896517,0.013254286721348763
1772568151425784300,8.798784423828126,-0.0055811237543821335,0.007091594394296408,0.01450597308576107
1772568151435855400,8.80885546875,-0.019330400973558426,0.017547305673360825,0.008516277186572552
1772568151445927400,8.818927490234374,-0.030751900747418404,0.02137693203985691,-0.0068709347397089005
1772568151455998500,8.82899853515625,-0.03998972848057747,0.015658119693398476,-0.018680782988667488
1772568151466069500,8.839069580078124,-0.05063305050134659,-0.006620022468268871,-0.02488088794052601
1772568151476141600,8.8491416015625,-0.044998154044151306,-0.04098697751760483,-0.014194810763001442
1772568151486212400,8.85921240234375,-0.03604673966765404,-0.058440275490283966,0.0035421084612607956
1772568151496284200,8.8692841796875,-0.029892265796661377,-0.05942775309085846,0.017731059342622757
1772568151506355200,8.879355224609375,-0.027705810964107513,-0.04354013130068779,0.0243586003780365
1772568151516427300,8.88942724609375,-0.027744926512241364,-0.01102878525853157,0.013599107041954994
1772568151526498300,8.899498291015625,-0.031003035604953766,0.016817227005958557,-0.00017502810806035995
1772568151536570400,8.9095703125,-0.03980274498462677,0.012557465583086014,-0.01007287297397852
1772568151546641400,8.919641357421876,-0.04294127970933914,-0.004949621856212616,-0.013707555830478668
1772568151556712400,8.92971240234375,-0.04566562920808792,-0.024358397349715233,-0.010685157030820847
1772568151566784300,8.9397841796875,-0.04288981854915619,-0.029479390010237694,-0.008613217622041702
1772568151576855300,8.949855224609376,-0.04276245832443237,-0.023745207116007805,-0.003808259032666683
1772568151586927400,8.95992724609375,-0.032203558832407,0.0038496688939630985,-0.0053781927563250065
1772568151596998400,8.969998291015624,-0.044340092688798904,0.03399704024195671,-0.01940811425447464
1772568151607070500,8.980070556640625,-0.06679133325815201,0.08506954461336136,-0.053138114511966705
1772568151617141200,8.990141357421875,-0.07372375577688217,0.10255955159664154,-0.08161326497793198
1772568151627213600,9.000213623046875,-0.09936919808387756,0.09825988113880157,-0.08947332203388214
1772568151637284400,9.010284423828125,-0.11445353925228119,0.11325568705797195,-0.07715169340372086
1772568151647356200,9.020356201171875,-0.11786292493343353,0.11395689845085144,-0.06303907185792923
1772568151657427200,9.03042724609375,-0.11615956574678421,0.10953018814325333,-0.04984257370233536
1772568151667498200,9.040498291015625,-0.1064174547791481,0.15470671653747559,-0.045503221452236176
1772568151677570300,9.0505703125,-0.0844184160232544,0.23884104192256927,-0.07536550611257553
1772568151687641300,9.060641357421876,-0.07584862411022186,0.283042311668396,-0.08392278105020523
1772568151697713400,9.07071337890625,-0.07690051198005676,0.26566651463508606,-0.07465801388025284
1772568151707784400,9.080784423828124,-0.0639764592051506,0.2230364829301834,-0.05192926526069641
1772568151717856500,9.0908564453125,-0.05707414075732231,0.16316445171833038,-0.03270583227276802
1772568151727927600,9.100927490234374,-0.0414230115711689,0.11564885824918747,-0.02036421000957489
1772568151737999400,9.110999267578125,-0.025268981233239174,0.09459788352251053,-0.021020308136940002
1772568151748070400,9.1210703125,-0.013180628418922424,0.08671598881483078,-0.030446302145719528
1772568151758141200,9.13114111328125,-0.010810204781591892,0.08820749819278717,-0.03303151577711105
1772568151768213200,9.141213134765625,-0.008677280507981777,0.08576244860887527,-0.028182700276374817
1772568151778284300,9.1512841796875,-0.016124272719025612,0.08399981260299683,-0.02127598226070404
1772568151788356400,9.1613564453125,-0.011132709681987762,0.08619079738855362,-0.018947578966617584
1772568151798427400,9.171427490234375,-0.008502899669110775,0.06282903999090195,-0.01781509816646576
1772568151808499500,9.18149951171875,-0.012453699484467506,0.020618736743927002,-0.014718374237418175
1772568151818570500,9.191570556640626,-0.028312381356954575,-0.03833968937397003,-0.0068334899842739105
1772568151828642300,9.201642333984376,-0.04725518077611923,-0.10102171450853348,0.007480201311409473
1772568151838713300,9.21171337890625,-0.06357742846012115,-0.15738798677921295,0.026518717408180237
1772568151848784400,9.221784423828124,-0.07396775484085083,-0.19832557439804077,0.04054825007915497
1772568151858856400,9.2318564453125,-0.07879872620105743,-0.2214932143688202,0.05880901217460632
1772568151868927500,9.241927490234374,-0.0700281411409378,-0.2116008996963501,0.059609293937683105
1772568151878999600,9.25199951171875,-0.07376017421483994,-0.18077300488948822,0.04264501482248306
1772568151889070300,9.2620703125,-0.07912591099739075,-0.15249264240264893,0.016317803412675858
1772568151899142100,9.27214208984375,-0.09089095890522003,-0.12701469659805298,0.0038550086319446564
1772568151909213200,9.282213134765625,-0.10556524246931076,-0.10242947190999985,0.004085373133420944
1772568151919285200,9.29228515625,-0.12240897119045258,-0.07202006876468658,0.009534875862300396
1772568151929356300,9.302356201171875,-0.11885631084442139,-0.044703759253025055,0.014892890118062496
1772568151939427300,9.31242724609375,-0.10772956907749176,-0.010916795581579208,0.013781983405351639
1772568151949499400,9.32249951171875,-0.07125837355852127,0.019595306366682053,0.014318343251943588
1772568151959570400,9.3325703125,-0.05394706130027771,0.05603010952472687,0.004209127277135849
1772568151969642500,9.342642578125,-0.06201083958148956,0.07875193655490875,-0.005208609625697136
1772568151979713500,9.352713623046874,-0.06526055186986923,0.0788440853357315,-0.007820269092917442
1772568151989785300,9.362785400390624,-0.05850011855363846,0.07396117597818375,-0.006904407870024443
1772568151999856400,9.3728564453125,-0.06007973104715347,0.06753695756196976,-0.0077164266258478165
1772568152009928400,9.382928466796875,-0.05638325959444046,0.028346413746476173,-0.0032074283808469772
1772568152019999200,9.392999267578125,-0.03374171629548073,0.02524506114423275,0.023517413064837456
1772568152030070300,9.4030703125,-0.011097388342022896,0.028279202058911324,0.02926984243094921
1772568152040142300,9.413142333984375,-0.0015572612173855305,0.02306484244763851,0.018869582563638687
1772568152050213400,9.42321337890625,0.004773338325321674,0.020752953365445137,0.005171612836420536
1772568152060285400,9.433285400390625,0.014605430886149406,0.012786468490958214,-0.002886967733502388
1772568152070356500,9.4433564453125,0.025472193956375122,-0.016329873353242874,-0.009983759373426437
1772568152080428300,9.45342822265625,0.027254650369286537,-0.04601388797163963,-0.0172695554792881
1772568152090499300,9.463499267578126,0.02576807513833046,-0.08266910910606384,-0.01774812676012516
1772568152100571400,9.4735712890625,0.024926217272877693,-0.11218322813510895,-0.01178782619535923
1772568152110642400,9.483642333984376,0.03176841139793396,-0.11282159388065338,-0.0027943309396505356
1772568152120713500,9.49371337890625,0.0337391197681427,-0.1061461791396141,-0.012533285655081272
1772568152130785500,9.50378564453125,0.04133845120668411,-0.0973588079214096,-0.02746909111738205
1772568152140856300,9.513856201171874,0.03504154831171036,-0.09223722666501999,-0.03456461429595947
1772568152150928400,9.523928466796875,0.023830175399780273,-0.09378079324960709,-0.030462544411420822
1772568152160999400,9.53399951171875,0.02028716914355755,-0.10583178699016571,-0.013035641051828861
1772568152171071200,9.5440712890625,0.019190479069948196,-0.12205629795789719,0.0007544727995991707
1772568152181142300,9.554142333984375,0.01534697413444519,-0.12943395972251892,-0.0021679336205124855
1772568152191214300,9.56421435546875,0.026765277609229088,-0.10613928735256195,-0.00917151477187872
1772568152201285400,9.574285400390625,0.022838657721877098,-0.08288618922233582,-0.03220945969223976
1772568152211356400,9.5843564453125,0.015548255294561386,-0.05774461105465889,-0.04674925655126572
1772568152221428500,9.594428466796876,0.0103025883436203,-0.0391615629196167,-0.04177031293511391
1772568152231499500,9.60449951171875,0.0012608906254172325,-0.025437762960791588,-0.027249693870544434
1772568152241571300,9.6145712890625,-0.011926037259399891,-0.015061726793646812,-0.013957572169601917
1772568152251642400,9.624642333984376,-0.012086891569197178,0.01149025559425354,-0.004266861826181412
1772568152261714400,9.63471435546875,-0.0077234604395926,0.036245450377464294,-0.0015490986406803131
1772568152271785200,9.64478515625,0.013134949840605259,0.06632345169782639,-0.004141152836382389
1772568152281857300,9.654857177734375,0.014964691363275051,0.0746690109372139,-0.023084914311766624
1772568152291928300,9.66492822265625,0.011720428243279457,0.06634396314620972,-0.0409853532910347
1772568152301999400,9.674999267578125,0.011292461305856705,0.046210311353206635,-0.036182794719934464
1772568152312071400,9.685071533203125,0.016953542828559875,0.016490764915943146,-0.024716820567846298
1772568152322142500,9.695142578125,0.013631992042064667,-0.00736596155911684,-0.0037706084549427032
1772568152332214300,9.70521435546875,0.012082299217581749,-0.015119754709303379,0.01451252494007349
1772568152342285300,9.715285400390625,0.009622545912861824,-0.019854985177516937,0.02166462503373623
1772568152352357400,9.725357421875,-0.00030385423451662064,-0.014726003631949425,0.02022465504705906
1772568152362428400,9.735428466796876,-0.002112140879034996,-0.003835804760456085,0.017309557646512985
1772568152372500500,9.74550048828125,0.0049191368743777275,-0.0008559939451515675,0.011641286313533783
1772568152382571500,9.755571533203126,0.00474818330258131,0.0019566877745091915,0.010085352696478367
1772568152392642000,9.76564208984375,0.006011320278048515,0.026654576882719994,0.0004039620980620384
1772568152402714000,9.775714111328124,0.00982837937772274,0.06560925394296646,-0.007008873857557774
1772568152412785200,9.78578515625,0.00832662358880043,0.08670148998498917,-0.0037843184545636177
1772568152422857000,9.79585693359375,-0.008482573553919792,0.10504806041717529,0.005785162560641766
1772568152432928000,9.805927978515625,-0.022822098806500435,0.10559667646884918,0.022554822266101837
1772568152443000000,9.816,-0.025960063561797142,0.08048547059297562,0.03206782415509224
1772568152453071000,9.826071044921875,-0.011365139856934547,0.11361892521381378,0.019967220723628998
1772568152463143200,9.83614306640625,0.005957294255495071,0.1591026484966278,0.000905635766685009
1772568152473214200,9.846214111328125,0.0018946421332657337,0.18553665280342102,-0.0194622203707695
1772568152483285200,9.85628515625,-0.002503396477550268,0.21072281897068024,-0.02568923868238926
1772568152493357000,9.866357177734375,-0.016939593479037285,0.21688032150268555,-0.02695344015955925
1772568152503428000,9.876427978515625,-0.0219196155667305,0.1995498239994049,-0.012129017151892185
1772568152513500200,9.886500244140626,-0.014570089057087898,0.1750628650188446,0.021187392994761467
1772568152523571000,9.896571044921876,-0.01510478463023901,0.16202810406684875,0.024633493274450302
1772568152533643000,9.90664306640625,-0.02223513275384903,0.15200236439704895,0.002000621519982815
1772568152543714000,9.916714111328124,-0.03459494560956955,0.1318926364183426,-0.019833698868751526
1772568152553785000,9.92678515625,-0.03646741807460785,0.09015505015850067,-0.018203578889369965
1772568152563857200,9.936857177734375,-0.060110606253147125,0.04077474772930145,-0.0007969560101628304
1772568152573928200,9.94692822265625,-0.046622492372989655,0.021526219323277473,0.03828147053718567
1772568152584000000,9.957,-0.05072774365544319,0.026698186993598938,0.057683732360601425
1772568152594071000,9.967071044921875,-0.047271229326725006,0.023487482219934464,0.056066129356622696
1772568152604143000,9.97714306640625,-0.032845936715602875,0.018856890499591827,0.04237338900566101
1772568152614214100,9.987214111328125,-0.047225676476955414,0.0027572824619710445,0.038481444120407104
1772568152624286200,9.9972861328125,-0.034956518560647964,-0.005141718313097954,0.05716587230563164
1772568152634357200,10.007357177734375,-0.022920098155736923,0.01263062097132206,0.09718360006809235
1772568152644428000,10.017427978515625,0.0020665922202169895,0.012199982069432735,0.10844840109348297
1772568152654500000,10.0275,0.01878565177321434,0.028600793331861496,0.092913918197155
1772568152664571100,10.037571044921876,0.02778056263923645,-0.005952462088316679,0.042674578726291656
1772568152674643000,10.047642822265624,0.021184446290135384,-0.020370816811919212,-0.015698185190558434
1772568152684714000,10.0577138671875,0.009770505130290985,-0.016763314604759216,-0.035415343940258026
1772568152694786000,10.0677861328125,-0.008052166551351547,-0.054235056042671204,-0.02219194918870926
1772568152704857000,10.077857177734375,-0.0004736301489174366,-0.06235925108194351,0.014525610022246838
1772568152714929200,10.08792919921875,0.020264938473701477,-0.053589463233947754,0.02094835415482521
1772568152725000200,10.098000244140625,0.037470389157533646,-0.027982324361801147,0.0112989516928792
1772568152735071200,10.1080712890625,0.04273279383778572,-0.0095535172149539,-0.01156987901777029
1772568152745143300,10.118143310546875,0.04834209010004997,-0.021043827757239342,-0.024468079209327698
1772568152755214300,10.12821435546875,0.05020284280180931,-0.03307012841105461,-0.0158117413520813
1772568152765286100,10.1382861328125,0.05146459862589836,-0.06405842304229736,0.00888374075293541
1772568152775357000,10.14835693359375,0.06204374134540558,-0.06044238805770874,0.0360112339258194
1772568152785429000,10.158428955078126,0.07911136746406555,-0.04321909695863724,0.04114462435245514
1772568152795500000,10.1685,0.08764573931694031,-0.031529419124126434,0.026488453149795532
1772568152805571000,10.178571044921876,0.08113747835159302,-0.02826753631234169,0.008579522371292114
1772568152815643100,10.18864306640625,0.07160735875368118,-0.039676785469055176,-0.00955287553369999
1772568152825714200,10.198714111328124,0.04933731257915497,-0.07300369441509247,0.0014575263485312462
1772568152835786000,10.208785888671875,0.031154051423072815,-0.0902457982301712,0.018857289105653763
1772568152845857000,10.21885693359375,0.04082337021827698,-0.07434932142496109,0.04104742035269737
1772568152855929000,10.22892919921875,0.03788510710000992,-0.04488304257392883,0.045044027268886566
1772568152866000100,10.239000244140625,0.02794651687145233,-0.009021742269396782,0.024869143962860107
1772568152876071200,10.2490712890625,0.029057320207357407,0.028564516454935074,-0.00373054388910532
1772568152886143200,10.259143310546875,0.019216708838939667,0.039953164756298065,-0.026419494301080704
1772568152896214000,10.269214111328125,0.014399850741028786,0.03910228610038757,-0.03225261718034744
1772568152906286000,10.2792861328125,0.015542896464467049,0.020434172824025154,-0.031750451773405075
1772568152916357000,10.289357177734376,0.011942035518586636,0.0031289528124034405,-0.02539321966469288
1772568152926429000,10.299428955078126,0.00772907305508852,-0.0019418576266616583,-0.026701193302869797
1772568152936500000,10.3095,0.004425154998898506,-0.0057083661668002605,-0.03506751358509064
1772568152946572000,10.319572021484374,-0.005894089583307505,-0.00855881255120039,-0.04650343582034111
1772568152956643000,10.32964306640625,-0.018055681139230728,-0.02652609534561634,-0.04961640387773514
1772568152966714000,10.339714111328124,-0.029701391234993935,-0.056717224419116974,-0.034443002194166183
1772568152976786200,10.3497861328125,-0.03412356972694397,-0.08474060148000717,-0.01203463226556778
1772568152986857200,10.359857177734375,-0.029987027868628502,-0.07967543601989746,0.006258332170546055
1772568152996929300,10.36992919921875,-0.01782596856355667,-0.05750701576471329,0.013918383978307247
1772568153007000300,10.380000244140625,0.0021616104058921337,-0.035690709948539734,0.01774478331208229
1772568153017072000,10.390072021484375,0.023588605225086212,-0.0071280403062701225,0.004867599345743656
1772568153027143000,10.400142822265625,0.0374697707593441,0.013838695362210274,-0.012081866152584553
1772568153037214000,10.4102138671875,0.03920242562890053,0.032064039260149,-0.02701287902891636
1772568153047286000,10.4202861328125,0.036744579672813416,0.035224031656980515,-0.0268268883228302
1772568153057357000,10.430357177734376,0.022913716733455658,0.01635260507464409,-0.014861839823424816
1772568153067429000,10.44042919921875,0.003146305214613676,-0.008871668949723244,0.009026178158819675
1772568153077500200,10.450500244140626,0.004317563492804766,-0.017949320375919342,0.027880560606718063
1772568153087572200,10.460572265625,0.008029205724596977,-0.021127112209796906,0.013641894795000553
1772568153097643300,10.470643310546874,0.009903538040816784,-0.023395325988531113,-0.010694870725274086
1772568153107714300,10.48071435546875,0.021382687613368034,-0.031008295714855194,-0.02231498807668686
1772568153117786000,10.4907861328125,0.02243649959564209,-0.05133460834622383,-0.024755509570240974
1772568153127857200,10.500857177734375,0.020359691232442856,-0.06795814633369446,-0.02290201187133789
1772568153137929200,10.51092919921875,0.014567848294973373,-0.08125770837068558,-0.011995833367109299
1772568153148000000,10.521,0.017109515145421028,-0.07440444827079773,-0.01699068211019039
1772568153158072000,10.531072021484375,0.008730145171284676,-0.1097927987575531,-0.023150574415922165
1772568153168143000,10.54114306640625,0.002589842304587364,-0.12608009576797485,-0.009439513087272644
1772568153178214100,10.551214111328125,-0.0017686877399682999,-0.13783928751945496,0.011471893638372421
1772568153188286000,10.561285888671875,-0.0015005995519459248,-0.1437453031539917,0.030376391485333443
1772568153198357000,10.57135693359375,0.0027977419085800648,-0.1380392163991928,0.03738849610090256
1772568153208429000,10.581428955078126,0.009093613363802433,-0.12769204378128052,0.025991421192884445
1772568153218500000,10.5915,0.019308701157569885,-0.10169398784637451,0.0015039201825857162
1772568153228572200,10.601572265625,0.03229459375143051,-0.07755390554666519,-0.02455752156674862
1772568153238643200,10.611643310546874,0.03095768578350544,-0.0727226659655571,-0.04255223274230957
1772568153248714200,10.62171435546875,0.020104404538869858,-0.07725205272436142,-0.03583015128970146
1772568153258786300,10.631786376953125,0.011972974985837936,-0.061325013637542725,-0.014215403236448765
1772568153268857000,10.641857177734375,0.016370883211493492,-0.02177911065518856,0.000056896358728408813
1772568153278929000,10.651928955078125,0.013190004974603653,0.01913263648748398,-0.0020693717524409294
1772568153289000000,10.662,0.018937602639198303,0.06638732552528381,-0.0046263886615633965
1772568153299072000,10.672072021484375,0.04081547260284424,0.14929446578025818,-0.03037596121430397
1772568153309143000,10.68214306640625,0.10273391753435135,0.22481024265289307,-0.059146106243133545
1772568153319214000,10.692214111328125,0.07662934809923172,0.23280371725559235,0.04565221443772316
1772568153329286100,10.7022861328125,-0.06856217235326767,0.07697716355323792,0.07252328842878342
1772568153339357200,10.712357177734376,-0.12569282948970795,-0.06963731348514557,0.07286949455738068
1772568153349429200,10.72242919921875,-0.0848248302936554,-0.12921085953712463,0.1360887885093689
1772568153359500300,10.732500244140626,-0.024820612743496895,-0.09290798008441925,0.16298644244670868
1772568153369572000,10.742572021484374,-0.004257457330822945,-0.027310028672218323,0.11470354348421097
1772568153379643100,10.75264306640625,-0.002153560519218445,0.05910022556781769,0.03165339678525925
1772568153389715200,10.762715087890625,0.025321053341031075,0.14614003896713257,-0.04522816464304924
1772568153399789300,10.772789306640625,0.06899130344390869,0.18505442142486572,-0.1198001354932785
1772568153409860400,10.7828603515625,0.09258785843849182,0.1844666749238968,-0.15790773928165436
1772568153419932400,10.792932373046876,0.08319062739610672,0.16890209913253784,-0.10385410487651825
1772568153430003500,10.80300341796875,0.0633508712053299,0.09320349246263504,-0.06399048119783401
