time,seconds_elapsed,z,y,x
1772363357403721500,0.094721435546875,-0.025430209332704543,-0.06033727206289768,-0.03487264900393784
1772363357413790500,0.10479052734375,0.0447644398778677,-0.01045475851893425,-0.012827332869172096
1772363357423860500,0.114860595703125,0.0912450360238552,0.0983300258487463,0.055326275500468904
1772363357433929500,0.124929443359375,0.12715689188241958,0.1511100143998861,0.09201667798347771
1772363357443999500,0.13499951171875,0.05586392604112625,0.1313520054847002,0.02881583318300545
1772363357454068500,0.145068359375,-0.09177461285591125,0.09237725492417811,-0.040881205236352976
1772363357464138500,0.155138427734375,-0.1509632994055748,0.07901859165728092,-0.059506228066235775
1772363357474207500,0.16520751953125,-0.08149930255711078,0.14483575643599034,-0.013327172150090336
1772363357484277500,0.175277587890625,-0.026346155133843422,0.05041384394168853,0.0142268244035542
1772363357494346500,0.185346435546875,-0.010070143115520477,0.014691373175382614,-0.02458652505017817
1772363357504416500,0.19541650390625,-0.02024900730252266,0.03491407699286937,-0.07668576479554176
1772363357514485200,0.2054853515625,-0.01744213318824768,0.011060323196649551,-0.11909794245883822
1772363357524555500,0.215555419921875,-0.01030921256840229,-0.023850831186771393,-0.08058653509374708
1772363357534624300,0.225624267578125,0.04270809186995029,0.0041167876690626146,0.013784304800443351
1772363357544694500,0.235694580078125,0.010854571491479873,0.0023065233767032623,0.061126632342301306
1772363357554763500,0.245763427734375,-0.06263853474259376,-0.0060679217368364334,0.03405577966310084
1772363357564833300,0.255833251953125,-0.05226794737577438,0.013650924211740493,0.03616948388144374
1772363357574902500,0.265902587890625,0.01514554668366909,0.02218435927927494,0.006991648985631763
1772363357584972300,0.27597216796875,0.014563947403430939,0.03264496301710605,-0.008684314780309796
1772363357595046000,0.2860458984375,0.006430909830331802,0.06394318760037422,0.04107212469857186
1772363357605116000,0.296115966796875,0.02847673742175102,0.09230243612229823,0.0461368972748518
1772363357615185000,0.306184814453125,-0.021204700592160224,0.1013753848940134,-0.0036072672443464397
1772363357625255000,0.3162548828125,-0.12267886968553066,0.0633510669261217,-0.05320964867267757
1772363357635324000,0.326323974609375,-0.13915595723390578,-0.02242225968837738,-0.10717113862596452
1772363357645394000,0.336393798828125,-0.08427168987989425,-0.056605099797248835,-0.12140296799819916
1772363357655463000,0.346462890625,-0.03669862232208252,-0.03793079446554184,-0.0789293790038675
1772363357665533000,0.356532958984375,-0.03153495594859123,-0.04758241990804672,-0.06904591756686568
1772363357675602000,0.366601806640625,-0.013860767570137976,0.08417290568053722,0.002658478619530797
1772363357685671700,0.376671630859375,0.02980535567700863,0.206845930147171,0.06811134013049304
1772363357695741000,0.386740966796875,0.008057634249329567,0.29765432831943034,0.10422668267190456
1772363357705811000,0.39681103515625,-0.004765022444725036,0.30874680022001266,0.11992719635721295
1772363357715880000,0.4068798828125,-0.054693713217973706,0.2830161466360092,0.10024093750398605
1772363357725950000,0.416949951171875,-0.12764789026975631,0.17183540704250336,0.010271583971753716
1772363357736019000,0.42701904296875,-0.1111176112294197,0.07111410214304924,-0.0858659368013963
1772363357746089000,0.4370888671875,-0.012403554499149321,0.11768003848493098,-0.03685750267822295
1772363357756158000,0.447157958984375,0.07016016241908073,0.1387935536623001,0.002618621533177793
1772363357766228000,0.45722802734375,0.06408464189767837,0.12744856830537318,0.001415858147293329
1772363357776297000,0.467296875,0.00012508768439292906,0.11866671143472193,-0.016281747639365494
1772363357786367000,0.477366943359375,-0.06951835738420487,0.00497837293446064,-0.06346618120577185
1772363357796435700,0.487435791015625,-0.07230360418856144,-0.1469014567941427,-0.1017595619060099
1772363357806506000,0.497506103515625,0.013507131826877593,-0.18211363995075225,-0.07551642875522374
1772363357816574700,0.50757470703125,0.03768061909675598,-0.19247429044544695,-0.08679729936737567
1772363357826645000,0.51764501953125,-0.07713760021626949,-0.10769874269664287,-0.08493545101825148
1772363357836714000,0.5277138671875,-0.21605741060674188,0.02801321156322956,-0.03689440062250942
1772363357846784000,0.537783935546875,-0.315340791657567,0.12003332361280918,-0.012495105240121483
1772363357856853000,0.54785302734375,-0.29811668513417244,0.19099311197698116,-0.0008493468383327126
1772363357866922800,0.5579228515625,-0.22093992195129394,0.24813129573762416,0.004616334689036011
1772363357876992000,0.567991943359375,-0.11631927152574062,0.27849954599440097,0.017181472958065568
1772363357887061800,0.578061767578125,-0.05257774397730827,0.2477326518088579,0.003665902096405625
1772363357897131000,0.588131103515625,-0.07564180870056152,0.15487667345702646,-0.015527056814543902
1772363357907200800,0.59820068359375,-0.13481003698408603,0.005773907226324081,-0.06791410052534193
1772363357917270000,0.60827001953125,-0.08035597774088382,-0.04408931709527969,-0.08196220736112445
1772363357927340000,0.618340087890625,0.09251695565581321,0.025243746849894524,-0.026043336262367663
1772363357937409000,0.628408935546875,0.2112204919695854,0.10173135872483254,-0.0063381900455802675
1772363357947479000,0.63847900390625,0.11127777022719383,0.13110650629103182,-0.0024396117044612766
1772363357957547800,0.6485478515625,-0.11458031890392303,0.08312193532288074,-0.0075938891950994725
1772363357967618000,0.6586181640625,-0.26101941888332364,0.005659925457835197,-0.05648070623259991
1772363357977686800,0.668686767578125,-0.2432277416050434,-0.06407587406933307,-0.12075772889722138
1772363357987757000,0.678757080078125,-0.0763484956651926,-0.0992576620876789,-0.12968622769694774
1772363357997825800,0.68882568359375,0.0845920078754425,-0.11875848137140273,-0.1241488326402381
1772363358007896000,0.69889599609375,0.087658994230628,-0.13555705595910547,-0.10668477988112718
1772363358017964800,0.70896484375,0.01612228276133537,-0.10747136368155479,-0.07154493130836635
1772363358028034800,0.719034912109375,-0.11099018545746803,-0.10071078350543976,-0.08132197322882712
1772363358038103800,0.729103759765625,-0.14637421804964543,-0.06053893211483955,-0.0713784887002781
1772363358048173800,0.739173828125,-0.005510287854075432,-0.02677577872276306,-0.018735497467033565
1772363358058242800,0.749242919921875,0.11015665724277496,-0.0065986676126718515,0.015711400405503808
1772363358068312800,0.759312744140625,0.15886252822279928,0.017004326292872428,0.028398849879950283
1772363358078382000,0.769382080078125,0.12897066330611706,0.05320902761816978,0.007146328090690076
1772363358088451800,0.779451904296875,0.07127075400948524,0.1603098044216633,0.03329308819491416
1772363358098521000,0.78952099609375,0.028438743498921393,0.22230010438859463,0.035695436628907916
1772363358108590800,0.7995908203125,-0.07221241877377033,0.2433709494680166,-0.0027761867150664326
1772363358118660000,0.80966015625,-0.13635492833852766,0.1574240198522806,-0.02426215193402022
1772363358128729900,0.819729736328125,-0.17483341981470585,0.07137947508096694,-0.011477489162795245
1772363358138798800,0.829798828125,-0.1408195065319538,0.050557051804661746,0.02422320816311985
1772363358148868900,0.839868896484375,-0.06005260990262031,0.09330547568500042,0.03931709772478789
1772363358158937900,0.849937744140625,-0.021543138766288755,0.11324527090787886,0.009865304725803435
1772363358169008000,0.860008056640625,-0.05893617309331894,0.13265315121114254,-0.03448427074085921
1772363358179076900,0.870076904296875,-0.1224631811082363,0.13060557103157042,-0.07538681102618575
1772363358189147000,0.88014697265625,-0.13804185851216316,0.1179798982143402,-0.0707499450057745
1772363358199215900,0.8902158203125,-0.1202805763721466,0.07651040822863578,-0.005271875988319516
1772363358209286000,0.900285888671875,-0.08237900800108909,0.07804068653583526,0.101588735383749
1772363358219355000,0.91035498046875,0.0016097732841968534,0.04203764526247978,0.12578100041933357
1772363358229425000,0.9204248046875,0.0737210697710514,-0.00908405468761921,0.09051814652141182
1772363358239494000,0.930493896484375,0.10706161383688449,-0.044424248138070103,0.049007703470811244
1772363358249564000,0.94056396484375,0.10356325032711028,-0.0514262358546257,-0.00876318870279938
1772363358259633000,0.9506328125,0.011586977419257164,0.03155950586795807,-0.03073971391767263
1772363358269703000,0.960702880859375,-0.1529232013016939,0.06369008962213993,-0.012882058731094001
1772363358279772000,0.97077197265625,-0.25679683275222775,0.08914894052743912,0.004367547559738159
1772363358289842000,0.980842041015625,-0.27372517119944095,0.09157996706664562,0.01364928024392575
1772363358299911000,0.990910888671875,-0.23815876777768133,0.04046995755434036,-0.021264248759672044
1772363358309981000,1.00098095703125,-0.14213877243697642,0.04396306036710739,-0.01472038007415831
1772363358320050000,1.0110498046875,-0.047853638064861294,0.05017009831368923,0.02118186770584434
1772363358330120000,1.021119873046875,-0.06938099474012852,0.07112579258084296,0.02379895486906171
1772363358340189000,1.03118896484375,-0.11992869419455528,0.17231354594826698,0.06873327142111957
1772363358350259000,1.041259033203125,-0.09552490530014038,0.23883798221349714,0.08147095324546098
1772363358360328000,1.051327880859375,-0.05273264227807521,0.26796529249846934,0.0628621874306351
1772363358370397700,1.061397705078125,-0.04117372190952301,0.2528916420072317,0.04663472726177424
1772363358380467000,1.071467041015625,-0.06465571978390217,0.18267536548674104,-0.0010849456924945115
1772363358390537000,1.081536865234375,-0.06685176852345466,0.11061375336050987,-0.07957326639797538
1772363358400606000,1.09160595703125,-0.09377718484997749,0.07356734051406383,-0.11299151534251868
1772363358410676000,1.101676025390625,-0.08054360926747321,-0.009607201778888701,-0.10935845606978982
1772363358420745000,1.111744873046875,-0.03931260421276092,-0.04865969375073909,-0.10902484020125121
1772363358430815000,1.12181494140625,0.04381809893846512,-0.008723989203572273,-0.06129238083064556
1772363358440884000,1.131884033203125,0.1329109253644943,-0.0018529343903064726,-0.03436360350325703
1772363358450954000,1.1419541015625,0.0979115081757307,-0.02719020474255085,-0.06621891398001462
1772363358461023000,1.15202294921875,-0.005265373182296753,-0.04077040180563926,-0.09757756351362913
1772363358471093000,1.162093017578125,-0.09307575858235359,-0.07912555916309356,-0.1275640479112044
1772363358481161700,1.17216162109375,-0.12201076116561889,-0.04571311890482902,-0.11123868032582103
1772363358491232000,1.18223193359375,-0.11016834768056868,-0.05632745189964771,-0.10931965842936188
1772363358501300700,1.19230078125,-0.09470131395757198,-0.06964636767804622,-0.1267291314570233
1772363358511371000,1.20237109375,-0.05030863000154495,-0.003031330519914627,-0.07471307648308574
1772363358521440000,1.21243994140625,0.02616144621670246,0.08836685023903847,-0.0259949670759961
1772363358531509800,1.222509765625,0.03911678937971592,0.09741524909138678,-0.031089550268650054
1772363358541579000,1.2325791015625,-0.01715980911552906,0.09227496359348297,-0.04245174248870462
1772363358551648800,1.242648681640625,-0.013729250144958495,0.1473421862989664,-0.024096914902329444
1772363358561718000,1.252718017578125,-0.0023357494711875914,0.12669979576468468,-0.015271730346605181
1772363358571787800,1.262787841796875,0.001841243952512741,0.060733577904105183,-0.033449411267787214
1772363358581857000,1.27285693359375,0.007825579059123993,0.0688894118309021,-0.010019435841590166
1772363358591926500,1.282926513671875,0.022972879308462143,0.08389175065159797,0.03869816210884601
1772363358601995500,1.29299560546875,0.014547580790519713,0.05939677634239197,0.03256798879075795
1772363358612065500,1.3030654296875,0.034630583876371385,0.09180793060362338,0.041890564941987396
1772363358622134500,1.313134521484375,0.042106618845462795,0.031714404168725015,-0.007115275365300476
1772363358632204500,1.32320458984375,-0.028263386932015418,-0.03947100964486599,-0.07698686663396656
1772363358642273500,1.3332734375,-0.05959902091622352,-0.028452187502384183,-0.06051913143582642
1772363358652343600,1.343343505859375,-0.1372170981258154,-0.04167115003764629,-0.043115942018479105
1772363358662412500,1.35341259765625,-0.23167115932404994,-0.0022147534400224684,-0.03236344266198575
1772363358672482600,1.363482666015625,-0.26219547692537304,0.04703180028796196,0.0042077538881450886
1772363358682552600,1.373552490234375,-0.19894553228616713,0.05010813899338245,0.007523563905246555
1772363358692621600,1.38362158203125,-0.12015198155641556,0.09863573079705237,0.026514022514037786
1772363358702691600,1.393691650390625,0.01006429789662361,0.13825111734867096,0.051951465305127204
1772363358712760600,1.403760498046875,0.09981237336099147,0.10254676676094532,0.025781653118878603
1772363358722830600,1.41383056640625,0.1336655431240797,0.14994097062051295,0.07741813419070094
1772363358732899300,1.4238994140625,0.11776011798381805,0.11509937434196471,0.060083808758482335
1772363358742969600,1.433969482421875,0.01607844361960888,0.07074234622120856,-0.011667276113852858
1772363358753038600,1.44403857421875,-0.061114101654291146,0.08848024748563765,-0.010956789756938815
1772363358763108600,1.454108642578125,-0.025174773266911504,0.07406593768596649,-0.004857011577114463
1772363358773177600,1.464177490234375,-0.022957681739330292,0.0669721800327301,-0.023888057924620804
1772363358783247400,1.474247314453125,-0.07096212645173072,0.07202595629096031,-0.01862940674405545
1772363358793316600,1.484316650390625,-0.11490472855269908,0.01648410181105137,-0.05681176481787115
1772363358803386400,1.494386474609375,-0.15515198326706886,0.09197861099541187,-0.08772464334536344
1772363358813455600,1.50445556640625,-0.1790180120229721,0.044071196916699404,-0.09982435605973004
1772363358823525400,1.514525390625,-0.13911036452651024,-0.04387772017121315,-0.08286145775578915
1772363358833594600,1.5245947265625,-0.06852467017173766,-0.004589081355929375,-0.07536927536949514
1772363358843664600,1.53466455078125,0.02545125212073326,0.03243453513681888,-0.07885138186421245
1772363358853733600,1.544733642578125,0.1012970589607954,0.027471359771490095,-0.06245462954305112
1772363358863803600,1.5548037109375,0.08275544009804725,0.005429623833298683,-0.028739699206873772
1772363358873872600,1.56487255859375,-0.01641571274995804,0.020340192717313764,-0.0029085078578442334
1772363358883942700,1.574942626953125,-0.06503975066542625,0.029360534518957135,-0.0002538286305963993
1772363358894011400,1.585011474609375,-0.028045944789052007,0.03575871112346649,-0.01607913773935288
1772363358904081700,1.59508154296875,0.03379705566167831,0.019796002838015556,-0.027420908225886522
1772363358914150400,1.605150390625,0.05832008702158928,0.0031909049957990644,-0.04269727821499109
1772363358924220700,1.615220703125,0.050125090128183364,0.00881342105269432,-0.022766214287839828
1772363358934289400,1.625289306640625,-0.020894903990626334,0.01083294418156147,0.0029240707531571386
1772363358944359400,1.635359375,-0.11826631394028662,0.010360065972805022,0.0014655425079166888
1772363358954428400,1.645428466796875,-0.2360907293319702,0.022774141865968704,-0.016327303814142942
1772363358964498400,1.65549853515625,-0.2652180396169424,0.08960077594816684,0.011282368449494241
1772363358974567700,1.665567626953125,-0.21180267577171324,0.08039280261993408,-0.011905432251282036
1772363358984637400,1.675637451171875,-0.16819734280109405,0.08313947097957133,-0.040442375427670776
1772363358994706700,1.685706787109375,-0.07895312520563602,0.13836509911715983,0.024014826109446583
1772363359004776400,1.6957763671875,0.015415011274814604,0.0916939488351345,0.017864048394747076
1772363359014845700,1.705845703125,-0.04949672909677028,0.041863457739353176,-0.025401275499165057
1772363359024915500,1.71591552734375,-0.12398761419653892,0.04236439299881458,-0.024484781708754597
1772363359034984700,1.725984619140625,-0.1029740522623062,0.05351356352269649,0.011153737101145087
1772363359045054500,1.736054443359375,0.0022457331001758574,0.0710416214287281,0.017865327036380767
1772363359055124500,1.74612451171875,0.017874094864726065,0.0536047489374876,-0.016218692340515553
1772363359065193700,1.75619384765625,0.021280103915929792,0.05037877262830734,-0.037150238547101616
1772363359075263500,1.766263427734375,0.033661446583271026,0.04368775055706501,-0.05072736687026918
1772363359085332700,1.776332763671875,-0.006029927814006805,0.021286533656716344,-0.05438892158512026
1772363359095402500,1.786402587890625,-0.0902735606431961,-0.010603811600804328,-0.049304823253862554
1772363359105471500,1.796471435546875,-0.0986129344433546,-0.007340425890684127,-0.033720739022456106
1772363359115541500,1.80654150390625,-0.017165654334425927,0.01912614075243473,-0.008356945989467204
1772363359125610500,1.816610595703125,0.11303659659326076,0.03495440900325775,0.01598090152926743
1772363359135680500,1.826680419921875,0.17788287051320076,0.050014615491032595,0.009057824267819523
1772363359145749500,1.83674951171875,0.041456630504131314,0.021540216156840323,-0.006504084664396941
1772363359155819800,1.84681982421875,-0.11318389610946178,-0.004555179086327552,-0.02599584385883063
1772363359165888500,1.856888427734375,-0.12961480642855167,0.009574468553066253,-0.021061127403005957
1772363359175958500,1.86695849609375,-0.076771104991436,0.027328736430406567,-0.04354881701041013
1772363359186027500,1.877027587890625,-0.020545944422483444,0.00990881507396698,-0.10640351525433361
1772363359196097500,1.88709765625,0.006520926201343536,0.010802549043297766,-0.09479008821956812
1772363359206166500,1.89716650390625,0.05388882657587528,0.005689151552319526,-0.07102836008835584
1772363359216236500,1.907236572265625,0.04351765468716621,0.020586860954761504,-0.04304715109858662
1772363359226305500,1.917305419921875,0.0316191271007061,0.04703063124418259,-0.018226232770644127
1772363359236375600,1.92737548828125,0.06519347992241382,0.08378653671145439,0.02249415588080883
1772363359246444500,1.937444580078125,0.03434007649719715,0.10363163938820362,0.05413589667212218
1772363359256514600,1.9475146484375,-0.0006616787791252136,0.09784487268030644,0.04772975595686584
1772363359266583600,1.95758349609375,0.0017547347128391265,0.061600423866510386,0.02314732255991548
1772363359276653600,1.967653564453125,-0.009234861335158348,0.04605974038541317,0.02708071648608893
1772363359286722300,1.977722412109375,-0.008559738552570343,0.04082008616626263,0.0311006561845541
1772363359296792600,1.98779248046875,-0.02883329577445984,0.05209492889642715,0.031041181082278487
1772363359306861600,1.997861572265625,-0.08703063319921493,0.04895253921747207,0.004683152847550809
1772363359316931600,2.007931640625,-0.11924831071496009,0.09028758916854858,-0.014330029049701988
1772363359327000600,2.01800048828125,-0.11345862139761448,0.08301555233895778,-0.018191197989881037
1772363359337070600,2.028070556640625,-0.15500351470708845,-0.013543372184038161,-0.017054266381822527
1772363359347139600,2.0381396484375,-0.15120529146790504,-0.0006570026040077209,-0.011613609697856008
1772363359357209300,2.048209228515625,-0.09659867201149464,0.05167933383285999,-0.013432020764052867
1772363359367278600,2.058278564453125,-0.05483692108094692,0.07252455346286296,0.02252020363751799
1772363359377348400,2.068348388671875,-0.058522916117310524,0.07343056239187717,0.05308635108657181
1772363359387417600,2.07841748046875,-0.04959960494935512,0.10995558171272277,0.06531093228962272
1772363359397487600,2.088487548828125,0.020807225707173346,0.11816168452203273,0.08029650263860821
1772363359407556600,2.098556640625,0.041429742497205733,0.08848024748563765,0.04369418029785156
1772363359417626600,2.108626708984375,0.01094575690627098,0.04142331275641918,0.009091105482913553
1772363359427695600,2.118695556640625,0.02085457198023796,0.061681672409176824,0.0014119126245379448
1772363359437765600,2.128765625,0.06929623906612396,0.16945874103903769,0.03968099913373589
1772363359447834400,2.13883447265625,0.044374563777446745,0.06842120979726314,0.041000813028030096
1772363359457904600,2.148904541015625,0.0003214870393276214,0.06938683995902538,0.03756404351238161
1772363359467973400,2.158973388671875,-0.045237318086624144,0.09784545720219612,-0.021914785090275106
1772363359478043600,2.169043701171875,-0.1108165824562311,0.0926525647342205,-0.08738565718196332
1772363359488112400,2.1791123046875,-0.18747136759161948,-0.008140636357665062,-0.1473725083719939
1772363359498182700,2.1891826171875,-0.2430272505968809,-0.10052315197885035,-0.15580931466463951
1772363359508251400,2.19925146484375,-0.20855624119639396,-0.12200959212183951,-0.11013539525903761
1772363359518321400,2.2093212890625,-0.12493337061405181,-0.05534019442796707,-0.04614690721221268
1772363359528390700,2.219390625,-0.003632219022512436,0.05651742151379585,0.015161803698725997
1772363359538460400,2.22946044921875,0.08873802163898944,0.13978373374342917,0.04903784288074821
1772363359548530700,2.23953076171875,0.09927753583192825,0.12034662734568119,0.03375431249849498
1772363359558599400,2.249599365234375,0.014362871873378752,0.12189385678768157,-0.007407353647053241
1772363359568669400,2.25966943359375,-0.03677110303640366,0.11042027661502361,-0.03324720322657376
1772363359578738400,2.269738525390625,-0.033169279152154924,0.06040507660210132,-0.03035429479666054
1772363359588808400,2.279808349609375,-0.03512508939504623,0.0032440964877605435,-0.007604593252204358
1772363359598874600,2.28987451171875,-0.047348611152172086,-0.017104279536008835,0.027887027900293467
1772363359608944400,2.2999443359375,-0.0025707272708415984,-0.021955226698517797,0.040850810098089274
1772363359619013600,2.310013671875,0.036329789009690285,0.002329319730401039,0.037560828641988335
1772363359629083400,2.32008349609375,0.015524901390075682,0.05981295592784881,0.03909450448267161
1772363359639152600,2.330152587890625,-0.04201309534311294,0.11942366728186607,0.048477907443046565
1772363359649222400,2.340222412109375,-0.08730828109681606,0.19468962840735912,0.046130175273120404
1772363359659291400,2.35029150390625,-0.14972703560888767,0.19402853415012358,0.010364048028178512
1772363359669361400,2.360361328125,-0.20074819779396055,0.16843758129775524,-0.01866564710121602
1772363359679430400,2.370430419921875,-0.18569559009075165,0.15107903473973272,0.0001458016788586974
1772363359689500700,2.380500732421875,-0.14681553207635878,0.11843465624451636,0.004476743555255234
1772363359699569400,2.3905693359375,-0.09748597624003887,0.07156769112944603,-0.013664697008766232
1772363359709639400,2.400639404296875,-0.07217384032905101,0.04679623796641826,-0.037397747034765776
1772363359719708400,2.41070849609375,-0.058255789613723755,0.024834581527113913,-0.05676142287012189
1772363359729778400,2.4207783203125,-0.056337973293662066,0.024798341169953345,-0.0777229988887906
1772363359739847400,2.430847412109375,-0.06471475649476051,0.007466098096966743,-0.06373677830807864
1772363359749917400,2.44091748046875,-0.10397475373744965,-0.0018237082958221435,-0.049477914798445995
1772363359759986400,2.450986328125,-0.08993453794717789,0.031554829692840576,-0.04349343356136232
1772363359770056400,2.461056396484375,0.009161796098947525,0.11405483372509478,-0.03879347570948302
1772363359780125400,2.47112548828125,0.10294891782104969,0.16173077713549136,-0.026205248825810847
1772363359790195500,2.481195556640625,0.09871405673027038,0.15917817004323004,-0.03731478145904839
1772363359800265500,2.491265380859375,-0.0013303718209266662,0.1044341879427433,-0.06238963801544159
1772363359810334500,2.50133447265625,-0.0944523076325655,0.05421382074654102,-0.06160685360729694
1772363359820404500,2.511404541015625,-0.1138239475786686,-0.00583235941529274,-0.06126589468251913
1772363359830473500,2.521473388671875,-0.09182488173842429,-0.09235679665803909,-0.09402188032604754
1772363359840543500,2.53154345703125,-0.029871406650543213,-0.11812018346786499,-0.10996109813805668
1772363359850612500,2.541612548828125,0.01896364366710186,-0.10156769259572028,-0.1125083349354565
1772363359860682500,2.5516826171875,-0.026511574828624724,-0.013705284747481346,-0.09815196586810052
1772363359870751500,2.56175146484375,-0.09988310050964355,0.08698036431670188,-0.07064411001112311
1772363359880821500,2.571821533203125,-0.051883331972360607,0.17602701351344585,-0.0555658929426223
1772363359890890200,2.58189013671875,-0.011298808127641677,0.1323889473170042,-0.1255245414402336
1772363359900960500,2.59196044921875,-0.04433540081083774,0.1145984390825033,-0.14927640576455742
1772363359911029200,2.602029296875,-0.04687047224640846,0.1562047071903944,-0.07883947223071008
1772363359921099500,2.612099609375,-0.04768412671685218,0.08453940090537071,-0.07672569494713097
1772363359931168500,2.62216845703125,-0.036820787397027016,0.055658758857846255,-0.03425042545236647
1772363359941238500,2.632238525390625,-0.024740473502874373,0.0873673178076744,-0.015750051915459334
1772363359951307500,2.6423076171875,0.01163549273610115,0.05726093335747719,-0.06330898135006427
1772363359961377300,2.652377197265625,0.016688099950551986,0.018635142365097997,-0.10218651861380786
1772363359971446500,2.662446533203125,-0.01002513493001461,0.01582183851003647,-0.08420622342824935
1772363359981516300,2.672516357421875,-0.04266892890334129,0.055980830419063564,-0.041809900921210646
1772363359991585500,2.68258544921875,-0.025395722541213035,0.09158581228554248,-0.0003139978526160121
1772363360001655300,2.6926552734375,-0.08884732723236083,0.06431669708788394,-0.037027708145976064
1772363360011724500,2.702724609375,-0.1592769542425871,0.05442892480194568,-0.05670289761591702
1772363360021794600,2.712794677734375,-0.1634451798379421,0.08372633095681667,-0.02118011414017528
1772363360031864300,2.7228642578125,-0.11263093840181827,0.0982166286021471,0.003284063171967864
1772363360041933600,2.73293359375,-0.07832359513044357,0.11152969916164875,-0.010412234551459551
1772363360052003300,2.74300341796875,-0.044293899756669995,0.09457271914184093,-0.023702691420353948
1772363360062072600,2.753072509765625,-0.016096563798189162,0.08174772436022758,-0.033026509680598976
1772363360072142300,2.763142333984375,-0.028003859212994572,0.0782961226016283,-0.003252133663743734
1772363360082211600,2.773211669921875,-0.004017418947815895,0.050263037294149396,0.0025767186202108857
1772363360092281300,2.78328125,0.01336392396390438,0.03584638940691948,0.014083543475344776
1772363360102350600,2.7933505859375,0.04731353983879089,0.059682607546448704,0.042119039935618635
1772363360112420600,2.803420654296875,0.07387129189670086,0.08609773626327515,0.05701985461059957
1772363360122489300,2.8134892578125,0.047316462448239324,0.06675766049921512,0.04725377247557044
1772363360132559600,2.8235595703125,0.007787000614404678,0.02180383552908897,0.028973252234421668
1772363360142628400,2.83362841796875,0.008646247792243957,-0.025521394747495648,-0.016911898769065736
1772363360152698600,2.84369873046875,0.004231353959441185,-0.0674818831205368,-0.06806428611837327
1772363360162767400,2.853767333984375,-0.027454408636689184,-0.015441314759850501,-0.0490978294396773
1772363360172837400,2.86383740234375,-0.09020575610399245,0.03767302031219005,-0.023706454280018805
1772363360182906400,2.87390625,-0.1387976453155279,0.12096388246119022,0.019395824539288876
1772363360192976400,2.883976318359375,-0.11597440361082553,0.14347791208624838,0.034448761036060746
1772363360203045400,2.89404541015625,-0.15365443818569183,0.08031856833994389,0.0021328107776120305
1772363360213115400,2.904115478515625,-0.20859832677245138,0.07102525481581687,0.003970072674751282
1772363360223184400,2.914184326171875,-0.12967092052996157,0.10386544814407825,0.03193688781298697
1772363360233254400,2.92425439453125,0.027097850283980367,0.09085399087965487,0.00396243735756725
1772363360243324400,2.934324462890625,0.08367372398674487,0.06320844358503819,-0.0443094626519829
1772363360253393400,2.944393310546875,0.07479425196051598,0.07236673255264758,-0.06800345930922776
1772363360263463400,2.95446337890625,0.04619944111704826,0.043431145447492596,-0.09561583498660474
1772363360273532400,2.964532470703125,-0.02766191390752792,0.049099254211783405,-0.05424772301614284
1772363360283602400,2.9746025390625,-0.00715162532031536,0.006649521017074584,0.01799874415770173
1772363360293671400,2.98467138671875,0.0019131401449441908,-0.03685468966662884,-0.0030933994380757212
1772363360303741400,2.994741455078125,0.02351590014398098,-0.0428384402513504,-0.025754692046716807
1772363360313810400,3.004810546875,0.0704138449192047,-0.0423982952684164,-0.02655672914460301
1772363360323880400,3.01488037109375,0.08913023582696915,-0.03726794664263725,-0.03898439517170191
1772363360333949400,3.024949462890625,0.023200258323550223,-0.02961713962852955,-0.04320413175858557
1772363360344019500,3.03501953125,-0.10000935723781586,0.00020575170516967773,-0.020066709538176655
1772363360354088400,3.04508837890625,-0.19346271696090697,0.04640928447544575,0.010757102466374634
1772363360364158500,3.055158447265625,-0.21896189987659453,0.07276479195952415,0.029379239219427106
1772363360374227500,3.0652275390625,-0.18224983355104923,0.09934475584924221,0.021627382983639833
1772363360384297500,3.07529736328125,-0.10820201604366302,0.17704583516716957,0.06392630953080952
1772363360394366500,3.085366455078125,0.008304887008666991,0.1796148088723421,0.07972688605710863
1772363360404436200,3.095436279296875,-0.004513678032159805,0.10519932709634304,0.014190949372574686
1772363360414505500,3.10550537109375,-0.0797515821069479,0.04451894068419933,-0.0038957653295248747
1772363360424575500,3.115575439453125,-0.14469021048545835,0.021697452545166016,-0.005893880344182253
1772363360434644500,3.12564453125,-0.14780162050426005,0.04246668432950973,0.03253689953275025
1772363360444714500,3.135714599609375,-0.07770926262438296,0.03007891192138195,0.052520314701646566
1772363360454784500,3.145784423828125,-0.07368950558900833,0.025806056907773017,0.01118270746730268
1772363360464853500,3.155853515625,-0.06737491561472415,0.05548924750983715,-0.030046763217449188
1772363360474923300,3.16592333984375,-0.00823649794757366,0.09944412457048893,-0.013864201636239885
1772363360484992500,3.175992431640625,0.03975625632703304,0.1556821446210146,0.06726984780505299
1772363360495062300,3.186062255859375,0.05616086316108703,0.1563736340165138,0.0849647136453539
1772363360505131500,3.196131591796875,-0.010186462971568108,0.11143909826874732,0.03742167589962482
1772363360515201500,3.206201416015625,-0.07395137139558791,0.03623685002923011,-0.02053396172374487
1772363360525270500,3.2162705078125,-0.07266425419449805,-0.031066753914952276,-0.06583426204398274
1772363360535340500,3.226340576171875,-0.039214989057183264,-0.09530220246016978,-0.09061930534094571
1772363360545409500,3.236409423828125,0.04011865989863872,-0.11867898639440536,-0.09248999458365142
1772363360555479600,3.2464794921875,0.0881038153886795,-0.05189560693204403,-0.032637145036831496
1772363360565548500,3.256548583984375,0.076252634075284,0.020641221490502355,0.03735635557845235
1772363360575618600,3.26661865234375,0.008666706058382987,0.04713818327188492,0.015878317937627433
1772363360585687300,3.276687255859375,-0.1026736080110073,0.07078326275348663,-0.030940643317252395
1772363360595757000,3.286757080078125,-0.16719079610705376,0.07564590035378932,-0.0713954033024609
1772363360605826000,3.296825927734375,-0.13321195413768291,0.050120998474955554,-0.09633571022637188
1772363360615896000,3.30689599609375,-0.06534370204806328,0.05664660085141658,-0.08194266241043806
1772363360625965000,3.316965087890625,-0.015062544575333594,0.08422317456305027,-0.008254325865209102
1772363360636035000,3.32703515625,0.005137947410345077,0.10520867944657802,0.02657178058326244
1772363360646104000,3.33710400390625,-0.02599719556570053,0.10468027165830135,0.01876212974563241
1772363360656173800,3.347173828125,-0.05098375278413295,0.10548515830039977,0.02051028858721256
1772363360666243000,3.3572431640625,-0.012810381734371185,0.12385025155246257,0.031711627689749
1772363360676312800,3.367312744140625,0.006872808378934859,0.03299509162902832,-0.027535949440300463
1772363360686382000,3.377382080078125,-0.017812720066308973,-0.028162849166989325,-0.08665412803702056
1772363360696452000,3.3874521484375,-0.035165421405434605,-0.03656301324367523,-0.0615789426870644
1772363360706522000,3.397522216796875,-0.012457330513000488,-0.025416180807352064,-0.034715412615612146
1772363360716591000,3.407591064453125,-0.042346272820234294,0.009974866047501564,-0.005981047170981764
1772363360726660900,3.417660888671875,-0.08275719366371631,-0.0018698855251073835,-0.037085575813055036
1772363360736730000,3.427730224609375,-0.09675357031226157,-0.018877134427428246,-0.07614281702525913
1772363360746799900,3.4377998046875,-0.0948351694703102,0.0058902270823717115,-0.06381050113141537
1772363360756869000,3.447869140625,-0.03630991526544094,0.07297229723036289,-0.02124510566778481
1772363360766939000,3.45793896484375,-0.02312543952167034,0.12146657128632068,-0.019175386721640823
1772363360777008000,3.468008056640625,-0.01275660572052002,0.15290508112311363,-0.012017550856247543
1772363360787078100,3.478078125,-0.002408230185508728,0.13389818283617497,0.00520480210147798
1772363360797147100,3.488147216796875,0.028189737173914906,0.049532969453930854,-0.011253653811663388
1772363360807217200,3.498217041015625,0.025481647258996962,-0.021855273455381394,-0.02019771550670266
1772363360817286000,3.508285888671875,0.008028992676734924,-0.08659341082572937,-0.0337605230435729
1772363360827356200,3.518356201171875,0.0502151064991951,-0.05259177250266075,-0.013684753416106104
1772363360837425000,3.5284248046875,0.11636018805801868,0.02854161935150623,0.03190868463180959
1772363360847495200,3.5384951171875,0.1119850417137146,0.06190554429292679,0.02176357658393681
1772363360857564000,3.54856396484375,0.03407294999361038,0.07806231384575367,0.01939334032125771
1772363360867634200,3.55863427734375,-0.04862696052491665,0.047885786768794056,0.027955416961386797
1772363360877704200,3.5687041015625,-0.09606734161376952,-0.004449965146183967,0.005518544225767254
1772363360887773000,3.57877294921875,-0.09829320096969604,0.00210837045609951,0.0007888853553682565
1772363360897843200,3.58884326171875,-0.08191782023012638,0.026318098083138463,0.0035723785940557718
1772363360907912000,3.598911865234375,-0.08417699733376502,0.050424365335702895,0.012363368619233369
1772363360917982200,3.608982177734375,-0.1492804608851671,0.1297176822811365,0.0863296453230083
1772363360928051000,3.619051025390625,-0.13790332682430742,0.18370587757825851,0.13933314043171702
1772363360938121000,3.629120849609375,-0.11696283012628554,0.1639122128278017,0.04623575453944504
1772363360948190000,3.63918994140625,-0.07853460753262043,0.1439957984805107,-0.024523469751328228
1772363360958260000,3.649260009765625,0.016463643544912338,0.1411199507832527,-0.013292246967181563
1772363360968329000,3.659328857421875,0.11691431480944156,0.15871113705337048,0.0278055601619184
1772363360978399000,3.66939892578125,0.09587912556529045,0.1108779572546482,0.036350649134628474
1772363360988468000,3.679468017578125,-0.006906710648536682,0.03550093697011471,0.024638291770033537
1772363360998538000,3.6895380859375,-0.12519056024551392,-0.0538964253604412,0.008284574873000383
1772363361008607200,3.699607177734375,-0.16470248642265795,-0.11116788011193275,-0.005777012498863041
1772363361018677000,3.709677001953125,-0.11469430067241192,-0.08995441169142722,-0.009742555128969252
1772363361028746200,3.719746337890625,-0.034603111347556115,-0.02584989604949951,0.025753778731264172
1772363361038816000,3.72981591796875,0.02646948925256729,0.06098959849178791,0.03652735740840435
1772363361048886000,3.739885986328125,0.009911153161525726,0.16477146000564097,0.06366546663753687
1772363361058955000,3.749955078125,-0.010844050097465514,0.24121640178263187,0.09934190630502998
1772363361069025000,3.76002490234375,-0.11788345210254192,0.21221301013827323,0.04915668348744511
1772363361079094000,3.770093994140625,-0.2514671621620655,0.1549450625181198,-0.032877493131346996
1772363361089164000,3.7801640625,-0.26323884849846363,0.09322130453288555,-0.06316595615018158
1772363361099233000,3.79023291015625,-0.1558253524839878,0.023436405166983604,-0.07368249132633209
1772363361109303000,3.800302978515625,-0.03679389939010143,-0.009596095862984657,-0.08037585148513317
1772363361119372000,3.8103720703125,0.025253683722019193,0.012457330513000488,-0.08990370441749691
1772363361129442000,3.820442138671875,0.050044426107406614,0.010033902758359909,-0.09410692826099694
1772363361139511000,3.830510986328125,0.0014519523739814758,0.009974281525611877,-0.0892642374701798
1772363361149581000,3.8405810546875,-0.06384849505424499,0.042382513177394866,-0.07723678627442568
1772363361159650000,3.850650146484375,-0.05940262156128883,0.046106502136588096,-0.09176836577821522
1772363361169719800,3.8607197265625,-0.0331833076775074,0.01815934154689312,-0.11031071529332548
1772363361179789000,3.8707890625,-0.0248830968439579,0.018625790014863013,-0.11687661314755678
1772363361189859000,3.880859130859375,-0.044078795701265334,0.051805006039142606,-0.10733820228856056
1772363361199929000,3.89092919921875,-0.05722001682519912,0.11535071875452994,-0.06942508961018175
1772363361209998000,3.900998046875,-0.07122399225831032,0.1407452722519636,-0.04785458791293203
1772363361220068000,3.911068115234375,-0.08637012346386909,0.11715864495933055,-0.03702084001377225
1772363361230137000,3.92113720703125,-0.10018646737039089,0.06293079568743705,-0.03672781188394874
1772363361240206800,3.931206787109375,-0.07799860095977783,0.025063714107871053,-0.0506282538773492
1772363361250276000,3.941276123046875,-0.014967852029204368,-0.015042086309194564,-0.06759889709632844
1772363361260345900,3.951345947265625,0.03450958784520626,-0.06355740315318108,-0.07650631657540798
1772363361270415000,3.9614150390625,-0.003743278181552887,-0.139729957729578,-0.1053848031984642
1772363361280485000,3.971485107421875,-0.08424421735107898,-0.13665771067738533,-0.10906371090691536
1772363361290554000,3.98155419921875,-0.13261340372264385,-0.054928106495738024,-0.07805208471268416
1772363361300624100,3.9916240234375,-0.1442009656637907,0.04695639696419239,-0.031843108582310375
1772363361310693000,4.001693115234375,-0.07156184591054916,0.14009937556385993,0.01645692154318094
1772363361320763100,4.01176318359375,-0.03456687099039554,0.16878128016889093,0.018694982793554662
1772363361330833000,4.0218330078125,-0.01838379795253277,0.15473521915972233,0.0021275135479867455
1772363361340902100,4.031902099609375,0.003359247300028801,0.12386544912159442,-0.005441168140619993
1772363361350972000,4.041971923828125,-0.0147878192871809,0.07558686364293098,-0.005912877305597066
1772363361361041200,4.052041259765625,-0.004154197070002556,0.05517009855806827,0.01634483947083354
1772363361371111200,4.062111083984375,0.0038069910675287244,0.01859013417959213,0.03846533973366022
1772363361381180200,4.07218017578125,0.009976619613170623,-0.0005529577076435089,0.022504311948642133
1772363361391250200,4.082250244140625,-0.02583995917737484,0.02422200258672237,0.03648147244006395
1772363361401319000,4.09231884765625,-0.0212099612891674,0.062443304431438446,0.04992788705565035
1772363361411389200,4.10238916015625,0.009420739296078682,0.10953881760537623,0.06032090544998645
1772363361421458000,4.1124580078125,0.004025017732381821,0.11835106961429119,0.04051134901065379
1772363361431528200,4.122528076171875,-0.056661798420548436,0.04751052371561527,-0.03205313460379839
1772363361441597000,4.132596923828125,-0.10741232697069644,-0.0052151042997837065,-0.08500990449395031
1772363361451667000,4.1426669921875,-0.1305798520684242,0.007062193471193313,-0.0638120720339939
1772363361461737200,4.1527373046875,-0.1313555126160383,0.031164369070529937,-0.03751717216335237
1772363361471806000,4.162805908203125,-0.12132862412035464,0.06429974595308303,-0.029633104382641613
1772363361481876200,4.172876220703125,-0.07974164523482322,0.0909054288059473,-0.05245850151181221
1772363361491945000,4.182945068359375,0.005845803418755531,0.09402969830632209,-0.07456482711881399
1772363361502015200,4.19301513671875,0.06703180126547813,0.07549158657491206,-0.08951854102481156
1772363361512084000,4.203083984375,0.09980126744508742,0.0804962629944086,-0.07569174878951161
1772363361522154000,4.213154052734375,0.10922726743817329,0.04911854343414306,-0.09453454255592078
1772363361532223000,4.223222900390625,0.09487140982747078,0.04333119220435619,-0.12379800990857183
1772363361542293000,4.23329296875,0.09275076441168785,-0.015499182426929473,-0.12207410872541367
1772363361552362000,4.243362060546875,0.11082651932835579,-0.08050386177897453,-0.132331700704433
1772363361562432000,4.253431884765625,0.11555822402536868,-0.04403554108142853,-0.06092661625817418
1772363361572501000,4.2635009765625,0.09006371728479862,-0.07693594016432762,-0.04916946990378201
1772363361582571000,4.273571044921875,-0.06978723745346069,-0.0407470209300518,-0.06289170578606426
1772363361592640000,4.283639892578125,-0.16607026764452457,0.04424772252738476,-0.043704190235212444
1772363361602710500,4.29371044921875,-0.2182312475144863,0.09628712184429168,-0.046929764685593546
1772363361612780300,4.3037802734375,-0.27613398590683935,0.07484744345247744,-0.06364208576194942
1772363361622849500,4.313849609375,-0.26573183435797687,0.010203998628258704,-0.06074051910154521
1772363361632919300,4.323919189453125,-0.19900982969403266,0.051045127582550046,0.01500971840955317
1772363361642988500,4.333988525390625,-0.12178747380375861,0.11589432411193847,0.09525471005663275
1772363361653058600,4.34405859375,-0.05351823969781398,0.1234481004923582,0.10259710870869457
1772363361663127300,4.354127197265625,-0.008387889117002487,0.10955167708694934,0.09093597007468342
1772363361673197600,4.364197509765625,0.037951837253570556,0.08897066135108471,0.08656637668833136
1772363361683266300,4.374266357421875,0.03230184866786003,0.05046528186798095,0.0783043059080839
1772363361693336600,4.384336669921875,-0.055021045476198197,-0.014829904863238335,0.0679038348596543
1772363361703405300,4.3944052734375,-0.13603461034297942,0.00046761751174926756,0.09895086116082966
1772363361713475600,4.4044755859375,-0.09593874679803847,0.00418926838338375,0.13355923320539295
1772363361723544300,4.41454443359375,-0.04163081802725792,0.03516483688354492,0.17756364849619566
1772363361733614300,4.4246142578125,-0.021904373294115067,0.0875678088158369,0.193801666591689
1772363361743683300,4.434683349609375,-0.008705284503102302,0.13084171787500382,0.18260376155525446
1772363361753753300,4.44475341796875,0.0009217910200357436,0.11856909627914428,0.1400936764754355
1772363361763823600,4.45482373046875,0.007808627924323082,0.11215396853983402,0.10594006246104835
1772363361773892400,4.464892333984375,-0.009369301369786262,0.14467033674120902,0.11921996140331029
1772363361783962400,4.47496240234375,-0.0388473247885704,0.1632709923148155,0.09900544089227914
1772363361794031400,4.48503125,-0.1055319200515747,0.12084639356136322,0.06778115832805633
1772363361804101400,4.495101318359375,-0.13666414041817188,0.08614917418956757,0.03059051470533013
1772363361814170400,4.50517041015625,-0.09859422974288463,0.03485562480390072,0.007507306890189647
1772363361824240400,4.515240478515625,-0.09218728531002998,-0.0541144520252943,-0.03403948611542582
1772363361834309400,4.525309326171875,-0.0883563288450241,-0.049508419534564016,-0.02792633699737489
1772363361844379400,4.53537939453125,-0.0018996961414813995,0.01763385636806488,0.003732099200412631
1772363361854448400,4.545448486328125,-0.0016600421667098998,0.018625205492973328,-0.011461889734864235
1772363361864518400,4.555518310546875,-0.036166707402467725,0.0465986695677042,-0.03283588247932494
1772363361874587400,4.56558740234375,-0.029122634109854696,0.013249942195415495,-0.07122384612783789
1772363361884657400,4.575657470703125,0.04314472972154617,0.045995442977547644,-0.05572327546142041
1772363361894726400,4.585726318359375,0.10077917256653308,0.06822481044232845,-0.03318630335219204
1772363361904796400,4.59579638671875,0.08139584218263625,0.08974865998625754,-0.049047012567892664
1772363361914866400,4.605866455078125,0.007940145349502563,0.11315642358064651,-0.049300475872308014
1772363361924935400,4.615935302734375,-0.07128419801294804,0.14282090948224066,-0.07344042619876563
1772363361935005400,4.62600537109375,-0.14335866962075233,0.15046002605855463,-0.05421148265898228
1772363361945074400,4.636074462890625,-0.16679507478773592,0.11905308040380477,-0.04296623134948313
1772363361955144400,4.64614453125,-0.16578151383101938,0.03330781084001064,-0.05807802189402282
1772363361965213200,4.656213134765625,-0.14294424360096453,-0.01331248603761196,-0.05494542295671999
1772363361975283500,4.666283447265625,-0.1026478890478611,-0.06163432613611221,-0.04540134954191744
1772363361985352400,4.6763525390625,-0.10675824697613716,0.002720364874601364,-0.02915324844382703
1772363361995422500,4.68642236328125,-0.15265490575432777,0.07660042459964751,-0.027188158915936945
1772363362005491500,4.696491455078125,-0.17289982140362262,0.09462649515569209,-0.03459511070419103
1772363362015561200,4.706561279296875,-0.16937632345259188,0.11838555640578269,-0.03406867567729205
1772363362025630500,4.71663037109375,-0.1158884788930416,0.08999299013614653,-0.028771738312952218
1772363362035700200,4.7267001953125,-0.06882160729169845,0.0022533318847417832,-0.07905351684018969
1772363362045769500,4.73676953125,-0.04649170206189155,-0.048827451533079144,-0.10768840396571903
1772363362055839200,4.746839111328125,-0.01630231550335884,-0.021970424267649648,-0.08216196771692484
1772363362065908500,4.756908447265625,0.0467249262958765,0.06877192293107509,-0.01692874030601233
1772363362075978500,4.766978515625,0.09285130217671393,0.13506956470310688,-0.010833126844651996
1772363362086048300,4.77704833984375,0.041624388286471366,0.19279285487532616,-0.04260335285384208
1772363362096117500,4.787117431640625,-0.04492167626619339,0.03662263447642326,-0.09091109136175364
1772363362106187300,4.797187255859375,-0.06656418375372886,-0.025783845075964925,-0.08203129054196179
1772363362116256500,4.807256591796875,-0.014817629903554915,-0.023595395120978354,-0.10112868012394756
1772363362126326300,4.817326171875,0.09658990418314933,0.039081718066334724,-0.09806151110567152
1772363362136395500,4.8273955078125,0.1195575227946043,0.11402794571816921,-0.07167169949319213
1772363362146465300,4.83746533203125,0.07398878079652786,0.13383330090641973,-0.0801466093065217
1772363362156534500,4.847534423828125,0.05296703555583954,0.09404021970033645,-0.08842205102499574
1772363362166604500,4.8576044921875,-0.06602642361521721,0.01376782858967781,-0.10865154990945011
1772363362176673500,4.867673583984375,-0.2028857943445444,-0.048234746336936946,-0.10872735509201883
1772363362186743600,4.87774365234375,-0.19082710776031017,-0.027684125739336013,-0.06276468187291175
1772363362196812300,4.887812255859375,-0.07346212657392025,0.024529461100697515,-0.03225939776562154
1772363362206882600,4.897882568359375,0.02461129416525364,0.039194530791044235,-0.04238116147052497
1772363362216951300,4.907951416015625,0.010234978288412093,-0.01524140827357769,-0.07304032096527516
1772363362227021600,4.918021484375,-0.08749591262340545,-0.03782441148161888,-0.047974889824353155
1772363362237090300,4.92809033203125,-0.03383972575962543,0.00974105729162693,-0.010796338498219846
1772363362247160300,4.938160400390625,0.10183598814308643,0.024026187753677368,0.0048220863942056895
1772363362257229300,4.948229248046875,0.11148176836669445,0.041463644766807556,0.004831621407531202
1772363362267299300,4.95829931640625,0.008176292192935943,0.020445406657457352,0.00042228053268045186
1772363362277369600,4.96836962890625,-0.04754325694143772,-0.017626257583498953,-0.03734850106555968
1772363362287438300,4.978438232421875,-0.03450724975764751,-0.04080021242201328,-0.0590101881776005
1772363362297508400,4.98850830078125,0.025724808365106582,-0.00803308432996273,-0.031175621116906402
1772363362307577300,4.998577392578125,0.04048164799213409,0.005756371569633483,-0.03632525896504521
1772363362317647400,5.0086474609375,-0.01450549521446228,0.07062894897460938,-0.0392321228550747
1772363362327716400,5.01871630859375,-0.04663549444675445,0.06920037747621535,-0.036254458751156925
1772363362337786400,5.028786376953125,-0.036950551256537435,0.026764672806859013,-0.03456975706722587
1772363362347855400,5.03885546875,-0.030012860947847365,-0.027115385940670967,-0.02537497201412916
1772363362357925400,5.04892529296875,0.014489713123440742,-0.021826047360897063,0.006856989755295217
1772363362367994400,5.058994384765625,0.06489478923678398,0.014679682737588882,0.05439834700059146
1772363362378064400,5.069064453125,0.04835749593377113,0.01986205381155014,0.05231379581149667
1772363362388133600,5.079133544921875,0.0018710545688867567,0.00563712910413742,0.018596636985614895
1772363362398203400,5.089203369140625,0.02634966226518154,0.007833762365579604,-0.003945851548947394
1772363362408272400,5.0992724609375,0.04803717793822288,0.0744143127322197,0.02726663097962737
1772363362418342400,5.10934228515625,0.027231705796718596,0.15312719944119452,0.09814279618095606
1772363362428411400,5.119411376953125,-0.019233108258247374,0.14867431168556214,0.13551413013283162
1772363362438481400,5.1294814453125,-0.0897591813802719,0.11357727934122085,0.1440640414111316
1772363362448550400,5.13955029296875,-0.10302549018859862,0.02336509349644184,0.09666366353910416
1772363362458620400,5.149620361328125,-0.07539046428799628,-0.012405892586708068,0.07001786787156015
1772363362468690400,5.1596904296875,0.016287117934226988,-0.0029342998862266537,0.07613949255701154
1772363362478759400,5.169759521484375,0.05811082818508148,0.023313071048259734,0.07755118598584085
1772363362488829400,5.179829345703125,0.02625029354393482,0.09349486077725887,0.07506755247656255
1772363362498898400,5.1898984375,-0.03529460074305534,0.14693652810752392,0.06003646248541772
1772363362508968400,5.199968505859375,-0.13464286372363565,0.13033318383097647,0.02939721326753497
1772363362519037400,5.210037353515625,-0.21475041966140268,0.05413257220387459,-0.01584664415773004
1772363362529107500,5.220107421875,-0.17950316519141196,-0.0001204115092754364,-0.01661569230146706
1772363362539176400,5.230176513671875,-0.05705401260852813,-0.0005769231051206588,0.014413725277781486
1772363362549246200,5.24024609375,0.05195464364290237,0.0066512745827436446,0.0222151562763378
1772363362559315500,5.2503154296875,0.040675709259510036,0.02916296612024307,0.03475556196290999
1772363362569385500,5.260385498046875,-0.04541968891620636,0.03359364204406738,0.008743497621640563
1772363362579454500,5.270454345703125,-0.1565659417182207,0.03423427803516388,-0.028176147039979695
1772363362589524500,5.2805244140625,-0.18870003260374069,0.016501052945852277,-0.0415976464100182
1772363362599593700,5.29059375,-0.1264765084028244,-0.0038531682968139646,-0.0430193497762084
1772363362609663500,5.30066357421875,-0.021601590955257415,0.04126315375864505,-0.015210684341751038
1772363362619732700,5.310732666015625,0.05710720410048961,0.14786299530267716,0.020594350141473112
1772363362629802500,5.320802490234375,0.062250996729731556,0.20616788475513456,0.03803867528680712
1772363362639871500,5.33087158203125,-0.04681786527633667,0.15227204391658306,0.010679543718136847
1772363362649941800,5.340941650390625,-0.11233633936941623,0.07316986562907696,-0.04631196158081293
1772363362660010500,5.351010498046875,-0.10167992079854012,0.08087737126648425,-0.029382052231021225
1772363362670080800,5.361080810546875,-0.06415244643688202,0.05021159936785698,-0.01951696670092642
1772363362680149500,5.3711494140625,-0.09252572348415851,-0.04650397702157497,-0.054119128200411794
1772363362690219500,5.381219482421875,-0.10534253495931625,-0.0884650499165058,-0.059513826850801706
1772363362700289500,5.39128955078125,-0.004618307450413704,-0.10757307049036026,-0.06510521711707115
1772363362710358500,5.401358642578125,0.07421908242106437,-0.08308335687816143,-0.06218611479997634
1772363362720428500,5.411428466796875,0.06757599114477635,0.005077741655707359,-0.019586378675326702
1772363362730497500,5.42149755859375,-0.017031798821687698,0.06347089391350746,-0.015107991152256726
1772363362740567800,5.43156787109375,-0.12903203810453415,0.09415244790315627,-0.0480636275537312
1772363362750636500,5.441636474609375,-0.1736287202000618,0.1320002402603626,-0.049320861073210834
1772363362760706600,5.45170654296875,-0.09843757787644862,0.17620821529924868,-0.006243789760395884
1772363362770775600,5.461775634765625,-0.06023147360086441,0.15508125611841678,0.01526288945302367
1772363362780845600,5.471845458984375,0.004949731361865997,0.1280892042964697,0.023738749114423988
1772363362790914600,5.48191455078125,-0.0038519992530345916,0.12373334717452525,0.002472162267193198
1772363362800984600,5.491984619140625,0.007657236754894256,0.07801905922591686,-0.03382145945057273
1772363362811053600,5.502053466796875,-0.028424714973568913,0.023703531670570373,-0.07636478921286761
1772363362821123600,5.51212353515625,-0.03455810316205025,0.004587912312150002,-0.07513363998271524
1772363362831192600,5.522192626953125,0.01009352399110794,-0.021992051577568054,-0.06974164474606513
1772363362841262600,5.5322626953125,0.0466378325343132,-0.04287877226173877,-0.05690576324425638
1772363362851331600,5.54233154296875,0.02991290770471096,-0.027843700215220448,-0.011527794577926397
1772363362861401600,5.552401611328125,0.030621932756900786,0.01075228016078472,0.00909041136316955
1772363362871470600,5.562470703125,0.009539981761574745,0.06292904212176799,0.02764927362166345
1772363362881540600,5.57254052734375,-0.039360535007715226,0.06925590705573559,0.019534502357617018
1772363362891609600,5.582609619140625,-0.1286456691354513,0.025673370438814163,-0.050947658557444805
1772363362901679600,5.5926796875,-0.17703706733882427,0.04255436261296272,-0.038683731724694366
1772363362911748600,5.60274853515625,-0.1365156718581915,0.04335866473317146,-0.0160765439234674
1772363362921818400,5.612818359375,-0.11250175906419753,0.055176528298854825,-0.018172127963230013
1772363362931887600,5.6228876953125,-0.10387421597242355,0.07562310400009155,-0.03830306184403598
1772363362941957400,5.632957275390625,-0.058193245771527284,0.06404781701862812,-0.05471972444206476
1772363362952027600,5.643027587890625,-0.009719429981708527,0.10381517926156521,-0.03924209625981748
1772363362962096600,5.6530966796875,0.01285889705121517,0.123060562479496,-0.01528678178526461
1772363362972166700,5.663166748046875,0.00834463449716568,0.12225099966228008,-0.007974705206230281
1772363362982235600,5.673235595703125,-0.011276596295833587,0.12748188605308533,0.03726918875165283
1772363362992305400,5.683305419921875,0.005028057295084,0.08717676367163657,0.019209362056478857
1772363363002374700,5.693374755859375,-0.008237082469463348,0.035355391019582745,-0.019471154797822236
1772363363012444400,5.7034443359375,-0.02054477537870407,-0.05929097788035869,-0.07138897356167435
1772363363022513700,5.713513671875,-0.027418752801418304,-0.11170330216288565,-0.10775054594911634
1772363363032583400,5.72358349609375,-0.018446926316618917,-0.05729132849574089,-0.06846694863513111
1772363363042652700,5.733652587890625,-0.012154548174142837,0.03266717484891415,-0.02741583019196987
1772363363052722700,5.74372265625,-0.10585749874413013,0.0830845259219408,-0.003915346812829375
1772363363062791700,5.753791748046875,-0.21059739163517951,0.0703138916760683,-0.025252222417294978
1772363363072861700,5.76386181640625,-0.23875147297382354,0.0684101038813591,-0.010732114155590534
1772363363082930700,5.7739306640625,-0.1561386562168598,0.08208090183734894,0.013544614293053746
1772363363093000700,5.784000732421875,-0.025922376763820646,0.08399988720118999,0.03160648681484163
1772363363103069400,5.7940693359375,0.07158171965479851,0.06650397799909115,0.013589037956669926
1772363363113139700,5.8041396484375,0.08347557106614112,0.07200082184970379,0.0025173165831714867
1772363363123208400,5.81420849609375,0.0423415966451168,0.06595043576955795,-0.006941855027154087
1772363363133278700,5.82427880859375,-0.002994505640864372,0.09812778127491474,-0.023644933351129292
1772363363143347500,5.834347412109375,-0.04818798458576202,0.10650164186656474,0.010208893999084829
1772363363153417500,5.84441748046875,-0.034521862804889676,0.07119593520760535,0.01944222096428275
1772363363163486500,5.854486572265625,0.022886954590678212,-0.008772504520416259,-0.010866188864037394
1772363363173556500,5.864556396484375,-0.07710545151233672,-0.04317161772847175,-0.01031995315812528
1772363363183625500,5.87462548828125,-0.08187047395706176,0.021404607078433037,0.050489685656875366
1772363363193695500,5.884695556640625,0.07437690333127975,0.08717501010596751,0.06854242502413689
1772363363203764700,5.8947646484375,0.13081073821485042,0.09958967052102088,0.011218801693990825
1772363363213834500,5.90483447265625,0.01793663870692253,0.09224807558655738,-0.03603599369488656
1772363363223903700,5.91490380859375,-0.10418751970529555,0.08035890035033226,-0.06417969976998865
1772363363233973500,5.924973388671875,-0.15519582240879534,0.0382025971442461,-0.08196377826370298
1772363363244043500,5.93504345703125,-0.1718809997498989,0.0200859256953001,-0.08172726609408855
1772363363254112500,5.945112548828125,-0.12532733836770057,-0.0046270752787590025,-0.07066767354980111
1772363363264182500,5.9551826171875,-0.06628302872478961,-0.004662146592140198,-0.045974180993810294
1772363363274251500,5.96525146484375,-0.04244330345392227,0.01394435420036316,-0.04435527455508709
1772363363284321500,5.975321533203125,-0.07284720954596996,0.033521745851635934,-0.041695042369887234
1772363363294390800,5.985390869140625,-0.10964344702363013,0.051690439748764035,-0.049699923518672584
1772363363304460500,5.99546044921875,-0.1075058504730463,0.07855155866742133,-0.05023585702627897
1772363363314529500,6.005529541015625,-0.06332476344108581,0.04239712622463703,-0.06398717287257313
1772363363324599600,6.015599609375,-0.047584757995605464,0.05157353537082672,-0.03242006822004914
1772363363334668500,6.02566845703125,-0.04004617918431758,0.09246551772952079,0.03135740742459893
1772363363344738600,6.035738525390625,-0.02149111631810665,0.14334113396406173,0.018713102972134948
1772363363354807600,6.0458076171875,0.01033317796587944,0.1847434039324522,0.02713270240165293
1772363363364877600,6.055877685546875,0.024860885012149808,0.1423012695223093,-0.0009832388836890458
1772363363374946600,6.065946533203125,-0.022859482061862946,0.07497311565876007,-0.020965119682624937
1772363363385016600,6.0760166015625,-0.08395838614702224,-0.041166123124957085,-0.03139043291136622
1772363363395085600,6.08608544921875,-0.10170096358656883,-0.1132920326590538,-0.021245617124438284
1772363363405155600,6.096155517578125,-0.04433949246406555,-0.15120938312113283,-0.005608852857723832
1772363363415224600,6.106224609375,0.019546411991119384,-0.11598375596106052,-0.020556027425080538
1772363363425294600,6.116294677734375,0.07014204224050044,-0.0301420402854681,0.0013142244037240743
1772363363435363600,6.126363525390625,0.05893909570276737,0.0637304216325283,0.025991277281567454
1772363363445433600,6.13643359375,0.012709259447455405,0.10970014564692973,0.013025558855012059
1772363363455502600,6.146502685546875,-0.09566577507555485,0.16837036128044128,0.02288395891599357
1772363363465572600,6.156572509765625,-0.12154489721953868,0.16601532258689403,0.027645108903199433
1772363363475641600,6.1666416015625,-0.11775076563358307,0.10937281338870525,0.024538228929042814
1772363363485711600,6.176711669921875,-0.05097089330255985,0.03892915785312653,0.024581702744588256
1772363363495780400,6.1867802734375,0.024713000974059103,-0.00856675281524658,0.01429075648523867
1772363363505850600,6.1968505859375,0.05723989056944847,-0.023825112223625183,0.006900280907750129
1772363363515919600,6.206919677734375,0.030490999853610992,-0.005747603741288185,-0.016982041395828127
1772363363525989600,6.21698974609375,-0.0027630349725484846,0.0239811795681715,-0.027039763421192763
1772363363536058600,6.22705859375,-0.0093283848375082,0.062488897138833994,0.0030735622264444827
1772363363546128400,6.23712841796875,0.009739888247847557,0.07704699932336807,0.011909779632836579
1772363363556198700,6.24719873046875,0.004519523251056671,0.0528466240465641,-0.01658040179237723
1772363363566267400,6.257267333984375,-0.033680735805630684,0.017810381978750227,-0.031747502720728515
1772363363576337700,6.267337646484375,-0.0820212806046009,-0.012997428739070891,-0.03673420509211719
1772363363586406400,6.277406494140625,-0.10834054773151874,-0.012455576947331428,-0.038948666271194816
1772363363596480000,6.28747998046875,-0.07410802326202393,0.014449965634942054,-0.01562675432935357
1772363363606549000,6.297549072265625,-0.022187281888723372,0.09107903180718421,0.055485667313262814
1772363363616618800,6.30761865234375,-0.008393149814009666,0.15189444277584552,0.09448357955366372
1772363363626688000,6.31768798828125,-0.053959553724527355,0.13640519722104072,0.051797626450285315
1772363363636757800,6.3277578125,-0.11330430761873721,0.11919511922299861,0.018686945617571473
1772363363646827000,6.337826904296875,-0.13482698811888694,0.044108021795749665,-0.04917027362138033
1772363363656896800,6.347896728515625,-0.1580208167016506,-0.02192073990702629,-0.09159414172247052
1772363363666966000,6.357966064453125,-0.108925654143095,-0.04347849172055721,-0.06869418151974678
1772363363677035800,6.368035888671875,0.014938625934720038,-0.000720130968093872,0.007594985173642635
1772363363687105000,6.37810498046875,0.11048866567611694,0.055558221092820166,0.07095913077704608
1772363363697175000,6.388175048828125,0.11092354996204376,0.10296294634640216,0.07760865179412066
1772363363707244000,6.398244140625,0.060357145807147024,0.13297756085991858,0.07011763845160603
1772363363717314000,6.40831396484375,-0.062030631977319714,0.050124505606293675,-0.0057183776468038554
1772363363727382800,6.4183828125,-0.05777355905473232,-0.0401022932857275,-0.049749023357406254
1772363363737453000,6.428453125,-0.004188683861494064,-0.035134441745281214,-0.038436771226301784
1772363363747521800,6.438521728515625,0.032248072654008864,0.0037041152149438856,0.0030124796889722345
1772363363757592000,6.448592041015625,0.045134442234039306,0.055361237215995784,0.027098361740633844
1772363363767660800,6.458660888671875,0.035789690783619876,0.09046820643246173,0.018469868800789116
1772363363777730800,6.468730712890625,-0.02636485983431339,0.029853870993852612,-0.0655957040477544
1772363363787799800,6.4787998046875,-0.18807810131311414,0.033570845690369604,-0.09647058865241706
1772363363797869800,6.488869873046875,-0.18673019383549688,0.04123685027360916,-0.10403072170838713
1772363363807938800,6.498938720703125,-0.03446282609403133,0.06553250261843205,-0.11545688254274428
1772363363818008800,6.5090087890625,0.06515431695580481,0.12035714873969554,-0.04691387299671769
1772363363828077800,6.519077880859375,0.08402619068622588,0.0801519796013832,-0.021410525362566112
1772363363838147800,6.52914794921875,0.0589157148271799,0.07363689861893653,-0.03344824222400784
1772363363848217000,6.539217041015625,0.06997311541438102,0.021232173120975494,-0.09206899269260466
1772363363858286800,6.549286865234375,0.07841419602334498,0.010537760627269745,-0.09895224940031766
1772363363868356000,6.559356201171875,-0.009079378512501715,-0.02084112797677517,-0.08285283605791628
1772363363878425900,6.56942578125,-0.10310147803425788,-0.049854456493258474,-0.0724214584145695
1772363363888494800,6.579494873046875,-0.10988251647651195,-0.017591770792007445,-0.02001395643763244
1772363363898564900,6.58956494140625,-0.05588613787293434,-0.010627776998281479,0.028780908000096677
1772363363908635000,6.599634765625,-0.028262802410125732,-0.027423428976535796,0.018195143512636423
1772363363918703900,6.609703857421875,-0.002327566164731979,-0.0036257892817258834,0.018050401279702782
1772363363928774000,6.61977392578125,0.0076888009369373315,-0.0024596681118011473,-0.003269230929017067
1772363363938843100,6.629843017578125,-0.04366378515958786,0.026971593555808065,-0.024463775453343987
1772363363948913000,6.639912841796875,-0.12957213633060455,0.06567103430628776,-0.015682503104582426
1772363363958982000,6.64998193359375,-0.16788696167767048,0.10669862574338912,-0.014095672304555773
1772363363969052000,6.660052001953125,-0.21368892790973185,0.11929857959747314,-0.041107378675043584
1772363363979121000,6.670120849609375,-0.209966107994318,0.09193535637557507,-0.0694281948827207
1772363363989191000,6.68019091796875,-0.1566273165166378,0.08057517344951629,-0.06774184923097491
1772363363999260000,6.690260009765625,-0.1084814175069332,0.07481529474854469,-0.03744527597092092
1772363364009330000,6.700329833984375,0.03768704883754253,0.1309200438082218,0.01614332554936409
1772363364019399000,6.71039892578125,0.17449848877191543,0.12579495587944983,0.02206219420433044
1772363364029469000,6.720468994140625,0.09690496148169041,0.09378010745942592,-0.005081321852281689
1772363364039538000,6.730537841796875,-0.09158815037310122,0.06291735168397426,-0.01807765461280942
1772363364049608000,6.74060791015625,-0.12874912950992584,-0.00036766426861286163,-0.027518706044554708
1772363364059677000,6.750677001953125,-0.058553311255574225,-0.007148118188977241,-0.007798983313143253
1772363364069747000,6.760746826171875,0.014919921234250068,0.02952712325751781,-0.002460691025108099
1772363364079816000,6.77081591796875,0.05866729302406311,0.07437339619994163,0.012367752533406018
1772363364089886000,6.780885986328125,-0.044998833155632016,0.08356441839337349,0.03283814750164747
1772363364099955000,6.790954833984375,-0.04486731573045254,0.06786591400206089,0.02789857220761478
1772363364110025000,6.80102490234375,-0.045105800661444664,0.049531800410151476,0.04275492668636143
1772363364120093700,6.81109375,-0.12520575781464577,0.017891630521416662,0.03862776375375688
1772363364130164000,6.8211640625,-0.14076163886487483,-0.02806464948952198,0.022709625262394548
1772363364140232700,6.831232666015625,-0.08745441156923771,-0.06520283227264881,0.03295943579375744
1772363364150303000,6.841302978515625,0.002803366982936859,-0.05734802711904049,0.04792969897575676
1772363364160372000,6.8513720703125,0.12998247069716454,0.005229132825136184,0.08641922330260277
1772363364170442000,6.86144189453125,0.13079963229894637,0.025928221982717513,0.0718443161137402
1772363364180511000,6.871510986328125,-0.038058220237493515,0.045849312505126,-0.0011412059243768452
1772363364190580700,6.881580810546875,-0.17167583256661892,0.09236731805205345,-0.04236760786920785
1772363364200650000,6.89164990234375,-0.11405600276887416,0.11935527822077274,-0.031090427051484584
1772363364210719700,6.9017197265625,-0.012372574838995933,0.15882278073430062,0.017604703338816762
1772363364220789000,6.9117890625,0.03201894007325172,0.14987842677831648,0.025807372082024813
1772363364230858800,6.921858642578125,0.03103577425479889,0.092295421859622,0.00020355974808335304
1772363364240928800,6.9319287109375,0.03151391316056251,0.027271453285217285,-0.029813392852991817
1772363364250998000,6.941998046875,0.06989888113439083,0.027810382467508315,-0.03204005592651665
1772363364261067800,6.95206787109375,0.05215162751972675,0.031193595165014264,-0.034148134121671316
1772363364271137000,6.962136962890625,-0.03204290547072887,0.030776246535778044,-0.06304280469454825
1772363364281206800,6.972206787109375,-0.06955225965380668,0.058363341641426085,-0.044132863976061344
1772363364291276000,6.982276123046875,-0.06254793384969234,0.03814765208661556,-0.044625981255248186
1772363364301345800,6.992345703125,-0.06210545077919959,-0.05848609123826026,-0.0886331730250269
1772363364311415000,7.0024150390625,-0.06109188982248306,-0.08213760046064854,-0.09738616912737488
1772363364321484800,7.01248486328125,-0.03212064688205719,-0.037979309782385826,-0.06592537439353764
1772363364331554000,7.022553955078125,-0.03558744620978832,0.038866614010930056,-0.029231574377045034
1772363364341624000,7.0326240234375,-0.10865443598628044,0.09019991088509559,-0.01749254820123315
1772363364351692800,7.04269287109375,-0.18135609958171844,0.12377426370680332,-0.016193594431877137
1772363364361763000,7.05276318359375,-0.242130009496212,0.12085516138970852,-0.023834756834805012
1772363364371831800,7.062831787109375,-0.22626725445389748,0.11378536913394928,0.004201835604012012
1772363364381902000,7.072902099609375,-0.11473171007335185,0.07920563866198062,0.040054654751718044
1772363364391970800,7.082970703125,0.013775427374243735,0.04037351144254207,0.028885610483586788
1772363364402040800,7.093040771484375,0.09332944108247757,0.027486557340621946,0.021046952747181057
1772363364412109800,7.10310986328125,0.07507073081433772,0.028032500785589217,0.014890549009293317
1772363364422179800,7.113179931640625,0.038971827951073644,0.03996843777298927,-0.020395941492542622
1772363364432248800,7.123248779296875,0.022404724031686783,0.07260229487419129,-0.015715674721822143
1772363364442318800,7.13331884765625,0.004160042288899422,0.058472647234797476,0.0010403028331696987
1772363364452387800,7.143387939453125,0.08760346465110778,0.04373334326446056,0.006757657566666603
1772363364462457900,7.153457763671875,0.11413374418020247,-0.09014438130557537,-0.07991305627897381
1772363364472527000,7.163527099609375,0.10471768105924129,-0.14499182378053665,-0.09774046245776116
1772363364482596900,7.173596923828125,0.031171383333206175,-0.11264788953661918,-0.0565461361516267
1772363364492666000,7.183666015625,-0.024724106889963147,-0.052152796563506125,-0.043007513207942244
1772363364502736000,7.19373583984375,-0.013912205496430395,0.01591886914372444,-0.06020699674673378
1772363364512804900,7.203804931640625,-0.0424900652050972,0.039002223089337346,-0.09932159416936337
1772363364522875000,7.213875,-0.0985959833085537,0.0488467407554388,-0.07524769481644034
1772363364532944000,7.22394384765625,-0.13737491903603077,0.050853988924622534,-0.04016089160516858
1772363364543014000,7.234013916015625,-0.09180033181905746,0.1496948869049549,0.06906454920209944
1772363364553083000,7.244082763671875,0.10072013585567474,0.1705833611547947,0.09907777547612785
1772363364563153200,7.254153076171875,0.18244038768708704,0.16204115825891494,0.04707790445201099
1772363364573222000,7.264221923828125,0.06183598618805408,0.10894845049679279,0.008323957035318016
1772363364583292000,7.2742919921875,-0.12779869691729545,0.029318448942899703,-0.02719480785243213
1772363364593362000,7.28436181640625,-0.23236323324143884,-0.01311433311700821,-0.0010770546469837427
1772363364603427000,7.294427001953125,-0.2475415131509304,-0.009824059399962424,0.06374708050638436
1772363364613497300,7.304497314453125,-0.1695990262925625,0.07179214753508567,0.14000534060485662
1772363364623566000,7.314566162109375,-0.017942483925819395,0.1283855568945408,0.1839293841358274
1772363364633636400,7.32463623046875,0.05199906730651855,0.07099252158999443,0.10251001494713127
1772363364643705000,7.334705078125,-0.013958967247605323,0.023398411244153976,0.024630364191904664
1772363364653775000,7.344775146484375,-0.03617372166514397,0.014915829581022262,0.009921966816484927
1772363364663844000,7.354843994140625,-0.0694599051952362,0.05065875861346721,0.0166200031504035
1772363364673914000,7.3649140625,-0.13004267645180226,0.12709376351833343,0.04996748841367662
1772363364683983000,7.374983154296875,-0.19142916530668735,0.14537351657450198,0.05237447649016976
1772363364694053000,7.38505322265625,-0.19792612611055374,0.0999421372205019,0.0026942805852741003
1772363364704122000,7.3951220703125,-0.1772358047813177,0.003971826240420341,-0.050062984677404165
1772363364714192100,7.405192138671875,-0.10871405721902846,-0.07536299175918101,-0.08104892844110727
1772363364724261000,7.41526123046875,-0.0027098434805870055,-0.0368342314004898,-0.06868724032230675
1772363364734331100,7.4253310546875,0.046503392499685284,-0.007828501668572425,-0.03585457271337509
1772363364744400400,7.435400390625,0.05272855062484741,0.11466156744658947,0.01387165429033339
1772363364754470100,7.44547021484375,0.08691840499639511,0.1748264055520296,0.00828523246012628
1772363364764539100,7.4555390625,0.034762101301550864,0.11489888333380222,-0.059176776916161175
1772363364774609200,7.465609130859375,-0.04398234958946705,0.05173720149993896,-0.0795328978549689
1772363364784678100,7.47567822265625,-0.06524433332681656,-0.02489303371608257,-0.09741269180811941
1772363364794748200,7.485748046875,-0.013564999493956564,0.00017769465446472167,-0.08688413740061222
1772363364804817200,7.495817138671875,0.1057283194065094,0.0544587354183197,-0.0572130756277591
1772363364814887200,7.50588720703125,0.13550269542336463,0.1165332065373659,-0.03850490455906838
1772363364824956200,7.5159560546875,0.05546586663424968,0.1145984390825033,-0.05197433472406119
1772363364835026200,7.526026123046875,-0.07629822678267956,0.0639747517824173,-0.059535417628102
1772363364845095200,7.53609521484375,-0.1679728863954544,-0.02633797182738781,-0.07394271316509693
1772363364855165200,7.546165283203125,-0.19036065929234028,-0.08314297811090945,-0.0937685631521046
1772363364865234200,7.556234130859375,-0.10179214900135994,-0.1002770682632923,-0.09696271955091505
1772363364875304200,7.56630419921875,0.015157821643352507,-0.034682021802663804,-0.061396279596537345
1772363364885373200,7.576373291015625,0.06271276902258396,0.05221943205893039,-0.010701426756381988
1772363364895443200,7.586443115234375,-0.03723462889492511,0.045052609169483185,-0.0546801596166566
1772363364905513000,7.596512939453125,-0.1958189246982336,0.0036988545179367062,-0.09348821184076368
1772363364915582200,7.606582275390625,-0.21341186453402042,-0.027678865042328832,-0.11961652297284453
1772363364925652200,7.61665234375,-0.10040917021036147,-0.019275778356194494,-0.1147179372763261
1772363364935721200,7.62672119140625,0.038836803394556044,0.022354455149173735,-0.09279661284741014
1772363364945791200,7.636791259765625,0.1200496902257204,0.08387830664813518,-0.03847155027873814
1772363364955860200,7.646860107421875,0.10755728839933872,0.13173194471299648,0.020268588785827157
1772363364965930200,7.65693017578125,0.06565349864959716,0.09431728307604789,0.035164142763800914
1772363364975999200,7.666999267578125,-0.048556817898154254,0.03182780141532421,-0.010467581467889248
1772363364986069200,7.6770693359375,-0.09870821151137352,0.041571781316399575,-0.018586371319927273
1772363364996138000,7.687137939453125,-0.067194298350811,0.05641629922688007,0.003985270243883132
1772363365006208300,7.697208251953125,-0.018503624939918518,0.09077624946832656,0.008235109708085655
1772363365016277000,7.707277099609375,0.0036801498174667355,0.0836637871146202,0.016035298597626386
1772363365026347300,7.71734716796875,-0.016910218268632888,0.07768646627068519,0.015248020677454769
1772363365036416000,7.727416015625,-0.05310498272180557,0.12977087377309798,0.05226279627662152
1772363365046486000,7.737486083984375,-0.07752747631669044,0.11207856521606445,0.04295731739066541
1772363365056555300,7.74755517578125,-0.12295885567069052,0.08333996198773383,-0.0010072773464024065
1772363365066625000,7.757625,-0.14396072716712952,0.03129296388626098,-0.0412006829816848
1772363365076694300,7.7676943359375,-0.13442249897122382,0.026997312518954274,-0.02847976962905377
1772363365086764000,7.777763916015625,-0.08131050198674201,0.010600304469466209,-0.03441632007118314
1772363365096833300,7.787833251953125,-0.02760579980611801,0.0016045125871896743,-0.050042672541737554
1772363365106903000,7.797903076171875,0.033999884757399554,0.03969312796294689,-0.021854031346365807
1772363365116972300,7.80797216796875,0.053231239449977874,0.028654432076215743,-0.041892683833837506
1772363365127042000,7.8180419921875,-0.020232640689611434,-0.0038210195928812026,-0.052703964172862466
1772363365137111300,7.828111328125,-0.027122400203347205,-0.019864391899108887,-0.044919630439579486
1772363365147181300,7.838181396484375,0.04868307462632656,0.008192074283957481,0.0026127397816628215
1772363365157250000,7.84825,0.13226385963261128,0.09771744690835475,0.08226389372143894
1772363365167320300,7.8583203125,0.10381342569589615,0.1173392622232437,0.09327613999266177
1772363365177389000,7.86838916015625,-0.019174656069278716,0.08523673551976681,0.04487414733003825
1772363365187459300,7.878459228515625,-0.06357201620042324,0.026020576441287992,0.010040332499146461
1772363365197528000,7.888528076171875,-0.02445873395204544,-0.030533669951558113,0.006941964625008404
1772363365207598300,7.898598388671875,0.0004208557605743408,-0.06403203492760658,0.025271694302745163
1772363365217668000,7.908668212890625,-0.08647826001346111,-0.06817337251603603,-0.02013034935891628
1772363365227737000,7.918737060546875,-0.17911504265666006,0.005813654714822769,0.0044584041809663175
1772363365237807400,7.928807373046875,-0.17125497680604457,0.09263853620886803,0.07287508393358438
1772363365247876000,7.9388759765625,-0.1872007339566946,0.11221066716313362,0.07484357099495828
1772363365257946400,7.9489462890625,-0.18661679658889768,0.18900456850826738,0.10031666962131858
1772363365268015000,7.95901513671875,-0.08880641070008277,0.2146452057212591,0.09475761072207242
1772363365278085000,7.969085205078125,-0.055281157717108724,0.14524667532444,-0.0039158948021009565
1772363365288154000,7.979154052734375,-0.039839258435368535,0.06569324613809585,-0.03268083804808557
1772363365298224000,7.98922412109375,0.05120119492709636,-0.028618191719055174,-0.05376593084856868
1772363365308293000,7.999293212890625,0.13019114501178264,-0.04654489355385303,-0.04581340094152838
1772363365318363100,8.009363037109376,0.14016484201550483,-0.041681086909770966,-0.0372223904678598
1772363365328432000,8.01943212890625,0.10169862549901008,0.02206803942322731,-0.03473945107832551
1772363365338502100,8.029502197265625,0.008493687579035758,0.04041559701859951,-0.03031863896138966
1772363365348571100,8.039571044921875,-0.09021920010745525,0.016734861701726913,-0.035902393910475075
1772363365358641200,8.04964111328125,-0.11181553036570549,-0.01767301933467388,-0.04496441942937672
1772363365368710400,8.05971044921875,-0.03436930259168148,-0.031221067693829534,-0.043616731147468085
1772363365378780200,8.0697802734375,0.02380290039181709,-0.021971008789539337,-0.037334362942352886
1772363365388849200,8.07984912109375,0.046420974913239474,0.027517537000775336,-0.04282466745432466
1772363365398919200,8.089919189453125,0.017734394133090973,0.10337971045374869,-0.03437434409298003
1772363365408988200,8.09998828125,-0.0971487071096897,0.18123042737543582,-0.00984678268842399
1772363365419058200,8.11005810546875,-0.15976152288913725,0.20192367131412028,-0.009029803749732673
1772363365429127200,8.120127197265624,-0.05383505056202411,0.16522271090447901,-0.021404789741523562
1772363365439197200,8.130197265625,-0.002183189257979393,0.06421732836663722,-0.08745558061301707
1772363365449266200,8.14026611328125,-0.06707856301665306,-0.00184825821518898,-0.12442008732967078
1772363365459336200,8.150336181640625,-0.06505202562510967,-0.019258242699503898,-0.09475874323323369
1772363365469405200,8.1604052734375,-0.0053308396339416505,-0.06745324154794216,-0.07699863013699651
1772363365479475200,8.17047509765625,0.006707973206043243,-0.08962766395509242,-0.07656487836223096
1772363365489544200,8.180544189453125,-0.018296704190969466,-0.06866203281581401,-0.07564586382117122
1772363365499614200,8.1906142578125,-0.02652443431019783,-0.03861760768592357,-0.04417622819375246
1772363365509684000,8.20068408203125,-0.008695932152867316,0.005101122531294822,-0.007342325586825609
1772363365519753200,8.210753173828126,0.04449439076483249,0.032712767556309696,0.004379311062768102
1772363365529823000,8.220822998046875,0.13681786967515944,0.1508504866808653,0.04237999242674559
1772363365539892200,8.230892333984375,0.1790343786358833,0.2289057862639427,0.07334387048911303
1772363365549962000,8.2409619140625,0.06172025085389614,0.19607903693914414,0.04234956075586378
1772363365560031200,8.25103125,-0.06860884132385253,0.12039338909685611,0.04720839896388351
1772363365570101200,8.261101318359374,-0.07738719106316566,-0.006339139893651008,0.03448540325202048
1772363365580170200,8.271170166015626,-0.07908464263081551,-0.11588789437115192,0.031612551229447124
1772363365590240300,8.281240234375,-0.023968904608488082,-0.17387363487184046,0.046929655087739226
1772363365600308200,8.29130810546875,0.050720133411884305,-0.12190262461602687,0.09460808271616697
1772363365610378200,8.301378173828125,0.10555763901472091,0.006113514444231987,0.1299175157021731
1772363365620447500,8.311447509765625,0.07957797910571097,0.1306505792170763,0.10679419507235288
1772363365630517200,8.321517333984374,-0.016138649374246597,0.2059966198414564,0.053870633332058784
1772363365640586500,8.33158642578125,-0.12320260129868983,0.1667868914812803,0.017999328679591416
1772363365650656300,8.34165625,-0.1473462779521942,0.09600655133724212,0.024090485161542892
1772363365660725200,8.351725341796875,-0.10050210919082164,0.05455635057389736,0.06770707017853855
1772363365670795300,8.361795166015625,-0.031059739652276038,0.05626140092611313,0.120627636244148
1772363365680864300,8.3718642578125,0.05952420211434364,0.08421499125659465,0.14541910928189752
1772363365690934300,8.381934326171875,0.10139818124771117,0.16096563798189162,0.15995784917883574
1772363365701003300,8.392003173828124,0.06306991189718246,0.1550023456633091,0.09903258462753146
1772363365711073300,8.4020732421875,-0.08010814045965671,0.07971884888112545,-0.00814670077227056
1772363365721142300,8.412142333984375,-0.17172551692724228,-0.00952536871433258,-0.05894194524697959
1772363365731212300,8.42221240234375,-0.14443769702911377,-0.067947747066617,-0.05923694613818079
1772363365741281300,8.43228125,-0.07646949169635772,-0.06299509309530257,-0.03605535598248243
1772363365751351300,8.442351318359375,-0.028898762226104734,-0.008535188633203506,-0.010900419927202164
1772363365761420300,8.452420166015624,-0.009057166680693627,0.06746843911707401,-0.009286628055013716
1772363365771490300,8.462490234375,-0.026976854252815246,0.1283499010592699,-0.03330609380695969
1772363365781559300,8.472559326171876,-0.11089315482378005,0.10466975026428699,-0.09069956750292331
1772363365791629300,8.48262939453125,-0.19666297430694102,0.05594809719324111,-0.1099841502200812
1772363365801699300,8.49269921875,-0.18908932418227195,0.038377369189262385,-0.10258191113956272
1772363365811768300,8.502768310546875,-0.0209007492095232,0.06960603566765784,-0.07380279323775321
1772363365821838300,8.51283837890625,0.12039455814063549,0.00239420166015625,-0.12756781077086926
1772363365831907300,8.5229072265625,0.10334697722792625,-0.08298398815691471,-0.17354140724278985
1772363365841977300,8.532977294921874,0.018188567641377447,-0.08992986177206039,-0.14226060871835797
1772363365852046300,8.54304638671875,-0.07023147408962249,-0.04964695122241974,-0.09917140857633203
1772363365862116400,8.553116455078126,0.023615853387117386,0.043099137014150614,-0.0640254225237295
1772363365872185300,8.563185302734375,0.13579495636820793,0.08116203342676162,-0.08078052329588681
1772363365882255400,8.57325537109375,0.10829203241467475,0.09019406566619873,-0.10181962153017521
1772363365892324000,8.583323974609375,0.04647825805842876,0.012989829954504966,-0.1256237640310079
1772363365902394400,8.593394287109374,0.031657705545425414,0.007056932774186134,-0.09012417876776307
1772363365912463000,8.603463134765626,0.038703532403707504,-0.020970307314395902,-0.10182075404133648
1772363365922533400,8.613533447265626,-0.021759411865472793,-0.022576573467254637,-0.132879616910778
1772363365932602400,8.623602294921875,-0.06778174284994602,-0.021899112597107886,-0.14005823983587323
1772363365942672100,8.633672119140625,-0.04166238220930099,-0.01609539475440979,-0.12423899514172225
1772363365952741400,8.643741455078125,-0.02330488774180412,-0.006873977422714233,-0.08144844915270805
1772363365962811100,8.65381103515625,-0.06491174037158488,-0.0011228665500879287,-0.03172561968248337
1772363365972880400,8.66388037109375,-0.03822831610739231,0.055527825954556465,0.0004401815155521035
1772363365982950100,8.6739501953125,0.025225042149424552,0.1190735386699438,0.042877237891778344
1772363365993019400,8.684019287109376,0.012105448335409164,0.13218319561183453,0.004460596138052642
1772363366003089200,8.694089111328125,-0.02941606409847736,0.12782558492422103,-0.020587555074505506
1772363366013158400,8.704158447265625,-0.005298106408119201,0.0973585504680872,-0.033841698521003126
1772363366023228200,8.714228271484375,-0.036890345501899714,0.05487959117889404,-0.02819434028379619
1772363366033298200,8.724298095703125,-0.12479659249186516,0.02484042674601078,0.010678411206975578
1772363366043367400,8.734367431640624,-0.08989654402434825,0.006008885025978088,0.08328183859232813
1772363366053437200,8.744437255859374,-0.016501637467741966,-0.014232523491978644,0.14423581778146324
1772363366063506400,8.75450634765625,0.004487959069013595,-0.021642507487535476,0.16987828162536023
1772363366073576200,8.764576171875,-0.0015805471897125244,-0.0030810148805379867,0.13186203736606986
1772363366083645400,8.7746455078125,0.008564414727687835,0.04388590347766876,0.10801577275656163
1772363366093715200,8.784715087890625,-0.007200140637159347,0.08151742273569107,0.08344802547208964
1772363366103784400,8.794784423828125,-0.06360299586057662,0.13315700908005237,0.08880115000307559
1772363366113854200,8.804854248046874,-0.12948913422226904,0.1459562848985195,0.09615107437446713
1772363366123923200,8.814923095703126,-0.1283633450627327,0.11599369283318518,0.09284867182821036
1772363366133993500,8.824993408203126,-0.08839958346486092,0.07672901941537856,0.07455876270420848
1772363366144062200,8.835062255859375,-0.054824061599373815,0.05127952086031436,0.0582533784609288
1772363366154132500,8.845132568359375,0.00452653751373291,0.06110708739161491,0.07937664784733206
1772363366164201200,8.855201171875,0.12506605708301066,0.02572013218998909,0.045907983889803286
1772363366174271200,8.865271240234375,-0.013924480456113815,-0.06339607511162758,-0.024636392073892056
1772363366184340200,8.87534033203125,-0.13393091606199742,0.008565583771467208,-0.009114047967083752
1772363366194410200,8.88541015625,-0.023942601123452187,0.05879881044924259,0.013755261369049549
1772363366204479200,8.895479248046875,0.02817746221423149,0.04162555733025074,-0.018712701113335787
1772363366214549200,8.90554931640625,-0.09932079045176505,0.09735270524919032,-0.01964786307159811
1772363366224619300,8.915619384765625,-0.10059621721506118,0.10932663615942001,-0.029467100165970622
1772363366234688300,8.925688232421875,-0.021466566398739815,0.05442249506115913,-0.08296630636975169
1772363366244758300,8.93575830078125,-0.013566168537735939,0.017177929294109343,-0.07957501996364444
1772363366254827300,8.9458271484375,-0.021115268743038176,0.0052151042997837065,-0.07306066963355988
1772363366264897300,8.955897216796876,-0.004586743268370628,0.05056698867678642,-0.0411946185670793
1772363366274966300,8.96596630859375,-0.039841012001037596,0.017284896799921987,-0.05269892267156392
1772363366285036300,8.976036376953125,-0.0987695863097906,-0.020709610551595686,-0.061364532751403744
1772363366295105300,8.986105224609375,-0.0693418317735195,-0.020865093374252318,-0.03501655098665506
1772363366305175300,8.99617529296875,0.020743512821197508,-0.03169628399014473,-0.0021221432531252503
1772363366315244300,9.006244384765624,0.07272036829590797,-0.03434007649719715,-0.025887926504947242
1772363366325314300,9.016314208984374,0.03844751181602478,0.03153729403614998,-0.042283363651856774
1772363366335383300,9.02638330078125,0.01803776099383831,0.06886135478019714,-0.0671706982795149
1772363366345453300,9.036453369140625,-0.05311082794070243,0.054363458350300785,-0.0954055167041719
1772363366355522300,9.046522216796875,-0.10090952094793319,0.044855040770769114,-0.07197576047368347
1772363366365592300,9.05659228515625,-0.051043374016880985,0.037163901746273036,-0.05386844137497246
1772363366375661300,9.066661376953125,0.04083469921350479,0.06091536421179771,-0.01586965970713645
1772363366385731300,9.0767314453125,0.07318681676387787,0.02633914087116718,-0.01646243796851486
1772363366395801300,9.08680126953125,0.02737842079102993,0.004300912064313888,-0.0005047346517443657
1772363366405870000,9.0968701171875,-0.03405307624936103,-0.02519406248927116,-0.024341464247927068
1772363366415940400,9.1069404296875,-0.044670331853628155,0.014057166925072669,-0.020761706065014002
1772363366426009000,9.117009033203125,-0.015735329270362853,0.08086626535058021,-0.005168488679081202
1772363366436079400,9.127079345703125,-0.03245733149051666,0.10210486821234226,-0.012302797538414597
1772363366446148400,9.1371484375,-0.030396891829371452,0.16839841833114624,0.04764741143565625
1772363366456218400,9.14721826171875,0.0022696984976530075,0.15946633933484552,0.10253474752958863
1772363366466287400,9.157287353515626,-0.044802433800697324,0.014070610928535461,0.022546653253026305
1772363366476357000,9.167357177734376,-0.12549334258437156,-0.0489034393787384,-0.018576763241365552
1772363366486426400,9.17742626953125,-0.058254620569944376,-0.06837737065553665,-0.03491097172033041
1772363366496496000,9.18749609375,0.01108954929113388,0.001291208854317665,0.0009080182230100035
1772363366506565400,9.1975654296875,-0.007180266892910003,0.054524201869964595,-0.010571334103308617
1772363366516635100,9.20763525390625,-0.06622983723282813,0.08957330341935157,-0.01619253498595208
1772363366526704400,9.217704345703124,-0.09482757068574428,0.07542202847003936,0.005571954913437366
1772363366536774400,9.2277744140625,-0.11139350556135177,0.03286006707251072,0.012816665344685315
1772363366546843400,9.237843505859376,-0.059224926906824106,-0.019719430470466613,0.0020303367838263513
1772363366556913400,9.247913330078125,0.06348375339508057,-0.002837269252538681,-0.0005678995484486222
1772363366566982100,9.257982177734375,0.14301847788095473,0.025222704061865806,0.0020859759612008926
1772363366577052400,9.268052490234375,0.12608254064917562,0.06835574334561824,0.0031601810639724135
1772363366587122200,9.2781220703125,0.015375263786315917,0.05454875178933143,-0.04043134257700294
1772363366597191400,9.28819140625,-0.09444996954500674,-0.002679448342323303,-0.07536087286733091
1772363366607262500,9.298262451171874,-0.0877203690290451,-0.02961830867230892,-0.07393047473803162
1772363366617331500,9.30833154296875,-0.006550736817717551,0.010039163455367088,-0.015453881980478763
1772363366627401500,9.3184013671875,0.07771335427761078,0.07989011379480361,0.04896525256857276
1772363366637470500,9.328470458984375,0.09017068479061126,0.05851648637652397,0.019968144534528255
1772363366647540200,9.338540283203125,0.0020259528696537016,0.013569675669074058,-0.04699095682092011
1772363366657609500,9.348609375,-0.09238836084008216,-0.01224982524216175,-0.08152520418334752
1772363366667679200,9.35867919921875,-0.10769582008719443,-0.03296878814399242,-0.08931498127672821
1772363366677748500,9.36874853515625,-0.11652677679657936,-0.03943827641904354,-0.10021204020306468
1772363366687818500,9.378818603515626,-0.082239307269454,0.034438276174664495,-0.034321298731490965
1772363366697887500,9.388887451171875,-0.0015793781459331512,0.113953711438179,0.028475093453936277
1772363366707957500,9.39895751953125,0.007289572486281395,0.09453589426279067,-0.014457820147834718
1772363366718026500,9.409026611328125,0.00903261676132679,0.0752899265229702,-0.009021364714950323
1772363366728096500,9.419096435546875,0.05400865356326103,0.017174422162771225,-0.032943397974409164
1772363366738165500,9.42916552734375,0.07375847917199134,-0.00532908606827259,-0.04426719441283494
1772363366748235500,9.439235595703124,0.04513327319025993,0.003328267639875412,-0.05023366506919265
1772363366758305300,9.44930517578125,-0.013581950628757476,0.017553776869177817,-0.021468941018916665
1772363366768374500,9.45937451171875,-0.059896542558073994,0.038678397962450976,0.03900346519835293
1772363366778444500,9.469444580078125,-0.07137596794962883,0.05982873801887035,0.10749185848031192
1772363366788513500,9.479513427734375,-0.07622633059024811,0.07389175016283989,0.13677454199008643
1772363366798583600,9.48958349609375,-0.015755203014612196,0.1013578492373228,0.13089454404078424
1772363366808652300,9.49965234375,0.03499415649175644,0.037494741135835646,0.04710797079671174
1772363366818722600,9.50972265625,0.023925065466761587,0.021130466312170026,0.000951565103791654
1772363366828791300,9.519791259765626,-0.015680384212732313,0.033435821133852,0.031883477125316854
1772363366838861600,9.529861572265625,-0.12552782937586307,0.011265490379929542,0.017311930937319992
1772363366848930300,9.539930419921875,-0.231232767906785,0.032461423143744464,0.0228294887823984
1772363366859000300,9.550000244140625,-0.22019524106383323,0.06836041952073574,0.03425126570258289
1772363366869069300,9.5600693359375,-0.110490419241786,0.10027823730707168,0.03109532242231071
1772363366879139300,9.570139404296874,-0.04667816454470158,0.07983926039040089,0.015063129097223281
1772363366889208300,9.580208251953126,-0.07926058371961116,0.030350130078196525,0.00286251329164952
1772363366899278300,9.5902783203125,-0.06749240451455116,0.016706220129132268,-0.008735570043511689
1772363366909348600,9.6003486328125,0.029430677145719526,0.093410689625144,0.034854528825357556
1772363366919417300,9.610417236328125,0.07214636780023574,0.13013444638848304,0.02084996887035668
1772363366929487400,9.6204873046875,-0.013162848433852195,0.11723813993632792,-0.0032169162198901176
1772363366939556400,9.630556396484375,-0.1332739134579897,0.060248424735665315,-0.04426697521712631
1772363366949626400,9.64062646484375,-0.12542086187005042,-0.016079028141498565,-0.06973992771301418
1772363366959695400,9.6506953125,-0.04060907376408577,-0.019042554122209548,-0.08579371181540191
1772363366969765400,9.660765380859376,0.08037877409458159,0.012126491123437881,-0.08964826835170388
1772363366979834400,9.67083447265625,0.11931143907904625,0.05470832626521587,-0.061974335212819275
1772363366989904400,9.680904296875,0.08220072882473468,0.14908406153023243,0.011255334312096238
1772363366999973400,9.690973388671875,0.03896539821028709,0.08400748598575591,-0.002266885486058891
1772363367010043400,9.70104345703125,-0.06765022542476654,-0.060416767039895056,-0.08532762867361307
1772363367020112600,9.711112548828124,-0.14615151520967481,-0.11015373463332652,-0.06375573873687534
1772363367030182400,9.721182373046876,-0.07707447185218334,-0.12335282342433929,-0.03145242876429111
1772363367040251400,9.73125146484375,-0.015177695387601851,-0.11700550022423267,-0.04576254753712564
1772363367050321400,9.7413212890625,0.010852817925810812,-0.02232464453279972,-0.011289565375261008
1772363367060390400,9.751390380859375,0.07232055532336235,0.04378653475642204,-0.009894457755051553
1772363367070460400,9.76146044921875,-0.07537760480642318,0.09065876056849956,0.0004820113632827997
1772363367080530400,9.771530517578125,-0.21631752284765243,0.14195172543227672,0.04805248510520905
1772363367090599400,9.781599365234374,-0.16297230162918566,0.23531799139380455,0.08111713483911007
1772363367100669400,9.79166943359375,-0.024833412483334538,0.20908347994089124,0.017837708377093076
1772363367110738400,9.801738525390626,-0.02114391031563282,0.13241758888959884,-0.061623439415916796
1772363367120808400,9.811808349609375,0.057851300466060636,0.07663374234735966,-0.07092252509370446
1772363367130877400,9.82187744140625,0.08723638490438461,0.004437690186500549,-0.04509904212709516
1772363367140947500,9.831947509765625,0.034711832419037816,-0.03723053724169731,-0.012451923685520887
1772363367151016400,9.842016357421874,-0.0144523037225008,-0.02751519891321659,-0.014567162273824215
1772363367161086200,9.852086181640624,-0.00039279870986938477,0.04241699996888637,0.0180160971513018
1772363367171155500,9.862155517578126,0.18785949012637138,0.09587854104340075,0.02361150600556284
1772363367181225200,9.87222509765625,0.42507074792087074,0.06684709234833718,-0.10251892890594899
1772363367191294500,9.88229443359375,0.5080722717344761,0.07710954316556454,-0.1531985841769725
1772363367201364500,9.892364501953125,-0.1662906323969364,-0.10342705672681331,-0.06176598969176411
1772363367211433500,9.90243359375,-0.5164671751141547,-0.060977323532104485,0.005784465152956545
1772363367221503500,9.91250341796875,-0.2955763530015945,0.03079261314868927,0.0605426219092682
1772363367231572500,9.922572509765626,-0.38059038568139075,-0.24234628259539603,-0.006792290488630533
1772363367241642500,9.932642578125,-0.4027519486069679,0.08470774320960045,0.18117453246973453
1772363367251712300,9.942712158203125,-0.06242986042797565,0.3459159626632929,0.2256882124569267
1772363367261781500,9.952781494140625,-0.031790392014384265,0.2101496478676796,0.06748714381754398
1772363367271851300,9.962851318359375,-0.3907540522992611,0.025595629027485845,0.02298595798574388
1772363367281920500,9.97292041015625,-0.5582365248292684,-0.12140636553168296,-0.00044577100612223144
1772363367291990500,9.982990478515624,-0.27419454227685924,0.003839139771461487,0.06053301383070647
1772363367302059500,9.9930595703125,0.1975397571414709,0.2895785738915205,0.14089140272438525
1772363367312129500,10.003129638671876,0.46964229557514187,0.3521060494750738,0.09472140689752995
1772363367322198300,10.0131982421875,0.3871721021592617,0.1956879917949438,0.08096190774478018
1772363367332268500,10.0232685546875,0.07547931161522865,0.13615502185225486,0.11890643847472965
1772363367342337300,10.033337158203125,-0.1226981589078903,0.05801730468273163,0.02093713569715619
1772363367352407600,10.043407470703125,-0.010108137038350104,0.009988894572854042,-0.0652817427277565
1772363367362476300,10.053476318359374,0.16905425189137457,-0.1672048246324062,-0.1899437490545213
1772363367372546600,10.063546630859374,0.2538163556367159,-0.2197948435693979,-0.21397724333181975
1772363367382615300,10.073615234375,0.12154606626331806,-0.4339169021993875,-0.22853549164682627
1772363367392685300,10.083685302734375,-0.026225159102678298,-0.49869127992689605,-0.24663638100475072
1772363367402755600,10.093755615234375,0.14152034827768803,-0.08790273985862732,-0.07270283263921737
1772363367412824300,10.10382421875,0.35075171225666996,0.16793664603829384,-0.010238850745931267
1772363367422894600,10.11389453125,0.28049861085712907,0.22253215957880018,-0.049969022783637046
1772363367432963300,10.12396337890625,0.0017360300123691558,0.19156418986320495,-0.09692001292034982
1772363367443033300,10.134033447265624,-0.1712105531424284,0.13444237271547316,-0.07984086782559752
1772363367453102300,10.144102294921876,-0.14662147080898283,0.0376449632614851,-0.05211261068359017
1772363367463172400,10.15417236328125,-0.05073825359046459,-0.0404465766787529,-0.050440366622433064
1772363367473241300,10.164241455078125,0.034575638818740845,0.021554829204082488,-0.01936316437870264
1772363367483311400,10.174311279296875,0.07067687976956367,0.02904138556718826,-0.01683583785817027
1772363367493380400,10.18438037109375,-0.03358019804060459,0.047478375011682505,-0.0014771598804742096
1772363367503450400,10.194450439453124,-0.047936055651307104,0.12163549811244011,0.10110628562904894
1772363367513519600,10.20451953125,-0.06026069969534874,0.06870996361076831,0.09558321135863661
1772363367523589400,10.21458935546875,-0.22016016975045202,0.017203648257255552,0.03136420249156654
1772363367533658600,10.22465869140625,-0.2509995446503162,0.01255786827802658,0.039490006606280804
1772363367543728400,10.234728271484375,-0.10609598367512225,0.017452070060372353,0.04434073457308113
1772363367553798400,10.24479833984375,-0.012175590962171554,-0.015531331130862235,0.002671630362048745
1772363367563867400,10.254867431640625,-0.09747720841169356,-0.035413843208551406,-0.049983562765642996
1772363367573937400,10.2649375,-0.19822072514295577,0.02489011110663414,-0.0277778684373945
1772363367584006400,10.27500634765625,-0.2120528511404991,0.024923428854346275,-0.009868336933106183
1772363367594076400,10.285076416015626,-0.12996493504047393,0.07721241901814938,0.026501053434610365
1772363367604145000,10.295144775390625,-0.043161096334457395,0.15613105743229388,0.09291640330217778
1772363367614214700,10.305214599609375,-0.09287351400852203,0.1189607259452343,0.034532165003195406
1772363367624284000,10.315283935546875,-0.0979722984522581,0.0917810425966978,-0.017126783628761768
1772363367634353700,10.325353759765624,-0.11656710880696773,0.034358196675777435,-0.027090616825595496
1772363367644422700,10.335422607421876,-0.22466975612938403,-0.012314707171916961,-0.03361789970248937
1772363367654492700,10.34549267578125,-0.16739888589978216,0.03148351802229881,-0.048518604779616
1772363367664561700,10.355561767578125,0.03423544707894325,0.06431494352221488,-0.04333221511766314
1772363367674631700,10.365631591796875,0.27257424759864807,0.17521628165245054,0.11677899799197912
1772363367684700700,10.37570068359375,0.3586474339425564,0.19970716430842875,0.14278715334311126
1772363367694770700,10.385770751953125,0.15867197408676145,0.1498258198082447,-0.012301701559871434
1772363367704840700,10.3958408203125,-0.09285305574238299,0.09990414329767226,-0.06978248821310698
1772363367714909700,10.40590966796875,-0.11558452751040459,-0.011754735201597213,-0.09696582482345402
1772363367724979700,10.415979736328126,-0.049994157224893566,-0.09970423681139945,-0.11805632445141673
1772363367735048700,10.426048583984375,-0.01973696612715721,-0.06394084951281548,-0.06342807768508792
1772363367745118700,10.43611865234375,-0.04386953686475754,-0.035470541831851006,-0.02392090074829757
1772363367755187700,10.446187744140625,-0.0871621506243944,-0.012481880432367323,0.007863865242898463
1772363367765257500,10.456257568359375,-0.026063246539235113,0.008443418696522712,0.01476926071718335
1772363367775326700,10.46632666015625,0.05932897180318832,0.06513911938667297,0.016504413946717977
1772363367785396700,10.476396728515626,0.022621581652760504,0.06734919665157794,-0.03132160545885563
1772363367795465700,10.4864658203125,-0.17937281681001185,0.08372223930358887,-0.03513780274614692
1772363367805535700,10.49653564453125,-0.28850363813638685,0.05986322481036186,0.011546207017451524
1772363367815604700,10.506604736328125,-0.25827041243612764,0.0682657269746065,0.012103767834976315
1772363367825674800,10.5166748046875,0.6885942585796118,0.44863516338169573,-0.09689904319755732
1772363367835743700,10.52674365234375,1.074983685928583,0.33608664256632326,-0.2773066098827869
1772363367845813800,10.536813720703124,0.05526888275742531,-0.34366789147555826,-0.25185711132772265
1772363367855883500,10.546883544921876,-0.277943665677309,-0.34209260498285293,-0.15678754857964813
1772363367865952800,10.556952880859376,-0.48478901130259033,-0.33448739067614075,0.0952300140067935
1772363367876022800,10.567022705078125,-0.7391618317782879,-0.39801206060349936,0.2613808726068586
1772363367886091800,10.577091796875,-0.5849444990128279,-0.17317220860421656,0.2699748056899756
1772363367896161800,10.587161865234375,-0.39228433060646056,0.07789864771664143,0.23221074609346687
1772363367906230800,10.597230712890624,-0.30514380729198454,0.2159562883198261,0.2934275774698704
1772363367916300800,10.60730078125,-0.1828910540640354,0.2690817293077707,0.25032646769434214
1772363367926369800,10.617369873046876,-0.06088263098597526,0.2847504230827093,0.1946248195428401
1772363367936439800,10.627439697265626,0.05603226834535598,0.29618542481064797,0.2364984333500266
1772363367946508500,10.637508544921875,0.11026304022669792,0.2837450454324484,0.23079189227148889
1772363367956578800,10.647578857421875,0.0687806907594204,0.3309685689002275,0.1810453531321138
1772363367966647600,10.6576474609375,0.06993862862288952,0.37476737861633297,0.0595016249563545
1772363367976717800,10.6677177734375,0.17092998263537884,0.17841536995470522,-0.029309900310263037
1772363367986786600,10.67778662109375,0.22326105837523935,0.021499884146451948,-0.011748816917464136
