time,seconds_elapsed,z,y,x
1772364969609874400,0.12087451171875,-0.40750703417956824,-0.06379296547472477,0.19538630543462931
1772364969619944400,0.1309443359375,-0.2344914774417877,0.0012257424026727675,0.25858862980613484
1772364969630014500,0.141014404296875,-0.04854454293847084,0.09951368267536163,0.2742467473881319
1772364969640085500,0.15108544921875,0.12084756260514258,0.2062719296514988,0.2528975237587467
1772364969650155500,0.161155517578125,0.1271077920436859,0.24637071580588815,0.2150899538140744
1772364969660225300,0.171225341796875,0.05337035565972328,0.25008885954618454,0.20604044071687383
1772364969670295600,0.181295654296875,-0.026381226447224616,0.2303179911494255,0.25667348036719484
1772364969680366600,0.19136669921875,-0.07302431967854499,0.1158364564448595,0.2555479652022943
1772364969690436600,0.2014365234375,-0.06673018797039985,0.004827566286921501,0.2748874747107737
1772364969700506400,0.21150634765625,0.015184709650278091,0.09014847295880317,0.3499478850604966
1772364969710576600,0.22157666015625,0.12083178051412105,0.025126842471957206,0.2753611749034375
1772364969720646400,0.231646484375,0.12936404653787612,-0.05832417867481708,0.2129135596230626
1772364969730717400,0.241717529296875,0.1695019956588745,-0.060933484390378,0.1804259243258275
1772364969740787500,0.251787353515625,0.044104514664411544,-0.13840718469321728,0.149626643974334
1772364969750857500,0.261857421875,-0.015790274327993393,-0.06488017618954181,0.20975323242861776
1772364969760927500,0.271927490234375,-0.1439221487224102,-0.03198737589120865,0.20688005161248146
1772364969770997500,0.28199755859375,-0.21338789913654327,0.11976035189032554,0.20078845673911272
1772364969781068500,0.292068603515625,-0.19407412685751912,0.19808979223966597,0.20003391204476356
1772364969791138300,0.30213818359375,-0.11254442916214466,0.177792854142189,0.1639655139176175
1772364969801208600,0.31220849609375,-0.061304655790328975,0.13374211549162865,0.16537559991125017
1772364969811278600,0.322278564453125,-0.04810264438986778,0.14022738585770128,0.21349632794708012
1772364969821349400,0.332349365234375,-0.002743161228299141,0.07266483871638775,0.2101530454011634
1772364969831419400,0.34241943359375,-0.007209492987394333,-0.1273608900219202,0.12898401597803458
1772364969841489700,0.35248974609375,0.04783376432061195,-0.0872194337695837,0.14829035386927425
1772364969851559400,0.362559326171875,0.028575521621108053,-0.08291033839881419,0.1794642944857478
1772364969861629400,0.37262939453125,0.0245475812792778,0.012971709775924682,0.2059544794664718
1772364969871700500,0.382700439453125,0.00004676175117492675,0.12996844217181205,0.21271087665781377
1772364969881770500,0.3927705078125,-0.1078501338660717,0.07811433629393577,0.1554261970985681
1772364969891840500,0.402840576171875,-0.14371113632023333,-0.01858019730746746,0.14063171974173747
1772364969901910500,0.41291064453125,-0.07033844159543513,-0.052905660757422444,0.19071973839569836
1772364969911981600,0.422981689453125,-0.04628302774727344,0.009478022441267967,0.21679836516715584
1772364969922051300,0.43305126953125,-0.07678104186356068,0.08420914603769779,0.19489698754772541
1772364969932121600,0.44312158203125,-0.06015314766764641,0.07551146031916141,0.16911432978184893
1772364969942191600,0.453191650390625,-0.08125555692911147,0.050882630497217175,0.13680228851353748
1772364969952261400,0.463261474609375,0.0563584315598011,0.08450432959198952,0.11359034888534807
1772364969962332400,0.47333251953125,0.11387070932984351,0.04483750511407852,0.10005736109800636
1772364969972402700,0.483402587890625,0.15928338398337363,-0.009207388806343078,0.09206017919848672
1772364969982472400,0.493472412109375,0.20579963596463202,-0.07441314368844032,0.1160974272022955
1772364969992542500,0.50354248046875,0.2277940256297588,-0.038186230531334873,0.1501184917450417
1772364970002612500,0.513612548828125,0.22671733630895613,0.04204465952515602,0.1639186243022792
1772364970012683300,0.523683349609375,0.2154723041951656,0.06381108565330505,0.1646346088182181
1772364970022753500,0.53375341796875,0.18805588948130605,0.045237902608513826,0.14880876998649908
1772364970032823600,0.543823486328125,0.10487900910079478,-0.00878770208954811,0.16581863097101449
1772364970042893300,0.553893310546875,0.017845453292131424,0.08196633554697036,0.25242424369119104
1772364970052964400,0.56396435546875,0.03073766809105873,0.29641280382573604,0.2772123191954568
1772364970063034600,0.57403466796875,-0.09496025715470313,0.1061596965610981,0.1423012055902276
1772364970073104400,0.5841044921875,-0.12508885343670845,0.12240122178792953,0.21303660148084164
1772364970083174400,0.59417431640625,-0.15534487549066542,0.07060673714280129,0.20615807574717326
1772364970093244700,0.60424462890625,-0.1878448770791292,0.005084171396493912,0.18438651678618043
1772364970103315700,0.614315673828125,-0.07479191387295722,0.06477320868372917,0.21086192432288078
1772364970113385500,0.624385498046875,-0.10628244615793228,-0.07208616204559802,0.1813801745770499
1772364970123455500,0.63445556640625,-0.06380524043440819,-0.036330958053469656,0.2236907550293952
1772364970133525500,0.644525390625,0.027844284737110137,0.023761399337649345,0.23523126295842228
1772364970143596300,0.65459619140625,0.10181845248639583,0.03818213887810707,0.20781159684155134
1772364970153666600,0.66466650390625,0.13240356036424636,0.028975919115543362,0.206301466273237
1772364970163736600,0.674736572265625,0.0723614718556404,0.001665302863717079,0.1790808846587315
1772364970173806300,0.684806396484375,-0.04914484691917896,-0.007572481080889701,0.13143481579679064
1772364970183876600,0.694876708984375,-0.13701251546442508,-0.011741875720024109,0.12012851848243734
1772364970193947600,0.70494775390625,-0.1276829615831375,-0.011077858853340148,0.11540148082738741
1772364970204017400,0.715017333984375,-0.0838473269879818,0.02922317187488079,0.12702229658416472
1772364970214087400,0.72508740234375,-0.05121463893055916,0.06669862378835678,0.14845876010558567
1772364970224157700,0.73515771484375,-0.02233107427358627,0.10229483782649039,0.15901351753342896
1772364970234227500,0.7452275390625,0.05287292753159999,0.10879062958657741,0.16693406313331796
1772364970244298500,0.755298583984375,0.11531973909437655,0.050474049696326254,0.15390797455534339
1772364970254368500,0.765368408203125,0.1438654500991106,-0.01146948851943016,0.1452452962181065
1772364970264438300,0.775438232421875,0.14651801043450832,-0.030700258690118786,0.136620346942218
1772364970274508500,0.785508544921875,0.10773439853191374,-0.028207857352495192,0.14592830091305076
1772364970284578600,0.79557861328125,-0.0002829085946083069,0.0022901567637920377,0.231781743559055
1772364970294649600,0.805649658203125,-0.13336159174144266,-0.01414952138364315,0.2661775870977901
1772364970304719400,0.81571923828125,-0.16585750167667865,-0.024586159723997116,0.25105832563284786
1772364970314789600,0.82578955078125,-0.09110942694544792,-0.03087619977891445,0.24597453782884401
1772364970324859400,0.835859375,-0.06909633257985115,-0.013590718457102774,0.26913009849414227
1772364970334933800,0.845933837890625,-0.06514028843045234,0.046262569481134413,0.2998627981491387
1772364970345003500,0.85600341796875,-0.04690086738467216,0.10768939034640788,0.3212465816352516
1772364970355073800,0.86607373046875,-0.08957096533179283,0.14949965659379957,0.30611816874947395
1772364970365143800,0.876143798828125,-0.13247662560045717,0.14549275903999806,0.2576988230932504
1772364970375213600,0.886213623046875,-0.15667758539915083,0.06987082408368588,0.197871802107431
1772364970385284600,0.89628466796875,-0.1372948395371437,-0.00047872342765331263,0.1656066687207669
1772364970395354600,0.906354736328125,-0.08267419155538082,-0.03440028225183487,0.20671569136362522
1772364970405424600,0.916424560546875,-0.022892215287685393,-0.0007400047123432159,0.25578330832812934
1772364970415494700,0.92649462890625,0.0028629882156848904,0.06083703827857971,0.23952682299418374
1772364970425564700,0.936564697265625,-0.004338321465253829,0.08169102573692798,0.19787909036474302
1772364970435635700,0.9466357421875,-0.032653730845451354,0.08236673304140567,0.18809225770263
1772364970445705700,0.956705810546875,-0.0946744259506464,0.04401566733717918,0.18806056565642357
1772364970455775700,0.966775634765625,-0.08877776912748814,0.05419160891473293,0.19517576795648783
1772364970465845500,0.976845458984375,0.031602760487794875,0.10821955170035362,0.22337788968794048
1772364970475916500,0.98691650390625,0.11770868005752563,0.11688508871495723,0.22984728663144632
1772364970485986800,0.99698681640625,0.10568155765533446,0.0991314053595066,0.23197982341442255
1772364970496056800,1.007056884765625,0.012834347131848334,0.059932198393344877,0.23391090107485651
1772364970506126600,1.017126708984375,-0.01850479398369789,0.006350245809555053,0.20981988619035108
1772364970516196600,1.027196533203125,0.0051630818516016,-0.04182020311951637,0.20058274156656114
1772364970526267600,1.037267578125,0.04632920497655868,-0.06441957294046878,0.2066564902559854
1772364970536337700,1.047337646484375,0.08778700452446937,-0.0715425566881895,0.24134949011038986
1772364970546407700,1.05740771484375,0.09599719898700713,-0.025002339309453964,0.2729162659693509
1772364970556477700,1.067477783203125,0.05832359415292739,0.04663140279352665,0.24628064463594926
1772364970566547700,1.077547607421875,0.009985387441515921,0.1147387243360281,0.196317777598463
1772364970576618800,1.08761865234375,0.005067804783582687,0.11138064607977867,0.1685000520747155
1772364970586688800,1.097688720703125,0.019859131202101706,0.08092179493010043,0.1796610774331726
1772364970596758500,1.107758544921875,0.07093523844480513,0.03434767528176307,0.19136895955204963
1772364970606828800,1.117828857421875,0.10055763877034186,0.05867839893996715,0.23014462561020627
1772364970616898800,1.12789892578125,0.07984685917496681,0.07839724488854408,0.23143651031795887
1772364970626969900,1.137969970703125,0.04446458014845848,0.07357669286429881,0.20664025150723755
1772364970637039600,1.14803955078125,0.0241162041246891,0.060924716562032695,0.23710578812602906
1772364970647109600,1.158109619140625,0.018742109870910642,0.07520517084896564,0.2767675345700234
1772364970657179600,1.1681796875,-0.03608721242547035,0.06764905638098716,0.2938951584490016
1772364970667250700,1.178250732421875,-0.08194003206193447,0.061350833019614213,0.29236601265296336
1772364970677320700,1.18832080078125,-0.07468085471391678,0.03880991538763046,0.29379036463396624
1772364970687390700,1.198390625,-0.08666764510571956,0.008550970724225044,0.2992066723279655
1772364970697460700,1.208460693359375,-0.11793489002883434,0.01663432393670082,0.32910204437598584
1772364970707530800,1.21853076171875,-0.1362491298764944,0.02566518713235855,0.3158924341909587
1772364970717601800,1.228601806640625,-0.10628186163604258,0.05586334151923656,0.31676099718641487
1772364970727671600,1.238671630859375,-0.09022387628257274,0.09128244542479515,0.3148512180423364
1772364970737741800,1.248741943359375,-0.05089315189123153,0.11704524771273135,0.3050121254700236
1772364970747811800,1.258811767578125,0.0034060090512037277,0.0988525884181261,0.2711839257514104
1772364970757881600,1.268881591796875,0.03447393200993538,0.006771686092019081,0.2083473111534491
1772364970767952600,1.27895263671875,0.05316577299833297,-0.05081482595801353,0.18401125373300165
1772364970778022700,1.289022705078125,0.08707622590661049,-0.04923369424641132,0.1470650315917097
1772364970788092700,1.2990927734375,0.0994143139541149,-0.050469958043098444,0.10679751040744595
1772364970798162700,1.30916259765625,0.029002807122468947,-0.015288170024752615,0.11826081578126177
1772364970808232700,1.319232666015625,-0.040375265008211134,0.022089082211256026,0.09263071822859346
1772364970818303500,1.329303466796875,-0.10520809492468833,0.041317514294385904,0.055762493226956575
1772364970828373800,1.339373779296875,-0.1040595094114542,0.07763444382250309,0.051510242609959095
1772364970838443800,1.34944384765625,-0.06289572437405586,0.08127426162958144,0.06488510809298605
1772364970848513500,1.359513427734375,0.006381809991598129,0.058519993507862085,0.09742209895728156
1772364970858583800,1.369583740234375,0.10845686758756637,-0.014044891965389251,0.09060458269584923
1772364970868654800,1.37965478515625,0.17000877613723278,-0.06571195083856582,0.09716854432132095
1772364970878724900,1.389724853515625,0.16795301265120505,-0.07415420049130916,0.12670355862434954
1772364970888794600,1.399794677734375,0.12221242121756076,-0.035948096215724944,0.16634329416593535
1772364970898864600,1.40986474609375,0.015153145468235015,0.03153320238292217,0.20666299306200817
1772364970908935700,1.419935791015625,-0.15413842231035232,0.0724532417923212,0.24508968128571285
1772364970919005700,1.430005615234375,-0.2255506306171417,0.06259235751330852,0.2636117186651565
1772364970929075700,1.44007568359375,-0.19645663807988165,0.031600422400236125,0.2720756504267454
1772364970939145700,1.450145751953125,-0.09770575647056103,0.04247311407029628,0.3070926032721996
1772364970949215700,1.4602158203125,0.015014029258489608,0.07042962701022625,0.3057103368672542
1772364970959286800,1.470286865234375,0.05330547372996807,0.11358663169145583,0.2892832259404473
1772364970969356800,1.480356689453125,-0.008867197066545486,0.1341366677671671,0.2721808278342709
1772364970979426600,1.490426513671875,-0.1421101308643818,0.09705226099789142,0.21958291785176842
1772364970989496800,1.500496826171875,-0.19148060323297977,0.03156710465252399,0.17733055212637408
1772364970999566800,1.51056689453125,-0.1303372754842043,0.025751696372032163,0.19317124146735296
1772364971009637600,1.5206376953125,-0.031027006426453587,0.046508068674802776,0.1933176459344104
1772364971019707600,1.530707763671875,0.062355626147985455,0.04398293411135673,0.17384212548872455
1772364971029777700,1.540777587890625,0.1267500646471977,0.021280103915929792,0.17658561551058663
1772364971039847700,1.55084765625,0.12566285393238066,0.012994506129622458,0.1806020115450956
1772364971049917700,1.560917724609375,0.0675648852288723,-0.07252922963798046,0.15651099666059015
1772364971059988700,1.57098876953125,0.04045183737576007,-0.01142681842148304,0.1750163568998687
1772364971070058500,1.58105859375,0.013539865052700042,0.016654197680950163,0.20012263150783255
1772364971080128800,1.591128662109375,0.026022330006957053,0.04864858783483505,0.18149333436163143
1772364971090198800,1.60119873046875,0.047317631492018696,0.048341713842749594,0.16733413183419032
1772364971100268500,1.6112685546875,0.038825697478652,0.02482347561120987,0.18237609027922153
1772364971110339600,1.621339599609375,-0.037809798434376714,-0.01956102503836155,0.21007968790400772
1772364971120409600,1.63140966796875,-0.0793202049523592,0.002599368843436241,0.22265059832669792
1772364971130479900,1.64147998046875,-0.06351531757712364,0.04967500827312469,0.2164694254737347
1772364971140549600,1.651549560546875,-0.005306289714574814,0.06282032105028629,0.20676102834269403
1772364971150619600,1.66161962890625,0.050264790859818456,0.0333271000623703,0.1866909943362698
1772364971160690700,1.671690673828125,0.021350246542692183,-0.03913023338317871,0.16033819026593119
1772364971170760700,1.6817607421875,0.003426467317342758,-0.1033183356553316,0.14112551287435926
1772364971180830700,1.691830810546875,0.023059388548135756,-0.13654723604023455,0.15759164977045728
1772364971190900700,1.701900634765625,0.07184884615838527,-0.1462093828767538,0.15052362934667615
1772364971200970800,1.711970703125,0.1538297947525978,-0.08810439991056919,0.1610853005724959
1772364971211041800,1.722041748046875,0.09415127885937691,-0.1224725334584713,0.23132157870139924
1772364971221111800,1.73211181640625,0.051363107490539545,-0.05082710091769695,0.17591575342500582
1772364971231181600,1.742181640625,0.2055956378251314,0.04109247336685657,0.024293012863164765
1772364971241251600,1.75225146484375,0.2611135269075632,0.02162672539651394,0.19434823109116403
1772364971251321900,1.76232177734375,0.08778758904635905,0.046209962511062616,0.3046284416483715
1772364971261392600,1.772392578125,0.015807225462794304,0.018842647635936734,0.27233559827087445
1772364971271462700,1.782462646484375,0.01218143618106842,0.007111877831816673,0.2587792204747908
1772364971281532700,1.79253271484375,0.007230535775423049,0.045184126594662664,0.28257483260929583
1772364971291602700,1.802602783203125,-0.036382395979762075,0.07293897948265075,0.3005288973750546
1772364971301672700,1.812672607421875,-0.035575171250104905,0.10865443598628044,0.3003097199327312
1772364971311743700,1.82274365234375,-0.049347676014900206,0.1012970589607954,0.26702892496380953
1772364971321813800,1.832813720703125,-0.06833762316703795,0.08728782283067703,0.24535918240947646
1772364971331883800,1.8428837890625,-0.016498130336403845,0.040520810958743096,0.24678609167374668
1772364971341953800,1.852953857421875,-0.13587152873575686,-0.03655775254666805,0.23477343618832527
1772364971352023600,1.8630234375,-0.10146130961179732,-0.0408037195533514,0.232723371790722
1772364971362094600,1.873094482421875,0.07827391076982021,-0.015538345393538475,0.24841822292022406
1772364971372164600,1.88316455078125,0.14462532855570315,0.0000637128859758377,0.24180992896268144
1772364971382235000,1.89323486328125,0.11778174529373645,-0.015191139391064644,0.22918697782550007
1772364971392304600,1.9033046875,0.09957096582055092,-0.06652034461200237,0.19402363877929746
1772364971402374700,1.913374755859375,0.11024024387300013,-0.08980185147821902,0.197085784562584
1772364971412445700,1.92344580078125,0.11992167993187904,-0.07077215683758259,0.21862077655503526
1772364971422515700,1.933515625,0.041697453522682185,-0.0433177482008934,0.22177399815525858
1772364971432585700,1.943585693359375,-0.04584989702701568,-0.0008574936121702193,0.21173593067843466
1772364971442655700,1.95365576171875,-0.08410919279456137,0.030747604963183402,0.19249210009677334
1772364971452725800,1.963725830078125,-0.13423895909786224,0.0881739580154419,0.18493366580754517
1772364971462796800,1.973796875,-0.15887772579193113,0.13284955056607722,0.2026500128272921
1772364971472866800,1.98386669921875,-0.10651391682624817,0.13278583768010138,0.2036965627381578
1772364971482936600,1.9939365234375,0.01639466996192932,0.06550269200205802,0.19835702834110705
1772364971493006600,2.004006591796875,0.15396832644045352,0.016490531551837922,0.2208026689050719
1772364971503076900,2.014076904296875,0.2314203994333744,-0.028737434184551238,0.2365597716158256
1772364971513147600,2.024147705078125,0.19962007054686545,-0.043344051685929294,0.22715233019273726
1772364971523217700,2.0342177734375,0.1301578272640705,-0.051770519247651095,0.216643503399007
1772364971533287700,2.04428759765625,0.07177168926894664,-0.04787000467777252,0.21582444210108367
1772364971543357700,2.054357666015625,0.004191021949052811,-0.06433014109134674,0.25018669389747084
1772364971553427700,2.064427734375,-0.03172375651896,-0.057121232625842094,0.26157628558110446
1772364971563498800,2.074498779296875,-0.005654664760828018,0.0034171149671077725,0.24845921251773834
1772364971573568800,2.08456884765625,0.06077975513339042,0.03718436001241207,0.23891073692245407
1772364971583638800,2.094638671875,0.0708019674539566,0.06348083078563213,0.23644889511987566
1772364971593708800,2.104708740234375,0.036384149545431135,0.0639484482973814,0.23316828428031874
1772364971603778600,2.114778564453125,-0.015344868648052215,0.06173135676980018,0.22643775218259543
1772364971613849600,2.124849609375,-0.05308393993377685,0.03199731276333332,0.20367935587503014
1772364971623919600,2.134919677734375,-0.02930500493943691,0.004940963533520699,0.1661751162584871
1772364971633990000,2.144989990234375,0.06345920347571372,0.01615852311849594,0.1590360946914181
1772364971644059600,2.1550595703125,0.12625497460663318,0.006063830083608627,0.15801175661236047
1772364971654129700,2.165129638671875,0.10721300500631331,-0.005289923101663589,0.1684016332015395
1772364971664200700,2.17520068359375,0.07461597278416156,-0.004161795854568481,0.16251367114149032
1772364971674270700,2.185270751953125,0.048505964493751524,-0.033901100558042525,0.14609270682767964
1772364971684340700,2.1953408203125,0.009459317740797996,-0.033272739526629444,0.14809914214611053
1772364971694410800,2.20541064453125,-0.03326514074206352,-0.003514145600795746,0.17668997093420474
1772364971704480800,2.215480712890625,-0.03728080612421036,0.0518400773525238,0.17979599239183588
1772364971714551800,2.2255517578125,-0.012718027275800705,0.08311375201642512,0.15936896164128556
1772364971724621800,2.235621826171875,0.025265958681702613,0.08441723583042621,0.1626640393976122
1772364971734691600,2.245691650390625,-0.014471008422970772,0.040400399449467654,0.16694252043440938
1772364971744761600,2.25576171875,-0.034982466053962706,-0.005953939968347549,0.14923516957187094
1772364971754832000,2.265831787109375,0.022412907338142395,-0.07962415633499621,0.1538404622770846
1772364971764902700,2.275902587890625,-0.13775778087377546,-0.14094634778201579,0.12997073459359818
1772364971774972700,2.28597265625,-0.12995558269023894,-0.1107955396682024,0.1305716322293505
1772364971785042700,2.296042724609375,0.05313128620684147,-0.05940320608317852,0.17332926232945173
1772364971795112700,2.30611279296875,0.12936813819110393,-0.02710603359043598,0.18540953969098625
1772364971805182700,2.3161826171875,0.07493570625782013,0.024803017345070837,0.172716610323824
1772364971815253800,2.326253662109375,0.029675591817498206,0.025940496942400932,0.157818206801638
1772364971825323800,2.33632373046875,-0.0010568155765533446,-0.015389292311668395,0.11607169910599477
1772364971835393800,2.346393798828125,0.03293196326494217,-0.058195583859086034,0.10496975612416863
1772364971845463800,2.3564638671875,0.11566285344362258,-0.04296703506708145,0.14538770949663593
1772364971855533600,2.366533447265625,0.14463351186215875,0.0224082311630249,0.18932163510080427
1772364971865604600,2.3766044921875,0.1410714354664087,0.07226619478762149,0.20026425020191818
1772364971875674600,2.386674560546875,0.11366028144955634,0.09702888012230396,0.22088187162112444
1772364971885745000,2.396744873046875,0.09340309084057807,0.08044774767756462,0.24476057719551025
1772364971895814700,2.406814697265625,0.03745966982245445,0.053579614496231075,0.24180903391353784
1772364971905884700,2.416884765625,-0.03842413094043731,0.04335515760183334,0.23247951656486837
1772364971915955700,2.426955810546875,-0.05006897602677345,0.06304594649970531,0.22506644556308164
1772364971926025700,2.437025634765625,-0.05864800380170345,0.0433048887193203,0.22605969438413157
1772364971936095700,2.447095703125,-0.07029927862882614,0.0181079036206007,0.2420760873518884
1772364971946165800,2.457165771484375,-0.11321370672583579,0.034676176583766934,0.2601089529749006
1772364971956235500,2.467235595703125,-0.10926935301423073,0.060164838105440134,0.25443625936703756
1772364971966306600,2.477306640625,-0.08737900824546814,0.028140637335181233,0.23058287089699878
1772364971976376800,2.487376953125,-0.07664660182893276,-0.01566401759982109,0.2216042493452318
1772364971986446600,2.497446533203125,-0.04979366621673107,-0.025592706418037414,0.24484971678368747
1772364971996516600,2.5075166015625,0.0001999064862728119,0.0009469254612922668,0.2567857633689418
1772364972006587000,2.5175869140625,0.04382394415736198,0.02869768669605255,0.26735899716839195
1772364972016657700,2.52765771484375,0.0748456898868084,0.08405775486826896,0.26739026908949015
1772364972026727700,2.537727783203125,0.05203530766367912,0.08214519924521446,0.2271944157687947
1772364972036797700,2.547797607421875,0.03877250598669052,0.03213701349496841,0.21028631639201192
1772364972046867700,2.55786767578125,0.08566519006490707,0.01535597456395626,0.20178519442519172
1772364972056937700,2.567937744140625,0.08298340363502502,0.020782091265916822,0.22263282520798966
1772364972067008800,2.5780087890625,0.0184258835285902,0.03162380327582359,0.2345463677004911
1772364972077078800,2.588078857421875,-0.0716080231398344,0.03000993833839893,0.20290007859822362
1772364972087148500,2.5981484375,-0.11581190652549266,0.04508066622018814,0.17674215777916832
1772364972097218800,2.60821875,-0.14766133525073527,0.0679874945551157,0.1786951550104655
1772364972107288600,2.61828857421875,-0.15497838026583194,0.09710486796796321,0.19342415678249672
1772364972117359600,2.628359619140625,-0.026435586982965466,0.0884352393001318,0.21324892905727028
1772364972127429600,2.6384296875,0.17345687076449393,0.08584054663181305,0.24749855079203842
1772364972137500000,2.6485,0.2811035910129547,0.05810907461941242,0.25051848313510416
1772364972147569700,2.658569580078125,0.22334698309302328,0.002443301498889923,0.23809465303290633
1772364972157639700,2.6686396484375,0.18485504761338234,0.15689152041077614,0.27286941288663075
1772364972167710700,2.678710693359375,0.024310265392065048,0.02025543704330921,0.20101747972201556
1772364972177780700,2.68878076171875,-0.19165420623421667,-0.23817922604382036,0.1952600121738389
1772364972187850800,2.698850830078125,-0.15471592993736266,-0.0772720402508974,0.2954127051387913
1772364972197920800,2.708920654296875,-0.267495921421051,0.005311550411581992,0.2679826637583785
1772364972207990500,2.718990478515625,-0.17602233733832834,0.05883797341585159,0.2956362847615965
1772364972218060800,2.729060791015625,-0.1220581074386835,0.15501403610110281,0.33830209012608975
1772364972228131800,2.7391318359375,-0.25831308253407476,0.10033668949604034,0.3354508288808167
1772364972238201600,2.74920166015625,-0.2619055540680885,0.034518940195441244,0.37058552635442465
1772364972248271600,2.759271728515625,-0.14372808745503424,0.09787409877479075,0.20116466964036225
1772364972258342000,2.769341796875,-0.04045125285387039,0.09259761967658996,0.17132866309676317
1772364972268411600,2.77941162109375,-0.0531949990928173,0.14448971947729586,0.28250677234176547
1772364972278482700,2.789482666015625,-0.06708207014799118,0.14513210903406143,0.2532181157489307
1772364972288552700,2.799552734375,-0.003026654344797134,0.10049451040625572,0.18380016826558856
1772364972298622700,2.809622802734375,0.050803720042109486,0.10238310063183308,0.17940843611266463
1772364972308692700,2.819692626953125,0.06499883413314819,0.09459434645175933,0.18657451008344067
1772364972318762800,2.8297626953125,0.07220774259865284,0.06472118623554707,0.17643309182999656
1772364972328833800,2.839833740234375,0.1037450366348028,0.07614215943813324,0.13696105927182362
1772364972338899700,2.849899658203125,0.14055997881293297,0.10054594833254814,0.12811601923815905
1772364972348969700,2.8599697265625,0.19023966326117514,0.17367489742934702,0.12462969322605058
1772364972359039500,2.87003955078125,0.22770634734630582,0.2116512846022844,0.13561311526158823
1772364972369109500,2.880109619140625,0.18689385996460914,0.19858663584589958,0.1475463853678666
1772364972379180500,2.8901806640625,0.10794482641220092,0.16737784311175347,0.1564866476706229
1772364972389250600,2.90025048828125,0.051312838608026504,0.06489303567111492,0.14082812822982668
1772364972399320600,2.910320556640625,0.0029062428355216977,0.05978080722391605,0.1534610710380599
1772364972409390600,2.920390625,0.08096446502804756,0.10341361272335052,0.16138494110619647
1772364972419460600,2.930460693359375,0.14704115752577782,0.12199088742136954,0.16126356148254126
1772364972429531600,2.94053173828125,0.09269815744161605,0.11834230178594589,0.15636965196114033
1772364972439601700,2.9506015625,0.011007716226577757,0.09471534248292446,0.12562579159131274
1772364972449671400,2.96067138671875,-0.04333469933569431,0.04475684109330177,0.11704130218997597
1772364972459741700,2.97074169921875,-0.0445464132130146,0.023439912298321722,0.13914364574160426
1772364972469811700,2.980811767578125,-0.0210749367326498,-0.011902034717798233,0.14939836991010233
1772364972479882800,2.9908828125,0.0387386037170887,0.17397534168064593,0.21619828038215635
1772364972489952500,3.000952392578125,0.14025836551785467,0.164527129855752,0.1488068337577395
1772364972500022500,3.0110224609375,-0.07261223174631595,-0.17008768659234047,0.09965071652587502
1772364972510092800,3.0210927734375,-0.09581716624498367,-0.0464636450111866,0.18060871528051792
1772364972520162600,3.03116259765625,0.044619478449225425,0.1342360364884138,0.15152137167975305
1772364972530233600,3.041233642578125,0.1705178947031498,0.2880699228942394,0.14086340047260745
1772364972540303600,3.0513037109375,0.0977332289993763,0.15697744512856004,0.10745432121520862
1772364972550373600,3.06137353515625,-0.08255085743665695,0.031002456507086752,0.14118760919198392
1772364972560443600,3.071443603515625,-0.20308336274325847,0.08484510585367679,0.16125784412780775
1772364972570513700,3.081513671875,-0.13220014674663544,0.10859189214408398,0.13093558843722566
1772364972580583700,3.091583740234375,-0.07591361137926578,0.09644494275450706,0.12099720020890235
1772364972590654700,3.10165478515625,-0.11033201380968093,0.02466565470099449,0.1289451818049885
1772364972600724700,3.111724853515625,-0.1748404340773821,-0.06948153250515461,0.12015015492551027
1772364972610794500,3.12179443359375,-0.09357435575425624,-0.08650748610794544,0.13845527988495304
1772364972620864500,3.131864501953125,-0.17160510541796684,-0.2751391296505928,0.11572241987744346
1772364972630934800,3.141934814453125,-0.1572808119893074,-0.2788864994853735,0.15538770998539403
1772364972641005600,3.152005615234375,0.11326748273968695,-0.1711883413106203,0.2331491046558134
1772364972651075600,3.16207568359375,0.14117080418765543,-0.19160276830792425,0.24499891599602996
1772364972661145600,3.1721455078125,0.07890753249824047,-0.0818032539397478,0.14817491079606115
1772364972671215600,3.182215576171875,0.14956629208922384,0.023902853634953498,0.16822817633077503
1772364972681285600,3.19228564453125,0.1247989305794239,-0.06310556773245335,0.18992920907251537
1772364972691356700,3.202356689453125,0.10508183819651604,-0.039404374149441715,0.1861415437599644
1772364972701426400,3.212426513671875,0.21882044557929037,-0.02053951468169689,0.08020950020859018
1772364972711496700,3.22249658203125,0.21353519865274428,-0.0425900184482336,0.10136944834357127
1772364972721566700,3.232566650390625,0.0776163236439228,-0.05843289974629878,0.14402869610311464
1772364972731636500,3.242636474609375,-0.08031155407726764,-0.027591186758875844,0.13264907782422378
1772364972741707500,3.25270751953125,0.032061610171198844,0.0056552492827177045,0.16685652265138923
1772364972751777500,3.262777587890625,0.13664660476148127,0.08179682419896125,0.16170772505346684
1772364972761847800,3.272847900390625,0.00818038384616375,0.10532792191207409,0.18140567434448748
1772364972771917600,3.28291748046875,-0.17691197965443134,0.038052959540486334,0.1865062488865107
1772364972781987600,3.292987548828125,-0.20190379756987092,-0.06310264512300491,0.2309327437805943
1772364972792057600,3.3030576171875,-0.02906710453033447,-0.07638824315369129,0.17814608802665025
1772364972802128600,3.313128662109375,0.055015784779191015,0.022875264152884482,0.15953407080881296
1772364972812198700,3.32319873046875,-0.016347323688864705,0.06378069051504134,0.24534436843283472
1772364972822268700,3.3332685546875,-0.19835633422136306,0.09696166010499,0.28506127913016827
1772364972832338700,3.343338623046875,-0.3838239607751369,0.11462766517698764,0.3111038482075557
1772364972842408700,3.35340869140625,-0.3176069830238819,0.07545359265208244,0.3227895367609337
1772364972852479700,3.363479736328125,-0.19617723661661146,0.039648119777441024,0.2832651894936338
1772364972862549500,3.373549560546875,-0.14689210444390774,0.10222118806838988,0.2294957880463451
1772364972872619500,3.38361962890625,-0.12156067931056022,0.13094342468380926,0.2638479933727532
1772364972882689800,3.393689697265625,-0.1684258908599615,0.056497547769546505,0.22542090329024939
1772364972892759600,3.403759521484375,-0.2953004586696625,0.02740238618850708,0.23495956987757236
1772364972902830600,3.41383056640625,-0.25890929486155506,0.006482932278513908,0.2957701220080256
1772364972912900600,3.423900634765625,-0.21860709508955478,-0.06880933233201503,0.29730821829549964
1772364972922970600,3.433970703125,-0.16460720935463904,-0.0056552492827177045,0.2728512927080504
1772364972933040600,3.44404052734375,-0.03177636348903179,0.008631050223112106,0.2347432602457702
1772364972943110700,3.454110595703125,0.05024900876879692,-0.016199439650774,0.18991651398772372
1772364972953181400,3.464181396484375,0.11771803240776062,-0.01631926663815975,0.1804182707423344
1772364972963251700,3.474251708984375,0.12940554759204387,-0.07793605711758136,0.18491375553067774
1772364972973321700,3.48432177734375,0.1548012701332569,-0.04077624702453613,0.22123912409357727
1772364972983391500,3.4943916015625,0.16161796441078186,0.031004210072755813,0.23057127179075032
1772364972993461500,3.50446142578125,0.152104286134243,0.09654898765087128,0.22387354598408563
1772364973003531800,3.51453173828125,0.17961188626289368,0.12218845582008361,0.19629403139669446
1772364973013602800,3.524602783203125,0.13875614426136015,0.14131868822574614,0.20425160280503332
1772364973023672600,3.534672607421875,0.0571294159322977,0.1003214919269085,0.21690259272661058
1772364973033742600,3.54474267578125,0.0965524947822094,0.09456161322593688,0.23834712995663285
1772364973043812600,3.5548125,0.09633329907357692,0.1286678809672594,0.24818251446820794
1772364973053882600,3.564882568359375,0.038942601856589314,0.15926877093613148,0.24678417371129616
1772364973063953700,3.57495361328125,0.020173603978753087,0.13617314203083514,0.2340451584463939
1772364973074023700,3.585023681640625,0.04036006743907928,0.06365794091820716,0.17428723890772088
1772364973084093700,3.59509375,0.022614567390084266,0.02395195347368717,0.13429663496869615
1772364973094163700,3.605163818359375,-0.006131634622812271,-0.002350362518429756,0.1555188072854653
1772364973104233500,3.6152333984375,-0.018317746978998184,-0.019551088166236876,0.15752589105786755
1772364973114304500,3.625304443359375,-0.06885726312696934,-0.027858313262462613,0.13507583004711196
1772364973124374500,3.63537451171875,-0.07214344519078732,0.0007043488770723343,0.14115835569803603
1772364973134444800,3.64544482421875,-0.09839023160338402,-0.03340016529858112,0.11793950227187014
1772364973144514600,3.6555146484375,-0.16466215441226958,-0.09691314478814601,0.10844687591651454
1772364973154584600,3.66558447265625,-0.1310205815732479,-0.082034140086174,0.12438650472047738
1772364973164655600,3.675655517578125,-0.05238602079749107,-0.011379472148418427,0.13802742812801153
1772364973174725600,3.6857255859375,0.004804769933223724,0.0401414562523365,0.11665148088848218
1772364973184795600,3.695795654296875,0.0013718728750944137,0.07518763519227505,0.10393762746430002
1772364973194865700,3.70586572265625,-0.04446633371412754,0.07767360678911209,0.10763850040938705
1772364973204935400,3.715935302734375,-0.036112346866726874,0.011575286981463432,0.10968181540579534
1772364973215005700,3.726005615234375,-0.022941315126419067,-0.04768003506362438,0.11741132281245663
1772364973225076700,3.73607666015625,0.004261164575815201,-0.04126081567108631,0.14755880645802244
1772364973235146500,3.746146484375,0.0021218144595623015,-0.02235562419295311,0.18901972954478113
1772364973245216500,3.756216552734375,0.00940378816127777,-0.057070963743329046,0.1852923430521041
1772364973255286800,3.766286865234375,0.00651332741677761,-0.08268120581805706,0.17604933494310826
1772364973265356500,3.7763564453125,0.02640460732281208,-0.05416588995158672,0.18884543242380022
1772364973275427600,3.786427490234375,0.03971943144798278,-0.0178898769557476,0.1960973945797421
1772364973285497600,3.79649755859375,0.06792027453780174,0.045349546289443966,0.1977214338513091
1772364973295567600,3.806567626953125,0.10686696804761886,0.0641968701004982,0.20957186624603344
1772364973305637600,3.8166376953125,0.12673486707806586,0.051120530906319614,0.23345143033694474
1772364973315707600,3.826707763671875,0.16512860288023948,0.050043841585516925,0.2619464523340575
1772364973325778700,3.83677880859375,0.22982816180586813,0.07095277410149574,0.2827130355035886
1772364973335848400,3.846848388671875,0.27103929311633107,0.05607786105275154,0.2626787486639805
1772364973345919500,3.85691943359375,0.27220775237381456,0.027391280272603034,0.23844032466541976
1772364973355989500,3.866989501953125,0.2191337493121624,0.03558043194711208,0.22288225165810435
1772364973366059500,3.8770595703125,0.1031961705803871,0.03635024727582931,0.21735537799540905
1772364973376129300,3.88712939453125,-0.02436637949347496,0.05138590384423732,0.19901320896120742
1772364973386200300,3.897200439453125,-0.09253682940006255,0.06131693075001239,0.1638462897184305
1772364973396270600,3.9072705078125,-0.14510580554902552,0.05363046790063381,0.12768623125245793
1772364973406340400,3.91734033203125,-0.17344868745803832,0.03911678937971592,0.1247037265766412
1772364973416410400,3.927410400390625,-0.12741992673277855,0.06088380002975464,0.1496921834912151
1772364973426480600,3.937480712890625,-0.0091062665194273,0.05528174223899841,0.1606585995930247
1772364973436551700,3.9475517578125,0.10158055207729338,0.04647007475197315,0.18346710038632152
1772364973446621400,3.957621337890625,0.18246318404078482,0.2643435948699713,0.34231497902926056
1772364973456691500,3.96769140625,0.1921498807966709,0.17345920885205268,0.40458661668822166
1772364973466761500,3.977761474609375,0.11546645408868789,0.0652338119328022,0.2147083158190362
1772364973476831500,3.98783154296875,-0.2947802341878414,-0.006647182929515838,0.07146743649221025
1772364973486902500,3.997902587890625,-0.539725301104784,-0.00003682487905025482,0.1674233262212947
1772364973496972500,4.00797265625,-0.28776246438026426,-0.0029138416200876235,0.31631500698458404
1772364973507042300,4.018042236328125,-0.43234161570668217,-0.14895137506127357,0.41023897989410907
1772364973517112600,4.028112548828125,-0.24030279406905172,0.06459668307304382,0.2510613578401506
1772364973527182300,4.038182373046875,0.009629998132586479,0.09849661458730698,0.2777089253396727
1772364973537252400,4.04825244140625,0.06410743825137614,-0.030476971328258513,0.3690219668321311
1772364973547323400,4.058323486328125,0.0011503390789031982,-0.13524901292324065,0.3310819296142086
1772364973557393700,4.0683935546875,-0.07082067215442657,-0.10210545273423194,0.3573121302181855
1772364973567463400,4.07846337890625,-0.1645183620274067,-0.03634089492559433,0.4317759811805561
1772364973577533400,4.088533447265625,-0.11399988866746424,0.05969429798424244,0.40375075038596986
1772364973587603500,4.098603515625,0.03274783886969089,0.08066460529863834,0.3434025916028768
1772364973597674500,4.108674560546875,0.13647241723835468,0.09388707496523857,0.3117780576746911
1772364973607744500,4.11874462890625,0.13736205955445766,0.07709259203076362,0.28827565633310004
1772364973617814500,4.128814453125,0.08778817356824874,0.043885318955779073,0.27620743473554027
1772364973627884300,4.13888427734375,0.04327507810294628,0.021136311531066893,0.3022913039376959
1772364973637954600,4.14895458984375,0.03405775242447853,0.058629883623123165,0.33634310154542324
1772364973648025600,4.159025634765625,0.05404840105175972,0.08134440425634383,0.3179060755683109
1772364973658095400,4.169095458984375,0.06470715771019458,0.10216039779186248,0.2927027703266591
1772364973668165400,4.179165283203125,0.08156769161820411,0.10566869817376136,0.29657013154560696
1772364973678235600,4.189235595703125,0.07402735924124718,0.10309913994669914,0.28788525050971653
1772364973688305400,4.199305419921875,0.06900982334017754,0.08145721698105335,0.259063133716397
1772364973698375400,4.20937548828125,0.0749018039882183,0.06284720905721188,0.24377142002768812
1772364973708446500,4.219446533203125,0.06354629723727703,0.01507365049123764,0.19150265066800637
1772364973718516200,4.22951611328125,0.06282499722540379,-0.06355740315318108,0.14724710102719255
1772364973728586500,4.23958642578125,0.06670739161670207,-0.13670973312556742,0.15091997172050178
1772364973738656500,4.249656494140625,0.061814943400025364,-0.1750315727353096,0.1590721341191791
1772364973748726300,4.259726318359375,0.024552257454395293,-0.14305062658488749,0.165723500033468
1772364973758797300,4.26979736328125,0.00663490796983242,-0.07114508180320263,0.15891931817764415
1772364973768867600,4.27986767578125,0.0012964695513248442,-0.024224340674281118,0.14284061882970853
1772364973778937300,4.289937255859375,-0.02277297282218933,-0.058223056387901304,0.14290827723843977
1772364973789007400,4.30000732421875,-0.08829320048093796,-0.012245149067044258,0.06815486874496564
1772364973799077600,4.31007763671875,-0.005696750336885452,0.11402794571816921,0.12874543971549718
1772364973809148700,4.320148681640625,0.08144552654325962,0.11671849997639655,0.20076978857126085
1772364973819218400,4.330218505859375,0.06353636036515235,0.19085984098613262,0.24128206916367634
1772364973829288400,4.340288330078125,0.07048866372108459,0.2308966678202152,0.23631202566614373
1772364973839358500,4.3503583984375,0.06594517507255077,0.2023854436069727,0.23892193416990337
1772364973849428500,4.360428466796875,0.05586743317246437,0.18567805443406105,0.24854776758402586
1772364973859498500,4.37049853515625,0.08546177644729613,0.15915654273331165,0.25093488191626967
1772364973869569500,4.380569580078125,0.13359247788786888,0.11855214514434337,0.2490172847919166
1772364973879639300,4.390639404296875,0.07343933022022246,0.07333060914874076,0.22572518346644938
1772364973889709600,4.40070947265625,-0.014925181931257248,0.05882862106561661,0.20815964309424162
1772364973899779600,4.410779541015625,-0.09037702101767063,0.057495326635241505,0.19297834924375637
1772364973909849300,4.420849365234375,-0.1357955408900976,0.05127893633842468,0.19968944598864763
1772364973919920400,4.43092041015625,-0.1340875679284334,0.044352351945638656,0.22315049240654333
1772364973929990700,4.44099072265625,-0.08982698591947555,0.0022696984976530075,0.20456156380334867
1772364973940060400,4.451060302734375,-0.06255261002480983,-0.03879822494983673,0.18953549704719333
1772364973950130400,4.46113037109375,-0.06641279258430004,-0.08103928382992744,0.19198161155767737
1772364973960200400,4.471200439453125,-0.0797036513119936,-0.06617547669708729,0.22100202740207314
1772364973970271200,4.481271240234375,-0.12316752998530864,-0.07228373044431209,0.2223936826898716
1772364973980341500,4.491341552734375,-0.1870177786052227,-0.09987725529074669,0.21004509151466189
1772364973990411500,4.50141162109375,-0.2223275769174099,-0.09186170661747455,0.2384294014126062
1772364974000481300,4.511481201171875,-0.25113340016305447,-0.09749006789326667,0.2578669462017715
1772364974010551600,4.521551513671875,-0.22734861994981764,-0.10841887366473674,0.25335571585502475
1772364974020621600,4.53162158203125,-0.13731997397840023,-0.08523556647598743,0.21506682866681365
1772364974030692400,4.5416923828125,-0.040272389155626295,-0.04200374299287796,0.1574429437484592
1772364974040762400,4.551762451171875,-0.01377484285235405,0.028624621459841727,0.14026371754640712
1772364974050832400,4.561832275390625,-0.09332067325413226,-0.01732932046353817,0.052554865425219754
1772364974060902400,4.57190234375,-0.08861118038892746,-0.04574409856498241,0.007197784283291548
1772364974070974500,4.581974365234375,-0.15134382315576075,-0.1919365303069353,-0.002944063228415325
1772364974081044500,4.59204443359375,-0.0034890111595392223,-0.07050444581210613,0.041829299741424616
1772364974091114500,4.602114501953125,0.23682430430352686,0.04495674757957458,0.02287884434945881
1772364974101184300,4.612184326171875,0.43235681327581404,0.13079437160193919,-0.006957573186093941
1772364974111255300,4.62225537109375,0.5456687196791171,0.12741466603577137,-0.056381072649871924
1772364974121325600,4.63232568359375,0.510351322582364,0.06488543688654899,-0.047817018681787886
1772364974131395300,4.642395263671875,0.4628583345234394,0.018678396984934807,0.043270342562324364
1772364974141465300,4.65246533203125,0.3580184883892536,-0.041619127589464185,0.12431289149499497
1772364974151535600,4.66253564453125,0.3144108173310757,-0.04454173703789711,0.10243691317830234
1772364974161606700,4.672606689453125,0.309275792530179,-0.027622166419029235,0.10140771626103669
1772364974171676400,4.682676513671875,0.20168460186123846,0.028346389040350913,0.11970184490242972
1772364974181746400,4.692746337890625,0.10468027165830135,0.06986848599612712,0.18133889271859077
1772364974191816400,4.70281640625,0.11268529893755912,0.06640636284351349,0.2891604763436131
1772364974201886500,4.712886474609375,-0.0693418317735195,0.028852584996819496,0.3200150670789182
1772364974211956500,4.72295654296875,-0.29985739132165906,0.044749242308735844,0.38147286760434507
1772364974222027500,4.733027587890625,-0.42866497302055356,-0.005241992306709289,0.41506256412565706
1772364974232097300,4.74309716796875,-0.5190513463884592,0.016191256344318387,0.4145937410375103
1772364974242167600,4.75316748046875,-0.4768927050948143,0.0548030188113451,0.447449643391557
1772364974252237600,4.763237548828125,-0.38571898074150085,0.0009101005822420119,0.4602951695045456
1772364974262307300,4.773307373046875,-0.25555939991176124,0.10303776514828204,0.517120159130171
1772364974272378400,4.78337841796875,-0.15585457857847212,-0.05873685112893581,0.5032491258943453
1772364974282448600,4.79344873046875,-0.17931962531805037,-0.17756430608332155,0.43334070974662897
1772364974292518400,4.803518310546875,-0.1989431941986084,-0.2591349203109741,0.3801689819315448
1772364974302588400,4.81358837890625,-0.22233868283331393,-0.1503998203039169,0.3920358357381075
1772364974312658400,4.823658447265625,-0.1410632521599531,0.06855097365677357,0.4055744952144101
1772364974322728400,4.833728515625,-0.03272328895032406,0.21631284667253492,0.36975137708522376
1772364974332799500,4.843799560546875,0.03225917856991291,0.23947452655136583,0.31961192963812496
1772364974342872000,4.8538720703125,0.09665303254723548,0.17925941956341265,0.3267895661825314
1772364974352942300,4.8639423828125,0.16590192534029483,0.06964987480938434,0.34720600247383115
1772364974363012000,4.87401220703125,0.23780513203442094,-0.025334347742795943,0.3395646939404309
1772364974373082000,4.88408203125,0.31784371438920495,-0.06979074458479881,0.32443869220744814
1772364974383153200,4.894153076171875,0.353109089037776,-0.03721475515067577,0.33111192289367314
1772364974393223200,4.90422314453125,0.3470592874795198,0.021963994526863095,0.33126587134636937
1772364974403293200,4.914293212890625,0.3017641017258167,0.05893558857142925,0.30756321645863355
1772364974413363200,4.92436328125,0.20081015711426733,0.06263795022070408,0.2961880734254606
1772364974423433000,4.934432861328125,0.12335866864323615,0.055017538344860076,0.3434521298330277
1772364974433503200,4.944503173828125,0.12742051125466822,0.04519406346678734,0.3690528734270483
1772364974443574300,4.95457421875,0.14610183084905146,0.0018517653465270996,0.3357451356522739
1772364974453644000,4.96464404296875,0.14403437692523002,0.02058919904232025,0.3454868139984086
1772364974463714000,4.974714111328125,0.07829436903595924,0.0560316838234663,0.37503658747915175
1772364974473784300,4.984784423828125,-0.028169278907775878,0.055414428707957264,0.39758247354719783
1772364974483854000,4.99485400390625,-0.1032487775504589,0.10159282703697681,0.4075972697462886
1772364974493925000,5.004925048828125,-0.10615034421086311,0.15060732557475565,0.38442517807129767
1772364974503995100,5.0149951171875,-0.15604805532395838,0.16588789681494234,0.37453262001238763
1772364974514065200,5.025065185546875,-0.1090782143563032,0.15546996317505835,0.3829948530072346
1772364974524135200,5.03513525390625,-0.03169862207770347,0.14584931739270687,0.36560755527876315
1772364974534205200,5.045205078125,-0.09472586387693882,0.14286942479908465,0.35854934386294335
1772364974544275000,5.05527490234375,-0.13528291519284247,0.20049919146895406,0.36865488708540795
1772364974554346000,5.065345947265625,-0.1819067192018032,0.1784521948337555,0.3180087687578052
1772364974564416300,5.075416259765625,-0.2883756278425455,0.07738602201938628,0.2543070800294168
1772364974574486000,5.085486083984375,-0.2861047603011131,0.030074820268154143,0.2357564558763057
1772364974584556000,5.09555615234375,-0.1850830111503601,0.1280710841178894,0.21931710652243344
1772364974594626300,5.105626220703125,-0.030789690539240834,0.03666822718381881,0.1350149849716574
1772364974604697300,5.115697265625,0.09462357254624366,-0.06871990048289299,0.10592185095092281
1772364974614767000,5.12576708984375,0.14797756159305572,-0.010208674803376198,0.0888219461959321
1772364974624837000,5.135837158203125,0.08546411453485489,-0.05154138666689396,0.03667621869402937
1772364974634907000,5.145906982421875,0.13901917911171913,-0.05276011480689048,0.02671906183315441
1772364974644977200,5.15597705078125,0.2423819384306669,-0.019960253489017487,0.01852187298266217
1772364974655047200,5.166047119140625,0.3111713970184326,-0.000987257471680641,-0.02651776710739359
1772364974665118200,5.1761181640625,0.38173020336627955,0.004016834425926208,-0.04932405767729506
1772364974675188000,5.18618798828125,0.4005389487326145,-0.027055180186033246,-0.07010607587797567
1772364974685258200,5.19625830078125,0.35794483863115306,-0.06289046367704867,-0.0889024184204638
1772364974695328300,5.206328369140625,0.26217852579057216,-0.0628852029800415,-0.08237813121825456
1772364974705398000,5.21639794921875,0.19942776284515856,-0.03183189306855202,-0.0853481234723702
1772364974715469000,5.226468994140625,0.1789209813892841,0.010391630154848099,-0.09595862054228782
1772364974725539300,5.236539306640625,0.1245370647728443,0.03253331933617592,-0.09044424103498458
1772364974735609000,5.246609130859375,0.08663315831422805,0.04796761983335018,-0.08929468740737065
1772364974745679000,5.25667919921875,0.08465805884897708,0.06457213315367698,-0.048280430375877766
1772364974755749000,5.2667490234375,0.11698095030486583,0.05500234077572822,-0.0013129092294722794
1772364974765819100,5.276819091796875,0.10112345595955848,0.06121347037553787,0.04509120588051155
1772364974775890200,5.28689013671875,0.03469312771856785,0.06670914518237113,0.08990229791169986
1772364974785960200,5.296960205078125,-0.06155600020289421,0.13839081808030604,0.14455441874396055
1772364974796030000,5.307030029296875,-0.16322949126064776,0.16628128004670142,0.20574324786858633
1772364974806100200,5.317100341796875,-0.3480570663452148,0.00374444722533226,0.15824715453712268
1772364974816170200,5.327170166015625,-0.510026912933588,-0.10687924300730228,0.1150324465855956
1772364974826240000,5.337239990234375,-0.4913029232412576,-0.11023147604465484,0.1427084986163303
1772364974836311000,5.34731103515625,-0.3408253615260124,0.059437692874670024,0.2654669363440946
1772364974846381300,5.35738134765625,-0.0869277573466301,0.12979425464868544,0.26528416365571317
1772364974856451000,5.367451171875,-0.15160218183100221,0.0839472802311182,0.2107378595517948
1772364974866521000,5.37752099609375,-0.28481179788112637,-0.025498013871908188,0.23069060558779164
1772364974876591000,5.387591064453125,-0.3271615778326988,-0.07182721884846686,0.2176263038912788
1772364974886662000,5.397661865234375,-0.24217677124738693,-0.03299509162902832,0.19738034706236793
1772364974896732200,5.407732177734375,-0.11356149725019932,0.007555529946088791,0.15831912379479035
1772364974906802200,5.41780224609375,-0.04779577039778232,0.03691431089937687,0.14497308254744856
1772364974916872000,5.427871826171875,-0.03213409088551998,0.049016836625337595,0.1444251298084855
1772364974926942200,5.437942138671875,-0.007563713252544403,0.05735913303494453,0.13613659114642068
1772364974937012200,5.44801220703125,-0.005135024800896644,0.04363689715266227,0.15588532077660783
1772364974947083300,5.458083251953125,-0.0068336454123258585,0.004826981765031814,0.1583015698717907
1772364974957153000,5.468153076171875,0.0077729720890522,0.01818973668515682,0.17895881091533228
1772364974967223000,5.47822314453125,0.03669160805940628,0.053532268223166465,0.21704415662176907
1772364974977293000,5.48829296875,0.10460428381264208,0.12627718643844127,0.23291891262913123
1772364974987363000,5.498363037109375,0.16724632568657397,0.2018096895456314,0.26356979748588055
1772364974997434000,5.50843408203125,0.14656009601056574,0.2031780552893877,0.27043515321072187
1772364975007504100,5.518504150390625,0.009022679889202117,0.08438157999515533,0.24740879014935344
1772364975017574100,5.52857421875,-0.0833282715499401,0.008900514814257621,0.2773270316163078
1772364975027644200,5.53864404296875,-0.10251929423213005,-0.014130232161283493,0.3008232041465118
1772364975037714000,5.5487138671875,-0.08678981018066406,-0.000571077886223793,0.2677209806148894
1772364975047784200,5.5587841796875,-0.07730126634538173,0.021236849296092986,0.2816624670047313
1772364975057855200,5.568855224609375,-0.07677402760088443,0.07499532749056816,0.3036128713976592
1772364975067925200,5.57892529296875,-0.02829202850461006,0.1328764385730028,0.30601107337949796
1772364975077995000,5.5889951171875,-0.05727496188282966,0.10542086089253425,0.256680805157125
1772364975088065000,5.59906494140625,-0.09744330614209175,0.053508887347579,0.23031831994298843
1772364975098135300,5.60913525390625,-0.04208616057932377,0.03792845637798309,0.24573201604355124
1772364975108205000,5.619205078125,0.09582593407332897,0.04776479073762893,0.27406985645126547
1772364975118276000,5.629276123046875,0.17843173656761646,0.049724108111858366,0.2955735765226185
1772364975128346000,5.63934619140625,0.1805506284177303,0.046885085293650625,0.3061629577392712
1772364975138416000,5.649416015625,0.13730594545304775,0.03853285201191902,0.2904910308276303
1772364975148486100,5.659486083984375,0.09316051425635814,0.07476736395359039,0.2969927043392323
1772364975158556200,5.66955615234375,0.01528057124018669,0.10271627810895442,0.2730396366206929
1772364975168626200,5.679626220703125,-0.05418284108638763,0.08425356970131397,0.2579160643068142
1772364975178697200,5.689697265625,-0.0554781415939331,0.08013619751036166,0.2748778483659029
1772364975188767200,5.699767333984375,-0.05189969858527183,0.07130173366963863,0.3056032414972782
1772364975198837000,5.7098369140625,-0.08838204780817031,0.07568973949551581,0.3284081438276917
1772364975208907000,5.719906982421875,-0.11774842754602431,0.10055471616089344,0.3403860933259129
1772364975218977300,5.729977294921875,-0.12694178782701493,0.10702595800161362,0.32572935307249423
1772364975229048000,5.740048095703125,-0.10638006131350994,0.10527239233255385,0.26717985947551204
1772364975239118000,5.7501181640625,-0.03510170851945877,0.09768763629198074,0.24714429399427026
1772364975249188000,5.76018798828125,-0.006192424899339676,0.07106207969486714,0.24141873768800867
1772364975259258000,5.770258056640625,0.03412555696368217,0.04492401435375214,0.2452773676112294
1772364975269328100,5.780328125,0.07504851898252964,0.02089373494684696,0.24690827501500023
1772364975279398100,5.790398193359375,0.09744155257642269,0.011935352465510368,0.26868451015111056
1772364975289469000,5.800468994140625,0.09419804061055183,0.014319032731652259,0.23401173110082743
1772364975299539200,5.810539306640625,0.08607084825634956,-0.001204115092754364,0.22741876257658003
1772364975309609200,5.820609130859375,0.05037818810641765,-0.027599370065331457,0.22887995770294217
1772364975319679000,5.830678955078125,-0.016868717214465142,-0.0573299069404602,0.2147747138524428
1772364975329749000,5.8407490234375,-0.061548985940217966,-0.008284428742527961,0.2360482418971136
1772364975339816400,5.85081640625,-0.12030746437907218,0.04649111754000187,0.27617303927559406
1772364975349887500,5.860887451171875,-0.16466799963116646,0.08307400452792645,0.2899060157475993
1772364975359957200,5.870957275390625,-0.17396949646174906,0.09242693928480147,0.26781558182947335
1772364975370027300,5.88102734375,-0.13215747664868832,0.09421908339858054,0.2728713308490813
1772364975380097300,5.89109716796875,-0.04981120187342167,0.08672492825090884,0.29538886760547756
1772364975390167300,5.901167236328125,0.028678981995582577,0.06194762986898422,0.31262455496881153
1772364975400238300,5.91123828125,0.11871698031723499,0.02105798559784889,0.3316909283580258
1772364975410308400,5.921308349609375,0.18745675454437732,0.035034488502144814,0.31717326778173444
1772364975420378400,5.93137841796875,0.19494389542937277,0.08156593805253505,0.29657857058038933
1772364975430448400,5.941448486328125,0.12314414910972117,0.11559738699197769,0.28936493114084005
1772364975440518400,5.951518310546875,0.004623568147420883,0.11381810235977172,0.2959525659028441
1772364975450588200,5.961588134765625,-0.1029658689558506,0.05326221911013126,0.3222807469885796
1772364975460659200,5.9716591796875,-0.11568857240676879,-0.0076852938055992125,0.3156551913689822
1772364975470729500,5.9817294921875,-0.02035831289589405,-0.06658698010742664,0.2907675279477611
1772364975480799500,5.991799560546875,0.11488777741789817,-0.014742811101675033,0.33417138352952896
1772364975490869200,6.001869140625,0.07991115658283234,0.03147007401883602,0.3394165907066315
1772364975500939300,6.011939208984375,-0.10908347505331038,0.02171732628941536,0.3278068534662947
1772364975511009300,6.02200927734375,-0.20779460917413234,0.02924538370668888,0.25445198665913193
1772364975521080300,6.032080322265625,-0.1075017588198185,0.04722703059911727,0.1463683180318214
1772364975531150300,6.042150390625,-0.045722471255064005,0.005913607957959175,0.10784235241841524
1772364975541220400,6.052220458984375,-0.011390578064322471,-0.056956397452950475,0.16423614755254237
1772364975551290400,6.062290283203125,-0.029508418557047843,-0.08395254092812537,0.19126758153680712
1772364975561360400,6.0723603515625,0.011843582528829574,-0.050887891194224356,0.19051369442958382
1772364975571430400,6.082430419921875,0.15156243434250355,-0.02670388253033161,0.13715430768844672
1772364975581501200,6.092501220703125,0.003326514074206352,-0.032681203374266624,0.11768739980747922
1772364975591571500,6.102571533203125,-0.052044075492024416,0.01642740318775177,0.1350892649174202
1772364975601641500,6.112641357421875,0.03785948279500007,0.03896364464461803,0.16214648179691285
1772364975611711200,6.122711181640625,0.046155601975321765,0.06433131013512611,0.18605620356407016
1772364975621781200,6.13278125,-0.009862053322792053,0.10934300277233124,0.181646022439003
1772364975631852300,6.142852294921875,-0.030613164928555488,0.10112404048144817,0.16564515583394093
1772364975641922300,6.15292236328125,-0.05270867688059806,0.07604629784822464,0.15879992958167566
1772364975651992300,6.162992431640625,-0.1067214220970869,0.003115501672029495,0.14934747997308148
1772364975662062300,6.173062255859375,-0.10607435636520385,-0.04339782769978046,0.17793856448950246
1772364975672132400,6.18313232421875,-0.042428105884790415,-0.09149579591453075,0.2092094078755006
1772364975682202400,6.193202392578125,0.03882628200054168,-0.09276070128381252,0.20565127700250593
1772364975692273400,6.2032734375,0.07963993842601776,-0.06630757864415646,0.20626414820384234
1772364975702343200,6.21334326171875,0.08685060045719147,-0.018146482065320015,0.2167042206102982
1772364975712413200,6.2234130859375,0.05673018748164177,0.053643327382206916,0.22223967943824827
1772364975722483500,6.2334833984375,0.047100773870944974,0.0909533596009016,0.18765457867141813
1772364975732553200,6.24355322265625,0.02251812127828598,0.09426876775920391,0.15277986557455733
1772364975742623200,6.253623291015625,0.016197101563215254,0.0664361734598875,0.13981598291206174
1772364975752694300,6.2636943359375,0.05672726487219333,0.024615385818481442,0.14181808911524713
1772364975762764300,6.273764404296875,0.14076573051810265,-0.026018238353729246,0.15475571395847945
1772364975772834300,6.283834228515625,0.19491116220355031,-0.029447628280520437,0.18004521791255101
1772364975782904300,6.293904296875,0.21646365332007406,-0.002717442265152931,0.21038257984071967
1772364975792974300,6.303974365234375,0.170534261316061,-0.0008797054439783096,0.2176654303252697
1772364975803044400,6.31404443359375,0.1600216351300478,-0.008143558967113494,0.21774203922543672
1772364975813115400,6.324115478515625,0.12687924398481845,-0.026006547915935516,0.24082630648650227
1772364975823185400,6.334185302734375,0.03544423834681511,-0.0030552959173917767,0.24386344569269566
1772364975833255200,6.344255126953125,-0.014184592697024344,0.017114800930023193,0.24662030665278434
1772364975843325400,6.354325439453125,-0.0156897365629673,0.04814063831269741,0.24711055612144991
1772364975853395200,6.364395263671875,-0.051259062594175335,0.06665010847151279,0.2515339072553441
1772364975863465200,6.37446533203125,-0.06996727019548415,0.054713002440333364,0.24720407962379976
1772364975873536300,6.384536376953125,-0.05307400306165218,0.02382394317984581,0.23333319251844659
1772364975883606500,6.3946064453125,-0.05556932700872421,-0.02137304289638996,0.22979919143971053
1772364975893676300,6.40467626953125,-0.023030162453651425,-0.028371523481607437,0.2136944626013748
1772364975903746300,6.414746337890625,0.016719079610705373,0.025614918249845502,0.2293641610233113
1772364975913816300,6.42481640625,0.058955462315678595,0.055602060234546655,0.23526410578209905
1772364975923886300,6.43488623046875,0.06768588126003741,0.025090017592906952,0.20526841516476124
1772364975933957400,6.444957275390625,0.1041466031730175,0.018553309300541877,0.2063316422157921
1772364975944027400,6.45502734375,0.13345569976568222,-0.013325930041074753,0.19704775410713626
1772364975954097200,6.46509716796875,0.13841127634644507,-0.0165828860104084,0.18882807943020014
1772364975964167400,6.47516748046875,0.12683482032120227,0.01582008494436741,0.19022042883774265
1772364975974237400,6.485237548828125,0.09750935711562633,0.029367548781633376,0.18887246656119822
1772364975984307200,6.49530712890625,0.003984685721993446,0.027483634731173514,0.19752510756161062
1772364975994378200,6.505378173828125,-0.08302432016730309,0.041433249628543854,0.20734430812336505
1772364976004448500,6.515448486328125,-0.09758768304884433,0.07734452096521854,0.2139951443146914
1772364976014518300,6.525518310546875,-0.07183189502358436,0.1139846910983324,0.21676208827737717
1772364976024588300,6.53558837890625,-0.050206923192739485,0.10842588792741298,0.1866060194665566
1772364976034658600,6.545658447265625,-0.0038145898520946502,0.08306056052446364,0.21124507842157034
1772364976044729300,6.555729248046875,0.08594692961573601,0.045936990788578984,0.24715059587089344
1772364976054799400,6.56579931640625,0.13615385280847547,0.029446459236741065,0.24305432126689702
1772364976064869400,6.575869384765625,0.11010872644782066,0.032034137642383574,0.2521859962222166
1772364976074939100,6.585939208984375,0.06820376765429974,0.16012743359208106,0.38538364783991125
1772364976085009400,6.596009521484375,0.03999415673613548,0.13444704889059067,0.4098775261705741
1772364976095079400,6.606079345703125,-0.10313479578197002,0.046647184884548186,0.2700247823115438
1772364976105150200,6.616150146484375,-0.19568039301037787,-0.013918635237216948,0.21349983507841824
1772364976115220200,6.62622021484375,-0.23855390457510947,-0.03550736671090126,0.25964456859985363
1772364976125290500,6.63629052734375,-0.14231997422277926,-0.026871640312671658,0.30209291355507445
1772364976135360300,6.6463603515625,-0.003338204512000084,0.01132744970023632,0.3126106725739315
1772364976145430300,6.65643017578125,0.042669513425230975,0.0017255086183547972,0.3218997483143583
1772364976155500300,6.666500244140625,-0.009372808501124381,-0.05713759923875331,0.3043727863868698
1772364976165571300,6.6765712890625,-0.03201660198569298,-0.06058686290979385,0.30824301541633903
1772364976175641300,6.686641357421875,-0.0045627778708934785,-0.041323359513282774,0.2893240876737982
1772364976185711400,6.69671142578125,0.025991350346803662,-0.03346037105321884,0.2812556215032004
1772364976195781000,6.706781005859375,0.051606853118538853,-0.003961304846405982,0.29851640677517277
1772364976205851400,6.716851318359375,0.056579380834102626,0.05494798023998737,0.3168259156487882
1772364976215921400,6.72692138671875,0.07102467029392719,0.13165654138922692,0.34048275863341987
1772364976225992400,6.736992431640625,0.04856324763894081,0.13589315604567526,0.3035422538468614
1772364976236062200,6.747062255859375,-0.01698152993917465,0.10050970797538757,0.2828644632056355
1772364976246132500,6.757132568359375,-0.04478840527534485,0.09173544988930225,0.28350853326283393
1772364976256202200,6.7672021484375,-0.0383200860440731,0.09742109431028366,0.2825066627439111
1772364976266272300,6.777272216796875,-0.02601940739750862,0.11264379788339138,0.239293324765563
1772364976276342300,6.78734228515625,-0.05211655620634555,0.10553718074858189,0.22893462876593693
1772364976286413300,6.797413330078125,-0.10918167473077774,0.05124503406882286,0.223188504595682
1772364976296483300,6.8074833984375,-0.18091010937988758,-0.03879764042794704,0.20963764322493225
1772364976306553300,6.81755322265625,-0.17535890499353407,-0.061380059114098544,0.21899244114533065
1772364976316623000,6.827623046875,-0.1514905381500721,-0.04476385535597801,0.20038321867277845
1772364976326693400,6.837693359375,-0.12121347330808639,-0.03153670951426029,0.18159845697022972
1772364976336762600,6.8477626953125,-0.06704232265949249,-0.009270517170429229,0.16785503216944633
1772364976346833700,6.857833740234375,-0.005839373677968979,-0.023157588225603102,0.1805943214289844
1772364976356903700,6.867903564453125,0.005826514196395874,-0.04881459205150604,0.18357538306638596
1772364976366973700,6.8779736328125,-0.022970541220903397,-0.05571954913437366,0.16705715979002414
1772364976377043700,6.888043701171875,-0.02862228337228298,-0.05645078601837158,0.16852451066253707
1772364976387113700,6.89811376953125,0.02966448590159416,-0.029781974801421165,0.20231544711068272
1772364976397184500,6.9081845703125,0.07148994971811772,0.05743161374926567,0.2579203568894416
1772364976407254800,6.9182548828125,0.08450432959198952,0.07276946813464165,0.24733141406420617
1772364976417324800,6.92832470703125,0.10021978511810302,0.05946107375025749,0.2503833489807322
1772364976427394600,6.93839453125,0.10793372049629688,0.04409633135795593,0.27876013315934683
1772364976437464800,6.94846484375,0.09761632462143897,0.053016719916462896,0.31505671401917934
1772364976447534800,6.958534912109375,0.07410334708690643,0.0962163946956396,0.32712760249786077
1772364976457605600,6.968605712890625,0.044698973426222796,0.13155892623364926,0.31971688784994184
1772364976467675600,6.978675537109375,-0.01530453663766384,0.0996978070706129,0.30946609093789007
1772364976477745700,6.98874560546875,-0.06989712756872177,0.043323008897900576,0.30748229670953003
1772364976487815700,6.998815673828125,-0.059174658024311065,0.025891981625556944,0.306448131356202
1772364976497885700,7.0088857421875,-0.030099954709410667,0.05032733470201492,0.29620743571305647
1772364976507955700,7.018955810546875,-0.013568506625294685,0.06137012224197387,0.2651526462305337
1772364976518026500,7.029026611328125,0.01309504389464855,0.046402854734659195,0.21956713576074688
1772364976528096800,7.0390966796875,0.04488309782147407,0.006319266149401664,0.2111725611746311
1772364976538166800,7.049166748046875,0.060522565501928326,-0.046430327263474465,0.20367866175528615
1772364976548236500,7.059236572265625,0.06459083785414696,-0.061276598739624016,0.21432496079094707
1772364976558306800,7.069306884765625,0.07515782457590103,-0.042976387417316436,0.21847532193604854
1772364976568376800,7.079376953125,0.08993103081583977,0.017224106523394584,0.21946049704849718
1772364976578448000,7.08944775390625,0.10231471157073974,0.03997369846999645,0.20782566189952192
1772364976588517600,7.099517578125,0.08437164312303065,-0.011511574095487594,0.15172630140101537
1772364976598587600,7.109587646484375,0.0715560006916523,-0.04939268420040607,0.13476692849472163
1772364976608657700,7.11965771484375,0.04365267924368381,-0.045295185753703116,0.15046903134891762
1772364976618727700,7.129727783203125,-0.05154080214500427,-0.029213235002756115,0.15378219275120644
1772364976628797700,7.139797607421875,-0.13036825514435768,-0.012329904741048812,0.14545742286513558
1772364976638868700,7.14986865234375,-0.1574889017820358,0.022486557096242903,0.14161262967102228
1772364976648938800,7.159938720703125,-0.1473813492655754,0.07461129660904407,0.10892532534953206
1772364976659008800,7.1700087890625,-0.15159575209021567,0.09960954426527023,0.09623164706369862
1772364976669078500,7.18007861328125,-0.08897124587297439,0.0800952809780836,0.10607755296928807
1772364976679148800,7.190148681640625,-0.0066822542428970335,0.02134206323623657,0.11166906196656637
1772364976689218800,7.20021875,0.11729016238451004,-0.0006003039807081222,0.12849365691151468
1772364976699289900,7.210289794921875,0.19338263746201992,-0.02373100419938564,0.1288818525115028
1772364976709359600,7.220359619140625,0.20515549284219742,0.0063040685802698134,0.15056056382358074
1772364976719429600,7.2304296875,0.12618366293609143,0.024317864176630972,0.16496932066529987
1772364976729500000,7.2405,0.01424012227654457,0.01652326477766037,0.17534721455574034
1772364976739569700,7.250569580078125,-0.12240063726603984,-0.017553776869177817,0.16927967641139402
1772364976749639700,7.2606396484375,-0.14501228204667568,-0.0304296250551939,0.18395039039123803
1772364976759710700,7.270710693359375,-0.06100421153903007,0.014906477230787276,0.22831288013840093
1772364976769780700,7.28078076171875,0.03010638445019722,0.060447746700048446,0.2379411795042455
1772364976779850800,7.290850830078125,0.10427636703252792,0.09447802659571171,0.24316200115876271
1772364976789920800,7.300920654296875,0.08379647358357906,0.08535831607282161,0.2204455625630915
1772364976799990500,7.310990478515625,-0.017432780838012696,0.03833236100375652,0.19257815267872064
1772364976810060800,7.321060791015625,-0.07986322578787804,-0.0007516951501369476,0.18887102352278307
1772364976820131800,7.3311318359375,-0.06870119578242302,-0.0032651392757892606,0.19395999895855784
1772364976830201600,7.34120166015625,-0.003033668607473373,0.024361118796467778,0.2128189766747877
1772364976840271600,7.351271728515625,0.050372927409410476,0.03699906657338142,0.23404559683781115
1772364976850342000,7.361341796875,0.05373275923132896,0.025977321821451186,0.23416162443291394
1772364976860411600,7.37141162109375,0.0024836335092782973,0.0032242227435111998,0.2536217646463774
1772364976870481700,7.381481689453125,-0.0687584789276123,-0.019801263535022734,0.2662814858636819
1772364976880552700,7.391552734375,-0.08356324934959411,-0.0240682733297348,0.23558564762035383
1772364976890622700,7.401622802734375,0.02472001523673534,0.042376667958497996,0.20716683266460895
1772364976900692700,7.411692626953125,0.1280231533229351,0.12489829930067062,0.2435572658203542
1772364976910762800,7.4217626953125,0.08618833715617656,0.14721943670213222,0.2571344124098308
1772364976920832500,7.43183251953125,0.024608371555805204,0.13737959521114826,0.25403469282882285
1772364976930902800,7.44190283203125,-0.06647708999216556,0.03868424318134785,0.2239457161711529
1772364976940973800,7.451973876953125,-0.00696516283750534,0.06289513985216617,0.18459875303106382
1772364976951043600,7.462043701171875,0.02521510527729988,0.02207797629535198,0.1862844045630656
1772364976961113600,7.472113525390625,-0.043318917244672774,-0.007901566904783249,0.22081037728749214
1772364976971183900,7.482183837890625,0.01004910032749176,0.010348960056900978,0.23358466479517517
1772364976981253600,7.492253662109375,0.022094342908263204,-0.08120996422171592,0.17344118000501765
1772364976991323600,7.50232373046875,0.048938510692119595,-0.02622632814645767,0.1903392511781305
1772364977001394000,7.512393798828125,0.04234510377645492,-0.006669979283213615,0.20524600240355356
1772364977011464700,7.522464599609375,-0.005908931782841682,-0.03814940565228462,0.16296349726822226
1772364977021534700,7.53253466796875,-0.0054985974162817,-0.02560848850905895,0.16394193211263045
1772364977031604700,7.542604736328125,0.030212767434120175,0.043650341156125066,0.20258794390913099
1772364977041674500,7.552674560546875,0.05472586192190647,0.09204290840327739,0.21913203227911143
1772364977051744800,7.562744873046875,0.06235094997286796,0.12565174801647663,0.24195934737073257
1772364977061815800,7.57281591796875,0.050077159333229065,0.12309271118342875,0.24231035276548935
1772364977071885600,7.582885498046875,0.05275426958799362,0.1178887127995491,0.25753190556112676
1772364977081955600,7.59295556640625,0.03566460309922695,0.06660393124222755,0.27354347622329367
1772364977092025900,7.60302587890625,-0.006707973206043243,0.01661854184567928,0.26977928311787547
1772364977102095600,7.613095703125,-0.03259177152514457,0.001384147834777832,0.28245977312857284
1772364977112165600,7.62316552734375,-0.05761398457884788,-0.02709434315264225,0.2766573887264356
1772364977122235600,7.633235595703125,-0.06831131968200206,-0.0072141691625118255,0.28550947955539446
1772364977132306700,7.643306640625,-0.08758242186307906,0.0273100317299366,0.2873150494063273
1772364977142376700,7.653376708984375,-0.08295300849676132,0.0718821639060974,0.2891995114460587
1772364977152446700,7.66344677734375,-0.06900222455561161,0.061599254822731014,0.28764632718730715
1772364977162516500,7.6735166015625,-0.0684229633629322,0.05084931274950504,0.26830391333568837
1772364977172586800,7.683586669921875,-0.033927988564968106,0.04760989243686199,0.2828651755916886
1772364977182656800,7.69365673828125,-0.027035306441783903,0.02496668347418308,0.2653474198839627
1772364977192727800,7.703727783203125,-0.04152911121845245,0.006461304968595504,0.24218111862894146
1772364977202797600,7.713797607421875,-0.026834815433621404,-0.0003688333123922348,0.24166717775743454
1772364977212867800,7.723867919921875,0.004734627306461334,-0.01867956602871418,0.24071367642488328
1772364977222937600,7.7339375,0.06570084492266177,-0.008041267636418343,0.2664468872921541
1772364977233007600,7.744007568359375,0.0983423008084297,-0.01780161415040493,0.28794264325276014
1772364977243077600,7.75407763671875,0.09997779305577277,-0.02567395496070385,0.2569379217233509
1772364977253148700,7.764148681640625,0.08203940078318119,-0.010815408524870871,0.22184616834232582
1772364977263218700,7.77421875,0.014157704690098761,0.022619243565201758,0.20924798632021993
1772364977273288700,7.784288818359375,-0.09094283820688724,0.06030278527140617,0.20312091827467083
1772364977283358700,7.794358642578125,-0.14612813433408736,0.09746376440823078,0.21385789126846938
1772364977293428700,7.8044287109375,-0.14686463191509247,0.11905366492569446,0.18741074171187355
1772364977303498800,7.814498779296875,-0.0995627825140953,0.14356266776025295,0.15840324014797805
1772364977313569800,7.82456982421875,-0.015704349610209466,0.11670271788537502,0.16329700353890655
1772364977323639600,7.8346396484375,0.08146890741884708,0.041754736667871474,0.1695838287234306
1772364977333709800,7.844709716796875,0.18108371238112447,-0.04584112919867039,0.2003161082533188
1772364977343780600,7.854780517578125,0.2220785705924034,-0.09413666581213474,0.21780483879595994
1772364977353850600,7.8648505859375,0.21801029824018478,-0.09271920022964476,0.22667612751573324
1772364977363920600,7.874920654296875,0.1798807663321495,-0.04584171372056007,0.26253906619865447
1772364977373991400,7.884991455078125,0.061275429695844645,0.033735096341371534,0.2833853818072006
1772364977384061700,7.895061767578125,-0.11336451337337493,0.08457505674064159,0.29995650431457904
1772364977394131700,7.905131591796875,-0.20766835244596002,0.10355331345498561,0.32419772305842487
1772364977404201500,7.915201416015625,-0.20520459268093108,0.08655950855612754,0.3347718701733276
1772364977414271500,7.925271484375,-0.12169979552030563,0.04227437662780285,0.32954916708897797
1772364977424341800,7.935341796875,-0.014379238486289978,0.03304126885831356,0.3436070646664128
1772364977434412500,7.94541259765625,-0.011138649129867553,0.022469605961441992,0.3327195407534018
1772364977444482600,7.955482666015625,-0.09429624028801918,0.029342414340376852,0.30579854487366975
1772364977454552600,7.965552490234375,-0.17956512451171874,0.024051906716823578,0.2588532172927633
1772364977464622600,7.97562255859375,-0.24020167178213594,0.0013905775755643844,0.20387520724069325
1772364977474692600,7.985692626953125,-0.23449381552934645,0.0024795418560504914,0.19157060133768244
1772364977484761600,7.99576171875,-0.23628479059934615,0.003669628423452377,0.19425392213752493
1772364977494831600,8.00583154296875,-0.13868249450325965,-0.014077625191211699,0.20262907963711768
1772364977504901600,8.015901611328125,-0.04219897330403328,-0.032326398587226864,0.21039920218195765
1772364977514971400,8.025971435546875,-0.0066904375493526454,-0.011518003836274146,0.22368764975685626
1772364977525041700,8.036041748046875,-0.00017594108879566192,0.011467150431871414,0.25317973823361095
1772364977535112700,8.04611279296875,0.03618541210293769,0.06956804174482822,0.26720501218307763
1772364977545182500,8.056182373046875,0.06284019479453563,0.0945961000174284,0.24354157506087792
1772364977555252500,8.06625244140625,0.03359013491272926,0.10851882690787315,0.21797626810641957
1772364977565322800,8.07632275390625,0.06909282544851303,0.12366671167910098,0.23194387531820684
1772364977575392500,8.086392578125,0.16159049188196659,0.11917641452252864,0.2587101372939534
1772364977585462500,8.096462646484374,0.16743863338828086,0.02017185041308403,0.2407899930641055
1772364977595533600,8.106533447265624,0.0870277105897665,-0.07669511714577674,0.23279051874279974
1772364977605603600,8.116603515625,0.16223638857007025,-0.04961714060604572,0.2859213665582239
1772364977615673600,8.126673583984376,0.2198217315763235,0.0030196400821208952,0.28254714088477195
1772364977625743600,8.13674365234375,0.15047347006201744,0.08096154241859913,0.26568646084629
1772364977635813400,8.1468134765625,0.1393301447570324,0.04292670305669308,0.1819019699614495
1772364977645883600,8.156883544921875,0.04759995556473732,-0.01990121677815914,0.13977053633513858
1772364977655954700,8.16695458984375,-0.04099485821127891,-0.05041618202924728,0.1648486168950796
1772364977666024700,8.177024658203125,-0.02974339635670185,-0.04201426438689232,0.16191265477472916
1772364977676094500,8.187094482421875,-0.012106032857298851,-0.003806406545639038,0.13767105243839323
1772364977686164700,8.197164794921875,-0.01979308022856712,0.001550152051448822,0.15260957790841348
1772364977696234500,8.207234375,0.11207505808472633,0.003464461240172386,0.18008058148687706
1772364977706304500,8.217304443359374,0.1203238309919834,0.0016226327657699584,0.155146485108044
1772364977716375600,8.22737548828125,0.07316869658529758,0.011896189498901366,0.16827203373881056
1772364977726445600,8.237445556640624,0.03606967676877975,0.06953940017223358,0.24507273015091194
1772364977736515600,8.247515625,0.035597383081912994,0.15807985341250896,0.28682529312800614
1772364977746585600,8.257585693359376,0.04622866721153259,0.15462357547879219,0.25479007777338847
1772364977756655600,8.267655517578126,0.025250761112570762,0.11557751324772834,0.23969532969519494
1772364977766725600,8.2777255859375,-0.015844634863734244,0.07233283028304577,0.2518180944915861
1772364977776796700,8.287796630859376,-0.06381576182842254,0.03196399501562119,0.24151589618586003
1772364977786866700,8.29786669921875,-0.04762392096221447,-0.0010609072297811507,0.20000269492259248
1772364977796936400,8.3079365234375,-0.027425767064094542,-0.038061142846941946,0.1698867937253788
1772364977807006700,8.3180068359375,-0.024772622206807135,-0.047614568611979484,0.17808259433638304
1772364977817076700,8.32807666015625,0.007463760009407997,0.0007557868033647537,0.2241946311646141
1772364977827146500,8.338146484375,0.02229717200398445,0.038817514172196387,0.2169391618773341
1772364977837216500,8.348216552734375,0.05422025048732757,0.06467150187492371,0.2019070124402642
1772364977847287600,8.35828759765625,0.058472647234797476,0.06292728855609893,0.18177127452017738
1772364977857357600,8.368357666015624,0.05341244123578071,0.040866263395547865,0.16846140056475997
1772364977867427600,8.378427490234374,0.05135726227164268,0.018491934502124784,0.2053693913212046
1772364977877497600,8.38849755859375,-0.015858078867197034,-0.024465748214721677,0.29368958940692247
1772364977887567600,8.398567626953126,0.12078794137239456,0.04470949482023716,0.1536986791862175
1772364977897637600,8.4086376953125,0.29509704505205153,-0.021969839745759962,0.08753839092510751
1772364977907708700,8.418708740234376,0.18249241013526915,-0.09411094684898853,0.16188129152208566
1772364977917778400,8.4287783203125,0.030758710879087447,-0.043404257440567015,0.22569650536123662
1772364977927848700,8.4388486328125,-0.0019406126737594603,0.061145665836334226,0.2169395089372061
1772364977937918700,8.448918701171875,-0.04516425285041332,0.0839560480594635,0.18418482020162044
1772364977947988500,8.458988525390625,-0.19758242723941802,0.06054945350885391,0.14693373336223883
1772364977958058500,8.46905859375,-0.11674889511466026,0.09558160392343998,0.08360865939389914
1772364977968129500,8.479129638671875,-0.07337152568101883,0.08429039458036422,0.10946840098397806
1772364977978199600,8.489199462890625,-0.05393851093649864,0.09464227724671363,0.16889385543158278
1772364977988269600,8.49926953125,0.07197042671144008,0.01679331389069557,0.2035845171984285
1772364977998339600,8.509339599609374,0.0656733723938465,-0.11516717888116836,0.11406090727285481
1772364978008409600,8.51940966796875,0.07142272970080375,-0.1723819350093603,0.08125584919005632
1772364978018479600,8.529479736328126,0.018575521132349965,-0.19595161116719245,0.16605580072775483
1772364978028550700,8.539550537109376,0.05887187568545341,-0.0641442631304264,0.20472316583953798
1772364978038620400,8.549620361328126,0.058119011491537094,-0.009245382729172706,0.23068452290687708
1772364978048690400,8.5596904296875,-0.08648819688558577,0.011066752937436104,0.26019831175878644
1772364978058760700,8.5697607421875,-0.14153145419359206,0.047261517390608784,0.23476207454409448
1772364978068830500,8.57983056640625,-0.09972995577454566,0.029179332733154296,0.19486476577855646
1772364978078902500,8.589902587890625,0.03470189554691314,0.09871931742727756,0.2001267048947513
1772364978088972500,8.59997265625,0.0649158320248127,0.07126549331247806,0.16964739547893404
1772364978099042600,8.61004248046875,-0.008252280038595199,0.007061608949303627,0.10142105979979969
1772364978109112600,8.620112548828125,-0.045696752291917796,-0.04786825111210346,0.09034587696073576
1772364978119183600,8.63018359375,-0.01711363188624382,-0.05243570515811443,0.10035446261474862
1772364978129253600,8.640253662109375,0.010116904866695404,-0.048395489856600755,0.08996591946613043
1772364978139323400,8.650323486328125,0.02628478033542633,-0.040998365342617034,0.112278727430664
1772364978149393700,8.6603935546875,0.01695464193224907,-0.04360299488306045,0.15401359035428613
1772364978159463700,8.670463623046874,-0.05767535937726497,-0.0075134443700313564,0.1929873728004284
1772364978169533400,8.680533447265624,-0.12360592140257358,0.012412906849384307,0.21785258692782372
1772364978179603500,8.690603515625,-0.1258574997216463,-0.013141221123933792,0.21881576940417288
1772364978189674500,8.700674560546876,-0.10465279912948608,0.011870470535755157,0.25804917090088125
1772364978199744500,8.71074462890625,-0.10610358245968818,0.06782032129466534,0.299322261531651
1772364978209814500,8.720814453125,-0.1018675523251295,0.10230535922050475,0.30356309570549056
1772364978219884500,8.730884521484375,-0.07137187629640102,0.1417126559793949,0.3381069694127887
1772364978229954600,8.74095458984375,-0.05078384629786014,0.14120119932591915,0.35325003187842663
1772364978240024600,8.751024658203125,-0.08503449094593525,0.09665127898156642,0.36907804440092296
1772364978250095600,8.761095703125,-0.08421206864714623,0.07794540946781635,0.39653259916808453
1772364978260165600,8.77116552734375,-0.014642857858538626,0.03260989170372486,0.38475112209003415
1772364978270235600,8.781235595703125,0.07033785707354545,0.03585749532282352,0.3673778894195333
1772364978280305700,8.7913056640625,0.13203764966130255,0.0465419709444046,0.3696766678811982
1772364978290375400,8.80137548828125,0.15425181955695152,-0.0251531459569931,0.328949264967069
1772364978300445400,8.811445556640624,0.13783143063187597,-0.03174947548210621,0.332618747260049
1772364978310516500,8.8215166015625,0.24212357975542545,-0.020475217273831368,0.31744539925400167
1772364978320586800,8.831586669921874,0.16801263388395307,0.031492870372533795,0.3464391097545624
1772364978330656500,8.841656494140626,0.13954992498755453,0.10177928951978683,0.3971360084213316
1772364978340726000,8.85172607421875,0.09165946204364299,0.10015490318834781,0.3701452717736363
1772364978350796000,8.861796142578125,-0.0063397244155406944,0.039057752668857575,0.3484601307207718
1772364978360866000,8.871865966796875,-0.04973053785264492,0.09792144504785537,0.4157133196519687
1772364978370935800,8.881935791015625,0.30519056904315944,0.16563947501182555,0.36634861943703145
1772364978381006800,8.8920068359375,0.3027005057930946,0.12811316969394684,0.3819674827208742
1772364978391077000,8.9020771484375,0.22560440663099288,0.099436525785923,0.42734450153913345
1772364978401147000,8.91214697265625,0.0471913747638464,0.10591302832365035,0.3592133972622454
1772364978411217000,8.922216796875,-0.24534604893326759,0.013833879563212394,0.23728620446054263
1772364978421287200,8.932287109375,-0.3958171809077263,0.01939677438735962,0.2301401686307974
1772364978431357000,8.94235693359375,-0.360886152780056,0.04975099611878395,0.25020936238700525
1772364978441428000,8.952427978515624,-0.1501484758913517,0.08424187926352024,0.29172144940542055
1772364978451498000,8.962498046875,-0.14006781138181684,0.07553659476041794,0.32093495840281244
1772364978461568000,8.972568115234376,-0.14180910209119318,0.050426118901371955,0.3368364380203187
1772364978471638000,8.982637939453125,-0.02793430110812187,0.01787000321149826,0.3107536465303972
1772364978481708000,8.9927080078125,-0.01864507923722267,-0.03688333123922348,0.2686148424483836
1772364978491777800,9.00277783203125,-0.005883797341585159,-0.013984686210751532,0.24572123892121014
1772364978501848800,9.012848876953125,0.03189385238885879,0.017177929294109343,0.2542195661427453
1772364978511919000,9.022919189453125,0.09130524177849292,0.09455167635381222,0.2907468687522225
1772364978521988900,9.03298876953125,0.1458650994837284,0.13089900102019308,0.3123359838183969
1772364978532059000,9.043058837890625,0.15269406872093677,0.054122050809860225,0.21818821209035813
1772364978542129200,9.053129150390625,0.13861176735460756,-0.0489472785204649,0.132505669031851
1772364978552199000,9.063198974609374,0.1681868214070797,-0.07651333083808422,0.127301213990245
1772364978562269000,9.07326904296875,0.186978031116724,-0.10890987205207348,0.111175588494353
1772364978572340000,9.083340087890624,0.11938041266202926,-0.09059738577008247,0.09784436122365295
1772364978582410000,9.093409912109376,0.022994506618380546,-0.04881517657339573,0.08916624785526656
1772364978592480000,9.10347998046875,-0.017871172255277634,-0.014290391159057616,0.07520663215368986
1772364978602550000,9.113550048828126,-0.04348550598323345,0.014079963278770445,0.07169806234373245
1772364978612619800,9.123619873046875,-0.05921615907847881,0.04427577957808971,0.06560748125051613
1772364978622690000,9.13368994140625,-0.015791443371772764,0.07832184156477451,0.08157356423656456
1772364978632761000,9.143760986328125,0.04974339733421802,0.05388531944453716,0.0990318357088603
1772364978642830800,9.153830810546875,0.07982289377748966,0.02321779398024082,0.11626334922057575
1772364978652900900,9.16390087890625,0.11947335164248943,0.0228875391125679,0.1418030742092058
1772364978662971100,9.17397119140625,0.0783569128781557,-0.0012923778980970383,0.1178362062941771
1772364978673041000,9.184041015625,-0.02605038705766201,-0.033840894803404804,0.12220213728556409
1772364978683111000,9.19411083984375,-0.13552724534273147,-0.036214638197422024,0.17341668488457798
1772364978693182000,9.204181884765624,-0.1868079352468252,-0.06085574297904968,0.18935982995303346
1772364978703251700,9.214251708984374,-0.11238719277381896,-0.0456312858402729,0.17173669590838253
1772364978713322000,9.224322021484374,-0.0022270283997058867,-0.0016968670457601547,0.19849787985021247
1772364978723392000,9.23439208984375,0.06909282544851303,0.07262158409655094,0.22193711629509924
1772364978733461800,9.244461669921876,0.036407530421018595,0.05661854380071163,0.20130524715483186
1772364978743532000,9.254531982421875,-0.11452771193385124,0.0528641597032547,0.18020740447062997
1772364978753602000,9.26460205078125,0.014962591332197189,0.12707856594920158,0.18793770646173505
1772364978763673000,9.274673095703125,0.0708370387673378,0.03579904313385487,0.13255948157832026
1772364978773742800,9.284742919921875,-0.1354652860224247,-0.11252689350545406,0.10296710193171166
1772364978783813000,9.294813232421875,-0.08990238924324512,-0.08977847060263157,0.1693159167685546
1772364978793883000,9.3048828125,0.03540390633642673,-0.027582418930530546,0.21163681768551468
1772364978803953000,9.314952880859375,0.024428923335671423,0.003705868780612945,0.1848433937082067
1772364978814023000,9.32502294921875,0.01654547660946846,0.028542788395285606,0.1790619242299348
1772364978824094000,9.335093994140625,0.026657120779156683,0.024570377632975576,0.17273348839338867
1772364978834164000,9.3451640625,0.019687866288423537,-0.000436053329706192,0.19230488869529216
1772364978844234000,9.35523388671875,0.005139700976014137,-0.01075929442346096,0.21975937039721755
1772364978854303700,9.3653037109375,0.002474281159043312,0.0008434650868177413,0.21850756197152657
1772364978864374000,9.3753740234375,0.04714169040322304,0.0475964484333992,0.22766254473719744
1772364978874444000,9.385444091796876,0.08999065204858779,0.07861001085639,0.23268506734063849
1772364978884515000,9.39551513671875,0.05934124676287174,0.08490063543319702,0.23744011638062074
1772364978894584800,9.405584716796875,0.0072188453376293175,0.05378536620140075,0.24318613095302133
1772364978904655000,9.415655029296875,-0.0121779290497303,0.008589549168944359,0.22826288525052368
1772364978914725000,9.42572509765625,0.05124269598126411,-0.028517069432139396,0.2096502835107967
1772364978924795000,9.435794921875,0.12539280481934548,-0.06458791524469852,0.19051922912122682
1772364978934865000,9.445864990234375,0.1726484769910574,-0.064523617836833,0.22258549720123408
1772364978944935000,9.455934814453125,0.147272043672204,-0.01549275268614292,0.2523800026906654
1772364978955006000,9.466005859375,0.05029869312942028,0.015320318728685379,0.21418569845072924
1772364978965076000,9.476075927734374,-0.012708090403676032,0.004819382980465889,0.1808599318289198
1772364978975146000,9.48614599609375,-0.032201310902833936,0.021859365108609197,0.20392414268264547
1772364978985216000,9.496216064453124,-0.021851766324043273,0.045779169878363606,0.2398320712847635
1772364978995286000,9.5062861328125,0.016409867531061172,0.03632335926890373,0.26185842699073253
1772364979005355800,9.516355712890626,0.037651977524161336,0.031233342653512953,0.2833724857930094
1772364979015426800,9.5264267578125,0.008261047866940497,0.05287175848782062,0.3291005465386435
1772364979025496800,9.536496826171875,0.0428863710463047,0.10635609591603279,0.3830936372065916
1772364979035567000,9.546567138671875,0.05944704522490501,0.11946809094548225,0.35932441988866776
1772364979045636900,9.556636962890625,0.006775777745246887,0.09215046043097973,0.34068810847979036
1772364979055707000,9.566706787109375,-0.037002573704719544,0.11965689151585102,0.3609687895622104
1772364979065777200,9.576777099609375,-0.06427168890237808,0.12258242357373236,0.3806326173879206
1772364979075847000,9.586846923828125,-0.06605798779726028,0.08341770339906215,0.35463001499474045
1772364979085918000,9.59691796875,-0.054797758114337916,0.0406295320302248,0.3460820399452001
1772364979095988000,9.606988037109375,-0.021704466807842254,0.017640286108851433,0.35819157993383705
1772364979106058000,9.61705810546875,0.007282558223605156,0.016135142242908476,0.3698350733133033
1772364979116128000,9.6271279296875,0.03529518526494503,0.0015098200410604476,0.35426863433644173
1772364979126198000,9.637197998046876,0.04822539398670196,0.003269230929017067,0.3566958614833653
1772364979136267800,9.647267822265626,0.0305342544734478,0.011477087303996086,0.3394481183560565
1772364979146338800,9.6573388671875,-0.027927286845445633,-0.014677929171919821,0.2767754986807704
1772364979156409000,9.6674091796875,0.005159574720263481,-0.04180091389715671,0.2402881262228824
1772364979166478800,9.677478759765625,0.054874915003776545,-0.034653964751958845,0.24459336740244178
1772364979176548900,9.687548828125,0.060116907310485836,-0.008617606219649314,0.2500616062130779
1772364979186619100,9.697619140625,0.0828232446372509,0.03861293151080608,0.2291270277991891
1772364979196689000,9.70768896484375,0.1250818391740322,0.05256546901762485,0.19150418503796682
1772364979206759000,9.717759033203125,0.11523264533281326,0.03192366300523281,0.16000051927678285
1772364979216830000,9.727829833984375,0.027633856856822965,-0.0087140523314476,0.13993744473410769
1772364979226900000,9.73789990234375,-0.05751227777004242,0.011051555368304253,0.14279511745385826
1772364979236970000,9.747969970703124,-0.06810381441116332,0.030071313136816023,0.13149187061311676
1772364979247040000,9.7580400390625,-0.1172001460134983,0.01842763709425926,0.09841596883283928
1772364979257109800,9.76810986328125,-0.13601006042361258,0.0358060573965311,0.11825495229605584
1772364979267180000,9.778179931640626,-0.08247720767855644,0.013377952489256857,0.16171260215798391
1772364979277251000,9.7882509765625,0.0016717326045036314,0.0016226327657699584,0.18685756480852142
1772364979287320800,9.79832080078125,0.05966682545542717,0.03001519903540611,0.21333923768922686
1772364979297390800,9.808390869140625,0.0450952792674303,0.03114624889194965,0.22940390851181
1772364979307461000,9.818461181640625,-0.012555530190467833,0.02247545118033886,0.23384181789401917
1772364979317531000,9.82853076171875,-0.05859305874407291,0.009966682741045951,0.2730030309373513
1772364979327601000,9.838600830078125,-0.12557751373648643,0.023296119913458823,0.33465869212243704
1772364979337671200,9.848671142578125,-0.20537468855082988,0.023818097960948942,0.3599349530024454
1772364979347745500,9.85874560546875,-0.17505027743577956,0.07845920420885086,0.3681670305032283
1772364979357815300,9.868815185546875,-0.06400280883312225,0.14082652079463004,0.34625893088206644
1772364979367885300,9.87888525390625,0.020023966374993322,0.15541384907364844,0.315009477343969
1772364979377955300,9.888955322265625,0.040136780077219006,0.12261749488711357,0.2671601135954261
1772364979388025300,9.899025390625,0.009603110125660896,0.07229483636021614,0.19998442861353977
1772364979398095400,9.909095458984375,-0.07056055991351604,-0.0023240590333938596,0.16067069188961758
1772364979408166400,9.91916650390625,-0.0883563288450241,-0.005567570999264717,0.14391634003613143
1772364979418236200,9.929236083984375,-0.055847559428215024,0.028113164806365967,0.13934410021714866
1772364979428306400,9.939306396484374,0.017732640567421912,0.05329612137973308,0.11695524047487414
1772364979438376400,9.94937646484375,0.10337854140996933,0.041483518511056895,0.1124708342029713
1772364979448446200,9.9594462890625,0.11400514936447143,0.02784720734655857,0.10127135826395824
1772364979458516500,9.9695166015625,0.08008768219351768,0.0004126724541187286,0.09393445777092128
1772364979468586500,9.97958642578125,0.06053717854917049,-0.009656886139512062,0.11259588535474613
1772364979478657300,9.9896572265625,0.057686465293169016,0.006559504646062851,0.12195348715358413
1772364979488727300,9.999727294921875,0.0694429540604353,0.020680968979001044,0.12087234998652711
1772364979498797300,10.00979736328125,0.07238251464366913,0.05845978775322437,0.13429004996428265
1772364979508867300,10.019867431640625,0.09015139556825161,0.04543780909478664,0.1406080557383597
1772364979518937300,10.029937255859375,0.1206552549034357,0.0270528420984745,0.16210565659618004
1772364979529007400,10.04000732421875,-0.06952887877821921,0.030056115567684172,0.1743336170664057
1772364979539077400,10.050077392578125,-0.05899520980417728,0.05247136099338531,0.1671493315855041
1772364979549148400,10.0601484375,0.2576128253102302,0.07798807956576347,0.15770590553358196
1772364979559218400,10.070218505859375,0.1873924571365118,-0.02092296104133129,0.06219130699832458
1772364979569288200,10.0802880859375,-0.02273030272424221,-0.09227905524671078,0.1619526579915546
1772364979579358500,10.0903583984375,-0.2984615530490875,-0.09188158036172389,0.2555595825748518
1772364979589428500,10.100428466796876,-0.05194996746778488,0.03957563906311989,0.19993302721986547
1772364979599498200,10.110498291015626,0.16147767915725708,0.06803484082818032,0.12276031915759666
1772364979609569300,10.1205693359375,0.01689092904627323,0.03818447696566581,0.058294463956565595
1772364979619639300,10.130639404296875,-0.07380114926993847,-0.03802431796789169,0.08793656906299292
1772364979629709300,10.140709228515625,-0.007354454416036605,-0.0776426271289587,0.1480813872937113
1772364979639779300,10.150779296875,0.06660393124222755,-0.02389876198172569,0.1533680589923635
1772364979649849300,10.160849365234375,0.05848667576014995,0.050506198400259016,0.1556329717170447
1772364979659919400,10.17091943359375,-0.011674071180820464,0.12135726569294929,0.18736198893301187
1772364979669989400,10.1809892578125,-0.07383797414898872,0.13003741575479508,0.21114229390053077
1772364979680060400,10.191060302734375,-0.10262450817227363,0.07557692677080631,0.2387257174780592
1772364979690130200,10.201130126953124,-0.09054244071245193,0.041918402796983716,0.2849847067626193
1772364979700200200,10.2112001953125,-0.0716641372412443,0.053013797307014464,0.3283235342841595
1772364979710270500,10.2212705078125,-0.2410176643401384,-0.019344167417287825,0.3338450741846114
1772364979720340200,10.23134033203125,-0.33575697222054,0.12277122414410113,0.3540754498519003
1772364979730410200,10.24141015625,0.27120237472355363,0.22559797689020633,0.2602794324372895
1772364979740480500,10.25148046875,0.21592004796266553,0.0687847824126482,0.1974182131210342
1772364979750551300,10.26155126953125,-0.01965162593126297,0.035464112091064454,0.22833816071012988
1772364979760621300,10.271621337890625,0.4569850585758686,0.2503694300532341,0.28440287002036346
1772364979770691300,10.28169140625,0.6617898382842541,0.0170142631649971,0.18305506725301965
1772364979780761300,10.29176123046875,0.25373510709404945,-0.13936521607041358,0.17347652531303465
1772364979790831400,10.301831298828125,-0.2075648920714855,-0.17169862892031668,0.16116543487031013
1772364979800901400,10.3119013671875,-0.25301205351650713,-0.21199965964853762,0.21869597894940523
1772364979810972200,10.32197216796875,-0.2990577653765678,-0.08734569049775599,0.3032559842513874
1772364979821042200,10.332042236328125,-0.4224900837779045,0.08747370079159736,0.2287284752019681
1772364979831112400,10.342112548828124,-0.18196107973754405,0.19448913739919663,0.19248302174117415
1772364979841182200,10.35218212890625,-0.13726444439888,-0.011013561445474624,0.10171818871600553
1772364979851252200,10.362252197265626,-0.33935470445156096,-0.14704291109144688,0.12977654546205886
1772364979861322500,10.372322509765626,-0.1794137333422899,0.09407178388237952,0.29162651939727363
1772364979871392300,10.382392333984376,-0.05726093335747719,0.21956571098864078,0.3572583907369524
1772364979881463300,10.39246337890625,0.10229951400160789,0.0941992096543312,0.10736351939290761
1772364979891533300,10.402533203125,0.25832828010320663,0.1855237406551838,0.044425956037966535
