time,seconds_elapsed,z,y,x
1772568156793585200,0.117585205078125,-0.167305946919322,-0.030391192740947006,0.03933686187118292
1772568156803656200,0.12765625,-0.1244371115297079,-0.05315671290904283,0.024444413165748118
1772568156813727200,0.137727294921875,-0.19722703793048857,-0.0314219970934093,0.06395064025446773
1772568156823799000,0.147799072265625,-0.11338730972707271,-0.09821633634120225,0.08089695274978875
1772568156833869800,0.157869873046875,-0.13141981002390385,-0.058112800946459174,0.0032065409563481807
1772568156843942000,0.16794189453125,-0.012834347131848334,-0.13424801918715237,0.0001676116518676281
1772568156854013000,0.178012939453125,-0.03887012114226818,-0.039738720670342446,-0.04636763729080558
1772568156864084000,0.188083984375,-0.0716512777596712,-0.057988736175373194,-0.060788815222680564
1772568156874156000,0.198156005859375,-0.10890110422372817,0.0034022827241569757,-0.10246128043457865
1772568156884227000,0.20822705078125,-0.11740706676244735,0.03527363102026283,-0.14853183447495102
1772568156894299100,0.218299072265625,-0.08814882357418537,0.0820205499522388,-0.10054609446302055
1772568156904370200,0.2283701171875,-0.05915361523628235,0.19638364590890706,-0.09217574100270867
1772568156914441200,0.238441162109375,0.04101180934607982,0.24842012261636554,-0.04982143100649118
1772568156924513000,0.248512939453125,0.013219547057151794,0.24867884661778805,0.02589227388650179
1772568156934584000,0.258583984375,0.01561959393620491,0.17215419066809118,0.04670417576879263
1772568156944656100,0.26865625,0.12008417701721191,0.08895546378195285,0.03787190388515591
1772568156954727000,0.278726806640625,0.19333704475462435,-0.03689304891563952,0.045816140887886284
1772568156964798000,0.2887978515625,0.12972820367515087,-0.11462094317525624,0.12366115872114897
1772568156974870000,0.2988701171875,0.052176761960983274,-0.10999328337460755,0.21978972900286314
1772568156984941000,0.308941162109375,-0.06067571023702621,-0.11162694899104535,0.2649481366343796
1772568156995012000,0.31901220703125,-0.1542383755534887,-0.057385436519980425,0.25429551745578644
1772568157005084200,0.329084228515625,-0.13385726630389688,-0.01065364209190011,0.15432269283607603
1772568157015155200,0.3391552734375,-0.08135434112846851,-0.037888635824248194,0.033088030609488485
1772568157025227000,0.34922705078125,-0.04004033396542072,-0.045161403306201095,-0.10061214543655514
1772568157035298000,0.359298095703125,-0.09361585680842399,-0.04978329095318913,-0.1792421761676669
1772568157045369000,0.369369140625,-0.2553682612538338,-0.07165829202234744,-0.19048370115011928
1772568157055441200,0.379441162109375,-0.005821838021278381,-0.045041430188342925,-0.20477116969972847
1772568157065512000,0.389511962890625,0.02044365309178829,0.04060015980526804,-0.18917247242107987
1772568157075584000,0.399583984375,-0.046475919970870014,0.015796996329724786,-0.08470525899156928
1772568157085655000,0.409655029296875,0.005171849679946899,0.07414316764064133,-0.020282178919762372
1772568157095726000,0.41972607421875,-0.036790976780653,0.00009060089290142059,0.005751257003098726
1772568157105798000,0.4297978515625,-0.17843173656761646,-0.06824446499086916,0.013821896864473819
1772568157115869000,0.439868896484375,-0.3239648276180029,-0.11725859820246695,0.018230653217434882
1772568157125941000,0.44994091796875,-0.34159108520150183,-0.11015395382903516,0.00793108526021242
1772568157136012000,0.460011962890625,-0.1926595838844776,-0.11157719156518578,-0.032734979388117785
1772568157146083000,0.4700830078125,-0.05339782818853855,-0.12693411597721277,-0.0195391054674983
1772568157156155100,0.480155029296875,0.008625789526104927,-0.16549181016944348,0.009610855040699242
1772568157166226200,0.49022607421875,0.003592471534013748,-0.15567703005447983,0.019264380179345605
1772568157176298200,0.50029833984375,-0.006029927814006805,-0.1114430437915027,-0.01635828347429633
1772568157186369000,0.510369140625,-0.10397767634689807,-0.08985657734014094,-0.015562749182432889
1772568157196440000,0.520440185546875,-0.13354103996157646,-0.024215280584990978,-0.02144128582701087
1772568157206511900,0.530511962890625,-0.1100023434638977,0.025205679861828683,-0.039954847639054054
1772568157216583000,0.5405830078125,-0.21572774026095867,0.04621156994625926,-0.000831628518551588
1772568157226655000,0.550655029296875,-0.26201310609579087,0.1132056695498526,0.0018061726391315459
1772568157236726000,0.56072607421875,-0.23200784393250942,0.12929828782528638,-0.0469875227548182
1772568157246797000,0.570797119140625,-0.19843875180780887,0.08883388322889804,-0.0342560514755547
1772568157256869000,0.580869140625,-0.09514438154995442,0.06504910301566123,-0.004753478137403727
1772568157266940200,0.590940185546875,0.019186346507072446,0.057035527103766796,0.006130903970450162
1772568157277011000,0.601010986328125,-0.03378127357065677,0.014883023289963602,0.0828461871214211
1772568157287083300,0.611083251953125,-0.15207447551786898,0.035564576790854334,0.1789335486099124
1772568157297154000,0.621154052734375,-0.17093407428860663,0.0673252312541008,0.20652838863059877
1772568157307225900,0.631225830078125,-0.09151917679011821,0.047844651040807366,0.17927768587246537
1772568157317297000,0.641296875,0.05634849468767643,-0.017009294728934764,0.13397066355049608
1772568157327368000,0.651367919921875,0.2306231115758419,-0.07202420272529125,0.09737389416769146
1772568157337440000,0.66143994140625,0.3454915997713804,-0.15144779498688876,0.08477540161833166
1772568157347511000,0.671510986328125,0.3337351110041141,-0.18941468367911873,0.12392521648481487
1772568157357583000,0.6815830078125,0.2250415120512247,-0.18520780657380817,0.1320804658897221
1772568157367654100,0.691654052734375,0.0927308906674385,-0.1684960334867239,0.1294064243748784
1772568157377725200,0.70172509765625,-0.005541852036118507,-0.146779218653962,0.12564882540702818
1772568157387797000,0.711796875,0.024945640686154364,-0.110258217921108,0.11386749445945024
1772568157397865000,0.721864990234375,0.09806056125760078,-0.089172467533499,0.053658817212283605
1772568157407937000,0.73193701171875,0.14886895747482776,-0.09442885369174182,0.014806962379068136
1772568157418008000,0.742008056640625,0.0706359632372856,-0.08154591817781329,0.043106735798716544
1772568157428079000,0.7520791015625,-0.16608897234499453,-0.06077332539260387,0.06714198364168406
1772568157438151200,0.762151123046875,-0.31305531106889245,-0.02875891536399722,0.03211524005457759
1772568157448222200,0.77222216796875,-0.2936445081561804,-0.0248345084618777,-0.08405453999787568
1772568157458294300,0.782294189453125,-0.23056933556199072,-0.06438822795413435,-0.16121698239445686
1772568157468365300,0.792365234375,-0.10961246736347674,-0.07501505510434509,-0.23858371519148347
1772568157478436400,0.802436279296875,-0.04713993683755398,-0.10252952336519956,-0.2617987326927483
1772568157488508200,0.812508056640625,-0.1284364102989435,-0.09884170169793069,-0.21020225483775137
1772568157498579200,0.8225791015625,-0.17891922782361505,-0.04061733013577759,-0.15426146416813133
1772568157508650000,0.83264990234375,-0.13275427349805832,0.034408684753999115,-0.15994038658738136
1772568157518722000,0.84272216796875,-0.1474818870306015,0.036145445418730375,-0.14024609055817128
1772568157528793000,0.85279296875,-0.08074994549453259,0.06338226578198373,-0.10766937047168612
1772568157538865200,0.862865234375,-0.0707978758007288,0.06233239140287041,-0.09059460929110645
1772568157548936200,0.872936279296875,-0.08317921846807003,-0.04564641034416854,-0.034294337659329176
1772568157559007200,0.88300732421875,0.01655541348159313,-0.05599982738047838,-0.021273235783725974
1772568157569079000,0.8930791015625,0.14773498500883578,-0.06813589004985987,-0.007858020024001598
1772568157579150000,0.903150146484375,0.18193360720872878,-0.09170753896906972,0.039906332322210074
1772568157589222100,0.91322216796875,0.15129764592647552,-0.07961436559334396,0.06536445257514714
1772568157599293200,0.923293212890625,0.13756547317206858,-0.09971695016250014,0.07846008099168539
1772568157609364200,0.9333642578125,0.06237257728278636,-0.0877864930678159,0.09641995444372296
1772568157619436300,0.943436279296875,-0.005949263793230056,-0.07330605922937393,0.042860067561268804
1772568157629507000,0.953507080078125,-0.12746668848395346,-0.04585018928796053,-0.007600392001122236
1772568157639579100,0.9635791015625,-0.24873627589344977,-0.0031523996163159607,-0.05043488672971725
1772568157649650200,0.973650146484375,-0.3173836956620216,0.0618961919426918,-0.06857347774952649
1772568157659721200,0.98372119140625,-0.31854046448171136,0.17480587422065436,-0.10100918193012476
1772568157669793000,0.99379296875,-0.2546960610806942,0.17845606729127467,-0.054677492735534905
1772568157679864000,1.003864013671875,-0.23029344123005865,0.26185382388085127,-0.03701689449101686
1772568157689935000,1.01393505859375,-0.22088848402500152,0.2493548461832106,-0.0445714015237987
1772568157700007200,1.024007080078125,-0.12193126618862152,0.1700035885054618,-0.10178498860821128
1772568157710078200,1.034078125,0.015426701712608336,0.09544117253944277,-0.2086395355656743
1772568157720150300,1.044150390625,0.03952420113682747,0.008496829384192824,-0.21415859124809503
1772568157730221300,1.05422119140625,0.06563771655857563,-0.031312033912912006,-0.2097251388452947
1772568157740292000,1.0642919921875,0.05645195506215095,-0.05465191990286111,-0.1294583006925881
1772568157750364200,1.0743642578125,-0.05261807598769665,-0.03582110883519053,0.00940817207545042
1772568157760435200,1.084435302734375,-0.08647767549157143,-0.026257380871847272,0.06753770496100187
1772568157770507000,1.094507080078125,-0.13398644564151763,-0.053143488101288675,0.1058303184762597
1772568157780578000,1.104578125,-0.13068389696478844,-0.11260865350477396,0.16035042869299648
1772568157790649000,1.114649169921875,-0.09339490753412247,-0.1294036478959024,0.16729498713389038
1772568157800721200,1.12472119140625,-0.0679746350735426,-0.13589973191693425,0.13480872180983425
1772568157810792200,1.134792236328125,-0.06530979977846145,-0.13827888213843106,0.06228241478130221
1772568157820863200,1.14486328125,-0.15537936228215693,-0.1514047595627606,0.00037906244546175
1772568157830935300,1.154935302734375,-0.22867197750806806,-0.15972900885902344,-0.011415858636051416
1772568157841006000,1.165006103515625,-0.16506488999426364,-0.1404624367225915,-0.03246259218752384
1772568157851078100,1.175078125,0.036571196550130844,-0.14399806350283323,-0.02508271106928587
1772568157861149200,1.185149169921875,0.21041969698071478,-0.18291896498426793,0.007082651737332343
1772568157871220200,1.19522021484375,0.2197866602629423,-0.298444748044759,0.061286974003165955
1772568157881292000,1.2052919921875,0.24783377409577367,-0.21945034098066388,0.04345715667158365
1772568157891363000,1.215363037109375,0.10443184985518456,-0.2648489871088415,0.10311097651496529
1772568157901435100,1.22543505859375,0.2876116577327251,-0.34216128630489107,0.04014598629698157
1772568157911506200,1.235506103515625,0.3491694115012884,-0.18434695196077228,-0.050501522225141524
1772568157921577200,1.2455771484375,-0.4885299513965845,-0.27428017473369837,0.2865637561149895
1772568157931649300,1.255649169921875,-0.33422260226011274,-0.08351305353231728,0.2155491688236594
1772568157941720300,1.26572021484375,-0.309706585162878,-0.08040909616760909,0.09641630118191241
1772568157951792000,1.275792236328125,-0.091140991127491,-0.2124376126743853,0.03002674334272742
1772568157961863200,1.28586328125,0.16982698982954025,-0.20173801254890858,-0.04395969936624169
1772568157971934200,1.295934326171875,0.10095803626477717,-0.30235965646617113,-0.031125059973448513
1772568157982006000,1.306006103515625,-0.11217851845920085,-0.2873996954824775,0.027160394126176834
1772568157992077000,1.3160771484375,-0.21669921564161776,-0.21268464623801409,0.09661649992913007
1772568158002148000,1.326148193359375,-0.1745166089504957,-0.14791099916286765,0.09786270059794187
1772568158012220200,1.33622021484375,-0.13049509639441967,-0.10574512441083789,0.07078048627451061
1772568158022291200,1.346291259765625,-0.14270108249485491,-0.07937595372758806,0.06887962108924985
1772568158032363300,1.35636328125,-0.15372224272489546,-0.05985803717859089,0.03311477248594165
1772568158042434300,1.366434326171875,-0.17822247773110866,-0.07105433477982878,0.01770852903947234
1772568158052505300,1.37650537109375,-0.20426468148231505,-0.03212503079622984,-0.029650165115296837
1772568158062577200,1.3865771484375,-0.2285702706992626,-0.009492781618982553,-0.06197232591882348
1772568158072648000,1.39664794921875,-0.06688800888061523,0.0466837175026536,-0.1404502348281443
1772568158082720000,1.406719970703125,-0.02528700146973133,0.054090778888761994,-0.20020736891552804
1772568158092791000,1.416791015625,-0.02549392221868038,0.07141907643899321,-0.16394114666134119
1772568158102862000,1.426862060546875,-0.08681026844680309,0.09357121394909917,-0.07039104856550693
1772568158112934100,1.43693408203125,-0.11368190875947475,0.1068300701033324,0.020990034928172824
1772568158123005200,1.447005126953125,-0.11711246773004531,0.08330357550010084,0.08625511878207326
1772568158133077200,1.4570771484375,-0.06620353374779224,0.040012130784243344,0.10583894017413258
1772568158143148300,1.467148193359375,-0.06262275265157223,0.007020619351789355,0.1553115577429533
1772568158153219300,1.47721923828125,-0.05535714556276798,-0.007018208198994398,0.15241934343278407
1772568158163291100,1.487291015625,-0.004611293187737464,0.002448708326369524,0.12532120088785886
1772568158173362200,1.497362060546875,-0.006550736817717551,-0.02921703439503908,0.11281126340478657
1772568158183433000,1.507432861328125,0.0585673397809267,-0.005006576115638017,0.13461758315190672
1772568158193505000,1.517505126953125,0.09470774369835853,0.020028788680583238,0.13962737413793802
1772568158203576000,1.527576171875,0.0973538742929697,-0.05330138207674026,0.05363090629205108
1772568158213648100,1.537648193359375,0.14030746535658836,-0.11823548041060566,-0.14412161681726574
1772568158223719200,1.54771923828125,0.11025134978890419,-0.10185834610536694,-0.19160335282981394
1772568158233790200,1.557790283203125,-0.019676175850629807,-0.11112557534016668,-0.14820406382530926
1772568158243862300,1.5678623046875,-0.21140110923349856,-0.044451939862594006,-0.11574044872447847
1772568158253933300,1.577933349609375,-0.30486791296005245,0.07100976498574019,-0.060611558959633105
1772568158264005000,1.588005126953125,-0.26439678636193276,0.08548435360528528,-0.004179039250314235
1772568158274076200,1.598076171875,-0.21742752991616723,0.05900083582736551,-0.03464738888069987
1772568158284147200,1.608147216796875,-0.17203998970389364,0.023007804491370916,-0.12063742698580025
1772568158294219300,1.61821923828125,-0.0005699088424444198,-0.04850662208087742,-0.1644508497491479
1772568158304290000,1.6282900390625,0.12316694546341896,-0.11513963328711688,-0.14457856680452824
1772568158314361000,1.638361083984375,0.12799977244734764,-0.1884558485843241,-0.0677343965768814
1772568158324433200,1.64843310546875,0.0814852740317583,-0.18225224470384419,0.02089884951338172
1772568158334504200,1.658504150390625,0.004025602254271507,-0.17435213910378514,0.13539587404802442
1772568158344576000,1.668575927734375,-0.05636895295381546,-0.14750928649418055,0.1914611678801477
1772568158354647000,1.67864697265625,-0.14217676635980606,-0.1364705175422132,0.22652122921496629
1772568158364718000,1.688718017578125,-0.13830664692819117,-0.12428338227272033,0.2498293318271637
1772568158374790100,1.6987900390625,-0.13020458901524543,-0.07687566134445369,0.18335004987791179
1772568158384861200,1.708861083984375,-0.12018529930412769,-0.04393229990266263,0.07662409773617983
1772568158394933200,1.718933349609375,-0.009187515062093735,-0.03361994552910328,-0.03941562619581818
1772568158405002800,1.729002685546875,0.12643150021731853,-0.014971139964833855,-0.12946122330203652
1772568158415073800,1.73907373046875,0.18068448393046854,-0.004557882500067353,-0.18309388315975664
1772568158425145900,1.749145751953125,0.10771803191900253,-0.024708543994650244,-0.1249332244835794
1772568158435216600,1.759216552734375,0.05039923089444637,0.003196969410404563,-0.07999576612636447
1772568158445289000,1.7692890625,-0.03960252707004547,0.022796572893485426,-0.05510726245492696
1772568158455359700,1.77935986328125,-0.130113988122344,0.03830233119167387,-0.016476795287430287
1772568158465430800,1.7894306640625,-0.1023299091398716,0.05220613418594002,-0.01629413219690323
1772568158475502800,1.7995029296875,-0.06449965243935585,0.011477087303996086,-0.014811638554185628
1772568158485574000,1.809573974609375,0.014245382973551749,0.015783698456734416,0.0055211015090346335
1772568158495645000,1.81964501953125,0.10691840597391128,0.025745778087899088,0.009471008178591728
1772568158505716700,1.829716796875,0.14380290625691414,-0.008105199718102812,0.009280746303498745
1772568158515787800,1.839787841796875,0.13916530958414078,-0.03521305993944406,-0.0044854748509824275
1772568158525859800,1.84985986328125,0.07913140438199043,-0.07015300202593207,0.044022097077965734
1772568158535931000,1.859930908203125,-0.07088204695284366,-0.08048391496948898,0.08756430168449879
1772568158546001700,1.870001708984375,-0.18727029206156728,-0.07826762715950608,0.12680968587994576
1772568158556073700,1.88007373046875,-0.29801848545670506,-0.03467752829063683,0.12458923335149884
1772568158566144800,1.890144775390625,-0.24481062688231467,-0.05774345617741346,0.10236717241033912
1772568158576216600,1.900216552734375,-0.1047825629889965,-0.044198586156032976,0.042037499132007355
1772568158586287600,1.91028759765625,-0.009003975188732147,-0.0333878538062796,-0.000035217443853616714
1772568158596358700,1.920358642578125,0.06840425866246223,-0.07587784594614058,-0.09619900516942143
1772568158606430700,1.9304306640625,0.19452011705935,-0.08440854106731713,-0.19171163550987838
1772568158616501800,1.940501708984375,0.13620353716909886,-0.0999799850128591,-0.1580719623669982
1772568158626573800,1.95057373046875,0.06287292802035808,-0.10575882414262741,-0.13089622454121708
1772568158636644900,1.960644775390625,-0.010603227078914642,-0.09646109017170965,-0.12755845842063426
1772568158646716000,1.9707158203125,-0.007767711392045021,-0.10093239036686717,-0.17511808197498321
1772568158656788000,1.9807880859375,0.04129822507202625,-0.12451996750757098,-0.19054960599318146
1772568158666858800,1.990858642578125,-0.006317512583732605,-0.14303941107112914,-0.13461977510899303
1772568158676930600,2.0009306640625,-0.17124153280258178,-0.1539533845996484,0.006922054348140955
1772568158687001600,2.011001708984375,-0.28387188668251034,-0.18739877727944404,0.16406959534659982
1772568158697072600,2.02107275390625,-0.35156828933656215,-0.19372703045289963,0.25631357927992937
1772568158707144700,2.031144775390625,-0.3947738093346357,-0.22029190637134013,0.3211702284634113
1772568158717215700,2.0412158203125,-0.26770342669188973,-0.20524642252866176,0.26893369913920756
1772568158727286800,2.051286865234375,-0.16971768423616884,-0.2163228931425139,0.19102482228949666
1772568158737358800,2.06135888671875,-0.08077624897956848,-0.23140534799471496,0.11418474371507763
1772568158747430000,2.071429931640625,-0.03096504710614681,-0.234112086202763,0.03766571378856897
1772568158757502000,2.081501953125,-0.054909986317157745,-0.22822704675216227,-0.002979308071732521
1772568158767573000,2.091572998046875,-0.06053133333027363,-0.1793116977399215,-0.05594137519150972
1772568158777643800,2.101643798828125,-0.04180032937526702,-0.1351952734420076,-0.12011062663272022
1772568158787715600,2.111715576171875,-0.03523614855408668,-0.027454481701925396,-0.18144304721280932
1772568158797786600,2.12178662109375,0.041032267612218856,0.04127615937069058,-0.22571634257286785
1772568158807858700,2.131858642578125,0.16065058068335056,0.09213215758930891,-0.24272256856188176
1772568158817929700,2.1419296875,0.1992249337494373,0.11658329275678843,-0.22620982517823576
1772568158828000800,2.152000732421875,0.16458558204472065,0.11541600254308432,-0.1915941466100514
1772568158838072800,2.16207275390625,0.008333528581261634,0.07745119621008634,-0.12165697929188608
1772568158848144000,2.172143798828125,-0.1256874038517475,0.004603329076990485,-0.05328706129044294
1772568158858216000,2.1822158203125,-0.20499767193198204,-0.04561272727027535,0.014206220006942749
1772568158868287000,2.192286865234375,-0.1277086805462837,-0.06170092509891838,0.06820800543799996
1772568158878357800,2.202357666015625,-0.012372574838995933,-0.0513762592330575,0.09310498467683792
1772568158888429800,2.212429931640625,-0.012711597535014153,-0.053366154408641155,0.1080560317017138
1772568158898500600,2.22250048828125,-0.03731120126247406,-0.02511949941571802,0.0883873085051775
1772568158908572700,2.23257275390625,-0.07799860095977783,-0.032614056422188877,0.04842778469100594
1772568158918643700,2.242643798828125,-0.17782909449934958,0.006558810526318848,0.02131912075206637
1772568158928714800,2.25271484375,-0.26841303626596924,0.057510962595790624,0.01830488749742508
1772568158938786800,2.262786865234375,-0.24638591337502,0.11416823097169398,-0.011430910074710846
1772568158948857900,2.27285791015625,-0.13522037135064602,0.1049405665623024,-0.0934181422792375
1772568158958929000,2.282928955078125,0.004431844967603683,0.049211665077693756,-0.16354747116863727
1772568158969000700,2.293000732421875,0.10846621993780135,-0.0036795287629589435,-0.18268398718461393
1772568158979071700,2.30307177734375,0.1574725351691246,-0.06011723610404879,-0.1809744067877531
1772568158989143800,2.313143798828125,0.11440788494646549,-0.06590750994328409,-0.1466265853755176
1772568158999214800,2.32321484375,0.052097851505875585,-0.025588797427900135,-0.0990288217678666
1772568159009285600,2.33328564453125,0.01561433323919773,-0.019382307470589874,-0.05149272521957755
1772568159019357700,2.343357666015625,-0.043159927290678024,0.002362162554077804,-0.0037714813627302644
1772568159029428700,2.3534287109375,-0.1320885030657053,-0.025907690651342272,0.042526159431785344
1772568159039500800,2.363500732421875,-0.17375380788445471,-0.05078037569914013,0.08978855360522865
1772568159049571800,2.37357177734375,-0.17524726131260393,-0.10576810342762619,0.11505261259078979
1772568159059643000,2.383642822265625,-0.06804945387542248,-0.1543003348737955,0.10109013821184634
1772568159069714700,2.393714599609375,0.02689092953503132,-0.1796302256371826,0.09184826261401176
1772568159079785700,2.40378564453125,0.048102059867978095,-0.18664258861728011,0.04567088719829917
1772568159089857800,2.41385791015625,-0.05593757579922676,-0.1917056806931272,0.061236412859708066
1772568159099928800,2.4239287109375,-0.2677022576481104,-0.17953757891766725,0.11426569999679922
1772568159109999900,2.433999755859375,-0.35221360150277614,-0.15079470137301831,0.1453567115701735
1772568159120072000,2.444072021484375,-0.30166590204834937,-0.05876410446204245,0.12392419357150793
1772568159130142700,2.454142822265625,-0.23340309768319129,-0.007646898023970425,0.07407046773061156
1772568159140214800,2.46421484375,-0.18532851034402847,0.015679324766807258,0.03946180342510342
1772568159150285800,2.474285888671875,-0.1402010823726654,0.04562500222995877,-0.028399580532312393
1772568159160356900,2.48435693359375,-0.08479542149305343,0.04506426307465881,-0.10581716673374175
1772568159170428700,2.4944287109375,-0.040941666719317434,0.05852762882504612,-0.15971505339890718
1772568159180499700,2.504499755859375,-0.003509469425678253,0.06254932208918035,-0.17031769595593213
1772568159190571800,2.51457177734375,-0.00206043966114521,0.05272380138449371,-0.13838570351377127
1772568159200642800,2.524642822265625,0.03963058412075043,0.07177479454148561,-0.10985402103438972
1772568159210713900,2.5347138671875,0.03289046221077442,0.04501399419214576,-0.06502674505338073
1772568159220786000,2.544785888671875,0.031498715591430665,0.045670850665681065,-0.015329232687503098
1772568159230857000,2.55485693359375,0.03199731276333332,0.02377886192910373,0.02833732895106077
1772568159240927700,2.564927734375,0.005885550907254219,-0.009280198314227163,0.09725962013825773
1772568159250999800,2.574999755859375,0.017440964144468305,-0.03634633828569203,0.16165829642117022
1772568159261070800,2.58507080078125,0.018680735072493553,-0.06416260250471532,0.2458430386699736
1772568159271142700,2.595142578125,-0.02177694752216339,-0.09651508538126945,0.3093864132978022
1772568159281213700,2.605213623046875,-0.003369184172153473,-0.12294482714533805,0.2974751723602414
1772568159291284700,2.61528466796875,0.005696750336885452,-0.14497721073329448,0.24007497666254637
1772568159301356800,2.625356689453125,0.0366384165674448,-0.13760638970434666,0.155393244677037
1772568159311427800,2.635427734375,-0.01998188079893589,-0.1436191106552258,0.07000044181272387
1772568159321500000,2.6455,-0.11049158828556536,-0.13275471188947557,0.020924276215583085
1772568159331571000,2.655571044921875,-0.09437281265556811,-0.08282905332352966,-0.04179652998298406
1772568159341641700,2.665641845703125,-0.08193126423358917,-0.07011409478764981,-0.08698752470985055
1772568159351713800,2.6757138671875,-0.06997662254571914,-0.056577225409634405,-0.10462868760153651
1772568159361784600,2.68578466796875,-0.04516308380663395,-0.013184475743770598,-0.12219795430079101
1772568159371856600,2.695856689453125,-0.08030512433648108,0.009518537114746869,-0.1162745556011796
1772568159381927700,2.705927734375,-0.14191431603133678,0.041315687663480635,-0.08761793156787753
1772568159391998700,2.715998779296875,-0.16212766749858856,0.0453605791401118,-0.04322743956893682
1772568159402071800,2.72607177734375,-0.14746084424257278,0.024125410344451665,-0.018473960454016922
1772568159412142800,2.736142822265625,-0.17204525040090082,-0.027902663860842582,-0.017381635172665118
1772568159422214700,2.746214599609375,-0.17978315117657184,-0.05821827061492949,-0.04568389281034469
1772568159432285700,2.75628564453125,-0.21690788995623586,-0.09686006289403885,-0.01016454340070486
1772568159442356700,2.766356689453125,-0.1263151803612709,-0.09348802917767315,-0.019597119265049694
1772568159452428800,2.7764287109375,-0.08949030131101608,-0.09893931685350835,-0.006469926666468381
1772568159462499800,2.786499755859375,-0.038702363359928126,-0.1371132358925417,0.007829378451406955
1772568159472572000,2.796572021484375,-0.014803601378202438,-0.13260050770845264,0.032936201048642394
1772568159482643000,2.806642822265625,-0.052019525572657585,-0.09715937463417648,0.08589505329802632
1772568159492714000,2.8167138671875,-0.04589899686574936,-0.08569401430059224,0.11854615379497409
1772568159502786000,2.8267861328125,-0.07357201668918133,-0.055204000827670095,0.11428674278482794
1772568159512856800,2.83685693359375,-0.037981063348054886,-0.02219637851063162,0.09955679116472602
1772568159522928600,2.8469287109375,0.030033903735876083,0.015661642979644237,0.0073173372760415075
1772568159532999700,2.856999755859375,0.11064882467389106,0.00147317782510072,-0.051623950383812185
1772568159543070700,2.86707080078125,0.04207037848830223,-0.029595804579555986,-0.08852291758358478
1772568159553142800,2.877142822265625,0.04340834909379482,-0.051812422160618,-0.13004384549558162
1772568159563213800,2.8872138671875,0.01119067157804966,-0.03472374205254018,-0.07303805594295262
1772568159573286000,2.897285888671875,-0.03509761686623096,-0.04680822066515684,-0.0184292445294559
1772568159583357000,2.90735693359375,-0.060550622552633285,-0.027477497251331806,0.04038286379277706
1772568159593428000,2.917427978515625,-0.08826163629889487,-0.027891996336355803,0.07421060685366392
1772568159603499800,2.927499755859375,-0.10033668949604034,-0.0425643725503236,0.09816928232908248
1772568159613570800,2.93757080078125,-0.11820610818564892,-0.08030095961801707,0.09614435237273573
1772568159623641900,2.947641845703125,-0.16302607764303684,-0.08100808497406542,0.08358706861659884
1772568159633713700,2.957713623046875,-0.20663491774499415,-0.05135514337979257,0.1065371515713632
1772568159643784700,2.96778466796875,-0.22022388263642786,-0.006718640730530023,0.11030468741133809
1772568159653856800,2.977856689453125,-0.14284195227026938,0.0014151640275493263,0.08825696012377739
1772568159663927800,2.987927734375,-0.005178863942623138,-0.021835107450187206,0.050516865924745795
1772568159674000000,2.997999755859375,0.09933540349900721,-0.04462850200589746,-0.011191402230411767
1772568159684071000,3.00807080078125,0.12539748099446296,-0.08919394871294498,-0.036243279770016665
1772568159694142000,3.018141845703125,0.08410977731645107,-0.07485770911816507,-0.01696793980523944
1772568159704213800,3.0282138671875,0.025431962898373604,-0.035290253361500795,0.018450725708901883
1772568159714284800,3.038284912109375,-0.03860299463868141,-0.006019150691665708,0.05210559642091393
1772568159724355800,3.04835595703125,0.005758125135302544,0.04722198909781873,0.021087796214222906
1772568159734428000,3.058427978515625,0.05956278055906295,0.0656301543066278,-0.034276948133110996
1772568159744498700,3.068498779296875,0.027562545186281203,0.029724618590995667,-0.06143719612881541
1772568159754570800,3.07857080078125,-0.02301262679696083,-0.002922572915814817,-0.08858838403522967
1772568159764641800,3.088641845703125,-0.11262392413914203,-0.029113318292237816,-0.10154460398107766
1772568159774712800,3.098712890625,-0.19217384619414804,-0.02281582558322698,-0.09511457093358039
1772568159784785000,3.108784912109375,-0.18925883553028106,0.007516403512097895,-0.06987184699699282
1772568159794856000,3.11885595703125,-0.1529097572982311,0.04320731009636074,-0.03110620914250612
1772568159804927700,3.128927734375,-0.12518003885149956,0.010464841521531343,0.024729805978387594
1772568159814998800,3.138998779296875,-0.10896773971915244,-0.01492452434413135,0.060225920642912385
1772568159825069800,3.14906982421875,-0.11014847393631934,-0.0302230696324259,0.04511164588034153
1772568159835142000,3.159141845703125,-0.198619369071722,-0.07178907879516482,0.041242695492506025
1772568159845213000,3.169212890625,-0.2594704358756542,-0.05698942293971777,0.02966886981576681
1772568159855285000,3.179284912109375,-0.3270247997105121,-0.03487648492883891,0.01843552813977003
1772568159865355800,3.189355712890625,-0.31042496256530283,-0.012158201435953378,-0.03197100927829742
1772568159875426800,3.1994267578125,-0.2678220846354961,0.006212992763333022,-0.12588818712085484
1772568159885499000,3.209498779296875,-0.31219431032538414,-0.012584208295680582,-0.21930486809536814
1772568159895570000,3.21956982421875,-0.44103520977199073,-0.09020772886537015,-0.26184914770573375
1772568159905641700,3.229641845703125,-0.3919371246039867,-0.06996792778261006,-0.2423468671172857
1772568159915712800,3.239712646484375,-0.24132453833222386,-0.04828227527309209,-0.2044911837145686
1772568159925783800,3.24978369140625,-0.12790332633554935,0.018778386760689318,-0.17969518063217402
1772568159935855900,3.25985595703125,-0.016261398971080778,0.059299489980377255,-0.1322134446196258
1772568159945927000,3.269927001953125,0.09404664944112301,0.09241185131352395,-0.09325184580162167
1772568159955999000,3.2799990234375,0.1929693804860115,0.08298702036421746,-0.07494198986813426
1772568159966070000,3.290070068359375,0.2831459104955196,0.04458429753798991,-0.06485197300836444
1772568159976140800,3.300140869140625,0.34405250687897204,-0.03507124031595885,-0.08438684069216251
1772568159986212600,3.310212646484375,0.43058863455951213,-0.11751016181074082,-0.054162821211665865
1772568159996283600,3.32028369140625,0.5083201090157031,-0.10341931181177497,-0.008068740165233611
1772568160006355700,3.330355712890625,0.44198622688651085,-0.1021085214741528,0.031305238845944404
1772568160016426800,3.3404267578125,0.25722528729736804,-0.1038981813699007,0.08882116987779735
1772568160026498800,3.350498779296875,0.03742810564041137,-0.048618375359661875,0.15240648395121098
1772568160036569900,3.36056982421875,-0.09486790269613266,0.010539441127702593,0.14263050147667528
1772568160046641000,3.370640869140625,-0.2087503024637699,0.06840623142383992,0.12160364166945219
1772568160056713000,3.380712890625,-0.27353870871663094,0.08522964819185436,0.0880322114571929
1772568160066784000,3.390783935546875,-0.27461890516877174,0.058445101640746,0.040093963848799465
1772568160076855800,3.400855712890625,-0.2542214293062687,0.043254071847535665,-0.04686170441806316
1772568160086926800,3.4109267578125,-0.2897872482061386,-0.00787376558240503,-0.09392609180137515
1772568160096997600,3.42099755859375,-0.2572451610416174,-0.0059949295658618205,-0.05905453877598047
1772568160107069700,3.431069580078125,-0.2331710424929857,0.0491748036660254,-0.006792144358158111
1772568160117140700,3.441140625,-0.2400602174848318,0.03482018816433847,0.07346081139966845
1772568160127212800,3.451212890625,-0.26857436430752274,0.017762085857614875,0.13264920568838715
1772568160137283800,3.461283935546875,-0.22764088089466095,-0.004907207394391298,0.11989435353353618
1772568160147355000,3.47135498046875,-0.06593874533176422,-0.004375365540012717,0.022404139509797093
1772568160157427000,3.481427001953125,0.020039163944125173,-0.11373170271795242,0.06112783791869878
1772568160167498000,3.491498046875,0.1668570341080427,-0.14911646596249192,0.0061652446314692496
1772568160177569800,3.50156982421875,0.32653906202018257,-0.20629947524555026,-0.13660247335880993
1772568160187640800,3.511640869140625,0.2611976980596781,-0.2904070971375331,-0.06469532114192843
1772568160197711600,3.521711669921875,0.16038520774543286,-0.25235665834769605,0.028141514118015763
1772568160207784000,3.531783935546875,-0.04092179297506809,-0.19842852267473934,0.11347323444485664
1772568160217854700,3.541854736328125,-0.05419219343662262,-0.12426621194221078,0.04192512479871511
1772568160227926800,3.5519267578125,-0.0489554618269205,-0.06866320185959339,0.047452363787591455
1772568160237997800,3.561997802734375,-0.12598083384037018,-0.17011121359840034,0.006282295139878988
1772568160248068900,3.57206884765625,-0.09149287330508231,-0.044270811142027376,0.05293152585104108
1772568160258141000,3.582140869140625,-0.07171440612375736,-0.08726802215166389,0.05321443444564938
1772568160268212000,3.5922119140625,-0.055743514531850814,-0.07545932827312499,0.012831132261455058
1772568160278283800,3.60228369140625,-0.028205519264936446,-0.10067304531093686,-0.018701339469105006
1772568160288354800,3.612354736328125,0.05454349109232425,-0.101953330912441,-0.0791359344266355
1772568160298425900,3.62242578125,-0.02109773308634758,-0.13353508514482526,-0.0435891124881804
1772568160308498000,3.632497802734375,-0.11202420468032359,-0.06446414273455739,-0.013939970286190508
1772568160318568700,3.642568603515625,-0.1256792205452919,0.021901925608702,-0.03103343616724014
1772568160328641000,3.65264111328125,0.030048516783118245,0.049122452424280344,-0.07573445542007684
1772568160338711800,3.6627119140625,0.1912573158711195,0.046488669854588806,-0.12669263537153602
1772568160348783600,3.67278369140625,0.29488252551853655,-0.03841781079750508,-0.07663695721775293
1772568160358854700,3.682854736328125,0.2119564050287008,-0.07398151080552488,0.019735650952905415
1772568160368925700,3.69292578125,0.039004561176896095,-0.12828626123853026,0.12156433257237076
1772568160378997800,3.702997802734375,-0.10074293220937251,-0.13643120844513176,0.25556042282506825
1772568160389068800,3.71306884765625,-0.2494751115620136,-0.10455006940737366,0.27447116726115345
1772568160399140900,3.723140869140625,-0.3014437837302685,-0.14745602193698287,0.29139556018561125
1772568160409212000,3.7332119140625,-0.20588672972619532,-0.15743589295316487,0.2429698213212192
1772568160419283000,3.743282958984375,-0.03639233285188675,-0.20519743228778242,0.14336509936153888
1772568160429355000,3.75335498046875,0.07564239322245121,-0.20464516869988292,0.05742123848572373
1772568160439426000,3.763426025390625,0.09644435823261738,-0.1977105471311137,-0.04168751665055752
1772568160449497900,3.773497802734375,0.04525426922142505,-0.17796528809964657,-0.1088973048314452
1772568160459569000,3.78356884765625,0.029772622451186177,-0.14910652909036726,-0.18158508603200316
1772568160469640000,3.793639892578125,0.012814473387598991,-0.10762849047202616,-0.20694690630361437
1772568160479712000,3.8037119140625,-0.11026187118291854,-0.04645699607469141,-0.13893617700338362
1772568160489783000,3.813782958984375,-0.2312286762535572,-0.005829363740608095,-0.04563830010294914
1772568160499855000,3.823855224609375,-0.30219664792418477,0.004375109811685979,0.024923428854346275
1772568160509926000,3.83392578125,-0.3121902186721563,-0.023249212031811475,0.060402300123125315
1772568160519997000,3.843996826171875,-0.30216683730781074,-0.05570278066266328,0.0811740161255002
1772568160530069000,3.854069091796875,-0.15849018777906893,-0.04589413802754134,0.03029489275962114
1772568160540140000,3.86414013671875,-0.09188391844928263,-0.05962769902143627,-0.008137129226326941
1772568160550211800,3.8742119140625,0.0037859482795000073,-0.0655295434763655,-0.05471753248497843
1772568160560283000,3.884282958984375,0.0667372022330761,-0.09122702544312923,-0.05932736436799168
1772568160570354000,3.89435400390625,0.060447746700048446,-0.10535853624604642,-0.046271629570424556
1772568160580426000,3.904426025390625,0.07599252183437347,-0.0942309930320829,-0.044591421398520466
1772568160590497000,3.9144970703125,0.05415419951379299,-0.09799834620896726,-0.013279752811789511
1772568160600569000,3.924569091796875,-0.0505459458887577,-0.04545892494805157,0.03335676454827189
1772568160610640100,3.93464013671875,-0.17677753961980341,-0.03967486165389418,0.0954191068381071
1772568160620711000,3.9447109375,-0.23601883313953875,-0.02487926091905683,0.10938304252177476
1772568160630782700,3.95478271484375,-0.21287351987361908,-0.03681475951503962,0.0941108007185161
1772568160640853800,3.964853759765625,-0.04867313775420189,-0.04816277707926929,0.02641965876147151
1772568160650925800,3.97492578125,0.11567746649086474,-0.08305182922873645,-0.028217940355092286
1772568160660996900,3.984996826171875,0.1707259844958782,-0.0768190723190084,-0.05545256876125931
1772568160671068000,3.99506787109375,0.08893792812526226,-0.06874350055418908,-0.0766191293001175
1772568160681139000,4.005138916015625,-0.071263739746809,-0.05221238126363605,-0.08452814885899423
1772568160691210000,4.0152099609375,-0.1670265454560518,-0.05124554552547633,-0.05503580465391278
1772568160701282000,4.025281982421875,-0.19194412909150121,-0.024628062636964022,-0.044965223146975035
1772568160711353000,4.03535302734375,-0.19676935729086398,-0.026853374003618955,-0.05958177752047777
1772568160721425200,4.045425048828125,-0.18737609052360057,-0.07492050868868827,-0.03954422101154923
1772568160731496000,4.055495849609375,-0.08668634980618953,-0.08206197794117033,-0.04161576658859849
1772568160741567000,4.06556689453125,0.005079495221376419,-0.10472827551849186,-0.02059709008783102
1772568160751638800,4.075638671875,0.13097557338774204,-0.12882263313755393,-0.004313187023997306
1772568160761709800,4.085709716796875,0.1814443623870611,-0.13586787547394633,0.015145692814141512
1772568160771782000,4.095781982421875,0.1369979024171829,-0.17082736251112074,0.05373173631802201
1772568160781853000,4.10585302734375,0.0010766893208026885,-0.19782496729101984,0.12284896555542946
1772568160791924000,4.115924072265625,-0.14895663575828075,-0.2087968450192362,0.20478870535641908
1772568160801996000,4.12599609375,-0.22517536756396292,-0.1901630543610081,0.24508038373440502
1772568160812067000,4.136067138671875,-0.29177170002162456,-0.2229211588963866,0.2332837090872228
1772568160822139100,4.14613916015625,-0.2592874805241823,-0.20531853791680185,0.2014060771808028
1772568160832210200,4.156210205078125,-0.1520522636860609,-0.18133502026107162,0.11565496239811181
1772568160842281000,4.166281005859375,-0.0384989497423172,-0.170443806553632,0.02634878548234701
1772568160852352800,4.176352783203125,0.03952887731194496,-0.12049915102627128,-0.05133724239692092
1772568160862423800,4.186423828125,0.01674362953007221,-0.11415263154376297,-0.031481033804267644
1772568160872495900,4.196495849609375,0.01668868447244167,-0.04882704967427998,0.00936725554317236
1772568160882567000,4.20656689453125,0.03711947808265686,0.0021529402501881123,0.02777092723995447
1772568160892638000,4.216637939453125,0.029517186385393142,0.00007357669286429881,0.029453473499417303
1772568160902710000,4.2267099609375,0.05462649320065975,-0.008274638000875712,0.04180412876754999
1772568160912781000,4.236781005859375,0.01166471883058548,-0.02772244845572859,0.08196911202594638
1772568160922853000,4.24685302734375,-0.08409341070353984,-0.019631825252249834,0.12360182974934578
1772568160932924200,4.256924072265625,-0.1654232019126415,-0.03833513748273253,0.14217822766453028
1772568160942995000,4.266994873046875,-0.13512567880451679,-0.04735854802429676,0.1555539881967008
1772568160953067000,4.27706689453125,-0.05226619381010532,-0.04956405871193856,0.13173632862716914
1772568160963137800,4.2871376953125,0.009647533789277076,-0.05725015623513609,0.13770955781787633
1772568160973209900,4.2972099609375,0.013685411003232001,-0.08109298677854239,0.1558982715897262
1772568160983281000,4.307281005859375,-0.0468774865090847,-0.10121727172285318,0.16049217525124548
1772568160993353000,4.31735302734375,-0.05000409409701824,-0.08999299013614653,0.14646730316057802
1772568161003424000,4.327424072265625,-0.058494859066605565,-0.06358856547642498,0.07473375394493341
1772568161013495000,4.3374951171875,-0.06835165169239044,-0.06041658437680453,-0.02719911870136857
1772568161023566800,4.34756689453125,-0.06592588585019112,-0.029972894263640044,-0.15400500518903135
1772568161033638000,4.357637939453125,-0.10555237831771373,0.01751066837981343,-0.24409371078461406
1772568161043710000,4.3677099609375,-0.16581015540361405,0.07714589312057941,-0.29303675152137876
1772568161053781000,4.377781005859375,-0.10703238774240016,0.13150745177473872,-0.3217094499066472
1772568161063851800,4.387851806640625,-0.08281213872134685,0.1563505819344893,-0.30143282394483684
1772568161073924000,4.397924072265625,-0.030568741264939307,0.16581066686026752,-0.2763691098369658
1772568161083995000,4.407994873046875,0.05216448700129986,0.15008582245130092,-0.2835560987316072
1772568161094067000,4.41806689453125,0.05564531485438347,0.0789436267249286,-0.31753903235420583
1772568161104138000,4.428137939453125,0.11987842531204224,0.021472996139526367,-0.3234780670143664
1772568161114209000,4.438208984375,0.09813654910326003,0.008980448182672261,-0.2885086065724492
1772568161124280800,4.44828076171875,-0.023350480449199674,-0.02532433780543506,-0.19717633065655826
1772568161134352000,4.458351806640625,-0.16416355724036694,-0.047341706487350164,-0.10501914822384714
1772568161144424000,4.468423828125,-0.31553485292494293,-0.07366882812716066,0.008321107491105794
1772568161154495000,4.478494873046875,-0.3533399751842022,-0.049318997909687454,0.056729749090224504
1772568161164566000,4.48856591796875,-0.2931564323782921,-0.04785429565198719,0.07017097607403994
1772568161174638000,4.49863818359375,-0.1814011077672243,-0.055712388741225,0.07319251585230231
1772568161184708900,4.508708984375,-0.13867781832814216,-0.06616594168376178,0.09812310509979724
1772568161194781200,4.51878125,-0.08649462662637233,-0.07589034010153263,0.034614071132987735
1772568161204852000,4.52885205078125,-0.03396481344401836,-0.0991456530805677,0.013205372401326894
1772568161214923000,4.538923095703125,0.05202770887911319,-0.09713997581396251,0.003847615338861942
1772568161224994800,4.548994873046875,0.16477613618075845,-0.08698869375362991,-0.052503217436373234
1772568161235065900,4.55906591796875,0.22243512894511222,-0.04964706082027405,-0.08415200902298092
1772568161245138000,4.569137939453125,0.19342063138484955,-0.005822605206258595,-0.0856140443995595
1772568161255211800,4.579211669921875,0.055986675637960434,0.012867847542650997,-0.016627748065441844
1772568161265282800,4.58928271484375,-0.020314473754167554,0.05407174539472907,0.02583484461084008
1772568161275355000,4.59935498046875,-0.07266016254127025,0.07264587828759103,0.04193535393178463
1772568161285426000,4.609426025390625,-0.05831950249969959,0.061207223297841847,0.009811199918389319
1772568161295497000,4.6194970703125,0.0074491469621658325,0.03782298670951277,-0.047168140018731354
1772568161305569000,4.629569091796875,0.03611468495428562,-0.011785386068187654,-0.07867723087370396
1772568161315640000,4.63964013671875,0.018147651109099387,-0.071797115971148,-0.07856573332324623
1772568161325712000,4.6497119140625,0.036440263646841047,-0.08984667700063437,-0.02951251021027565
1772568161335783000,4.659782958984375,-0.03960311159193516,-0.08944649870190768,-0.0007470189750194549
1772568161345854000,4.66985400390625,-0.1037760162949562,-0.07835344227943569,0.03637757367417216
1772568161355926000,4.679926025390625,-0.19513737217485905,-0.06115947516597807,0.05965484275668859
1772568161365996800,4.689996826171875,-0.2874064905494451,-0.05548581344373524,0.08759294325709342
1772568161376068900,4.70006884765625,-0.28690789337754247,-0.05964837648328394,0.11068564955294131
1772568161386140000,4.710139892578125,-0.20503391228914258,-0.04767524929065257,0.12816110048890114
1772568161396211000,4.7202109375,-0.08782675201296807,-0.024178382640704512,0.10856310444101691
1772568161406282000,4.730281982421875,-0.02240706211924553,-0.04503145678360015,0.08421952130123972
1772568161416353000,4.74035302734375,0.028522330129146574,-0.08998173808977007,0.05612359989061951
1772568161426425000,4.750425048828125,0.052525721529126164,-0.1076516886845231,0.024443536382913588
1772568161436496100,4.76049609375,0.06218260766863823,-0.14586400350518525,-0.013548194489628075
1772568161446567200,4.770567138671875,0.01855272477865219,-0.14198014780916274,-0.02252192067056894
1772568161456639000,4.780638916015625,-0.07761515460014343,-0.12545070901904254,0.004461071062088012
1772568161466709800,4.790709716796875,-0.1989081228852272,-0.12213899065516888,0.0641658904403448
1772568161476781800,4.80078173828125,-0.22607553127408025,-0.09364705566428601,0.1474900703370571
1772568161486852900,4.810852783203125,-0.1547235287219286,-0.07264178663436323,0.2076782893180847
1772568161496925000,4.820925048828125,0.015979659420251844,-0.09208725900165736,0.19942893188893793
1772568161506996000,4.830995849609375,0.13101122922301292,-0.10956526722088455,0.15717720548436045
1772568161517067000,4.84106689453125,0.16063713667988777,-0.1636683941345662,0.10167612140625715
1772568161527139000,4.85113916015625,0.059708326509594914,-0.19637838521189988,0.06077230247929692
1772568161537210000,4.861210205078125,-0.03812368668913841,-0.23551044522598386,0.05971314881518483
1772568161547282000,4.871281982421875,-0.028715222352743146,-0.1990052996493876,0.04279606241434812
1772568161557353000,4.88135302734375,-0.07383388249576091,-0.17178901061750948,-0.0009077624946832656
1772568161567424000,4.891424072265625,-0.12375263639688491,-0.13322656718492507,-0.06103855220004916
1772568161577496000,4.90149609375,-0.17027531811892985,-0.05641790666207671,-0.14986805151477456
1772568161587566800,4.91156689453125,-0.253898188701272,0.006196443487331271,-0.2046113029628992
1772568161597639000,4.921638916015625,-0.31025720478296276,0.06673983258157969,-0.2348682017996907
1772568161607710000,4.9317099609375,-0.36410277673900127,0.11717479237653314,-0.19548092491552232
1772568161617781000,4.941781005859375,-0.33355098660886284,0.16953626325465737,-0.11310878504663704
1772568161627852800,4.951852783203125,-0.3084767511069774,0.19256328390315175,-0.04620514020547271
1772568161637923800,4.961923828125,-0.26583529473245143,0.19008520335182547,-0.03202244720458984
1772568161647996000,4.971995849609375,-0.1638163512378931,0.14735599562861024,-0.09945099270269274
1772568161658067000,4.98206689453125,-0.06908698022961617,0.09250665345750748,-0.15921075713858007
1772568161668138000,4.992137939453125,-0.09518003738522529,0.05324607169292867,-0.16079583437293768
1772568161678210000,5.0022099609375,-0.07131050149798393,0.04502046046555042,-0.20971929362639782
1772568161688281000,5.012281005859375,0.038213118538260454,0.0466324257068336,-0.09929302566200494
1772568161698353200,5.022353271484375,0.09545476267337799,0.04780154255144298,0.1689754875667393
1772568161708424000,5.032423828125,0.16576280913054942,0.03414484618604183,0.3339483153633773
1772568161718495000,5.042494873046875,0.22212708590924737,0.06655461220778525,0.3125558371141553
1772568161728566800,5.05256689453125,0.09279811068475245,0.12645246994011103,0.2063334505803883
1772568161738637800,5.062637939453125,0.019327800804376603,0.1321202133782208,0.042276276323944324
1772568161748710000,5.0727099609375,0.1073883615732193,0.1534489056762308,-0.048370355415344235
1772568161758781000,5.082781005859375,0.19139935469031333,0.09036365007944405,-0.06333849970549345
1772568161768852000,5.09285205078125,0.24250234993994235,0.03732186878696084,-0.10557838954180479
1772568161778924000,5.102924072265625,0.1229296295762062,-0.029811127830669283,-0.10541779215261339
1772568161788995000,5.1129951171875,0.040488077732920645,-0.04795300678610801,-0.14794146736636757
1772568161799067100,5.123067138671875,-0.07576748090684414,-0.10074366286173463,-0.12167144620865583
1772568161809138200,5.13313818359375,-0.18956746308803557,-0.12517448589354752,-0.005549012429267168
1772568161819209000,5.143208984375,-0.17543547736108303,-0.09766096748076379,0.07679755460694432
1772568161829280800,5.15328076171875,-0.32424422908127304,-0.10606748823300004,0.11978387889638542
1772568161839351800,5.163351806640625,-0.39659517954289913,-0.1134898933187127,0.14763634693995117
1772568161849422800,5.1734228515625,-0.31301147192716594,-0.11301511541381477,0.11388181524574756
1772568161859495000,5.183494873046875,-0.2121656638652086,-0.13289046709835528,0.08865253531262278
1772568161869566000,5.19356591796875,-0.11647943052351474,-0.1468628783494234,0.0779180830694735
1772568161879638000,5.203637939453125,-0.0350175373673439,-0.17694317851029334,0.057718906258046626
1772568161889709000,5.213708984375,-0.009808861830830573,-0.20521774442344903,0.029300621025264262
1772568161899780000,5.223780029296875,0.06272562850415707,-0.22720351239070294,-0.01838584377914667
1772568161909852000,5.233851806640625,0.11852350357174872,-0.21717837746068833,-0.03191080352365971
1772568161919923000,5.2439228515625,0.09040507806837558,-0.20133527696691453,-0.011485562871396541
1772568161929995000,5.2539951171875,-0.012137597039341926,-0.133548857941851,-0.00899184635952115
1772568161940065800,5.264065673828125,-0.08350538168251515,-0.12560031009018421,-0.011414981853216885
1772568161950136800,5.27413671875,-0.14867255811989308,-0.10795469021908938,0.019225363343209026
1772568161960209000,5.284208984375,-0.1326204179853201,-0.042731180484592915,-0.001441138719022274
1772568161970280000,5.294280029296875,-0.14609014041125773,-0.017726722283288837,-0.0443634578615427
1772568161980352000,5.30435205078125,-0.13589315604567526,-0.0024934973161667585,-0.07140797052308917
1772568161990423000,5.314423095703125,-0.12773264594376085,-0.020108575918525457,-0.09325739875957369
1772568162000494000,5.324494140625,-0.09279811068475245,-0.0445416639726609,-0.07925313106551767
1772568162010566000,5.33456591796875,-0.09223580062687396,-0.030806568608805537,-0.03934124578535556
1772568162020637000,5.344636962890625,-0.10031155505478381,0.022116627805307505,-0.016572072355449198
1772568162030709000,5.354708984375,-0.017231705307960508,0.05342288956455886,-0.025413696589320897
1772568162040779800,5.36477978515625,0.023151743006706235,0.06374985698536038,-0.010202391193062066
1772568162050850800,5.374850830078125,0.050960956430435175,0.03268953281119465,-0.0043066111527383325
1772568162060923000,5.3849228515625,0.07494330504238605,-0.010364449886977671,0.04686433476656675
1772568162070994000,5.394993896484375,0.05947860940694809,-0.050831850158050654,0.07409867091178894
1772568162081066000,5.40506591796875,0.031083705049753187,-0.08092369462624192,0.08802943497821689
1772568162091137000,5.415136962890625,0.061871057501435275,-0.07025156702958046,0.11771905532106756
1772568162101208000,5.4252080078125,-0.022336919492483138,-0.04947780520059168,0.13232523443102837
1772568162111279900,5.43527978515625,-0.17797931662499902,-0.10354319391977042,0.14122706441953778
1772568162121351000,5.445350830078125,-0.1300409228861332,-0.08748363766372204,0.08762173096016049
1772568162131423000,5.455423095703125,-0.09787059164345265,-0.055140543670021,0.0211653914950788
1772568162141494000,5.465493896484375,-0.15807283914983272,-0.0374573317348957,-0.004938917706906795
1772568162151564800,5.475564697265625,-0.17453122199773788,0.09690748223233968,-0.05289280127584934
1772568162161636900,5.485636962890625,-0.2403086392879486,0.12895444282367824,-0.04163213320150971
1772568162171708000,5.4957080078125,-0.23403028967082498,0.14098470703102647,-0.00810775700137019
1772568162181780000,5.505780029296875,-0.12471768203675747,0.10335348003394901,-0.025745412761718035
1772568162191851000,5.51585107421875,-0.049741059246659274,0.03996346933692693,-0.027081629801541565
1772568162201922000,5.525922119140625,-0.010542436802387237,0.0014567746795713901,-0.06383519718125462
1772568162211993900,5.535993896484375,-0.019420155262947082,-0.041706805872917176,-0.08890008033290504
1772568162222065000,5.54606494140625,-0.06808101805746555,-0.08053001913353801,-0.08857245581373571
1772568162232137000,5.556136962890625,-0.07175707622170448,-0.10167480623200535,-0.08747560048773884
1772568162242208000,5.5662080078125,-0.08476151922345161,-0.10185856530107557,-0.03177256409674883
1772568162252279000,5.576279052734375,-0.11106325069367885,-0.09137019677348435,0.00690919486656785
1772568162262351000,5.58635107421875,-0.15419395188987253,-0.08287431723736226,0.055225628137588495
1772568162272422000,5.596421875,-0.15028993018865586,-0.031508214072138066,0.07984218299984931
1772568162282494000,5.606493896484375,-0.12409867335557936,0.006601955548301339,0.09464008528962731
1772568162292565000,5.61656494140625,-0.07284487145841122,0.0657516252618283,0.0609659253552556
1772568162302636000,5.626635986328125,-0.04916413614153862,0.08650821676030755,0.022577888641506432
1772568162312707800,5.636707763671875,-0.01604044969677925,0.09213175573050975,-0.023169424793869256
1772568162322779000,5.64677880859375,-0.03455225794315338,0.07272307170964777,-0.04261676032468676
1772568162332851000,5.656850830078125,-0.05936345859467983,0.058665393327921624,-0.045345746897161004
1772568162342922000,5.666921875,-0.047449148917198175,0.04351195559874177,-0.056306993633508676
1772568162352993000,5.676992919921875,0.10459902311563492,0.03520670326389372,-0.0798616183526814
1772568162363065000,5.687065185546875,0.22571020509302614,0.03934153804630041,-0.08982304039672016
1772568162373136100,5.69713623046875,0.24756957020163534,0.0290794525552541,-0.04715235792770982
1772568162383208000,5.7072080078125,0.06441197415590286,0.05859605441875755,0.019152590367943048
1772568162393278700,5.71727880859375,-0.093048870575428,0.07783106237314641,0.06651859104633331
1772568162403355600,5.727355712890625,-0.09144026633501053,0.12342764222621917,0.06136281571835279
1772568162413427700,5.737427734375,-0.08685469211041927,0.06895918913148343,0.05274360206350684
1772568162423498800,5.747498779296875,-0.07610825716853141,-0.008604527542367577,0.07096504906117916
1772568162433570600,5.757570556640625,-0.130641811388731,-0.022537848892062902,0.08824073964133858
1772568162443641600,5.7676416015625,-0.22141163111627102,-0.0588636923789978,0.096834818854928
1772568162453712600,5.777712646484375,-0.23436229810416698,-0.07699556139707565,0.11573138863518834
1772568162463784700,5.78778466796875,-0.13835750033259392,-0.062309229722991584,0.12042904493212699
1772568162473855700,5.797855712890625,-0.08242401618659496,-0.04104169302769005,0.10053791115656495
1772568162483927800,5.807927734375,-0.028859599259495734,-0.03351823872029781,0.01729205719307065
1772568162493998800,5.817998779296875,0.026995558953285214,-0.06901471871100366,-0.039139877994358536
1772568162504069600,5.828069580078125,-0.02549216865301132,-0.10680632390156387,-0.07474222951233386
1772568162514141400,5.838141357421875,0.018528174859285353,-0.1587201971426606,-0.10212181934714316
1772568162524212500,5.84821240234375,-0.020040332987904547,-0.2076871302116662,-0.09995105117931961
1772568162534284500,5.858284423828125,0.037138182783126826,-0.22999745395816862,-0.13633183972388505
1772568162544355600,5.86835546875,0.04735504089295864,-0.2089285085748881,-0.12146715580821037
1772568162554426600,5.878426513671875,-0.021986206358671188,-0.16954159701690077,-0.05503507400155067
1772568162564498700,5.888498779296875,-0.15708791976571082,-0.13327778591550885,0.016761457447707653
1772568162574569700,5.89856982421875,-0.22707447918355464,-0.10140132305286824,0.07255904025435447
1772568162584641800,5.908641845703125,-0.20525310799777507,-0.12215952198654413,0.10163871200531721
1772568162594712800,5.918712890625,-0.1606178474575281,-0.17984796004109083,0.14137187971770762
1772568162604783900,5.928783935546875,-0.12720073102414609,-0.23830789392478763,0.1544420814320445
1772568162614855700,5.938855712890625,-0.1716372541218996,-0.28301709648407997,0.17141908132657407
1772568162624926500,5.948926513671875,-0.1655979739576578,-0.29118308647871016,0.15144596835598348
1772568162634998500,5.95899853515625,-0.09227437907159328,-0.258858660652861,0.09784078102707862
1772568162645069600,5.969069580078125,-0.03175122904777527,-0.2287153782583773,0.06335764279738068
1772568162655140600,5.979140625,-0.04044014693796635,-0.20766864470690488,0.08778174382746219
1772568162665212700,5.989212646484375,0.03340367242991924,-0.14963157587777823,0.03832403156682849
1772568162675283700,5.99928369140625,0.0736690473228693,-0.11736702701300382,-0.0404040527112782
1772568162685355800,6.009355712890625,0.07225216626226902,-0.08105506592094898,-0.0946238648071885
1772568162695426800,6.0194267578125,0.08565116153955459,-0.032551914438791574,-0.155341952881217
1772568162705497900,6.029497802734375,0.11991115853786467,-0.0011117606341838836,-0.2254493621997535
1772568162715569700,6.039569580078125,0.043460371541976926,-0.005828231229446828,-0.19551891883835196
1772568162725640700,6.049640625,-0.09856558817028999,0.03807371006757021,-0.10974354639723896
1772568162735712800,6.059712646484375,-0.14423311436772346,0.062290013565868135,-0.10740092879384755
1772568162745783600,6.069783447265625,-0.15570903262794017,0.05409870646689087,-0.06850172768756747
1772568162755854600,6.0798544921875,-0.09662263740897178,0.05474233813267201,-0.061628188656270504
1772568162765926700,6.0899267578125,0.023752046987414357,0.03045541708357632,-0.10987535608336328
1772568162775997700,6.099997802734375,0.039682022047042846,-0.02952715979013592,-0.147863287563622
1772568162786069500,6.110069580078125,0.04603519046604633,-0.047659211471304294,-0.14850216998904942
1772568162796140500,6.120140625,-0.018021394380927085,-0.0344504415364936,-0.13626476583704353
1772568162806211600,6.130211669921875,-0.16152093377709387,-0.05188146880883723,-0.0938549262613058
1772568162816283600,6.14028369140625,-0.15399989062249658,-0.04025324606373906,-0.07608458403199911
1772568162826354700,6.150354736328125,-0.16832652213871477,-0.024263211379945276,-0.06952376421168446
1772568162836426800,6.1604267578125,-0.14044248991310596,-0.03406991778630763,-0.04767535888850689
1772568162846497800,6.170497802734375,-0.06354688175916672,-0.0023917905073612927,-0.0069752458401024335
1772568162856569900,6.18056982421875,-0.018767244312167166,-0.004287066202051938,-0.02294701421484351
1772568162866640600,6.190640625,-0.022974048352241514,-0.02832077967505902,-0.052502632914483545
1772568162876711700,6.200711669921875,-0.11673545111119746,-0.03259863965734839,-0.035997049923986196
1772568162886783500,6.210783447265625,-0.11978081015646456,-0.02772339830379933,-0.051562429454922676
1772568162896854500,6.2208544921875,-0.038970074385404584,-0.037021972524933514,-0.09149258104413747
1772568162906926600,6.230926513671875,-0.11781272495388984,-0.04450546014811843,-0.015681260995566843
1772568162916997600,6.24099755859375,-0.16993103472590446,-0.040872364342771465,0.038654724825918675
1772568162927068700,6.251068603515625,-0.14800971029698848,-0.06888572203647345,0.08539455642998219
1772568162937140700,6.261140625,-0.1828553982287645,-0.09358608272466808,0.16378654062151907
1772568162947211800,6.271211669921875,-0.10610124437212944,-0.11807886507678776,0.1781654868468642
1772568162957283800,6.281283935546875,-0.08015022603571414,-0.1280374741092324,0.17457959118410943
1772568162967355000,6.29135498046875,0.015589198797941206,-0.11228921229206025,0.10942673553302884
1772568162977426700,6.3014267578125,0.11239303799271583,-0.1589469551032409,0.07417465875744819
1772568162987497500,6.31149755859375,0.29414252080619335,-0.13737974134162068,0.04019128674343228
1772568162997568500,6.321568603515625,0.4322176970660686,-0.15346373791918158,0.00491626748368144
1772568163007640600,6.331640625,0.4781424128949642,-0.16851466512195765,-0.0073832421191036696
1772568163017711600,6.341711669921875,0.37956338072121143,-0.18398842084668576,0.003480973983556032
1772568163027783700,6.35178369140625,0.09592822540402411,-0.150143032531254,0.06829685276523233
1772568163037854700,6.361854736328125,-0.15551263327300546,-0.1579904946286231,0.11508446903377771
1772568163047925800,6.37192578125,-0.21195172885358332,-0.11059559664931147,0.10361702634096145
1772568163057997800,6.381997802734375,-0.23688567910194397,-0.13251407153401523,0.05832943937182426
1772568163068068900,6.39206884765625,-0.24503332972228525,-0.14732706179507077,0.02872968926951289
1772568163078140700,6.402140625,-0.18333412165641783,-0.13760894698761403,-0.006803542535007
1772568163088211700,6.412211669921875,-0.17066694778501987,-0.11996314445342868,0.02547521751821041
1772568163098283800,6.42228369140625,-0.12124562201201915,-0.09783157480731607,0.028968028070032594
1772568163108354600,6.4323544921875,-0.08509995739758014,-0.07555533599350601,0.04093991315364837
1772568163118425600,6.442425537109375,-0.0611029957383871,-0.03196768481004983,0.04327449358105659
1772568163128497700,6.45249755859375,-0.14279577504098415,-0.03388977544642985,0.07332374101653695
1772568163138568700,6.462568603515625,-0.1113356378942728,-0.053775392796657974,0.062087330600619314
1772568163148640500,6.472640625,-0.13468611834347247,-0.016849354926869273,0.08609861304610968
1772568163158711600,6.482711669921875,-0.12229893045723438,-0.016200937488116324,0.07326295074000955
1772568163168783600,6.49278369140625,-0.030378771650791166,-0.05817888845261186,0.01736424564644694
1772568163178854700,6.502854736328125,0.11592004307508467,-0.10250899203382433,-0.0064468380518257614
1772568163188925700,6.51292578125,0.22806349022090433,-0.14226667313296348,0.008456716569513082
1772568163198997800,6.522997802734375,0.2445733109951019,-0.13356602827236055,0.04679404600933194
1772568163209068800,6.53306884765625,0.14661153393685816,-0.11475205874163656,0.07458543151542545
1772568163219140900,6.543140869140625,0.010196984365582466,-0.07429455881007015,0.056007718425989145
1772568163229211600,6.553211669921875,-0.08615092775523663,-0.047659321069158614,0.05628288210555911
1772568163239283500,6.563283447265625,-0.10501403365731239,0.020489647657983005,0.020135902316868303
1772568163249354500,6.5733544921875,-0.08318097203373909,0.05335011658929288,-0.07272182960063218
1772568163259425500,6.583425537109375,-0.046021746462583536,0.011747026819176972,-0.173024032305181
1772568163269497600,6.59349755859375,-0.04619885659515857,0.01247523149587214,-0.21158874076008796
1772568163279568600,6.603568603515625,-0.12815700883567333,0.049825157333537935,-0.1837659372024238
1772568163289640700,6.613640625,-0.27609365389645096,0.08814728920422493,-0.10563625720888375
1772568163299711700,6.623711669921875,-0.2664168940126896,0.12897530294861645,-0.061211570679396386
1772568163309782800,6.63378271484375,-0.07603694549798964,0.11645078895092009,-0.06235226514711976
1772568163319854800,6.643854736328125,0.032761282873153684,0.08020239461436868,-0.05481090985685587
1772568163329925600,6.653925537109375,0.1209124445348978,0.02614266845099628,-0.0454557831428945
1772568163339997700,6.663997802734375,0.13656126456558704,-0.02584010530784726,-0.010971621999889611
1772568163350068500,6.674068359375,0.10577741924524306,-0.06518471209406852,0.04398790254741907
1772568163360140500,6.684140625,-0.002841360905766487,-0.07678286849446594,0.09565408463776111
1772568163370211600,6.694211669921875,-0.15591478433310985,-0.07585815486498176,0.13416691677495837
1772568163380283600,6.70428369140625,-0.25331191324591634,-0.08237944639250636,0.13279621294364333
1772568163390354700,6.714354736328125,-0.27734628430604935,-0.08182535617370158,0.13386179634854198
1772568163400421000,6.724421142578125,-0.1487362710058689,-0.044027357774972915,0.07334829093590378
1772568163410493200,6.7344931640625,-0.026042788273096085,-0.08364292698968201,0.03440831942781806
1772568163420564200,6.744564208984375,0.07617723075151443,-0.10063201918080449,0.03190788091421127
1772568163430636300,6.75463623046875,0.10213526335060596,-0.12114424399677663,0.004581482571363449
1772568163440707300,6.764707275390625,-0.015263035583496093,-0.10962916276995092,0.020807225707173346
1772568163450779100,6.774779052734375,-0.01980067901313305,-0.11947236526180058,-0.023672405879944562
1772568163460850200,6.78485009765625,-0.07847732438743114,-0.10735420357529073,-0.008944500086456537
1772568163470921000,6.7949208984375,-0.09032850570082664,-0.08159567560367285,-0.013246727325022219
1772568163480993300,6.8049931640625,0.03664835343956947,-0.09311404476612806,-0.032022301074117424
1772568163491064000,6.81506396484375,0.15341536873281,-0.050425095988065,-0.030780630449950695
1772568163501136100,6.82513623046875,0.13766601093709468,-0.06360916987303644,0.020428309392184017
1772568163511207200,6.835207275390625,0.150744688218832,-0.06325326910745352,0.013225830667465924
1772568163521279000,6.845279052734375,0.1157312425047159,-0.06612867841329426,0.04531710532456636
1772568163531350000,6.85535009765625,0.05484101273417472,-0.11327095333840698,0.03611103169247508
1772568163541422000,6.865422119140625,0.09162789786159992,-0.16624215361271052,-0.0010460019215941428
1772568163551493000,6.8754931640625,0.09426292254030703,-0.18860797040611504,-0.003240735486894846
1772568163561564200,6.885564208984375,0.040115152767300606,-0.21217333571501076,0.027589140932261943
1772568163571636200,6.89563623046875,-0.07729132947325706,-0.16470807591322809,0.05862666875272989
1772568163581707300,6.905707275390625,-0.19393384160399435,-0.1567737392500043,0.14041925516799092
1772568163591779300,6.915779296875,-0.2234779159963131,-0.1628679279392585,0.2057536048658192
1772568163601850400,6.925850341796875,-0.164762107655406,-0.1410240161281079,0.1763676436446607
1772568163611922200,6.935922119140625,-0.12407646152377128,-0.17496099171712995,0.12409560461565851
1772568163621993000,6.945992919921875,-0.09889058234095573,-0.22751221301369368,0.07411284556761384
1772568163632065000,6.95606494140625,-0.11449205609858035,-0.2126598040577024,0.018662322632968426
1772568163642136000,6.966135986328125,-0.15513912378549574,-0.25052564352825285,-0.018623305796831847
1772568163652207000,6.97620703125,-0.12983400213718413,-0.21073376789856701,-0.037528789535909886
1772568163662279200,6.986279052734375,-0.06318038653433322,-0.18679792530946432,-0.06569952974840998
1772568163672350200,6.99635009765625,-0.04648936397433281,-0.16347988582514225,-0.020939327654242515
1772568163682422300,7.00642236328125,0.009199790021777152,-0.11448474957495927,0.00022080314382910728
1772568163692493300,7.016493408203125,-0.0856815566778183,-0.07891410836949944,0.018841916983574628
1772568163702565000,7.026565185546875,-0.18359306485354898,-0.05829487951509654,0.028099574672430752
1772568163712636200,7.03663623046875,-0.15043898327052593,-0.05431476037036627,-0.012719780841469764
1772568163722708200,7.046708251953125,-0.043864860689640045,-0.08962105155121534,-0.07896627694815397
1772568163732779300,7.056779296875,0.07696867339015007,-0.14055435278974474,-0.11503668436929583
1772568163742850000,7.06685009765625,0.1561433323919773,-0.17866379175782202,-0.1201766776062548
1772568163752922000,7.076922119140625,0.1374029760867357,-0.23193331739157436,-0.09342997884750366
1772568163762993200,7.0869931640625,0.034902386555075646,-0.24900226988587526,-0.021375234853476286
1772568163773065200,7.097065185546875,-0.044098669445514674,-0.19262016518954186,0.07659574842453003
1772568163783136300,7.10713623046875,-0.12001286534667015,-0.0885202872350812,0.12057575992643832
1772568163793208000,7.1172080078125,-0.08679331731200218,-0.0709308910632506,0.049765755296498536
1772568163803279000,7.127279052734375,-0.07313070266246795,-0.06779504072293639,-0.03590805646628141
1772568163813351200,7.13735107421875,-0.06012918227016925,-0.06685052641443907,-0.11159238913431763
1772568163823422200,7.147422119140625,-0.07184709259271621,-0.04215250381380319,-0.16513664005622267
1772568163833494300,7.157494384765625,-0.15943594419658183,0.017763839423283932,-0.21063421651422976
1772568163843565300,7.1675654296875,-0.26099369992017746,0.0654174248714,-0.20633155088424682
1772568163853636400,7.17763623046875,-0.2764414444208145,0.11190255106203258,-0.14424173606559634
1772568163863708200,7.187708251953125,-0.26986849577128885,0.14619177415482698,-0.03686740301772952
1772568163873779000,7.197779052734375,-0.2543698978662491,0.19136969020441175,0.039895957058668136
1772568163883851000,7.20785107421875,-0.2141582989871502,0.2641610048446804,0.009010843320935965
1772568163893922000,7.217922119140625,-0.18549626812636852,0.26055684287287295,-0.04261412997618318
1772568163903994000,7.227994140625,0.06806757405400275,0.22929624688625333,-0.1648870492093265
1772568163914065200,7.238065185546875,0.22645430145859716,0.21880364057496188,-0.23110753409191964
1772568163924137200,7.24813720703125,0.2914525510698557,0.2117091522693634,-0.27815993877649303
1772568163934208300,7.258208251953125,0.26879589810371396,0.1661130838729441,-0.28319851746559144
1772568163944280000,7.268280029296875,0.17160335185229778,0.15730594643056392,-0.2684993993751705
1772568163954351000,7.27835107421875,0.06637187605202198,0.1811108926489949,-0.2183778163783252
1772568163964423200,7.288423095703125,0.034437691652774806,0.22076719573289155,-0.1661507855348289
1772568163974494200,7.298494140625,-0.007765373304486275,0.21229484320282935,-0.13358955527842045
1772568163984566300,7.308566162109375,0.02037058785557747,0.17301080749742687,-0.10856135087534785
1772568163994637300,7.31863720703125,0.08741641764640808,0.1559212871391326,-0.1285503920674324
1772568164004708000,7.3287080078125,0.09588321721851825,0.08579963009953498,-0.13231617434173823
1772568164014780200,7.3387802734375,0.04986439336538315,0.03976641239486634,-0.1144768585294485
1772568164024851200,7.348851318359375,-0.08274491870403289,0.013930910196900367,-0.05660436914488673
1772568164034923000,7.358923095703125,-0.2755623234987259,-0.00806771725192666,0.006384440340101718
1772568164044994000,7.368994140625,-0.298104410174489,-0.050710415735468264,0.037602877685427666
1772568164055066000,7.379066162109375,-0.2442173371642828,-0.07451273160539568,0.07308905547782778
1772568164065137200,7.38913720703125,-0.11050503228902817,-0.10101510021425783,0.05539528561607003
1772568164075209200,7.399209228515625,0.026993805387616157,-0.11265030068941413,0.007295856096595526
1772568164085280300,7.4092802734375,0.026452538117766378,-0.16765636779218912,-0.021799451614916324
1772568164095352000,7.41935205078125,-0.03486380811035633,-0.21739896140880882,0.01857771308943629
1772568164105423000,7.429423095703125,-0.12550620206594468,-0.20583952958360313,0.08987900836765765
1772568164115495200,7.4394951171875,-0.10043781178295612,-0.1592022085059434,0.12051701547652482
1772568164125566200,7.449566162109375,-0.0358498965382576,-0.1522826383758336,0.11131956354230642
1772568164135638300,7.45963818359375,-0.011847089660167693,-0.17841018232293426,0.11698840295895933
1772568164145709000,7.469708984375,-0.005433715486526489,-0.16069997278302908,0.13409589736536145
1772568164155781400,7.479781494140625,-0.057122401669621466,-0.11829188677296042,0.1544191389478743
1772568164165852200,7.48985205078125,-0.0741132839590311,-0.09514138587526977,0.15038316143006086
1772568164175924000,7.499924072265625,-0.09531506194174288,-0.1102453584395349,0.11239596060216427
1772568164185995000,7.5099951171875,-0.0018593641310930252,-0.12014314066283405,0.05783785646259784
1772568164196066000,7.520066162109375,0.07002572238445282,-0.17096790349297225,0.026131781730800864
1772568164206138000,7.53013818359375,0.06608896745741367,-0.17421726067773996,0.04451894068419933
1772568164216209200,7.540209228515625,0.08260346440672874,-0.14726291051767765,0.029101737452298403
1772568164226281200,7.55028125,-0.011819617131352425,-0.14523798056133091,0.0554869094222784
1772568164236352300,7.560352294921875,-0.07076455805301665,-0.14128105962909757,0.04953925306424498
1772568164246424300,7.57042431640625,-0.16442366948127746,-0.106407460777089,0.11688158158361911
1772568164256495400,7.580495361328125,-0.20821078875958918,-0.10875161275044083,0.15997209689989686
1772568164266567200,7.590567138671875,-0.2123193931221962,-0.06358297598585486,0.1662641827814281
1772568164276638200,7.60063818359375,-0.2131687034279108,-0.033071737061813475,0.19305705876946447
1772568164286710300,7.610710205078125,-0.24147359141409397,-0.03657843000851571,0.2088691065378487
1772568164296781000,7.620781005859375,-0.1345142689079046,-0.01961786979213357,0.16558219186663628
1772568164306853000,7.63085302734375,-0.09273381327688693,-0.09156301593184471,0.13361205937117338
1772568164316924200,7.640924072265625,0.08589432264566421,-0.1473063843332231,0.0006938274830579757
1772568164326996000,7.650995849609375,0.1022597665131092,-0.2179159710202366,-0.11400807197391986
1772568164337067000,7.66106689453125,-0.08470014442503451,-0.25680662349388,-0.15029738284274935
1772568164347139000,7.67113916015625,-0.12106558926999568,-0.21919395506680012,-0.11825345445871352
1772568164357210000,7.681210205078125,-0.09961129783093929,-0.031018823119997978,-0.1532775676973164
1772568164367282200,7.6912822265625,-0.09727730192542075,0.013917100867256522,-0.16549012966901064
1772568164377353200,7.701353271484375,0.01289338384270668,0.09998634168840945,-0.15486322945356368
1772568164387425300,7.71142529296875,-0.000036240357160568236,0.1394996561050415,-0.09709113170355557
1772568164397496300,7.721496337890625,-0.07109773553013801,0.11704195977710187,0.02753989496305585
1772568164407567600,7.731567626953125,0.27362814056575296,0.05789440895542502,0.12365545963272452
1772568164417638700,7.741638671875,0.15182722275853155,0.10036255458965897,0.07124035887122154
1772568164427710500,7.75171044921875,-0.07659574842453003,-0.07213065877445042,0.08022855196893215
1772568164437781500,7.761781494140625,0.023216624936461448,0.005055895150080323,-0.031140111412107943
1772568164447853600,7.771853515625,0.09311901320219039,-0.028186156977340577,-0.13941153943017123
1772568164457924600,7.781924560546875,0.13119243100881575,-0.076020432754606,-0.127853641974926
1772568164467996700,7.79199658203125,0.06293956351578235,-0.045957595185190436,-0.04635068615600466
1772568164478067700,7.802067626953125,0.122581254529953,0.012346125223487615,-0.08294277936369181
1772568164488139500,7.812139404296875,0.020996026277542112,0.05947276418805122,0.02145136882960796
1772568164498210300,7.822210205078125,0.07970072870254516,0.014059212751686572,-0.01014233156889677
1772568164508282400,7.832282470703125,0.08736030354499816,0.02213628235384822,0.05057604876607656
1772568164518353400,7.842353515625,0.1032271502405405,0.076575290158391,0.010106383472681045
1772568164528425500,7.852425537109375,-0.07143325109481811,0.06573145925663411,-0.08991671002954243
1772568164538496500,7.86249658203125,-0.2620411631464958,0.023753289096429944,-0.013592618153244257
1772568164548568600,7.872568603515625,-0.17717150737345216,0.12792539203688502,0.017331366290152073
1772568164558639600,7.8826396484375,-0.33235797743201256,0.11753098540306091,-0.04290419896394014
1772568164568711400,7.89271142578125,-0.14734160177707673,0.043097821839898826,-0.03045738984495401
1772568164578782500,7.902782470703125,-0.024134908825159073,0.14022278274782002,-0.07104045238494873
1772568164588854500,7.9128544921875,0.1413771404147148,0.0062452510651201006,-0.12611498161405324
1772568164598925600,7.922925537109375,0.059144847407937046,0.0051586248721927404,-0.051761313027888535
1772568164608997600,7.93299755859375,-0.09776303961575031,-0.0023461247347295283,0.04069777496084571
1772568164619068700,7.943068603515625,-0.0900771612882614,-0.17819493213705717,0.0480690343812108
1772568164629140700,7.953140625,-0.24683657975196838,-0.1135742836665362,0.05700403598695993
1772568164639211500,7.96321142578125,-0.31964871798455713,-0.2602062758695334,0.09131167151927948
1772568164649283600,7.97328369140625,-0.4277712390512228,-0.16861038058139383,0.05885726263821125
1772568164659354400,7.983354248046875,-0.5114858795702457,-0.22401852567903696,0.10241963324993848
1772568164669423600,7.993423583984375,-0.5535054046541452,-0.16211225073374808,0.11798954282552003
1772568164679495700,8.00349560546875,-0.4580711002469062,-0.11784962289817631,0.11661869286373257
1772568164689566700,8.013566650390626,-0.27935060986578464,-0.03790156837105751,0.047809214401245116
1772568164699638500,8.023638427734374,-0.06903378873765469,-0.0703395375739783,0.017542817083746193
1772568164709709600,8.03370947265625,0.0902694689899683,-0.05375570171549916,-0.0696104195818305
1772568164719781600,8.04378173828125,0.30223581089079377,-0.06969407927729189,-0.09593903905898332
1772568164729852400,8.053852294921874,0.4706237078279257,-0.10591229767128825,-0.09181976717188954
1772568164739924500,8.063924560546875,0.5718021088451146,-0.0834619078669697,-0.10788856618031858
1772568164749995500,8.07399560546875,0.49079497371912,-0.0915906345911324,-0.14947437602207064
1772568164760067600,8.084067626953125,0.1596335125952959,-0.09140329532548784,-0.04962883104383945
1772568164770138600,8.094138671875,-0.14597089794576168,0.08471497666798532,-0.01717237633615732
1772568164780210400,8.10421044921875,-0.1765121666818857,0.08251432481855153,-0.0454503763154149
1772568164790281500,8.114281494140625,-0.022625088784098624,0.047417730865627526,-0.07836012774854897
1772568164800353500,8.124353515625,-0.013811667731404303,0.03189041832275689,0.007190203765034675
1772568164810425600,8.134425537109376,-0.08123509866297245,-0.009133300656825303,0.09681099958792329
1772568164820496600,8.14449658203125,-0.07183364858925342,-0.07301927817724645,0.18367533630952237
1772568164830568400,8.154568359375,-0.08520692490339278,-0.11047858267351984,0.24894421955570578
1772568164840639500,8.164639404296874,-0.12335399246811866,-0.14598076175265012,0.21633301267772911
1772568164850711600,8.174711669921875,-0.13943945035040378,-0.17692096667848525,0.21398338081166146
1772568164860782600,8.184782470703125,0.015084171885251999,-0.15473266187645493,0.23962869419977068
1772568164870854700,8.194854736328125,0.09323767114579677,-0.10065605764351784,0.1851012774594128
1772568164880925400,8.204925537109375,0.0393090970814228,-0.06691716190986335,0.1647195836879313
1772568164890997800,8.214997802734375,-0.06298749431073665,-0.026837372716888783,0.12157236974835395
1772568164901068500,8.225068603515625,-0.11148586001992225,-0.03634009120799601,0.03675195994451642
1772568164911140400,8.235140380859375,-0.10924304952919482,-0.0005885404776781797,-0.12842355081737042
1772568164921211400,8.24521142578125,-0.06330722778439521,-0.04973367965780198,-0.20929113134220242
1772568164931283500,8.255283447265626,0.0393354005664587,-0.04062244470231235,-0.16030015981048346
1772568164941355500,8.26535546875,0.1602870080679655,0.0021804127790033814,-0.196799167907238
1772568164951426600,8.275426513671874,0.09665595515668392,-0.027585049279034136,-0.22237886871322987
1772568164961498600,8.28549853515625,0.10309095664024352,-0.005138093540817499,-0.18301380366086958
1772568164971569700,8.295569580078125,-0.02614449508190155,0.012524258269369601,-0.04566884137168526
1772568164981641500,8.305641357421875,-0.2577151166409254,0.018401114413514733,0.01971022425070405
1772568164991712500,8.31571240234375,-0.3085346187740564,-0.001554609030857682,-0.020884236466139555
1772568165001784600,8.32578466796875,-0.33643092595934865,-0.052150458475947375,-0.026842121957242487
1772568165011855600,8.335855712890625,-0.14526713359057902,-0.10605250985957682,-0.024610271251946685
1772568165021927700,8.345927734375,-0.016850597035884856,-0.1353613872565329,-0.04328033879995346
1772568165031998700,8.355998779296876,0.11546294695734977,-0.19341522455736992,-0.09926803735122083
1772568165042070500,8.366070556640626,0.13486205943226814,-0.16759228958003222,-0.0636453736975789
1772568165052142600,8.376142578125,0.0019768530309200285,-0.0897043824531138,-0.030530308950692413
1772568165062213400,8.38621337890625,-0.12500585132837294,-0.0029753625489771364,0.0001727262184023857
1772568165072285400,8.396285400390624,-0.25711656622588636,0.0741186907865107,0.03789849963113665
1772568165082356500,8.4063564453125,-0.23131693905889986,0.1028153545692563,0.009001344840228557
1772568165092428500,8.416428466796875,-0.10027122304439544,0.10840024202950298,-0.032437457746267315
1772568165102499600,8.42649951171875,-0.07199614567458629,0.1384885793663561,-0.05758344331011176
1772568165112571400,8.4365712890625,-0.01516600494980812,0.10246442223973572,-0.1425178348824382
1772568165122642400,8.446642333984375,0.035062545552849766,0.05647855080813169,-0.17097689051702616
1772568165132714500,8.456714599609375,0.092011928743124,0.040242578539252276,-0.17950170388668774
1772568165142786600,8.46678662109375,0.13262977033555506,0.018406448175758122,-0.2000321584790945
1772568165152857600,8.476857666015626,0.08043839532732963,-0.02675722015276551,-0.14939341974034906
1772568165162929400,8.486929443359376,-0.016125789892673492,-0.01633789827339351,-0.033707185421139
1772568165173000400,8.49700048828125,-0.06918459538519382,-0.0024100568164139983,0.055563627920299764
1772568165183072500,8.507072509765624,-0.14707272170782087,0.00011456629037857055,0.09562281271666288
1772568165193143600,8.5171435546875,-0.13967501267194746,-0.025870500446110962,0.13654738217070697
1772568165203215600,8.527215576171875,-0.1330944652378559,-0.04231375879012048,0.18421572679653764
1772568165213287700,8.53728759765625,-0.04769698619842529,-0.08612864285819231,0.1343723762191832
1772568165223358700,8.547358642578125,0.034275779089331625,-0.11574724379144609,0.1073836853981018
1772568165233430500,8.557430419921875,0.023718144717812535,-0.15175203863047063,0.09886632468253373
1772568165243501300,8.567501220703125,0.010617840126156807,-0.11513137691542505,0.07546893635168671
1772568165253576400,8.577576416015624,-0.014434183543920516,-0.11761895594745873,0.036928339424729346
1772568165263647500,8.5876474609375,0.04638882620930671,-0.07704685319289564,-0.032995530020445585
1772568165273719600,8.597719482421875,0.06153261932730674,-0.060373658550530666,-0.08037775118127465
1772568165283790600,8.60779052734375,-0.0038233576804399486,-0.034328020733222366,-0.08027224498018622
1772568165293862700,8.617862548828125,-0.10856675770282745,0.0274842192530632,-0.08994973551630973
1772568165303934500,8.6279345703125,-0.11266776328086853,0.028797859134897588,-0.11708704102784395
1772568165314005500,8.638005615234375,-0.01903495533764362,0.001972103790566325,-0.10545403250977396
1772568165324077600,8.64807763671875,0.035901918986439706,-0.007809504707157611,-0.09720920512527227
1772568165334148600,8.658148681640625,-0.012832009044289588,-0.04082943851649761,-0.08034531021639704
1772568165344220700,8.668220703125,-0.17353870382905007,-0.027572482058405876,0.02844751132726669
1772568165354291500,8.67829150390625,-0.27377953173518177,-0.03277688230108469,0.11607084972262381
1772568165364363500,8.688363525390624,-0.29523674578368664,-0.07859671298339962,0.13371625039801
1772568165374435300,8.698435302734374,-0.22921324477791785,-0.10787388006784021,0.18407953319624065
1772568165384506400,8.70850634765625,-0.05586509508490562,-0.12276559812091291,0.20435645141899583
1772568165394578400,8.718578369140625,-0.009173486536741255,-0.13717442802786825,0.16866203770339488
1772568165404649500,8.7286494140625,-0.16635317623913287,-0.13799104164037854,0.19961933989450334
1772568165414721500,8.738721435546875,-0.18927578666508196,-0.07243965165838599,0.1318523562222719
1772568165424793600,8.748793701171875,-0.15022037208378314,-0.03854885329864919,0.059889674425870176
1772568165434864600,8.75886474609375,-0.033493688800930975,-0.0323178499545902,-0.005197130251675844
1772568165444936400,8.7689365234375,0.12437807481884956,-0.01773139845840633,-0.091984894605726
1772568165455007500,8.779007568359376,0.2610714413315058,-0.06565678658522665,-0.15943272932618854
1772568165465079600,8.78907958984375,0.2861760719716549,-0.07214739071354269,-0.166405198687315
1772568165475150300,8.799150390625,0.3060392948269844,-0.06414769719652831,-0.1939699358306825
1772568165485222400,8.809222412109374,0.2679103474408388,-0.04710983396023512,-0.1464125042334199
1772568165495294200,8.819294189453124,0.11544073512554168,-0.03321545638144016,-0.030920185051113366
1772568165505365200,8.829365234375,0.0022001403927803037,-0.057887504290603096,0.008386281681805849
1772568165515437300,8.839437255859375,0.02108721169233322,-0.11274411645270883,0.04362301475778222
1772568165525508400,8.84950830078125,-0.04023556427657604,-0.11748393139094114,0.11842398872002959
1772568165535580400,8.859580322265625,-0.051930093723535534,-0.12290807533152401,0.12792846077680586
1772568165545652500,8.869652587890625,-0.044666824722290034,-0.16050010282937435,0.10774068214222789
1772568165555723500,8.8797236328125,-0.08252864560484886,-0.23068331733047961,0.12099018594622611
1772568165565795300,8.88979541015625,-0.19817337886989114,-0.275784514882043,0.11421572337523102
1772568165575866400,8.899866455078126,-0.3061696432083845,-0.22761329876799136,0.14861352140903472
1772568165585938400,8.9099384765625,-0.3967173446178436,-0.17936284340526906,0.19717340804710984
1772568165596010500,8.920010498046874,-0.4259761723279953,-0.09631875909157096,0.16223682696148753
1772568165606081500,8.93008154296875,-0.2619552384287119,-0.021452610938623547,0.07791852146089076
1772568165616153600,8.940153564453125,-0.0429822326362133,0.02181716993469745,-0.013504063086956739
1772568165626224600,8.950224609375,0.07778641951382159,0.02547229490876198,-0.1004059553399682
1772568165636296400,8.96029638671875,0.0487988099604845,0.024244360549002884,-0.18890958370119332
1772568165646368500,8.970368408203125,0.06378478216826915,0.01886785514242947,-0.25614596762806174
1772568165656439600,8.980439453125,0.13881284288465975,0.04666866606399417,-0.30007541798651216
1772568165666511600,8.99051171875,0.18997429032325744,0.04897862350679934,-0.3090738402172923
1772568165676582400,9.00058251953125,0.15558862111866473,0.07645948175899683,-0.24044337158352136
1772568165686654200,9.010654296875,-0.001589315018057823,0.07128697449192405,-0.10222323389500379
1772568165696726500,9.0207265625,-0.2214718368709087,0.056719373826682566,0.01686257973462343
1772568165706797300,9.03079736328125,-0.35490474028289315,0.027532442308962343,0.08677285904586314
1772568165716869400,9.040869384765625,-0.3022702976822853,0.017726941478997466,0.08709683030322193
1772568165726940400,9.0509404296875,-0.20051789616942403,0.014140972751006483,0.03197173993065953
1772568165737012500,9.061012451171875,-0.08696282866001129,0.003168400903046131,0.012294979558140039
1772568165747084300,9.071084228515625,-0.029114450803399083,0.029717165936902164,0.0032040567383170124
1772568165757155300,9.0811552734375,-0.03191723326444626,-0.002844575776159763,-0.03041194326803088
1772568165767227400,9.091227294921875,-0.041518589824438096,-0.010308993372693658,-0.04530746071338653
1772568165777298400,9.10129833984375,-0.015980243942141533,-0.008767974475771188,-0.05735109585896134
1772568165787370500,9.11137060546875,0.017499416333436966,0.03140197721868753,-0.11968830956742167
1772568165797442600,9.121442626953124,0.052628597381711,0.0204275056745857,-0.176777393489331
1772568165807513600,9.131513671875,-0.021156769797205925,0.06892265651337802,-0.17611629923209546
1772568165817585400,9.14158544921875,-0.09959785382747649,0.09106127695478498,-0.1756365528911352
1772568165827656400,9.151656494140624,-0.10543313585221767,0.06714804805628954,-0.2314858658850193
1772568165837728500,9.161728515625,-0.06274374868273734,0.006818374777957797,-0.2240356960095465
1772568165847800600,9.171800537109375,-0.08549041801989078,-0.044681803095713256,-0.13926292473971844
1772568165857871600,9.18187158203125,-0.136393506783247,-0.06305303382761776,-0.06032002866715192
1772568165867943400,9.191943359375,-0.07771101619005202,-0.07126826979145408,-0.020239216560870407
1772568165878015500,9.202015380859375,-0.09302490517795085,-0.11385193156413734,0.03045738984495401
1772568165888086500,9.21208642578125,-0.09461655828356742,-0.1298358287680894,0.07663052747696637
1772568165898158600,9.22215869140625,-0.031471243062615395,-0.12962751977965234,0.1048372157856822
1772568165908229400,9.2322294921875,-0.00855856950879097,-0.1601351054418832,0.15228870279043913
1772568165918301400,9.242301513671874,0.06257657542228698,-0.15193170604631304,0.11739026175811886
1772568165928373200,9.252373291015624,0.014722352835536003,-0.13849683573804794,0.13613120258525013
1772568165938444300,9.2624443359375,0.003585457271337509,-0.09563691430725156,0.16659151503965258
1772568165948516400,9.272516357421875,0.03016074498593807,-0.08981544161215424,0.08871654045954346
1772568165958587400,9.28258740234375,0.023287352085113525,-0.09736761055737733,0.03230696323439479
1772568165968659500,9.292659423828125,0.05990764847397804,-0.059084349392354484,-0.020108137527108192
1772568165978731500,9.3027314453125,0.038839141482114786,-0.04346168671622872,-0.11145268840268253
1772568165988802600,9.312802490234375,-0.004584989702701568,-0.054188247913867234,-0.14075447847172617
1772568165998874400,9.322874267578126,-0.04843465282320976,0.00010466595087200402,-0.16048720681518316
1772568166008945400,9.3329453125,-0.13034721235632896,0.04819094372782856,-0.179936734303087
1772568166019017500,9.343017578125,-0.1620855819225311,0.06015607027709484,-0.042537703739106654
1772568166029089500,9.353089599609374,-0.16839257311224937,0.12167316324170678,0.04039689231812954
1772568166039160600,9.36316064453125,-0.16523790847361086,0.11111717283800243,0.037038083409518
1772568166049232400,9.373232421875,-0.07717968579232692,0.1094332018064335,0.03618248949348926
1772568166059304400,9.383304443359375,0.11104980669021605,0.04868501085508614,-0.037615298775583506
1772568166069375500,9.39337548828125,0.23829496137797831,-0.08486585638076066,-0.10792685236409306
1772568166079447600,9.403447509765625,0.23974925183951853,-0.128962333869189,-0.10788301322236657
1772568166089518600,9.4135185546875,0.12572481325268745,-0.16427921950928867,-0.07452683319598435
1772568166099590700,9.423590576171875,-0.037031215277314185,-0.14317794275898485,0.06160144677981734
1772568166109662500,9.433662353515626,-0.09223580062687396,-0.09013426177036017,0.11417656040862202
1772568166119733200,9.443733154296876,-0.12457915034890174,-0.06575341536011546,0.15487711184844374
1772568166129805600,9.4538056640625,-0.08774433442652226,-0.03528806140441447,0.18218875101357698
1772568166139877600,9.463877685546874,0.026886253359913823,-0.005864398521371186,0.16881693600416184
1772568166149948400,9.473948486328124,0.03782324243783951,-0.014565408708155154,0.09890475699678063
1772568166160020200,9.484020263671875,-0.14719488678276538,-0.055393860843963916,0.02350625553280115
1772568166170091300,9.49409130859375,-0.2369534836411476,-0.1077752054663375,-0.004478168327361345
1772568166180163300,9.504163330078125,-0.25755145051181316,-0.12535977933257816,-0.14559081258699297
1772568166190235400,9.5142353515625,-0.19758534984886644,-0.17133845383841542,-0.24318770185559987
1772568166200306400,9.524306396484375,-0.023408348116278645,-0.22374953601192682,-0.26159268872663377
1772568166210378500,9.53437841796875,-0.011384732845425604,-0.2362718215199187,-0.231193604940176
1772568166220450300,9.5444501953125,0.010290507867932319,-0.2416858093926683,-0.12265052037388086
1772568166230521300,9.554521240234376,-0.061572951337695116,-0.18731924576982856,-0.032415245914459226
1772568166240593400,9.564593505859374,-0.2281570137232542,-0.15937942823637277,0.04567658628672361
1772568166250664400,9.57466455078125,-0.2930103019058704,-0.17271182455085218,0.09105009797364473
1772568166260736500,9.584736572265625,-0.1604956823825836,-0.16636318617649376,0.09212649503350258
1772568166270808600,9.59480859375,0.018337620723247527,-0.19413783974349497,0.10696867485642432
1772568166280879600,9.604879638671875,0.15533026244342327,-0.18064678226858377,0.11425386342853307
1772568166290951400,9.614951416015625,0.22951661163866519,-0.1860566054228693,0.10345482151657343
1772568166301023500,9.6250234375,0.12573767273426056,-0.18741375565286725,0.10860182901620864
1772568166311094500,9.635094482421875,-0.018344634985923765,-0.15754768276456743,0.10096826539784669
1772568166321166600,9.64516650390625,-0.06077040278315544,-0.10992964355386793,0.06041194473430514
1772568166331237600,9.655237548828126,-0.11971943535804748,-0.041008375279977916,0.035262013647705315
1772568166341309400,9.665309326171876,-0.25464403863251206,0.04285743721276521,0.010086948119848966
1772568166351381500,9.675381591796874,-0.34119244127273557,0.0961252458134666,-0.001101239240169525
1772568166361452300,9.685452392578124,-0.21602000120580195,0.16957681446075437,-0.07584288423061371
1772568166371524400,9.6955244140625,-0.10641104097366333,0.14374569617696106,-0.11722294236719608
1772568166381596700,9.7055966796875,0.07178688683807849,0.1505016001779586,-0.1335804951891303
1772568166391667500,9.71566748046875,0.22090368159413337,0.14294175938293338,-0.11120660468712448
1772568166401739300,9.7257392578125,0.19096622397005558,0.10219926849752664,-0.03411722752675414
1772568166411811600,9.7358115234375,0.13894494483172892,0.028211875940486787,0.015302344680577515
1772568166421882600,9.745882568359375,0.04774842412471771,-0.016530205975100395,0.09831804315000772
1772568166431954700,9.75595458984375,-0.14676409415006636,-0.037459962083399294,0.24266601606905458
1772568166442025500,9.766025390625,-0.20592063199579713,-0.011672463745623826,0.2940960513159632
1772568166452097500,9.77609765625,-0.17416180416345595,0.0331981399204582,0.3069074559636414
1772568166462169600,9.786169677734375,-0.10878361532390117,0.03422127242311835,0.2545630823507905
1772568166472240400,9.796240478515625,0.06963058558702469,-0.01380326522924006,0.12801365484222768
1772568166482312400,9.8063125,0.2530693366616964,-0.07245689505413175,0.022198387804627417
1772568166492384500,9.816384521484375,0.40808161919713015,-0.09450126134082674,-0.0365087988384068
1772568166502455600,9.82645556640625,0.3193377523392439,-0.11022789584808051,-0.0713446960285306
1772568166512527400,9.83652734375,0.10177695143222808,-0.08839958346486092,-0.07052241986021399
1772568166522599400,9.846599365234376,-0.08281681489646435,-0.022328955381736158,-0.08449760759025812
1772568166532670500,9.85667041015625,-0.20828560756146908,0.016864698626473544,-0.061797992265224456
1772568166542742500,9.866742431640626,-0.26630525033175945,0.07073803537227213,0.015592267537862062
1772568166552813600,9.8768134765625,-0.2307528754353523,0.051350321074202655,0.036192134104669094
1772568166562885600,9.8868857421875,-0.13409516671299934,0.019450915727391837,0.037368046016246076
1772568166572957400,9.89695751953125,-0.08199556164145469,-0.009182181299850344,0.04179083089455962
1772568166583028500,9.907028564453125,0.03942074076235294,-0.04760704289264977,-0.002057663182169199
1772568166593100500,9.9171005859375,0.12177227623462676,-0.08019501502551138,-0.043287353062629694
1772568166603172600,9.927172607421875,0.116477092435956,-0.128912430312857,-0.10028189056888222
1772568166613243600,9.93724365234375,0.07588789241611957,-0.15899236514754592,-0.11932605212628841
1772568166623315500,9.9473154296875,0.019633505752682686,-0.18031908468417823,-0.07563976287394762
1772568166633387500,9.957387451171876,-0.050364159581065174,-0.154926065556705,-0.028065234011411665
1772568166643458600,9.96745849609375,-0.1563438234001398,-0.10394424900133162,0.04062032581046223
1772568166653530600,9.977530517578124,-0.23583529326617717,-0.0808175673706457,0.09550532381683588
1772568166663601700,9.9876015625,-0.27850363764762875,-0.020331680617295206,0.13251754213273526
1772568166673673700,9.997673828125,-0.18521686666309833,-0.0007945844437927007,0.09718816233724355
1772568166683745500,10.00774560546875,-0.004078793746232986,-0.014558394445478915,0.04268266516774893
1772568166693816300,10.01781640625,0.09262275411784648,-0.020702450158447027,-0.02164016939997673
1772568166703888400,10.027888427734375,0.08061199832856655,-0.036605646809004244,-0.11247238683924078
1772568166713960700,10.037960693359375,-0.049481531527638435,-0.016847455230727792,-0.10966069041937589
1772568166724031500,10.048031494140625,-0.14537000944316386,-0.009743833770602941,-0.08530863171219825
1772568166734103600,10.058103515625,-0.12189385678768157,0.0013864493897184729,-0.06280307765454053
1772568166744175400,10.06817529296875,-0.00512041175365448,-0.0014565189512446522,0.009729659114778041
1772568166754246400,10.078246337890626,0.10842354983985424,0.010903671330213546,0.023160803095996378
1772568166764318500,10.088318359375,0.04598141445219516,-0.03078106884136796,0.044271687924861906
1772568166774390500,10.098390625,-0.0006032265901565551,-0.07706179503370075,0.04658128004148602
1772568166784461600,10.108461669921875,-0.07749298952519894,-0.08547127492800355,0.04227218467071652
1772568166794533400,10.118533447265625,-0.20772388202548026,-0.07597568029742688,0.027788170635700223
1772568166804605400,10.12860546875,-0.21377193001806735,-0.05905307747125625,0.053679129347950216
1772568166814676500,10.138676513671875,-0.1324357090681791,-0.060983059153147036,0.006556143645197153
1772568166824748500,10.14874853515625,-0.024517770662903785,-0.06120879420042038,0.021323650796711443
1772568166834819600,10.158819580078125,0.0787403592377901,-0.045793454132042825,0.04594824283495545
1772568166844891600,10.1688916015625,0.1369897191107273,-0.09486428596694021,-0.0008589549168944358
1772568166854963500,10.17896337890625,0.1468324832111597,-0.07871818393860011,-0.020249445693939924
1772568166865034500,10.189034423828126,0.09238894536197186,-0.06091076110191643,-0.04199146803319454
1772568166875106600,10.1991064453125,0.016281272715330124,-0.01447451555430889,-0.11658537511602043
1772568166885178600,10.2091787109375,-0.1264016896009445,0.038592290581576524,-0.18149726161807775
1772568166895249700,10.219249755859375,-0.20589900468587874,0.08785787780359387,-0.14455503979846834
1772568166905321500,10.229321533203125,-0.16190321109294892,0.10713058741986752,-0.1503362535484135
1772568166915393500,10.2393935546875,-0.10366261904835701,0.039568332539498804,-0.11739493793323635
1772568166925464600,10.249464599609375,-0.08436872051358223,0.02963851121012121,-0.05474471275284886
1772568166935536600,10.25953662109375,-0.16732231353223323,-0.0029412045510485768,0.006726093384623527
1772568166945608700,10.269608642578126,-0.27214228592216966,-0.0013859014004468917,0.09609919805675744
1772568166955679500,10.279679443359376,-0.2502040103584528,-0.031768655106611546,0.07918795687481761
1772568166965751600,10.28975146484375,-0.18071604811251163,-0.11725436041876673,0.09437982691824436
1772568166975823600,10.29982373046875,-0.024603110858798027,-0.1429979830821976,0.14056538564041257
1772568166985894400,10.309894287109374,0.08164718659520148,-0.14033314778711645,0.18059928986504672
1772568166995966500,10.319966552734375,0.05319207648336887,-0.0819685640366748,0.22809826927334068
1772568167006038500,10.33003857421875,0.3366442764490843,-0.1300707700351253,0.10409472685530781
1772568167016109600,10.340109619140625,0.5902338375926017,-0.11627174258958548,0.08495572662129998
1772568167026181400,10.350181396484375,-0.14883037903010846,-0.014778174676001071,0.01191416354700923
1772568167036252400,10.36025244140625,-0.5663794992744923,-0.06306443200446665,0.003940700449794531
1772568167046324500,10.370324462890625,-0.6024357320398092,0.1082369777591899,-0.12619199237301945
1772568167056396500,10.380396484375,-0.5613292301476002,0.02462663786485791,-0.24935396940037607
1772568167066467600,10.390467529296876,0.03768880240321159,0.0944968774266541,-0.26531609316393734
1772568167076539400,10.400539306640624,0.2608557527542114,0.059094359329715365,-0.23508505942076444
1772568167086611500,10.410611572265625,0.5749748936623335,0.013391688753664492,-0.24726123490482568
