time,seconds_elapsed,z,y,x
1772568129485229600,0.1102294921875,0.04725158051848411,0.1294699180651456,-0.0745661788256839
1772568129495300600,0.120300537109375,0.18053601537048816,0.0613652086048387,-0.17608320068009198
1772568129505372400,0.130372314453125,0.23913316576778887,0.025638426989596334,-0.2113778014231473
1772568129515443500,0.140443359375,0.23029402575194835,0.016571177306305616,-0.14938819557595998
1772568129525515500,0.150515625,0.2849649426162243,0.05184296342935413,-0.15726941381245851
1772568129535587600,0.160587646484375,0.3751601773262024,0.08066160962395369,-0.14471121674086898
1772568129545658600,0.17065869140625,0.42474867635965347,0.01859857321437448,-0.08911043514795601
1772568129555730700,0.180730712890625,0.4977297414183616,0.03329365445049479,-0.03536503563076258
1772568129565801700,0.1908017578125,0.5021253460288048,0.03128408646006137,0.04839611091110855
1772568129575873500,0.20087353515625,0.33353403547406196,0.03371352383038029,0.10346790019385516
1772568129585945600,0.210945556640625,0.1483008021980524,0.01722677340451628,0.12836867882497607
1772568129596016400,0.221016357421875,0.01994037974476814,-0.06494525904869661,0.1505002484710887
1772568129606088400,0.23108837890625,-0.08980886574089526,-0.0715597452850081,0.1848657882031053
1772568129616159500,0.241159423828125,-0.22665946864187717,-0.09295067089796066,0.26496786424815655
1772568129626231600,0.2512314453125,-0.253273334801197,-0.1429281509826891,0.2969465453762561
1772568129636303400,0.261303466796875,-0.20748072091937064,-0.07674757798537611,0.23693572878874836
1772568129646374400,0.27137451171875,-0.278421220061183,-0.045801436509098854,0.20942787293177098
1772568129656446500,0.281446533203125,-0.3079045041769743,-0.08486519879363477,0.17053838950190692
1772568129666517500,0.291517578125,-0.26698037311434747,-0.05219066262217238,0.08188073962274939
1772568129676589600,0.301589599609375,-0.34372342105507847,-0.06888994155386463,0.04981880065798759
1772568129686661400,0.311661376953125,-0.3512210833340883,-0.11421174131985753,0.04447228853087872
1772568129696732400,0.321732421875,-0.22995909470915793,-0.15751491300612688,0.03297909034229815
1772568129706804500,0.331804443359375,-0.07980711168646812,-0.2168914685443975,0.05939831071235239
1772568129716875500,0.34187548828125,-0.0660480509251356,-0.21597192428037523,0.08674969736598431
1772568129726947600,0.351947509765625,-0.08250000403225421,-0.1532572190290317,0.08345321310386061
1772568129737019600,0.36201953125,-0.19305355163812637,-0.09557961289575323,0.041336547788418825
1772568129747090700,0.372090576171875,-0.42079672386348244,-0.06798248958643525,0.027984022001363334
1772568129757162500,0.38216259765625,-0.5890548569411039,-0.020766254375968126,-0.02013140880484134
1772568129767233500,0.392233642578125,-0.5451888272076845,0.03262704376792535,-0.14159414416626095
1772568129777305600,0.4023056640625,-0.3019821283906698,0.09826781080011278,-0.2233356579814106
1772568129787377700,0.412377685546875,-0.06175415312349796,0.10398985997503622,-0.2756394803881645
1772568129797448400,0.422448486328125,0.09565525368154049,0.07620494074234739,-0.3196691762506962
1772568129807520500,0.4325205078125,0.2189408570885658,0.039695100724324583,-0.32319705811589955
1772568129817591600,0.442591552734375,0.17191314845383165,0.04950978950774297,-0.27709925074242053
1772568129827663400,0.452663330078125,0.05212064785957336,-0.014215590623486787,-0.2239235408719629
1772568129837734400,0.462734375,0.08593757726550101,-0.04648465126659721,-0.1660501747045666
1772568129847806500,0.472806396484375,0.17681085736751556,-0.07857599898893386,-0.0770458302795887
1772568129857878500,0.48287841796875,0.24523382073044775,-0.1420981846982613,0.052419265479966996
1772568129867949600,0.492949462890625,0.3208323748111725,-0.1687512868894264,0.1626450424361974
1772568129878021400,0.503021484375,0.3159901954770088,-0.15429796025361864,0.25487872417122126
1772568129888092400,0.513092529296875,0.15266484262645244,-0.14080226313620806,0.3428761565759778
1772568129898164500,0.52316455078125,-0.04897065939605236,-0.10858907913248986,0.4134655772577971
1772568129908236500,0.533236572265625,-0.17498013480901717,-0.05021830310327932,0.41636086030788716
1772568129918307600,0.5433076171875,-0.21671908938586712,-0.031505985582433636,0.35335524581857025
1772568129928379600,0.553379638671875,-0.16126900484263895,-0.023785200338345018,0.2358268176987767
1772568129938450700,0.56345068359375,-0.013049451187252998,-0.037804884797241534,0.08985453151352703
1772568129948522500,0.5735224609375,0.056312838852405546,-0.06598081264151259,-0.04792516893111169
1772568129958594600,0.583594482421875,0.09571078326106071,-0.11629243831774219,-0.14485351128838955
1772568129968665600,0.59366552734375,-0.016294716718792915,-0.07935036262860522,-0.15205116770751773
1772568129978737700,0.603737548828125,-0.13407763105630874,-0.04690150670548901,-0.17413345485180615
1772568129988808700,0.61380859375,-0.18528934737741945,0.030755550807621327,-0.23227876982837914
1772568129998880500,0.623880615234375,-0.33818390710651874,0.12600682679815217,-0.2254667517259717
1772568130008952600,0.63395263671875,-0.35579087546765803,0.17093286871220917,-0.18569595541693268
1772568130019023400,0.6440234375,-0.30253333253264425,0.18947958387518302,-0.14710552799887955
1772568130029095400,0.654095458984375,-0.20404782386124132,0.14292447945456951,-0.13470087752118706
1772568130039166500,0.66416650390625,-0.06625263358652592,0.06813347889706492,-0.11896452533751725
1772568130049238500,0.674238525390625,0.0351309346139431,-0.00790096411658451,-0.11602028857916592
1772568130059310300,0.684310302734375,-0.029790742629766463,-0.06327447629226371,-0.08330218726061284
1772568130069381400,0.69438134765625,-0.16179741263091563,-0.10271587625015527,-0.0031534225296229123
1772568130079453400,0.704453369140625,-0.24067747260034084,-0.08075774520849809,0.05498940822891891
1772568130089524500,0.7145244140625,-0.29618484028875824,-0.020652619667351244,0.13492175373025236
1772568130099596500,0.724596435546875,-0.21143501150310037,0.0034861433490179475,0.14715272814147173
1772568130109668600,0.734668701171875,-0.14902560934126377,0.002870860994886607,0.13703122016489505
1772568130119739600,0.74473974609375,-0.06506079345345497,-0.017034264773409812,0.11077931918576359
1772568130129811500,0.7548115234375,-0.033470307925343515,-0.0406133480804041,0.10652151561081409
1772568130139882500,0.764882568359375,0.08471241938471794,-0.09541908857179805,0.13021912899725138
1772568130149954600,0.77495458984375,0.31526480381190775,-0.1431764997205697,0.0707722299028188
1772568130160025600,0.785025634765625,0.5130857159823179,-0.13528804802568628,-0.008871361785009503
1772568130170097700,0.79509765625,0.6102274088293314,-0.1894535543847829,-0.013178119068220256
1772568130180169500,0.80516943359375,0.6680033059716224,-0.22631091093253344,0.03400741047672927
1772568130190240500,0.815240478515625,0.5251350502163171,-0.19623906807275487,0.10061645628549158
1772568130200312600,0.8253125,0.16796587213277817,-0.195814906110242,0.20251769168451428
1772568130210383400,0.83538330078125,0.023135376393795013,-0.14469748047646133,0.19655513001829383
1772568130220455400,0.845455322265625,0.03917991774380207,-0.08783256069924682,0.1253100219067186
1772568130230527500,0.855527587890625,-0.014883096355199812,-0.09700257663726806,0.04521349881961941
1772568130240598500,0.8655986328125,0.008898176726698875,-0.10709798205820843,-0.017087401466444135
1772568130250670300,0.87567041015625,0.05236556253135204,-0.11289647573651745,-0.060922013148292896
1772568130260741400,0.885741455078125,-0.019267010527849196,-0.10438501503877341,-0.03533902440667152
1772568130270813400,0.8958134765625,-0.13979367061555384,-0.11365847308496013,0.043046822305023665
1772568130280885500,0.905885498046875,-0.27658640584945676,-0.09859490559631957,0.085454104597494
1772568130290956500,0.91595654296875,-0.38472938518226146,-0.08127985112015157,0.05097403510771691
1772568130301028600,0.926028564453125,-0.38395197106897827,-0.08678398322807625,-0.019715484947711227
1772568130311099600,0.936099609375,-0.3871317701488733,-0.09375106402803211,-0.020104192004352806
1772568130321171500,0.94617138671875,-0.36032033559083937,-0.09368616383196786,0.013529782050102948
1772568130331242500,0.956242431640625,-0.28573300437927246,-0.10432764056203886,0.061120896721258755
1772568130341314600,0.966314453125,-0.2617103237569332,-0.12092528575016184,0.0927139395326376
1772568130351386600,0.97638671875,-0.18798983850777148,-0.08544195750197395,0.04962269356399774
1772568130361457700,0.986457763671875,-0.021097148564457893,-0.03408471349664032,-0.034076018733531235
1772568130371529500,0.996529541015625,0.08190496074855327,-0.035712296432163566,-0.07653671171367168
1772568130381600500,1.0066005859375,0.08733283101618289,-0.06537747645350173,-0.06527414394319057
1772568130391672600,1.016672607421875,0.030194647255539893,-0.028498839655704794,0.02157455681785941
1772568130401744600,1.02674462890625,-0.09754676651656627,-0.0017757957671768962,0.10445442701317369
1772568130411815400,1.0368154296875,-0.1998918732255697,-0.004441361714620143,0.15013466656170785
1772568130421887500,1.046887451171875,-0.21965514283776283,-0.007217603228613734,0.1557315367206931
1772568130431958500,1.05695849609375,-0.18939502913057804,-0.07287696536341681,0.1782875057913363
1772568130442030300,1.0670302734375,-0.15858604936897755,-0.08882873212974518,0.14957893237508832
1772568130452102400,1.077102294921875,-0.11963526420593261,-0.11877484798431395,0.13907149382084608
1772568130462173400,1.08717333984375,-0.048559155985713004,-0.15808758006123824,0.15270597835443914
1772568130472245500,1.09724560546875,0.04425765939950943,-0.10515645606899633,0.09693170335814356
1772568130482316500,1.107316650390625,0.0794505533337593,-0.0640375513529405,0.03193783766105771
1772568130492388600,1.117388671875,0.11289338873028755,-0.07252422466930002,-0.035539442349597807
1772568130502460400,1.12746044921875,0.14117781845033167,-0.07021647744989022,-0.10551219243779777
1772568130512531500,1.137531494140625,0.12228022575676441,-0.11293414086578413,-0.14695369843803346
1772568130522603500,1.147603515625,0.09867606280744075,-0.17015704376781357,-0.15032865476384757
1772568130532674600,1.157674560546875,0.08894201977849006,-0.13050680509852244,-0.10679470652900636
1772568130542746600,1.16774658203125,0.09052899670898913,-0.08808308312790468,-0.038901466128602624
1772568130552817700,1.177817626953125,0.09612579380273818,-0.049174639269243925,0.034771234456077216
1772568130562889500,1.187889404296875,0.14560674080848693,-0.030408618799783287,0.12677234954424202
1772568130572961500,1.19796142578125,0.1473638136088848,-0.030701847859006374,0.17284180760607123
1772568130583032600,1.208032470703125,0.08841010485887527,-0.06709027172075584,0.22236849344968795
1772568130593104600,1.218104736328125,-0.007324643799662589,-0.1149842052633874,0.26447313953377305
1772568130603175400,1.228175537109375,0.015802549287676812,-0.1152568481923081,0.2539692081108689
1772568130613247700,1.238247802734375,0.04776654430329799,-0.12874958616765214,0.1996979580886662
1772568130623319600,1.248319580078125,0.03695347386598587,-0.17024126971885561,0.18945267760194837
1772568130633390300,1.258390380859375,0.014886603486537933,-0.19184339039707554,0.19615875111185013
1772568130643462400,1.26846240234375,0.009102759388089179,-0.16305256379116326,0.15409524075575173
1772568130653533400,1.278533447265625,-0.02225976260304451,-0.14494623107314109,0.13698277791328728
1772568130663605500,1.28860546875,-0.054226095706224435,-0.0944371648623608,0.1107408868715167
1772568130673676500,1.298676513671875,-0.08238952939510345,-0.05208287313245236,0.062102674300223586
1772568130683748600,1.30874853515625,-0.15062018505632876,-0.0521961790475063,0.017770342229306697
1772568130693820400,1.3188203125,-0.19100304884910582,-0.1143195125432685,-0.0007884469639509916
1772568130703891500,1.328891357421875,-0.16718553541004658,-0.11089333748687058,0.0007456307355314493
1772568130713963500,1.338963623046875,-0.16193302170932292,-0.0615127090504393,0.01390102651529014
1772568130724034600,1.34903466796875,-0.12421382416784763,-0.04487160831307992,-0.04362893304191529
1772568130734106600,1.359106689453125,-0.10091127451360225,-0.023503168526571243,-0.09233553467430174
1772568130744178400,1.369178466796875,-0.05324994415044784,-0.05562050920668989,-0.08786270010918379
1772568130754249500,1.37924951171875,-0.02263093400299549,-0.07125668895151466,-0.08977503653652966
1772568130764321500,1.389321533203125,-0.09241115719377994,-0.08741395169468597,-0.07898037853874265
1772568130774392600,1.399392578125,-0.12429039653539657,-0.15621608710093424,-0.02901186721175909
1772568130784464600,1.409464599609375,-0.10846154376268387,-0.15163829432399942,0.058288084448128934
1772568130794535400,1.419535400390625,-0.16100713903605937,-0.1292422833217308,0.16333960057161748
1772568130804607700,1.429607666015625,-0.24206921921968458,-0.14450730993291364,0.26398835169151424
1772568130814679600,1.439679443359375,-0.22835165951251982,-0.09927979172109626,0.29227943034805354
1772568130824750300,1.449750244140625,-0.18667057260274886,-0.039288675347901876,0.22562756831087172
1772568130834822400,1.459822509765625,-0.11838438736200332,-0.0338180527839344,0.1048183649547398
1772568130844893400,1.4698935546875,0.006976853275299072,-0.03754206914259121,-0.05517879332117736
1772568130854965500,1.479965576171875,0.027239304581284523,-0.03591323496489785,-0.20397483169026673
1772568130865037600,1.49003759765625,0.006435001483559608,-0.04781684058527462,-0.30092399763986466
1772568130875108600,1.500108642578125,-0.053688920089602465,-0.06947212535599247,-0.3340334363635629
1772568130885180400,1.510180419921875,-0.08492226274311541,-0.05973367101340554,-0.389403076081723
1772568130895251500,1.52025146484375,-0.13328326580822467,-0.02315071096024476,-0.45894905212521553
1772568130905323500,1.530323486328125,-0.19661679707765578,0.02229416719614528,-0.4856752195525914
1772568130915395600,1.5403955078125,-0.13328560389578342,0.04090598348458297,-0.4649036496806889
1772568130925466600,1.550466552734375,-0.09062135116755962,0.024542530644824728,-0.3703315150607377
1772568130935538400,1.560538330078125,-0.14440204119384287,0.0008389076427090913,-0.18358166667670012
1772568130945609500,1.570609375,-0.18829320536851882,-0.006815105108637362,0.06350757266208529
1772568130955681500,1.580681640625,-0.1393552791982889,-0.036608861679397524,0.2397436258163303
1772568130965752600,1.590752685546875,-0.07559855408072472,-0.11149404332637786,0.3391221378047019
1772568130975824600,1.60082470703125,0.011088380247354507,-0.2048030626753345,0.3351663128510117
1772568130985896700,1.610896728515625,0.0504588521271944,-0.2729794125997461,0.3027847500104457
1772568130995967700,1.6209677734375,0.03615735505223274,-0.37463217139672483,0.3320546836365014
1772568131006039600,1.63103955078125,0.12961013025343418,-0.3624661519804969,0.34519736606515944
1772568131016110300,1.6411103515625,0.13025310433208942,-0.25305379203269257,0.3222589735481888
1772568131026182400,1.651182373046875,0.10192308190464973,-0.2865415808157995,0.2715457813337445
1772568131036254500,1.66125439453125,0.1247375557810068,-0.2982773921212181,0.162240114897117
1772568131046325500,1.671325439453125,0.05741933878958225,-0.25967929285336283,0.052890901579707855
1772568131056397300,1.681397216796875,-0.08335866668820381,-0.3181061647176742,-0.03618570436388254
1772568131066468400,1.69146826171875,-0.2558294490247965,-0.30716099233329297,-0.10939626732952892
1772568131076540400,1.70154052734375,-0.3541138821661472,-0.263718649638351,-0.16405235195085405
1772568131086611500,1.711611572265625,-0.2850818469941616,-0.20159659478422254,-0.16809322483949363
1772568131096683500,1.72168359375,-0.17226327706575392,-0.1404604274285957,-0.1852525224983692
1772568131106755600,1.731755615234375,-0.11001403390169143,-0.10753385272482409,-0.2018994867209345
1772568131116826600,1.74182666015625,-0.14736673621833324,-0.10925078531107865,-0.18150471427217124
1772568131126898400,1.7518984375,-0.18776772018969057,-0.1163248427500017,-0.16399572639279067
1772568131136969500,1.761969482421875,-0.21252631387114523,-0.12465404221601784,-0.15867190102152526
1772568131147041500,1.77204150390625,-0.22626491636633872,-0.12372149233995004,-0.12128536950051784
1772568131157113600,1.782113525390625,-0.2365525016248226,-0.13853780706925317,-0.10334412768371402
1772568131167184600,1.7921845703125,-0.26059797860085965,-0.16147954232078043,-0.09561740588918327
1772568131177256700,1.802256591796875,-0.23011165492236613,-0.169635942503158,-0.09308817967250943
1772568131187327700,1.81232763671875,-0.09724807583093642,-0.1926263757346198,-0.12402516972795129
1772568131197399600,1.822399658203125,0.01893967826962471,-0.21175405085701493,-0.14525734284892677
1772568131207471600,1.8324716796875,0.13118950839936733,-0.21868706499058752,-0.12039594638012349
1772568131217542400,1.84254248046875,0.08116963221132754,-0.20118881770092992,-0.029477511962130665
1772568131227614500,1.852614501953125,-0.08068038738965988,-0.22199266414092853,0.06909026816524565
1772568131237685500,1.862685546875,-0.18179156838953495,-0.1708638768629171,0.1402131381366402
1772568131247757300,1.87275732421875,-0.27712825764119625,-0.13314983955374918,0.18136136027872563
1772568131257828400,1.882828369140625,-0.19423837750852108,-0.08080104549410752,0.14375526772290467
1772568131267900400,1.892900390625,-0.03322597777545452,-0.027903791805426587,0.035666721991077066
1772568131277972500,1.902972412109375,0.09028057490587234,-0.043323862847848796,-0.04648790266960859
1772568131288043500,1.91304345703125,0.19989888748824594,-0.07059459004728123,-0.08014847247004508
1772568131298115600,1.923115478515625,0.2405564765691757,-0.0708936003933195,-0.04905914139710366
1772568131308186600,1.9331865234375,0.26112872447669505,-0.10011440678117796,0.02208382151424885
1772568131318258400,1.943258544921875,0.13446809167861937,-0.0312029292489402,0.06284004866406322
1772568131328330500,1.95333056640625,-0.07972177149057388,0.008617213494004681,0.15556509411260486
1772568131338401500,1.963401611328125,-0.2596001997351646,0.02526036690784385,0.19691219982765615
1772568131348473600,1.9734736328125,-0.3519002977699041,0.06695121030993759,0.20540807936377822
1772568131358544600,1.983544677734375,-0.36449089927375317,0.04179764422783628,0.17466558896712958
1772568131368616700,1.99361669921875,-0.3855979847103357,0.02613333665035898,0.11843370639644563
1772568131378687700,2.003687744140625,-0.28256606478095053,0.02904394513374427,0.06237564602270722
1772568131388759800,2.013759765625,-0.07354746676981448,-0.0018406183314276859,-0.0437268404584378
1772568131398831900,2.023831787109375,0.105902506929636,-0.021075685651320963,-0.11359802986830472
1772568131408903000,2.03390283203125,0.2088461640536785,-0.026768755326932295,-0.1418077869169414
1772568131418975000,2.04397509765625,0.26558921101689337,-0.031803242362802846,-0.17262451159358025
1772568131429046000,2.0540458984375,0.2939075430065393,-0.008482631895481608,-0.15201412363275885
1772568131439117800,2.064117919921875,0.3278858004540205,0.02502089331287425,-0.10068228806331753
1772568131449190000,2.07418994140625,0.38002690657973287,0.040475784506928174,-0.05512713619917631
1772568131459261000,2.084260986328125,0.35755437800884243,0.004311013333220035,-0.03640796881243586
1772568131469333000,2.0943330078125,0.2571738493710756,-0.01651602218612097,-0.02192337025552988
1772568131479404000,2.104404052734375,0.10117314032018183,-0.03214630191312171,0.018072832307219504
1772568131489475800,2.114475830078125,0.03577332417070865,0.022199922174587845,0.06647489803507924
1772568131499547000,2.124546875,-0.07008242100775242,0.05530688581340946,0.09409735671505332
1772568131509619000,2.134618896484375,-0.13952888219952583,0.08470322229810989,0.08141995371058583
1772568131519691000,2.14469091796875,-0.20109248118698594,0.07374118097731844,0.06413739499822259
1772568131529761800,2.15476171875,-0.220149063834548,-0.003666422686213627,0.029612463453412053
1772568131539833900,2.164833740234375,-0.14143266999423504,-0.06658939126022159,0.0015115736067295073
1772568131549905000,2.17490478515625,-0.05159048650562763,-0.06709072837848216,-0.01134615440070629
1772568131559976700,2.184976806640625,0.02346095508635044,-0.05226602028016932,0.010844342358410359
1772568131570048800,2.195048828125,0.07861001085639,-0.025006138701736926,0.0002463759765028953
1772568131580119800,2.205119873046875,0.14433248308897018,-0.0399239136446733,-0.027837270474433896
1772568131590191900,2.21519189453125,0.1008393783211708,-0.11587427683775313,-0.0336173882458359
1772568131600263000,2.225262939453125,0.15114040953814983,-0.0931513171697501,-0.028487989468127486
1772568131610335000,2.2353349609375,0.15379706152677536,-0.0393328706826549,-0.07419387491457163
1772568131620406800,2.24540673828125,0.12656184859871863,0.0007166969019919634,-0.08245923363044858
1772568131630477800,2.255477783203125,0.10457271963059901,0.022690993627160785,-0.10483071297965943
1772568131640550000,2.2655498046875,-0.010005845707654953,0.04760618437612429,-0.09080094551816582
1772568131650621000,2.275620849609375,-0.2130593978345394,0.027201347191073,0.006457870902493596
1772568131660693000,2.28569287109375,-0.39412615908086296,-0.009421753076231106,0.08705620603188872
1772568131670764800,2.295764892578125,-0.43683132834136484,-0.03508618215676397,0.12494308829046785
1772568131680835800,2.3058359375,-0.4544306979179382,0.03842902631126344,0.10812646658942103
1772568131690908000,2.315907958984375,-0.3824573485970497,0.06269190889764577,0.0394731285367161
1772568131700979000,2.32597900390625,-0.11248363888561724,0.12242536984849721,-0.10607947093173861
1772568131711051000,2.336051025390625,0.14328852699398995,0.14484875291488133,-0.2091310454096645
1772568131721121800,2.346121826171875,0.08425824587643146,0.008790094976034014,-0.20842720798924563
1772568131731193900,2.35619384765625,-0.005974398234486579,-0.028508904391992836,-0.1755514318909496
1772568131741265700,2.366265625,-0.13445464767515658,-0.05388920103521086,-0.13187339901030062
1772568131751336700,2.376336669921875,-0.1755021128565073,-0.10614832578371278,-0.103183311098814
1772568131761408800,2.38640869140625,-0.11125965004861355,-0.13163580912845207,-0.0595043283700943
1772568131771479800,2.396479736328125,-0.06406067650020122,-0.15759444451574237,0.0037213586106896396
1772568131781551900,2.4065517578125,-0.05413257220387459,-0.13669116542241536,0.05406286796852946
1772568131791624000,2.4166240234375,-0.08439502399861812,-0.11062843947298824,0.07360854930728673
1772568131801695000,2.426695068359375,-0.14071663067936896,-0.10641140629984437,0.0984589859906584
1772568131811766800,2.436766845703125,-0.10847031159102916,-0.10316078873975201,0.15510302955880761
1772568131821837800,2.446837890625,-0.12396423332095145,-0.15375658338591455,0.19250373573563992
1772568131831910000,2.456909912109375,-0.14452011461555958,-0.1547403702588752,0.24976306165792048
1772568131841982000,2.46698193359375,-0.1140326218932867,-0.09349032159945928,0.25039478369019924
1772568131852053000,2.477052978515625,-0.0053021980613470075,-0.1295765202447772,0.21546492460630834
1772568131862124800,2.487124755859375,0.1187386076271534,-0.16851899423720315,0.14737689228616654
1772568131872195800,2.49719580078125,0.17354688713550567,-0.22521047540996222,0.08223704224713146
1772568131882268000,2.507267822265625,0.10324643946290016,-0.31249069945607333,0.09281075097061693
1772568131892339000,2.5173388671875,-0.014842179822921752,-0.33921551517657933,0.14001834621690212
1772568131902411000,2.527410888671875,-0.05650397751033306,-0.2897684704404324,0.16786387306302786
1772568131912483000,2.537483154296875,-0.07495908713340758,-0.19346808725576847,0.17085180283263324
1772568131922553900,2.547553955078125,-0.12229893045723438,-0.13440755713041871,0.11773315691165626
1772568131932626000,2.5576259765625,-0.1165209315776825,-0.12806788751380518,0.04154175150431692
1772568131942696700,2.56769677734375,0.06564122368991375,-0.17482731886748223,-0.008677081321924924
1772568131952768800,2.577768798828125,0.29372809478640555,-0.17419070146437735,-0.09894472368098794
1772568131962840800,2.5878408203125,0.4013222080647945,-0.15153982065189628,-0.13984700823798774
1772568131972911900,2.597911865234375,0.276289468729496,-0.1795345467103645,-0.09243103093802929
1772568131982984000,2.60798388671875,0.047807460835576056,-0.1684569801179692,-0.018752265938743948
1772568131993055000,2.618054931640625,-0.16299977415800093,-0.07409204937475733,0.02040989695265889
1772568132003126800,2.628126708984375,-0.2202875955224037,-0.02262107019610703,-0.006697232616320252
1772568132013197800,2.63819775390625,-0.2615349671900272,-0.024197680996218694,-0.05238185607902705
1772568132023270000,2.648269775390625,-0.27522271628081796,-0.05545264182649552,-0.03924304610788822
1772568132033342000,2.658342041015625,-0.2677893514096737,-0.055051084421435366,-0.04977620362527668
1772568132043413000,2.6684130859375,-0.27445173190832134,-0.05470556805254891,-0.06338562678284942
1772568132053484800,2.67848486328125,-0.29949615679383274,-0.10064283283576368,0.017620996886491776
1772568132063555800,2.688555908203125,-0.2555757665246725,-0.16105605621170252,0.08887852608822286
1772568132073628000,2.6986279296875,-0.22413842573165893,-0.2646608989245258,0.14855916087329388
1772568132083700000,2.708699951171875,-0.1300491061925888,-0.29183959589237346,0.21639818686842918
1772568132093771000,2.71877099609375,-0.08525193308889865,-0.29202134566744786,0.22294424751102923
1772568132103843000,2.728843017578125,-0.09959668478369713,-0.26737594830319283,0.206424489864707
1772568132113913900,2.738913818359375,-0.089703067278862,-0.2351994430480525,0.1846929158542305
1772568132123986000,2.74898583984375,-0.07088263147473335,-0.2249446458143182,0.12311448462381958
1772568132134058000,2.75905810546875,-0.10400164174437522,-0.21540886530382558,0.08803374582715331
1772568132144128800,2.769128662109375,-0.06332768605053425,-0.20961696576308458,0.04653415296413004
1772568132154200800,2.779200927734375,0.02952420064806938,-0.18997149557797238,-0.008909063446894287
1772568132164271900,2.78927197265625,0.1305973877251148,-0.18248240019790826,-0.10265015407018363
1772568132174344000,2.799343994140625,0.28017770833969113,-0.19539335622992365,-0.18934373733475804
1772568132184415700,2.809415771484375,0.41977264151275157,-0.1876842431573197,-0.21198227012231946
1772568132194486800,2.81948681640625,0.47678106141388416,-0.16549166403897106,-0.17507599639892577
1772568132204558800,2.829558837890625,0.3335147462517023,-0.13046611689510754,-0.0628541502546519
1772568132214630000,2.8396298828125,0.12527180878818034,-0.09771664319075643,-0.0066041475053876635
1772568132224702000,2.849701904296875,-0.09839666134417056,-0.08444307352458126,0.0016398030962795017
1772568132234773800,2.859773681640625,-0.256559516865015,-0.07656124336672947,-0.047287163288518785
1772568132244844800,2.8698447265625,-0.34069618218839165,-0.11195852816612459,-0.10048574257791042
1772568132254916900,2.879916748046875,-0.29114684612154956,-0.14956844751369208,-0.15528474280126392
1772568132264988000,2.88998779296875,-0.24940730702280997,-0.17667714798524975,-0.11492233727462589
1772568132275060000,2.90006005859375,-0.16441197904348373,-0.17288734551453963,-0.07519245749786496
1772568132285131000,2.910131103515625,-0.1282932024359703,-0.12961150022661314,-0.0781543760433793
1772568132295203000,2.920203125,-0.20777473542988298,-0.11528116064965724,-0.0852104320347309
1772568132305275000,2.93027490234375,-0.21104981157779693,-0.08724027562821283,-0.10863836163431405
1772568132315346000,2.940345947265625,-0.1971475429534912,-0.09707056383956224,-0.1214457476940006
1772568132325418000,2.95041796875,-0.22227555446922778,-0.1242597365356516,-0.09728848090656102
1772568132335488800,2.96048876953125,-0.2317600066512823,-0.08209226348157972,-0.056637833023071286
1772568132345560800,2.970560791015625,-0.19484978740513323,-0.029705539431190118,-0.009237710879370569
1772568132355633000,2.9806328125,-0.22788462652266026,0.030866061977390197,0.0030791151843965053
1772568132365704000,2.990703857421875,-0.20184651442468166,0.03024878859557211,-0.023173662577569483
1772568132375776300,3.0007763671875,-0.07616729387938975,-0.022601328882598318,-0.04484992620423436
1772568132385847300,3.010847412109375,-0.014682605347037315,0.016393980408762582,-0.007613397613167762
1772568132395919400,3.02091943359375,-0.005171849679946899,0.02896188145703636,0.05315656677857041
1772568132405991400,3.030991455078125,-0.03250701585114002,-0.006447997962450608,0.11923143264539539
1772568132416062500,3.0410625,-0.03216273245811462,-0.01699515660572797,0.14374167758896947
1772568132426134300,3.05113427734375,-0.13014379873871804,-0.05846238156910985,0.12030541855245828
1772568132436205000,3.061205078125,-0.19380992296338082,-0.11389242797130718,0.06980294647924602
1772568132446277400,3.07127734375,-0.12681085492372512,-0.12380918888971208,0.002230170204862952
1772568132456349400,3.081349365234375,0.019932196438312528,-0.11682738544465973,-0.04335844553746283
1772568132466420200,3.091420166015625,0.09246025703251361,-0.12522526623271404,-0.058857116507738824
1772568132476492300,3.1014921875,0.0886614492714405,-0.11721093226899393,-0.03307575564980507
1772568132486563300,3.111563232421875,0.12434767968058585,-0.10160506546404212,-0.00751380969621241
1772568132496635100,3.12163525390625,0.19538871658742427,-0.07674359593000263,-0.03852751824967563
1772568132506706200,3.1317060546875,0.20508301212787627,-0.03960902987606823,-0.02399082417935133
1772568132516778200,3.1417783203125,0.17383096477389334,-0.007271936364891007,-0.04663710188195109
1772568132526850300,3.151850341796875,0.02489829441308975,-0.009511376721598207,-0.06191679633930325
1772568132536921300,3.16192138671875,-0.05980886427462101,-0.03744375986726954,-0.06348199982941151
1772568132546993200,3.1719931640625,-0.07918518039584159,-0.037386832915106784,-0.1006052042391151
1772568132557064200,3.182064208984375,-0.13981120627224444,-0.09867972520240582,-0.03337693055346608
1772568132567136300,3.19213623046875,-0.19979951876699922,-0.11053676086785272,0.05709872853308916
1772568132577208300,3.202208251953125,-0.3223322579801082,-0.11969702259683981,0.14968699585944414
1772568132587279400,3.212279296875,-0.30436697770059107,-0.11325195637699216,0.17369981267489493
1772568132597351400,3.222351318359375,-0.1034188734203577,-0.09755026451474987,0.12293795901313423
1772568132607422500,3.23242236328125,0.13269523678719997,-0.0763563958438579,0.017530469058826565
1772568132617494300,3.242494384765625,0.17993571138978004,-0.10108081326107494,0.00344619493111968
1772568132627566300,3.25256640625,0.10029285035431384,-0.11647527493820525,0.04914082833118737
1772568132637637400,3.262637451171875,-0.037945407512784,-0.1069458967690356,0.12021839785613118
1772568132647709400,3.27270947265625,-0.1263058280110359,-0.09945450896718538,0.13011639927513896
1772568132657780200,3.2827802734375,-0.2597837396085262,-0.09350182024100795,0.10850728260055184
1772568132667852300,3.292852294921875,-0.3006055793404579,-0.07909131896677427,0.10806100013777613
1772568132677924000,3.302924072265625,-0.2698573898553848,-0.04173171198531054,0.040783261287212366
1772568132687995100,3.3129951171875,-0.16729659456908702,-0.012067728407215325,-0.0674981036029756
1772568132698067200,3.323067138671875,0.02567395496070385,-0.049733396530011666,-0.20446159229390323
1772568132708138200,3.33313818359375,0.16690028872787951,-0.09777650188552216,-0.2890006278730929
1772568132718210300,3.343210205078125,0.16431436388790607,-0.17245858044214546,-0.26164266534820196
1772568132728281300,3.35328125,0.09250994139313698,-0.1797261968249455,-0.1495428381484002
1772568132738353200,3.363353271484375,-0.126259066259861,-0.12662620993866586,-0.006938859352469444
1772568132748425200,3.37342529296875,-0.2138753903925419,-0.08149153024260886,0.11219108567982912
1772568132758496300,3.383496337890625,-0.27277123147547244,-0.020168379814364014,0.1447767927903682
1772568132768568300,3.393568359375,-0.29005145210027694,-0.0803699697336182,0.1666658954501152
1772568132778639400,3.403639404296875,-0.27952479738891123,-0.15636667455276473,0.2202227866578847
1772568132788711400,3.41371142578125,-0.15328852748274802,-0.1271222041615285,0.21561317397058008
1772568132798783200,3.423783203125,-0.009969020828604697,-0.09898008725531399,0.17592640268318355
1772568132808854300,3.433854248046875,-0.03883154269754886,-0.12114060900127514,0.14986651714481414
1772568132818926300,3.44392626953125,-0.09803484229445457,-0.16008825235916302,0.13028320720940828
1772568132828997400,3.453997314453125,-0.1830827772438526,-0.20718950115414336,0.13677856057807802
1772568132839069400,3.4640693359375,-0.11696107656061648,-0.19892790529793128,0.11385879969634115
1772568132849141200,3.474141357421875,0.04130348576903343,-0.1686833544860594,0.1048041902989149
1772568132859212300,3.48421240234375,0.10418518161773681,-0.1525098712604493,0.11039835704416036
1772568132869284000,3.4942841796875,0.07769581862092018,-0.10406111684665083,0.07850245882868766
1772568132879355100,3.504355224609375,0.09722995565235615,-0.046630562543310224,0.033835268780216574
1772568132889427200,3.51442724609375,0.06990121922194957,-0.03031169776394963,0.01071319025941193
1772568132899499300,3.524499267578125,0.010466448956727981,0.0058435566627420485,-0.003550459023192525
1772568132909570300,3.5345703125,-0.07227846974730491,0.036697197549976406,0.02089914177432656
1772568132919642000,3.54464208984375,-0.08763444431126118,0.04525708223301917,0.010976298175007105
1772568132929713200,3.554713134765625,-0.09596738837063312,0.0030951712700538338,0.04481090936809778
1772568132939785200,3.56478515625,-0.018758476483821868,-0.03122534201014787,0.06987871512919663
1772568132949857300,3.574857177734375,0.0026122283250093457,-0.06444958448624238,0.11773118415027856
1772568132959928300,3.58492822265625,-0.0027530981004238128,-0.09205121957389638,0.14703896556869148
1772568132970000400,3.59500048828125,0.001997311297059059,-0.040173221363779155,0.14328238951414823
1772568132980071400,3.605071533203125,-0.04230477176606655,0.018045560707803814,0.13880159083828328
1772568132990143200,3.615143310546875,-0.08679740896522999,0.05178754344768822,0.11177885161712765
1772568133000215300,3.62521533203125,-0.11370295154750347,0.07111191018596291,0.07555091554671525
1772568133010286300,3.635286376953125,-0.0960685106575489,0.04039616166576743,0.0035876492284238337
1772568133020358400,3.6453583984375,-0.02421907997727394,-0.007956585027649999,-0.03791325880885124
1772568133030429400,3.655429443359375,0.07475275090634823,-0.06650881857099011,-0.02652370365783572
1772568133040501200,3.665501220703125,0.1862812810242176,-0.08568230559648946,-0.01964490392953157
1772568133050572000,3.675572021484375,0.21228432180881499,-0.044596389834582806,-0.0004870528645813465
1772568133060644000,3.68564404296875,0.1433522398799658,-0.024112112471461295,0.014291121811419725
1772568133070716400,3.69571630859375,0.0198071087539196,0.014138799060229211,-0.002456014849990606
1772568133080787200,3.705787109375,-0.0672381374925375,0.057723491101618854,-0.044524932033568616
1772568133090859300,3.715859375,-0.11135668068230152,0.06203682425608858,-0.07262450670599938
1772568133100930300,3.725930419921875,-0.10986088916659355,0.06789806270599365,-0.09113792238757014
1772568133111002000,3.736002197265625,-0.06461304968595505,0.03600656667100265,-0.07037943119294941
1772568133121074200,3.74607421875,-0.0018868366599082945,0.00023143413569778204,-0.04547974854037165
1772568133131145200,3.756145263671875,-0.0011392331629991531,-0.05093098141727969,-0.009123656045645474
1772568133141217300,3.76621728515625,-0.02243395012617111,-0.13318576025050133,0.08132643020823598
1772568133151288300,3.776288330078125,-0.1093488479912281,-0.14562630402548238,0.13783449937179684
1772568133161360400,3.7863603515625,-0.278303731161356,-0.17316234479732812,0.18594941872134804
1772568133171432200,3.79643212890625,-0.2956079171836376,-0.1800470810760744,0.18151684310138225
1772568133181503200,3.806503173828125,-0.24884148983359336,-0.15252702332464976,0.1232921792782843
1772568133191575300,3.8165751953125,-0.21057225719392297,-0.21787744737444445,0.10543006711229681
1772568133201646300,3.826646240234375,-0.1968073512136936,-0.24295847794329747,0.10987973999753593
1772568133211718400,3.836718505859375,-0.20368717385530472,-0.2274496691714972,0.09162629042640327
1772568133221790200,3.846790283203125,-0.15745090785920618,-0.1936109845914878,0.026506898653507232
1772568133231861200,3.856861328125,-0.10878770697712897,-0.16059457617979495,-0.043119449149817225
1772568133241933300,3.866933349609375,-0.03600011866390705,-0.11776799076301976,-0.07242576926350593
1772568133252004000,3.877004150390625,0.015828852772712707,-0.05372373567465692,-0.08824687712118029
1772568133262076400,3.887076416015625,0.02804360670149326,0.005994509440753608,-0.08512436118647455
1772568133272148500,3.8971484375,-0.013658522996306419,0.04016116559980437,0.024182401228696106
1772568133282219300,3.90721923828125,-0.06245090321600437,-0.021951573436707256,0.06895327084735035
1772568133292291000,3.917291015625,-0.09211948077082634,-0.03268297520624473,0.019779051703214645
1772568133302362000,3.927362060546875,-0.030572832918167113,-0.0734333754034713,-0.01792845540046692
1772568133312434200,3.93743408203125,-0.03345803296566009,-0.12192534790448843,-0.06875701762288808
1772568133322505200,3.947505126953125,-0.017843699726462364,-0.13360968475099652,-0.0665104077398777
1772568133332577300,3.957577392578125,0.053829789865016936,-0.07313660268029197,-0.057938248097151514
1772568133342649300,3.9676494140625,0.06884440364539623,-0.068490822701063,-0.0434082029633224
1772568133352720400,3.977720458984375,0.13487550343573093,-0.05413461803048849,-0.04872954411655664
1772568133362792200,3.987792236328125,0.18344284272789954,-0.025755879356805234,-0.03727247668728232
1772568133372860700,3.997860595703125,0.18422376397252083,-0.025964498872496185,-0.04281242902725935
1772568133382931700,4.007931640625,0.049314358267188066,0.0004821209611371159,0.004070025917887687
1772568133393003800,4.018003662109375,-0.1435375333189964,-0.01711863685492426,0.079713149792701
1772568133403074800,4.02807470703125,-0.2570972770035267,-0.03416302116354927,0.12148702955245971
1772568133413146600,4.038146728515625,-0.2841489500582218,-0.023516356801707296,0.14084829423502088
1772568133423218700,4.04821875,-0.20045710589289664,-0.008973744447249918,0.09110022072568535
1772568133433289500,4.05828955078125,-0.10104922167956829,-0.01841468628114089,0.03361585387587547
1772568133443361500,4.068361572265625,0.04004910179376602,-0.002142217926774174,-0.04883826518803835
1772568133453432600,4.0784326171875,0.12071546065807341,0.004358341339975595,-0.10371581054031849
1772568133463504600,4.088504638671875,0.16198504415750503,-0.005944861612748355,-0.08732888549342752
1772568133473576400,4.098576416015625,0.19025778343975544,-0.007645528050791472,-0.03921922684088349
1772568133483647500,4.1086474609375,0.16472119112312794,-0.02738673196164891,0.005706541078537702
1772568133493719600,4.118719482421875,0.16439678147435188,-0.07520376434316858,0.0404256800211966
1772568133503790600,4.12879052734375,0.13843991791903973,-0.14946071282289922,0.08225582001283764
1772568133513862700,4.138862548828125,0.05802782607674598,-0.2396922974878922,0.11473171007335185
1772568133523933700,4.14893359375,0.025799627166986465,-0.26598336143363266,0.1531196006566286
1772568133534005800,4.159005859375,-0.08405132512748241,-0.2900009274894371,0.18387772701382635
1772568133544077600,4.16907763671875,-0.16217559829354286,-0.28829589540353046,0.21064269208163022
1772568133554148600,4.179148681640625,-0.2242050612270832,-0.22040552281364797,0.1792738864801824
1772568133564220700,4.189220703125,-0.2729606165677309,-0.18514606644921003,0.1207956862874329
1772568133574291700,4.199291748046875,-0.24423195021152494,-0.14793301006527618,0.05597352389544248
1772568133584363800,4.20936376953125,-0.19144962357282638,-0.0695688637287356,-0.028828473468869922
1772568133594435600,4.219435546875,-0.13176935411393642,-0.06648266121642664,-0.09934694780632852
1772568133604506600,4.229506591796875,-0.16071721617877482,-0.08135244143232703,-0.11414221974760293
1772568133614578700,4.23957861328125,-0.19168693946003912,-0.0727310175540857,-0.10743249297589064
1772568133624649500,4.2496494140625,-0.21608079148232937,-0.0298925773027353,-0.14305077271535993
1772568133634721800,4.2597216796875,-0.328116102078557,-0.049816188575793056,-0.11899740469381212
1772568133644792600,4.26979248046875,-0.3213859170407057,-0.017613343302998692,-0.06031301440447569
1772568133654864600,4.27986474609375,-0.23615444221794604,0.01756331188250333,-0.03569002980142832
1772568133664936400,4.2899365234375,-0.1120370641618967,0.021870397959277033,-0.02391965863928199
1772568133675007500,4.300007568359375,-0.035593291428685184,0.0051146943989209825,0.032729280299693346
1772568133685079600,4.31007958984375,0.035026889717578884,-0.014468852998502552,0.09363719185739755
1772568133695150600,4.320150634765625,0.058736266607046124,-0.04730729276109487,0.14121771206930278
1772568133705222700,4.33022265625,0.11556465376615524,-0.08476895361123606,0.16144173106104134
1772568133715294700,4.340294677734375,0.14380056816935538,-0.12359266006220132,0.18409049298167227
1772568133725365800,4.35036572265625,0.14109189373254774,-0.13793792321365325,0.177883308904618
1772568133735437600,4.3604375,0.05518529612720012,-0.11912947010826319,0.17209931867569683
1772568133745508600,4.370508544921875,-0.02892155857980251,-0.10675631074737757,0.13482523455321788
1772568133755580700,4.38058056640625,-0.0833896463483572,-0.0911487908414565,0.06321881884858012
1772568133765652700,4.39065283203125,-0.05502864426076412,-0.08080611439486965,-0.042714083219319576
1772568133775723800,4.400723876953125,-0.05884264959096908,-0.11957893090881407,-0.14385639000982045
1772568133785795600,4.410795654296875,0.011479425391554832,-0.13295938588241116,-0.21157953454032538
1772568133795866600,4.42086669921875,0.07232464697659015,-0.09681501817591488,-0.24462591796517372
1772568133805938700,4.430938720703125,0.08924187950789927,-0.052181675598118454,-0.16626111404150723
1772568133816009500,4.441009521484375,0.062087915122508996,0.004798614187072962,-0.07644815664738416
1772568133826081800,4.451081787109375,-0.0781833098769188,-0.008344963290728627,-0.009067980335652828
1772568133836153900,4.46115380859375,-0.19435060571134088,-0.05088829305302352,0.05902180555015802
1772568133846224600,4.471224609375,-0.26536358556747436,-0.1217691344294697,0.08071808905154466
1772568133856296400,4.48129638671875,-0.28359306974112986,-0.1968039902128279,0.05248159012645483
1772568133866367500,4.491367431640625,-0.18899638520181178,-0.2263378720046952,0.004719137476384639
1772568133876439600,4.501439453125,-0.1143985325962305,-0.2753160936526954,-0.0367835241265595
1772568133886511600,4.51151171875,0.006131634622812271,-0.257891386523284,-0.04518339594230056
1772568133896582700,4.521582763671875,0.10297931295931338,-0.17635597147317603,-0.05376739215329289
1772568133906654700,4.53165478515625,0.08598492353856563,-0.09877725815959275,-0.08958280190005898
1772568133916725800,4.541725830078125,-0.07473813785910606,-0.04386444056453183,-0.0685329996086657
1772568133926797600,4.551797607421875,-0.14296996256411074,0.020588961580302566,-0.03385930724292993
1772568133936869600,4.56186962890625,-0.3454430844545364,0.059501825885754075,0.0019046645775437354
1772568133946940700,4.571940673828125,-0.38869478168189525,0.08423342196242883,0.03659399290382862
1772568133957012700,4.5820126953125,-0.2965320462912321,0.09390097562642767,0.040081542758643625
1772568133967084500,4.59208447265625,-0.1705512124508619,0.09149303770186379,0.02484042674601078
1772568133977156600,4.602156494140625,0.0160644150942564,0.03477742673484608,0.008760521821677685
1772568133987227600,4.6122275390625,0.14588205061852932,-0.038532468419428915,0.04053279365748167
1772568133997299700,4.6222998046875,0.23570962105989454,-0.07590467915413901,0.12274579744189977
1772568134007371800,4.632371826171875,0.26570669991672036,-0.09739287286279723,0.19346476278752087
1772568134017442800,4.64244287109375,0.19143384148180484,-0.09974480628380551,0.25698855593204495
1772568134027514600,4.6525146484375,-0.00884264714717865,-0.11693678236957639,0.29307796031460165
1772568134037585700,4.662585693359375,-0.16759470073282717,-0.1447251174020581,0.3079093264825642
1772568134047657700,4.67265771484375,-0.16149696837961672,-0.17078916765889152,0.2602894971735775
1772568134057728500,4.682728515625,-0.11395254239439964,-0.16598121938789262,0.1797518792554736
1772568134067800600,4.692800537109375,-0.026619711378216743,-0.18261232845420017,0.1462964766383171
1772568134077872600,4.70287255859375,0.045263621571660036,-0.17642204071301965,0.11440130907520651
1772568134087943700,4.712943603515625,0.08958791646659374,-0.18005833312245084,0.08872852315828203
1772568134098015500,4.723015380859375,0.04632511332333088,-0.16322307978617026,0.033992432103306054
1772568134108086500,4.73308642578125,-0.08428630292713642,-0.16706658520549536,-0.003389788568764925
1772568134118158600,4.74315869140625,-0.1315261930078268,-0.15215738629465922,-0.058672992112487554
1772568134128230700,4.753230712890625,-0.09650982468426227,-0.0917992723731324,-0.12935980875417588
1772568134138301700,4.7633017578125,-0.09462591063380241,-0.05005949581237509,-0.17222864414379
1772568134148373500,4.77337353515625,-0.11907529223561286,-0.04204365487815812,-0.1614624815881252
1772568134158444500,4.783444580078125,-0.13653496108055113,-0.004247245648317039,-0.12274287483245133
1772568134168516600,4.7935166015625,-0.17768121046125887,-0.00015862462781369684,-0.04031505925357341
1772568134178588700,4.803588623046875,-0.19877660546004772,-0.015229005449730902,0.03965177303925156
1772568134188659700,4.81365966796875,-0.14280162025988102,-0.00942079409500584,0.07624445076882838
1772568134198731800,4.823731689453125,-0.1050438442736864,-0.04462618218464776,0.10227920186594128
1772568134208802800,4.833802734375,-0.1088695400416851,-0.09214753782153129,0.12759776751771568
1772568134218874600,4.84387451171875,-0.14239771563410758,-0.10769757365286349,0.15574600363746285
1772568134228945700,4.853945556640625,-0.2432663200497627,-0.12460879656849429,0.1977637751556933
1772568134239017700,4.864017822265625,-0.35779753911495205,-0.13858361897235735,0.2403114157669246
1772568134249089800,4.87408984375,-0.39454058510065076,-0.11483515218151732,0.26358459319621325
1772568134259160800,4.884160888671875,-0.2837777786582708,-0.04710482899155467,0.22287498166710137
1772568134269232600,4.894232666015625,-0.0850011731982231,0.03403568672314286,0.10011720152646303
1772568134279303400,4.904303466796875,0.03431377301216125,0.08747877882551401,-0.051038990102708334
1772568134289375500,4.91437548828125,0.11262860031425952,0.04803162498027086,-0.19999416455626487
1772568134299447600,4.924447509765625,0.18857903657257555,0.08210070251636206,-0.29170301869958637
1772568134309518600,4.9345185546875,0.21765373988747597,0.03425097344163805,-0.2914278550200164
1772568134319590700,4.944590576171875,0.34965865632295606,0.04161934678517282,-0.2398718553058803
1772568134329661700,4.95466162109375,0.5312877276271581,0.10260664372202008,-0.16798998366072773
1772568134339733500,4.9647333984375,0.5327168836474419,0.10107433785451575,-0.0887789381712675
1772568134349804500,4.974804443359375,0.35815643555521964,0.08514927643202244,-0.02830810285657644
1772568134359876600,4.984876708984375,0.07506488559544086,0.044104934789519754,0.011182196010649204
1772568134369948700,4.99494873046875,-0.07064765367507934,0.012085885118413716,0.024362141709774732
1772568134380019700,5.005019775390625,-0.07637363010644913,0.005538472768943757,-0.029167203903943298
1772568134390091800,5.015091796875,-0.050400399938225746,-0.050244953648187214,-0.06456906441375612
1772568134400162800,5.025162841796875,-0.027079730105400084,-0.1149378636373207,-0.06922931130975485
1772568134410234600,5.035234619140625,-0.05494388858675956,-0.14948780175922438,-0.021910656904429195
1772568134420306700,5.045306640625,-0.09914075770974158,-0.2162117061193101,0.044267888532578945
1772568134430377700,5.055377685546875,-0.16599837145209312,-0.19913489911211654,0.10732917873188853
1772568134440449800,5.06544970703125,-0.24881577087044715,-0.1753114673889242,0.15771102010011673
1772568134450520800,5.075520751953125,-0.2544113989204168,-0.16433633825769647,0.16887597271502017
1772568134460592600,5.085592529296875,-0.21664485510587692,-0.12561590951811522,0.12392346291914581
1772568134470663400,5.095663330078125,-0.18952888464331627,-0.09890247370814904,0.057059565566480154
1772568134480735500,5.105735595703125,-0.16152619447410105,-0.10359492410700767,-0.018665099111944437
1772568134490807600,5.1158076171875,-0.0588812280356884,-0.07575728830639272,-0.1080465332210064
1772568134500878600,5.125878662109375,0.006970423534512519,-0.11137184171881526,-0.15923194605708121
1772568134510950700,5.13595068359375,0.029746903488039968,-0.11981816475847736,-0.16060601088926196
1772568134521021700,5.146021728515625,-0.008068155643343925,-0.13332995449416338,-0.09770663325339556
1772568134531093500,5.156093505859375,-0.1490191796004772,-0.13382871606284752,-0.024102760121226308
1772568134541165600,5.16616552734375,-0.21608955931067467,-0.14064687164509668,0.016122575022280216
1772568134551236600,5.176236572265625,-0.16031155798733235,-0.1435972093506716,0.011474456955492495
1772568134561308700,5.18630859375,-0.07128185992538928,-0.1215996961466968,-0.014562486098706721
1772568134571379700,5.196379638671875,-0.0318324775904417,-0.11885724730445071,-0.03741802263781428
1772568134581451800,5.20645166015625,-0.060712535116076466,-0.12730784466043113,0.010628653781116009
1772568134591523600,5.216523681640625,-0.04738368246555328,-0.09762344848196954,0.059370034465938804
1772568134601594600,5.2265947265625,-0.0010176526099443435,-0.07414402615716681,0.0900292304933071
1772568134611666700,5.236666748046875,0.05919336272478103,-0.10266621015584096,0.08980243600010872
1772568134621737700,5.24673779296875,0.046506899631023405,-0.10442596810366958,0.06397182917296886
1772568134631809800,5.256809814453125,-0.05346037203073501,-0.11721523398477583,0.035062253291904925
1772568134641880800,5.266880859375,-0.13110533724725246,-0.08462088691005483,-0.01796776449754834
1772568134651952600,5.27695263671875,-0.06105564946532249,-0.05047065216284245,-0.05558233262076973
1772568134662024700,5.287024658203125,0.04956219554841518,-0.05318880681404844,-0.10271554745659231
1772568134672095500,5.297095458984375,0.04812485622167587,-0.016813973086234182,-0.09855389773249626
1772568134682167600,5.30716748046875,0.007466098096966743,-0.07141940523255616,-0.08660232478454709
1772568134692238600,5.317238525390625,-0.0037169746965169904,-0.0823237341498956,-0.03516030683889985
1772568134702310700,5.327310546875,0.04347556911110878,-0.14624704800602048,0.01966419315189123
1772568134712382500,5.337382568359375,0.06743979754447936,-0.1357797040001489,0.09733137020021676
1772568134722453500,5.34745361328125,-0.05948211653828621,-0.1607352267595008,0.20627835939228534
1772568134732525600,5.357525634765625,-0.22777473640739918,-0.15012699471190571,0.25661577709689737
1772568134742596600,5.3675966796875,-0.31546763290762897,-0.0923707338518463,0.31639965306073425
1772568134752668700,5.377668701171875,-0.44326983695626254,-0.13291846935013307,0.38222412436306474
1772568134762740700,5.38774072265625,-0.37342239374816416,-0.1843828269917518,0.2131220878072083
1772568134772811800,5.397811767578125,-0.2931330515027046,-0.13539826693451032,0.13634937538057565
1772568134782883600,5.407883544921875,-0.018512392768263816,-0.20548278856780378,0.0478003004424274
1772568134792954600,5.41795458984375,0.176177820160985,-0.15542968596359713,-0.06701032008603215
1772568134803026700,5.428026611328125,0.2562783618360758,-0.1734152053135447,-0.16981164612993596
1772568134813097700,5.43809765625,0.37185353699624535,-0.18572116292342541,-0.24333142117522655
1772568134823169800,5.448169677734375,0.3045446723550558,-0.13704397004861385,-0.20826602607816458
1772568134833241600,5.45824169921875,0.2001496473789215,-0.10744032922247423,-0.16357560128457843
1772568134843312600,5.468312744140625,-0.1720768145829439,-0.03971323916921392,0.006670636870339512
1772568134853384700,5.478384765625,-0.3592787175834179,0.01102351658390835,0.12537315027080476
1772568134863455500,5.48845556640625,-0.31607553567290303,0.06946034358665347,0.1199842237740755
1772568134873527600,5.498527587890625,-0.249545254188776,0.011725015916768462,0.07307714584432543
1772568134883600000,5.508599853515625,-0.10260638799369334,-0.024382892236858605,-0.00883373318836093
1772568134893670700,5.518670654296875,0.012301263168454169,-0.0753338021973148,-0.10303294284269213
1772568134903742500,5.528742431640625,-0.010723054066300391,-0.14848231451110913,-0.13687851382121444
1772568134913813500,5.5388134765625,-0.08864975883364677,-0.15947229415159672,-0.09410137530304491
1772568134923885600,5.548885498046875,-0.15959785676002503,-0.14088700054390355,-0.03226977302916348
1772568134933956600,5.55895654296875,-0.345578109011054,-0.1445410295394249,0.0722143184699118
1772568134944028700,5.569028564453125,-0.4728770397126674,-0.01921341717708856,0.12958039270229638
1772568134954100700,5.579100830078125,-0.4078676841855049,0.018988485847413538,0.10702449669688939
1772568134964171800,5.589171875,-0.25275369484126564,0.035849385081604124,0.05722060134708881
1772568134974243600,5.59924365234375,-0.1044949782192707,0.0702757333564572,-0.012715543057769537
1772568134984314600,5.609314697265625,0.05289806197285652,0.003508592642843723,-0.098878891903162
1772568134994386700,5.61938671875,0.1857499506264925,-0.03430511478167027,-0.16186039486452936
1772568135004458800,5.629458740234375,0.2012128926962614,-0.048391142475046216,-0.18913433236777782
1772568135014529800,5.63952978515625,0.09284136530458927,-0.06640042629307136,-0.13460545432269572
1772568135024601600,5.6496015625,0.038760815548896786,-0.06069141926281154,-0.0704866178944707
1772568135034672600,5.659672607421875,-0.0035030396848917005,-0.046949821092933414,0.028105273760855195
1772568135044744700,5.66974462890625,-0.1667529892116785,-0.07690872336383908,0.1340031045153737
1772568135054816800,5.679816650390625,-0.16539982103705406,-0.1109721200778149,0.1979381088092923
1772568135064887600,5.689887451171875,-0.0799777920782566,-0.08725147287566214,0.19651099861562252
1772568135074960000,5.6999599609375,0.04234510377645492,-0.13391376399779692,0.1655878909550607
1772568135085030700,5.71003076171875,0.11523790602982044,-0.16125819118767976,0.17821166407614944
1772568135095102500,5.7201025390625,0.1435994926393032,-0.18973273665234444,0.21497969837263226
1772568135105173500,5.730173583984375,0.12059563367068767,-0.17034867561608552,0.22872458447813987
1772568135115245600,5.74024560546875,0.10519465092122554,-0.14319063784377647,0.17484116472974418
1772568135125317600,5.750317626953125,0.0868880098581314,-0.11121270563434808,0.08987579349726438
1772568135135388700,5.760388671875,0.11494798317253589,-0.12282176702124997,-0.006597060177475213
1772568135145460500,5.77046044921875,0.0775818368524313,-0.1342584675159305,-0.09223828484490514
1772568135155531500,5.780531494140625,0.03776654381453991,-0.1338845379033126,-0.13059490350708364
1772568135165603600,5.790603515625,0.09092822515964508,-0.09350050506675615,-0.16137626460939644
1772568135175674600,5.800674560546875,0.1026040499061346,-0.07165880347900092,-0.14452142978981136
1772568135185746700,5.81074658203125,0.07047463519573212,-0.04672543775252998,-0.1624620140194893
1772568135195818800,5.82081884765625,0.025682722789049147,-0.008410484541300684,-0.10759491699598729
1772568135205889800,5.830889892578125,-0.006084288349747657,0.041348366090375926,-0.1120485354039818
1772568135215961600,5.840961669921875,-0.06125263334214687,0.0721001905709505,-0.15174283241070807
1772568135226032600,5.85103271484375,-0.014402619361877441,0.019358935728156938,-0.1872837360650301
1772568135236104700,5.861104736328125,0.027598201021552086,0.01857671757559292,-0.1838556613124907
1772568135246176800,5.8711767578125,0.0033878888726234435,-0.03773005686220713,-0.1119472669865936
1772568135256247800,5.881247802734375,-0.22830314419567585,-0.10741738673830405,0.11957768879979848
1772568135266320000,5.89131982421875,-0.4044394633024931,-0.09066182017526589,0.3506883646968752
1772568135276390700,5.901390625,-0.5261965419679879,-0.028154638461070133,0.4657043716043234
1772568135286462500,5.91146240234375,-0.6010901626497507,-0.02694323511100374,0.4304793289661407
1772568135296533500,5.921533447265625,-0.4989508076459169,-0.07588494240720756,0.27552308746688065
1772568135306605600,5.93160546875,-0.32823300645649434,-0.18725880255317315,0.08880100387260317
1772568135316677600,5.941677734375,-0.15476035360097884,-0.2397234598111361,0.0125694856505841
1772568135326748700,5.951748779296875,-0.04991992294490337,-0.25563009052779523,-0.08497238549515604
1772568135336820500,5.961820556640625,0.09283785817325114,-0.15378372712116686,-0.1953781221281737
1772568135346891500,5.9718916015625,0.04358078305125236,-0.08978972264900803,-0.1856177025489509
1772568135356963600,5.981963623046875,-0.05221007970869541,-0.03669873191993683,-0.11994433015510439
1772568135367035600,5.99203564453125,-0.17417524816691873,0.006709553241776302,-0.025628946775197982
1772568135377110500,6.002110595703125,-0.18159926068782806,0.04369444515933282,0.005126110842078924
1772568135387182600,6.0121826171875,-0.10038052863776684,0.034657389684906226,-0.026090938263759016
1772568135397253600,6.022253662109375,-0.028621698850393295,-0.051423358910949894,-0.06174275494664907
1772568135407325400,6.032325439453125,0.004999415722489357,-0.11433738612667657,-0.04492189546190202
1772568135417396500,6.042396484375,0.020963293051719664,-0.18063114630803465,-0.009157558315247297
1772568135427468500,6.052468505859375,0.023975334349274634,-0.20849680262673645,0.020350860241800547
1772568135437540600,6.06254052734375,-0.010837035834789276,-0.15801676158104092,0.048663493143022055
1772568135447611600,6.072611572265625,-0.0775555333673954,-0.14989446459766476,0.057172962813079355
1772568135457683500,6.082683349609375,-0.12095219202339648,-0.13599090819857082,0.06792283182106912
1772568135467754500,6.09275439453125,-0.08994973551630973,-0.04715757295894436,0.047822512274235486
1772568135477826600,6.10282666015625,-0.06281155322194099,-0.019439681947324424,0.00614931640997529
1772568135487897600,6.112897705078125,-0.03896539821028709,-0.029607029226468875,-0.007570435254275799
1772568135497969700,6.1229697265625,0.02011164465844631,-0.02008340494465083,-0.02471102821268141
1772568135508041700,6.133041748046875,-0.02222001511454582,-0.08792049471102655,-0.0675743106443435
1772568135518112800,6.14311279296875,-0.08150397873222827,-0.14364140468542463,-0.06853862563185394
1772568135528184600,6.1531845703125,-0.06776771432459354,-0.1293912816046737,-0.03829159060195088
1772568135538255400,6.16325537109375,-0.12625088295340536,-0.08429245867328718,0.03843487153016031
1772568135548327400,6.173327392578125,-0.18199205939769744,-0.05311194218555465,0.1276114307168871
1772568135558398500,6.1833984375,-0.2217909858226776,-0.04027712926282547,0.18449454373791813
1772568135568470500,6.193470458984375,-0.17046002703607083,-0.018025823960872368,0.12186039290949702
1772568135578542600,6.20354248046875,-0.06107376964390278,-0.06061579674333334,0.029767800145596265
1772568135588613600,6.213613525390625,0.02490004797875881,-0.11626047227689995,-0.03646203708723187
1772568135598685400,6.223685546875,0.1703910534530878,-0.10413336923210881,-0.10139584316015243
1772568135608756500,6.233756591796875,0.2508557522654533,-0.15995430551487952,-0.1320944944150746
1772568135618828500,6.24382861328125,0.24646716191768644,-0.22708956715483217,-0.07809490094110369
1772568135628900600,6.253900634765625,0.04120353252589702,-0.21871296661682427,0.0677918258525431
1772568135638971600,6.2639716796875,-0.14053425984978676,-0.1462769590870943,0.14820245639011262
1772568135649043500,6.27404345703125,-0.188934425881505,-0.061923079949617384,0.12196473006680607
1772568135659114500,6.284114501953125,-0.22407237475812433,-0.0009862345583736896,0.0632483372040093
1772568135669186600,6.2941865234375,-0.1770347292512655,0.003449948657630011,0.0466007153943181
1772568135679257600,6.304257568359375,-0.02317980005741119,0.0013874723030254245,0.05163476403877139
1772568135689329700,6.31432958984375,0.060820087143778796,-0.01641227868385613,0.06323971550613641
1772568135699401700,6.324401611328125,0.0526069700717926,0.0006429466791916638,0.07681275217607617
1772568135709472800,6.33447265625,-0.012964110991358756,-0.005677625511307269,0.06079254154972732
1772568135719544600,6.344544677734375,-0.00423895274400711,-0.03339786374364048,0.011722075041010974
1772568135729615400,6.354615478515625,0.10063830279111861,-0.005847292122943326,-0.04921338211074471
1772568135739687400,6.3646875,0.15614157882630825,0.001638542720954865,-0.08955949408970773
1772568135749758500,6.374758544921875,0.20437281803190707,0.017652497136453164,-0.13157843465171754
1772568135759830500,6.38483056640625,0.13810206426680088,0.021228318929765372,-0.1327939479213208
1772568135769902600,6.394902587890625,-0.0023936171382665634,-0.002827898635994643,-0.09245441181361674
1772568135779973600,6.4049736328125,-0.08751052567064761,-0.020548017648560925,-0.049994741746783256
1772568135790045400,6.41504541015625,-0.11389584377110004,-0.07155616508843377,-0.0328849092528224
1772568135800116500,6.425116455078125,-0.26414894908070563,-0.08867303924453444,0.039430969895422455
1772568135810188500,6.4351884765625,-0.37379824132323264,-0.053697788382647556,0.12276713249087333
1772568135820259600,6.445259521484375,-0.42147067760229107,-0.05277888343944214,0.1671175847403705
1772568135830331600,6.45533154296875,-0.31522973249852654,-0.02366649672896601,0.14709003816880284
1772568135840403500,6.465403564453125,-0.17139409301578998,-0.04093677134849131,0.07869206311665475
1772568135850474500,6.475474609375,-0.04482230754494667,-0.19848569622207432,0.006297200448065996
1772568135860546600,6.485546630859375,0.0446639021128416,-0.26899523833440614,-0.0496406676121056
1772568135870617600,6.49561767578125,0.0007364975810050964,-0.3307035612884909,-0.04382715902775526
1772568135880689700,6.505689697265625,-0.058707040512561794,-0.27732947930172086,-0.04223316783457994
1772568135890760700,6.5157607421875,-0.12574760960638523,-0.19990440391357986,-0.10507738121710718
1772568135900832800,6.525832763671875,-0.2248895363599062,-0.1689099480498582,-0.13789930823631583
1772568135910904600,6.535904541015625,-0.21904431746304034,-0.1412626654558815,-0.10411671949140727
1772568135920975400,6.545975341796875,-0.08284662551283836,-0.0929271530250553,-0.07679835832454264
1772568135931047400,6.55604736328125,0.04041793510615825,-0.05773940105680376,-0.018668679308518767
1772568135941118500,6.566118408203125,0.09223755419254302,-0.03832637878754176,0.00955912485346198
1772568135951190500,6.5761904296875,0.10749006838202475,-0.07716332831257022,-0.018178338508307933
1772568135961261600,6.586261474609375,-0.002007248169183731,-0.20266429708097128,0.007814473143219947
1772568135971333400,6.59633349609375,0.0568114360243082,-0.23669530762899665,0.046436903134733434
1772568135981405400,6.606405517578125,0.037061610415577886,-0.15641973818056285,0.08803374582715331
1772568135991476500,6.6164765625,0.10960077692568301,-0.0816243171762675,0.015715163265168666
1772568136001548500,6.626548583984375,0.16848960374593733,-0.07815108810774982,-0.016482421310618518
1772568136011619600,6.63661962890625,0.142400638243556,-0.026748347293143158,0.02194207495599985
1772568136021691600,6.646691650390625,0.03968552917838097,-0.04458373128240928,-0.014055267228931188
1772568136031762700,6.6567626953125,0.013621698117256163,-0.0619852082332829,-0.02841265920959413
1772568136041834500,6.66683447265625,-0.007902735948562622,-0.07875162955047563,-0.019081570958346127
1772568136051906600,6.676906494140625,-0.08721592663824558,-0.10325616627247072,-0.005260843137651682
1772568136061977600,6.6869775390625,-0.3825099555671215,-0.11419834298216737,0.193637050614506
1772568136072049700,6.697049560546875,-0.5078495688945055,-0.01931576787328813,0.22889343823902308
1772568136082120700,6.70712060546875,-0.41020810983181,-0.016900997207494217,0.12050254855975508
1772568136092192800,6.71719287109375,-0.2643056009471416,-0.059828299627453084,0.09234642139449716
1772568136102263600,6.727263671875,0.050611996862292286,-0.03250453163310885,0.045535716511309145
1772568136112335400,6.73733544921875,0.2396720949500799,-0.07083771462077275,0.026128859121352432
1772568136122407700,6.74740771484375,0.22767010698914528,-0.11535306597524322,0.04231901948712766
1772568136132478500,6.757478515625,0.1016062710404396,-0.06553463521001394,0.12554273468405008
1772568136142550500,6.767550537109375,-0.030587445965409278,0.0048835610865004125,0.17667977833375334
1772568136152621600,6.77762158203125,-0.007975216662883759,0.0449982029679697,0.13809906859211624
1772568136162693400,6.787693359375,0.026983868515491484,0.03206005525164073,0.10425422826595604
1772568136172764400,6.797764404296875,0.06583236234784126,0.023838298215472602,0.0387062358174473
1772568136182836500,6.80783642578125,0.18912264192998407,-0.03778374154451303,-0.08277830951698124
1772568136192907500,6.817907470703125,0.23654957901537416,-0.06455557931109797,-0.15672010936662553
1772568136202979600,6.8279794921875,0.10404080471098423,-0.07797747597335837,-0.07942856069765984
1772568136213051600,6.8380517578125,0.056095981231331825,-0.06196785067310556,-0.03307305223606526
1772568136223122700,6.848122802734375,0.02915770542323589,-0.1004968941595871,0.05747516063004732
1772568136233194500,6.858194580078125,-0.010133271479606628,-0.13020171207156964,0.14060564458556474
1772568136243265500,6.868265625,-0.017173837640881536,-0.06041018660205882,0.1877448507707566
1772568136253337600,6.878337646484375,-0.2888900071054697,-0.16528905413895845,0.21874248497225343
1772568136263408600,6.88840869140625,-0.5658025761693716,0.0632454602603335,0.2721547800775617
1772568136273480700,6.898480712890625,-0.5694488237172365,0.3770653168277815,0.22516974154077468
1772568136283552800,6.908552734375,-0.4103606700450182,0.29275004353448747,0.050942836251854896
1772568136293623600,6.91862353515625,-0.1577466759353876,0.056941848337789994,-0.09959105876050889
1772568136303695400,6.9286953125,0.0860036282390356,-0.041114146342547606,-0.28261472622826694
1772568136313766400,6.938766357421875,0.13957564395070074,-0.12722133542075753,-0.4004632531479001
1772568136323838500,6.94883837890625,0.13219547057151793,-0.23825386218260972,-0.26789266565367575
1772568136333909500,6.958909423828125,0.05759177274703979,-0.23044998349864035,-0.06596950579620897
1772568136343981600,6.968981689453125,-0.08921849863231182,-0.20832899004546923,0.08650295606330037
1772568136354053400,6.979053466796875,-0.2197644484311342,-0.1413497226848267,0.21696451551429927
1772568136364124400,6.98912451171875,-0.19149696984589099,-0.029413652945682406,0.2056158768955618
1772568136374191900,6.99919189453125,-0.09057049776315688,-0.04806187398806214,0.13557305724583565
1772568136384263000,7.009262939453125,-0.02396072130203247,-0.10374675366785377,0.06488565608225763
1772568136394335000,7.0193349609375,0.07859832041859627,-0.1512377506990917,0.00782806327715516
1772568136404405800,7.02940576171875,0.11559387986063957,-0.19327609008131547,-0.04557707143500447
1772568136414477800,7.039477783203125,0.16141688888072966,-0.2569540874068625,-0.06701894178390502
1772568136424548900,7.049548828125,0.09302490517795085,-0.1956792970318347,-0.07475786547288298
1772568136434621000,7.059620849609375,0.029618893194198605,-0.16363160578813402,-0.07020560899600387
1772568136444692700,7.069692626953125,0.01059329020678997,-0.1066620565926656,-0.1385356333784759
1772568136454763800,7.079763671875,-0.03448737601339817,-0.0904665989972651,-0.14529548290222882
1772568136464835800,7.0898359375,-0.019570377388596533,-0.08287035344829782,-0.1264198097795248
1772568136474907000,7.099906982421875,0.025087094983458517,-0.05077060322379693,-0.18449264404177665
1772568136484979000,7.10997900390625,-0.05015080909132957,-0.12648313907301054,-0.19816366119347512
1772568136495050000,7.120050048828125,0.06548340277969837,-0.20644038155358282,-0.0709956633951515
1772568136505122000,7.1301220703125,0.24712124191224574,-0.18695510689886286,0.11263488392457366
1772568136515193900,7.14019384765625,0.22441256649792193,-0.16756909136753528,0.24487938126958905
1772568136525265000,7.150264892578125,0.18222762171924115,-0.17154497272856534,0.22752960253991186
1772568136535337000,7.1603369140625,0.1262660805225372,-0.17653872589524836,0.17515154585316775
1772568136545408000,7.170407958984375,0.08769640363156794,-0.2399918101574294,0.1990897630624473
1772568136555480000,7.18047998046875,-0.11521452515423297,-0.1921933728785254,0.21288345674574374
1772568136565551000,7.190551025390625,-0.3104343149155378,-0.255335071370285,0.22794388242922722
1772568136575623000,7.200622802734375,-0.5109159707278013,-0.20493185842046513,0.1591468250568956
1772568136585694000,7.21069384765625,-0.6395844362169504,-0.15558178951907903,0.12822788211479783
1772568136595765800,7.220765869140625,-0.5774111808985471,-0.03824870130829513,0.07200542495958506
1772568136605837800,7.230837890625,-0.4956260471373796,0.19053906633285805,-0.06819426917359232
1772568136615908900,7.240908935546875,-0.37635844720005984,0.35791371284052725,-0.23607297447957096
1772568136625981000,7.25098095703125,-0.198999892821908,0.4386393276114017,-0.34141083326376975
1772568136636052000,7.261052001953125,-0.11665011091530322,0.5577274062633514,-0.44917036623694
1772568136646123800,7.271123779296875,-0.10526128641664981,0.4551971522457897,-0.5379278232287615
1772568136656194800,7.28119482421875,-0.14276771799027918,0.3326992651503533,-0.5617047123964876
1772568136666267000,7.291266845703125,-0.15671733288764952,0.20739276864128187,-0.4717284541994333
1772568136676338000,7.301337890625,-0.08259761918783187,0.08393226532507687,-0.37551724713556467
1772568136686410000,7.311409912109375,0.16862053664922713,-0.06462366241151467,-0.36174138136990364
1772568136696482000,7.32148193359375,0.28787176997363567,-0.12446772586368024,-0.33413507010713217
1772568136706553000,7.331552978515625,0.18643676384687421,-0.2195882150813937,-0.20015205853171644
1772568136716625000,7.341625,0.08772972137928009,-0.30161473811669276,-0.0167516667060554
1772568136726696000,7.351696044921875,0.009997077879309653,-0.3457493739247322,0.1675191512785852
1772568136736768000,7.36176806640625,-0.07249591189026833,-0.37202629974726587,0.31356041104681787
1772568136746839000,7.371839111328125,0.008152326795458794,-0.4554837871674448,0.40595308273583647
1772568136756911000,7.3819111328125,0.07988777570724487,-0.5486478816203773,0.4447250772658735
1772568136766983000,7.39198291015625,0.08556231421232223,-0.5009935655198992,0.42828072294332087
1772568136777054000,7.402053955078125,0.007921440649032592,-0.4491393865767866,0.43092970308214423
1772568136787125800,7.412125732421875,-0.1466489433377981,-0.32234650570116935,0.3761536453429609
1772568136797196800,7.42219677734375,-0.1975263131380081,-0.2248103884427808,0.17685856896676122
1772568136807268900,7.432268798828125,-0.08266308563947677,-0.21190045532407237,0.13281557523123919
1772568136817340000,7.44233984375,-0.05638181243538856,-0.13610791304120792,0.12642704323790968
1772568136827412000,7.452411865234375,0.13416940099298955,-0.20160468675913287,-0.07390833597145974
1772568136837483000,7.46248291015625,0.0381722020059824,-0.06851807603416964,-0.19371486509107053
1772568136847554800,7.472554931640625,-0.09910276378691196,-0.02211328507075086,-0.26632804668545723
1772568136857627000,7.482626953125,-0.21112287681400774,0.11540157215893268,-0.2920691485982388
1772568136867698000,7.492697998046875,-0.17744272553026674,0.07122746285703033,-0.3103647568106651
1772568136877770000,7.50277001953125,-0.10191782120764255,0.032659941390529273,-0.2461711746457964
1772568136887841000,7.512841064453125,-0.02089724207818508,0.018237411751784383,-0.14239727724269033
1772568136897913000,7.5229130859375,0.09037877458333969,-0.06356445394847542,-0.07859298665635288
1772568136907984100,7.532984130859375,0.04054769896566868,-0.11869084122898056,0.09110562755316495
1772568136918056000,7.543055908203125,-0.06952127999365329,-0.13828637132514268,0.26909254296272994
1772568136928127000,7.553126953125,-0.19273615625202656,-0.1358837488965131,0.36874936043582857
1772568136938199000,7.563198974609375,-0.27615619773864747,-0.12287353374110534,0.43259675951153037
1772568136948271000,7.57327099609375,-0.21707915486991405,-0.12990889400430022,0.3794277716428041
1772568136958342000,7.583341796875,-0.041643092986941334,-0.1889854436826892,0.2914514550913125
1772568136968414000,7.5934140625,0.11959259410798549,-0.26249372921958564,0.21584230655133724
1772568136978485000,7.603485107421875,0.12405775682330131,-0.16771867417236788,0.15754918060190976
1772568136988556800,7.613556884765625,-0.04711129526495933,-0.16743898044815286,0.02809051458314061
1772568136998627800,7.6236279296875,-0.21358546753525734,-0.1062576039776206,-0.084833050089702
1772568137008700000,7.633699951171875,-0.35450375826656816,-0.07478647051285951,-0.11880575457923113
1772568137018771000,7.64377099609375,-0.3021089696407318,-0.03046190162329003,-0.10853110186755656
1772568137028843000,7.653843017578125,-0.10525251858830452,0.012251925867702811,-0.13739501197598875
1772568137038914800,7.663914794921875,0.07866729400157928,0.002648706144187599,-0.167682671277225
1772568137048985900,7.67398583984375,0.15661328799128532,0.007962247583456337,-0.18430567010231316
1772568137059058000,7.684057861328125,0.24538345833420752,-0.0186233240631409,-0.25209676530249414
1772568137069129000,7.69412890625,0.03480535592138767,-0.026115415117889642,-0.16347718241140247
1772568137079201000,7.704200927734375,-0.15705226393043994,-0.055743697194941336,-0.07001191305480897
1772568137089272000,7.71427197265625,-0.24353929177224634,-0.03583314633285627,-0.06388283571526408
1772568137099344100,7.72434423828125,-0.22686405130326748,-0.1400117520793341,-0.06943477075397968
1772568137109415000,7.734414794921875,-0.10967442668378352,-0.262421084108483,-0.05088094999678432
1772568137119487000,7.744487060546875,0.06261398482322693,-0.24218838861994443,0.006692702571675181
1772568137129557800,7.754557861328125,0.0009644611179828644,-0.16026338973036036,0.07970547794289887
1772568137139629800,7.7646298828125,-0.17249182512462138,-0.040993451705481854,0.20050189488269388
1772568137149702000,7.774701904296875,-0.29182722960114477,0.048425592733919616,0.3083206106971949
1772568137159773000,7.78477294921875,-0.2542722827106714,0.10336038469877093,0.23682342752069233
1772568137169845000,7.794844970703125,-0.0925350758343935,0.06771289713112637,0.12461232196614146
1772568137179916000,7.804916015625,0.1338783090919256,-0.015971074254997074,0.008124635070934891
1772568137189987800,7.81498779296875,0.27144612035155297,-0.03254040666408837,-0.08084142317026853
1772568137200059000,7.825058837890625,0.26475334471464157,0.04249925315855071,-0.1686675175961107
1772568137210131000,7.835130859375,-0.033626959791779515,0.07247760904859751,-0.12908026116043328
1772568137220202000,7.845201904296875,-0.14247721061110497,0.06633242082446814,-0.12246530000008642
1772568137230274000,7.855274169921875,-0.2696563143253326,0.1049284377330914,-0.058808016669005155
1772568137240345900,7.865345947265625,-0.32380408409833905,0.0227835672814399,0.014145795056596397
1772568137250417000,7.8754169921875,-0.252126502853632,0.01119337499178946,0.09681289928406477
1772568137260489000,7.885489013671875,-0.08762859909236431,-0.027340445134509353,0.11984415771625935
1772568137270560000,7.89556005859375,0.017046411868929863,-0.05848393581379205,0.13390753518640994
1772568137280632000,7.905632080078125,0.14100830710232257,-0.07636349230492487,0.1302105072993785
1772568137290702800,7.915702880859375,0.24278233592510223,-0.1493162628509104,0.10227912880070507
1772568137300775000,7.92577490234375,0.1997492498844862,-0.17828135004518553,0.1662027349177748
1772568137310846000,7.935845947265625,0.22215397391617298,-0.1713243705141358,0.1514662804916501
1772568137320917800,7.945917724609375,0.10576455976366995,-0.11380769056361167,0.1440490630377084
1772568137330989800,7.95598974609375,-0.011374211451411247,-0.08931028683530166,0.1259931818652898
1772568137341060900,7.966060791015625,-0.04057458697259426,-0.04057634053826332,0.068449924435094
1772568137351133000,7.9761328125,-0.11659341229200362,-0.02154790627295151,0.006282660466060042
1772568137361204000,7.986203857421875,-0.19318214645385742,0.030735603998135772,0.00016775778234004974
1772568137371275800,7.99627587890625,-0.22837036421298978,0.07470814457964152,0.005945099074766039
1772568137381346800,8.006346923828126,-0.15296820948719977,0.047026904917135834,-0.08984240268431604
1772568137391419100,8.016419189453124,-0.06599310586750506,0.011369663140457124,-0.14606807470992206
1772568137401490000,8.026489990234374,-0.017546178084611893,-0.025912165897060184,-0.1548565074518323
1772568137411562000,8.03656201171875,0.04738894316256046,-0.03540598869565874,-0.17097995925694703
1772568137421634000,8.046634033203125,-0.07580313674211502,0.04862926207985729,-0.1429953892663121
1772568137431705000,8.056705078125,-0.24546061522364615,0.07986459576105698,-0.015159136817604302
1772568137441777000,8.06677685546875,-0.3321475495517254,0.15114780739331618,0.0656942690514028
1772568137451848000,8.076847900390625,-0.38859307487308975,0.19286484239930285,0.13115794421732424
1772568137461920000,8.086919921875,-0.28044191223382947,0.1704344176707789,0.10329210523553192
1772568137471991000,8.096990966796875,-0.04403028038442135,0.16197233080640433,-0.013369549987092614
1772568137482063000,8.10706298828125,0.0320201091170311,0.04898956502592191,-0.06893697729967534
1772568137492134100,8.117134033203126,0.11653262201547622,-0.08481496644373983,-0.05740713689513504
1772568137502206200,8.127206298828124,0.12552315320074559,-0.20292903069807217,0.022092297081649302
1772568137512277200,8.13727734375,0.013771920242905616,-0.21169822901654986,0.15694346979372203
1772568137522349000,8.14734912109375,0.034084055909514424,-0.09638221624922007,0.22382965204343197
1772568137532421000,8.157421142578125,-0.04038578640222549,-0.037988753464166074,0.1962085816029459
1772568137542492200,8.1674921875,-0.19147651157975196,-0.0060208129257895045,0.13608597520403562
1772568137552564200,8.177564208984375,-0.22907763569951056,0.05587289479887113,0.041188627217710015
1772568137562635000,8.187635009765625,-0.16366086841523647,0.007340772950556129,-0.11234992950335145
1772568137572706800,8.197706787109375,-0.031978608062863345,-0.028014252742845563,-0.29584983618073163
1772568137582777900,8.20777783203125,0.01778057136237621,-0.005766016180813312,-0.34060828470923005
1772568137592850000,8.217849853515625,-0.10916004742085933,0.021553221768885848,-0.2613437554668635
1772568137602921000,8.2279208984375,-0.2106365546017885,0.1137173088664189,-0.20803353249654172
1772568137612993000,8.237992919921876,-0.25543665031492707,0.10546071797888726,-0.17888152616173028
1772568137623065000,8.248065185546874,-0.22137480623722075,0.06482018963061273,-0.1206586159043014
1772568137633136000,8.25813623046875,-0.07755436432361602,-0.02812799704931676,-0.0529829637773335
1772568137643208000,8.2682080078125,-0.003963642933964729,-0.07203390213539823,-0.03445435052663088
1772568137653279000,8.278279052734375,0.03313654592633247,-0.14866240205205977,-0.06883943520933389
1772568137663351000,8.28835107421875,0.09665537063479424,-0.26525216108225286,-0.10444741275049746
1772568137673422000,8.298422119140625,-0.06359831968545913,-0.23143099389262495,0.04389905522018671
1772568137683494100,8.308494140625,-0.16577508409023284,-0.23338212796039878,0.11584741623029113
1772568137693565200,8.318565185546875,-0.23111703257262706,-0.2066121944565326,0.1636064348142594
1772568137703637200,8.32863720703125,-0.14192133029401302,-0.2679854037047364,0.13658501076735555
1772568137713708300,8.338708251953125,0.028659108251333235,-0.239071169914864,0.1297089144527912
1772568137723780000,8.348780029296876,0.21791619021594524,-0.21935433326028286,0.07152692072764039
1772568137733851000,8.358850830078126,0.37257717509567734,-0.212750806809403,0.028695494738966223
1772568137743923000,8.3689228515625,0.33368542664349077,-0.1739016188573092,0.043229704591259355
1772568137753995000,8.3789951171875,0.12278875980079174,-0.1977831191769801,0.08677110548019408
1772568137764066000,8.389066162109375,-0.002291325807571411,-0.21765447053983805,0.16713088261336087
1772568137774137900,8.399137939453125,-0.11201309876441955,-0.16160395415173842,0.1616471905052662
1772568137784209000,8.409208984375,-0.1954606127798557,-0.21226174465082584,0.11275595302097499
1772568137794281000,8.419281005859375,-0.17176701798141,-0.16458784706704319,0.04225333383977413
1772568137804352000,8.42935205078125,-0.16419687498807906,-0.2066912145094946,-0.03180624717064202
1772568137814424000,8.439424072265625,-0.223866038531065,-0.2431443559042178,-0.01843282472603023
1772568137824495000,8.4494951171875,-0.3040285395264625,-0.2147499082047492,0.007518778132274746
1772568137834567200,8.459567138671876,-0.21941782695055007,-0.29895373874651265,0.02815028194636106
1772568137844639000,8.469638916015626,-0.0565717820495367,-0.27597821082323787,-0.014804405095800756
1772568137854710000,8.4797099609375,0.024687282010912893,-0.3011322518293746,-0.025913316674530503
1772568137864782000,8.489781982421874,0.012717442753911018,-0.2603209882903844,0.020479747318476436
1772568137874853000,8.49985302734375,-0.006938859352469444,-0.2288753545930609,0.013952829767763613
1772568137884925200,8.50992529296875,-0.01670972726047039,-0.18501000071307644,0.0027018793698400257
1772568137894996200,8.519996337890625,-0.0845265414237976,-0.11750676427725702,0.014859204022958874
1772568137905068000,8.530068115234375,-0.04346387867331505,-0.10951072402205318,0.04835815352089703
1772568137915139000,8.54013916015625,0.06460661994516849,-0.08448655647328122,0.04299202337786555
1772568137925211000,8.5502109375,0.09119184453189373,-0.04576274846652523,0.004071487222611904
1772568137935282000,8.560281982421875,0.09419628704488277,-0.0179546492876485,-0.04453128870911896
1772568137945354000,8.57035400390625,0.021165537625551224,0.012338142846431583,-0.0002554360657930374
1772568137955425000,8.580425048828126,-0.11315993071198463,0.08067616787226871,-0.004611585448682308
1772568137965497900,8.590497802734374,-0.3377648049116134,0.1674338658816181,-0.05661050662472844
1772568137975570000,8.60056982421875,-0.34099838000535965,0.12965325700910763,-0.05054192730076611
1772568137985641000,8.610640869140624,-0.14601941326260565,0.09933238955801352,0.051927828701213
1772568137995713000,8.620713134765625,0.044617724883556364,0.07164528641030192,0.1263211717106402
1772568138005784000,8.6307841796875,0.10750701951682567,0.14659704875377938,0.07192169219888746
1772568138015856000,8.640856201171875,0.263299638774991,0.052095221157371994,-0.18261384455785154
1772568138025927200,8.65092724609375,0.3386486020088196,0.028717834434937684,-0.22626308973543344
1772568138035999000,8.6609990234375,0.2859370025187731,-0.015519878155086188,-0.1576939959000796
1772568138046070000,8.671070068359375,0.3448252448171377,-0.06258481352766976,-0.07537227104417979
1772568138056142000,8.68114208984375,0.22302315796613692,-0.0296860218799673,0.0024831951178610322
1772568138066213000,8.691213134765626,0.2502244686245918,-0.10011391359083353,-0.026850524459406732
1772568138076285200,8.70128515625,0.14855506922006606,-0.1628124714249745,0.08334967966414987
1772568138086356200,8.711356201171874,0.12370879725515842,-0.20733223409308119,0.14750314901433884
1772568138096428000,8.721427978515624,0.09053250384032725,-0.20872491229418663,0.0814318633440882
1772568138106500000,8.7315,-0.04770049332976341,-0.31155981181412934,0.056341553490236396
1772568138116571000,8.74157080078125,-0.16609657112956047,-0.34858098062146453,0.037397272110730406
1772568138126643000,8.751642822265625,-0.3064800243318081,-0.3055380855728872,0.07109517824687063
1772568138136714000,8.7617138671875,-0.46256782714426514,-0.2804736042800359,0.10807079087942838
1772568138146786000,8.7717861328125,-0.5319932455480099,-0.18693998239496723,0.051444575228914616
1772568138156857000,8.781857177734375,-0.5267436544567347,-0.12754927046718076,-0.07228124622628092
1772568138166929000,8.791928955078125,-0.4418003489255905,-0.06308900019014253,-0.1005855496905744
1772568138177000000,8.802,-0.4164332679569721,0.0510640697450377,-0.05793306046538055
1772568138187072000,8.812072021484376,-0.45079438724219795,0.12342698463909327,-0.019312018713355063
1772568138197143000,8.82214306640625,-0.4989537302553653,0.11938757305517791,-0.08568316411301494
1772568138207215000,8.832215087890624,-0.49043432371318335,0.047743620085436846,-0.12087627724297344
1772568138217287200,8.842287109375,-0.32893151011466976,0.01829005525447428,-0.0723492699611932
1772568138227358200,8.852358154296875,-0.030059622699022293,-0.011876060026325285,-0.1133501195218414
1772568138237430000,8.862429931640625,0.17509762370884419,-0.052753283207304776,-0.16480222047008572
1772568138247501000,8.8725009765625,0.247775321906805,-0.008111008404381573,-0.20475809102244674
1772568138257573000,8.882572998046875,0.1794762771844864,-0.054194695920962835,-0.0924628873810172
1772568138267644200,8.89264404296875,0.07931786686480045,0.005093651610892266,0.1290391984976828
1772568138277716200,8.90271630859375,-0.01630874524414539,0.06233748770309612,0.18282931393943727
1772568138287787000,8.912787109375,-0.04784603928029537,0.08354907469376921,0.1536257966130972
1772568138297859000,8.922859130859376,0.11136252590119838,0.04530335079384967,0.14915698063597083
1772568138307930000,8.93293017578125,0.25508009196221826,-0.005990472586452961,0.09939955477640032
1772568138318002000,8.943001953125,0.24095512049794196,-0.07282432186072692,0.07197378771230578
1772568138328073000,8.953072998046874,0.2431839024633169,-0.021120401575881985,0.1126102609399706
1772568138338145000,8.96314501953125,0.05424480040669441,0.010413951584510505,0.13931173231750726
1772568138348217000,8.973217041015625,-0.10220599049925803,-0.0033919439932331443,0.03830189280025661
1772568138358288100,8.9832880859375,-0.22261925334036348,-0.05320146536622196,-0.013139467558264731
1772568138368360000,8.99335986328125,-0.13239596157968042,-0.026147545555513352,-0.029152590856701133
1772568138378433800,9.003433837890626,-0.014895371314883232,-0.07071006965311244,-0.02905015339553356
1772568138388505600,9.013505615234376,0.08060907571911811,-0.10189307035887614,-0.010902648416906595
1772568138398576600,9.02357666015625,0.13035188853144644,-0.13153664133660495,0.046665012802183624
1772568138408648700,9.033648681640624,0.037895138630270955,-0.1280704265307635,0.13869586544148624
1772568138418719700,9.0437197265625,-0.11701017639935016,-0.12355925098294392,0.19754399492517113
1772568138428791800,9.053791748046875,-0.20133213516175746,-0.1406062656400725,0.14425021163299678
1772568138438862800,9.06386279296875,-0.26251521039903164,-0.1363615590087138,0.11597937204688787
1772568138448935000,9.073934814453125,-0.31467092957198617,-0.11797830904545262,0.07260558280982077
1772568138459006000,9.084005859375,-0.2756277899503708,-0.12946158862821758,0.010296937608718871
1772568138469077800,9.094077880859375,-0.1302981125175953,-0.2275491292242892,-0.035108649716898796
1772568138479149800,9.10414990234375,0.08277180671095848,-0.2020168660229072,-0.0497101526517421
1772568138489220900,9.114220947265625,0.19290508307814597,-0.24309655297342686,-0.043448534973710776
1772568138499293000,9.12429296875,0.15455927807092665,-0.2628093162410892,-0.04074848223477602
1772568138509364000,9.134364013671876,0.15434066688418388,-0.33568975220322606,0.0036364568062126636
1772568138519435800,9.144435791015624,0.11221651238203048,-0.29191229580240324,0.030280060516670343
1772568138529506800,9.1545068359375,0.07797112843096256,-0.2831983530688099,0.0924533889003098
1772568138539579000,9.164578857421875,-0.005529577076435089,-0.20154758627703412,0.13834412939436733
1772568138549649700,9.174649658203125,-0.15461305408477782,-0.16311845036791636,0.17438991383090613
1772568138559721700,9.1847216796875,-0.33970892471671105,-0.10234364540427923,0.18943404596671462
1772568138569792800,9.194792724609375,-0.46713820379972454,-0.026969620794430372,0.14471651397049426
1772568138579864800,9.20486474609375,-0.3909399302601814,-0.06117202412029728,0.028859745389968154
1772568138589935900,9.214935791015625,-0.2628033796906471,-0.11089520065039396,-0.027259982043132184
1772568138600007700,9.225007568359375,-0.09391279392838478,-0.09271678907684981,-0.06014949440583586
1772568138610079700,9.235079833984376,0.012623334729671478,-0.053782059999462214,-0.1014826446607709
1772568138620150800,9.24515087890625,0.02654138544499874,-0.06719477327484637,-0.07763780482336878
1772568138630222800,9.255222900390624,-0.06640227119028567,-0.013369075063057243,-0.02068769098073244
1772568138640294000,9.2652939453125,-0.21120412535667418,0.025170590282138437,0.0629804069828242
1772568138650366000,9.275365966796874,-0.18453999031484125,0.027887630688492208,0.04834354047365486
1772568138660437000,9.28543701171875,-0.06265899300873279,0.007965937377884983,0.016697525366023182
1772568138670508800,9.2955087890625,0.11935820083022117,-0.04290081969676539,0.002750906143337488
1772568138680579800,9.305579833984375,0.22213000851869583,-0.03922784853875637,0.06157989253513515
1772568138690652000,9.31565185546875,0.25815818423330783,-0.02899108015205711,0.04409370100945234
1772568138700722700,9.32572265625,0.17436171064972877,-0.021712266521807758,-0.015680603408440946
1772568138710795000,9.335794921875,0.16613222696483135,-0.05661954844770953,-0.12535897561497986
1772568138720865800,9.34586572265625,0.1498684899061918,-0.04528062750538811,-0.19237156072333453
1772568138730937600,9.3559375,0.11319383298158645,-0.06323449134174734,-0.23214462205469608
1772568138741008600,9.366008544921876,0.08559095578491688,-0.057868251600861544,-0.2318153170350939
1772568138751080700,9.376080810546876,0.08085749752223491,-0.05481396033046767,-0.21219562061205505
1772568138761152800,9.38615283203125,-0.030472879675030706,-0.009848974645510315,-0.12825908097065986
1772568138771223800,9.396223876953124,-0.2033294464588165,-0.005734561596624553,0.03796002056002617
1772568138781295900,9.4062958984375,-0.26363924599289895,0.021165281897224483,0.1642997508406639
1772568138791367000,9.416366943359375,-0.2196557273596525,-0.015628599226567893,0.18604060413613915
1772568138801438700,9.426438720703125,-0.17905483690202234,-0.06322645416576415,0.1263126230780035
1772568138811509800,9.436509765625,-0.3868114521533251,-0.12886303821317852,0.044395752695947886
1772568138821581800,9.446581787109375,-0.2999474076926708,-0.1723693860550411,-0.052797451142594216
1772568138831652900,9.45665283203125,-0.2335989125162363,-0.1532893494666554,-0.041575653773918746
1772568138841725000,9.466724853515625,-0.166229842120409,-0.08769527112040668,-0.05473996351249516
1772568138851796000,9.4767958984375,-0.14279226790964603,-0.0810285615065135,-0.019446604878455398
1772568138861868000,9.486867919921876,-0.12328151175379752,-0.11926047607678919,0.03337744201011956
1772568138871938800,9.496938720703126,-0.025402736803889273,-0.09891555238543077,0.03598535948619246
1772568138882010600,9.5070107421875,0.09384089773595332,-0.10199061244921759,0.030915874202176927
1772568138892081700,9.51708154296875,0.09756488669514655,-0.041058698961418116,0.1172973227776587
1772568138902153700,9.52715380859375,0.05664426276385784,0.018259185192175207,0.13084800148531794
1772568138912224800,9.537224853515625,0.11187222898900508,0.057971273583918806,0.06503419770747423
1772568138922296800,9.547296875,-0.08625321908593177,-0.02146713265432045,0.036737200766801835
1772568138932368600,9.55736865234375,-0.08354863630235194,-0.04135782803846523,-0.04211589813046157
1772568138942439700,9.567439697265625,-0.02768646382689476,-0.07576642146091908,-0.12996018580012023
1772568138952511700,9.57751171875,0.03218786689937114,-0.14418196870237587,-0.19275537240915
1772568138962582800,9.587582763671875,0.045428456744551655,-0.13664415707606822,-0.14466975221931933
1772568138972654800,9.59765478515625,-0.17920272094011305,-0.10181604133360088,0.02110226313099265
1772568138982726000,9.607725830078126,-0.28126667262017724,-0.13957622847259044,0.055812926506251095
1772568138992798000,9.6177978515625,-0.4169815494894981,-0.07147314471378922,0.07568842432126402
1772568139002869000,9.627868896484374,-0.42827451239824293,-0.11563934470387174,0.13182020751833914
1772568139012940800,9.63794091796875,-0.2114256591528654,-0.0018363120490685104,0.08564275903739034
1772568139023011800,9.64801171875,-0.17803835333585738,0.053765711652860045,0.10626286467462777
1772568139033084000,9.658083984375,-0.2601338682204485,-0.007534742886386812,0.13051146300733088
1772568139043154700,9.66815478515625,0.020409166300296783,-0.013386866448074578,0.017743527287617324
1772568139053226800,9.678226806640625,0.22624738070964812,-0.020963914106227458,-0.01162482521161437
1772568139063297800,9.6882978515625,0.23455109867453575,-0.16708492457978427,-0.04340893361568451
1772568139073369900,9.698369873046875,0.29847207444310186,-0.18255652488004415,-0.043806335435435176
1772568139083441700,9.708441650390625,0.25675007100105285,-0.06889712021332234,0.018657281131669878
1772568139093512700,9.7185126953125,0.06624152767062187,-0.07610095064491033,0.06663754125088453
1772568139103584800,9.728584716796876,0.05712181714773178,-0.04227295185569674,-0.0000938157632946968
1772568139113655800,9.73865576171875,0.1410544843316078,-0.05387582096382975,-0.06529606351405381
1772568139123728000,9.748727783203124,0.10427344442307948,-0.03142849989943206,-0.012602365006878972
1772568139133799000,9.758798828125,0.0047357963502407075,-0.010557415175810455,-0.0013157587736845017
1772568139143870700,9.76887060546875,-0.0798994661450386,-0.026768983655795452,-0.00904065393730998
1772568139153941800,9.778941650390625,-0.11488076315522193,-0.07041479476727545,-0.06593414222188293
1772568139164013800,9.789013916015625,-0.05848609123826026,-0.11758666111305355,-0.14795754171833395
1772568139174084900,9.7990849609375,0.024252397724986077,-0.20132113884370773,-0.1734283753223717
1772568139184157000,9.809156982421875,0.07308335638940334,-0.19330054866913704,-0.10151720451749861
1772568139194227700,9.819227783203125,-0.02695873407423496,-0.11471463107438758,-0.031236119132488964
1772568139204299800,9.8292998046875,-0.25515081911087034,-0.08150688307536766,0.07319901865832507
1772568139214370800,9.839370849609375,-0.3537608309447765,-0.07451010125689209,0.14594013748131693
1772568139224442600,9.849442626953126,-0.3111410018801689,-0.11596357168955727,0.18981683473922312
1772568139234513700,9.859513671875,-0.2823620666414499,-0.18540756692960858,0.2494696316692978
1772568139244585700,9.869585693359374,-0.29226094484329224,-0.23591184736741705,0.2823356900911778
1772568139254656800,9.87965673828125,-0.21785013924241065,-0.20889201248940079,0.2726739816460758
1772568139264728800,9.889728759765624,-0.15408464629650115,-0.19586340316077694,0.2162641121599823
1772568139274801000,9.89980078125,-0.07759352729022502,-0.16645214310158044,0.1504779270414263
1772568139284872000,9.909871826171875,-0.024710662886500357,-0.1228081586210057,0.08829612309038638
1772568139294943700,9.91994384765625,0.10779811141788959,-0.07643003646880388,-0.02678571559488773
1772568139305014800,9.930014892578125,0.11983926234543323,-0.07922574986824765,-0.12137363230586051
1772568139315086800,9.9400869140625,0.11752572470605373,-0.06816321644820272,-0.21734460087306795
1772568139325158000,9.950157958984375,0.2122235315322876,-0.08179792017750441,-0.29748299034051595
1772568139335230000,9.96022998046875,0.18821663300096989,-0.04007388917515054,-0.2831185840971768
1772568139345301000,9.970301025390626,0.08205693643987179,0.018265414003562182,-0.21810959389619528
1772568139355372800,9.980372802734376,-0.14842764344811438,0.15236425224468111,0.012254501417279243
1772568139365443600,9.990443603515626,-0.2827040119469166,0.2557949439669959,0.15415676168464124
1772568139375515600,10.000515625,-0.2614268306404352,0.24808292655125258,0.14837138321623206
1772568139385583400,10.010583251953125,-0.09064297847747803,0.14612181419115514,0.054389177313446994
1772568139395655700,10.02065576171875,0.043106151276826855,0.03509374440871179,0.004659881569817662
1772568139405726500,10.0307265625,0.08588613933920859,-0.07343368593072518,-0.04359291188046336
1772568139415798500,10.040798583984374,0.0735468822479248,-0.14833570911465213,-0.09138970519155264
1772568139425869600,10.05086962890625,0.017559622088074683,-0.1889545553540811,-0.04357376878857613
1772568139435941400,10.06094140625,-0.03750292444229126,-0.16671853895280508,0.0009536474630236626
1772568139446012400,10.071012451171875,-0.06663783351182938,-0.13368693297198042,0.029868045649677512
1772568139456084500,10.08108447265625,-0.1626227575391531,-0.08356511251311749,0.06797974964007734
1772568139466155500,10.091155517578125,-0.2955640780419111,-0.0632841757023707,0.12202208627723157
1772568139476227600,10.1012275390625,-0.2899257798939943,-0.0061444210391491645,0.1175187835086137
1772568139486299400,10.11129931640625,-0.1677595359057188,-0.05068677913155407,0.0869392285887152
1772568139496370400,10.121370361328125,-0.07460895852148533,-0.08779882282642647,0.04749152675420046
1772568139506442500,10.1314423828125,-0.01094751047194004,-0.08059705648776143,0.001825973318144679
1772568139516513500,10.141513427734376,0.005674538505077362,-0.11760912867318839,-0.07153298514224589
1772568139526585600,10.151585693359374,-0.010644143611192702,-0.12025293944654986,-0.09508950955756008
1772568139536656600,10.16165673828125,-0.058193245771527284,-0.14953315700460224,-0.060350350740179415
1772568139546728700,10.171728759765625,-0.052642041385173796,-0.12783912025922908,0.015014906041324138
1772568139556799500,10.181799560546875,0.01362052907347679,-0.154855722000543,0.05967603167518973
1772568139566871300,10.191871337890625,0.07060439905524253,-0.19830922541031612,0.06836166162975132
1772568139576942300,10.2019423828125,0.08259878823161125,-0.2040807397501543,0.12026552493348718
1772568139587014400,10.212014404296875,0.04705810377299785,-0.18869953941339626,0.11800642089508473
1772568139597085400,10.22208544921875,-0.19736849222779274,-0.18420381716303527,0.15038506112620234
1772568139607157500,10.232157470703125,-0.21732348501980303,-0.1549467978174798,0.10604279218316078
1772568139617228500,10.242228515625,-0.19548165556788444,-0.12425726145077497,0.039362434703856704
1772568139627300600,10.252300537109376,-0.08379238193035125,-0.09745806531980633,0.008833952384069562
1772568139637371600,10.26237158203125,0.05991933891177177,-0.08739274450987577,-0.037373891235142946
1772568139647443500,10.272443359375,0.09662205288708209,-0.05992350363023579,-0.009129939655959606
1772568139657514500,10.282514404296874,0.16596622274816036,-0.03788598720943555,-0.03329509748890996
1772568139667586600,10.292586669921874,0.1966846016168594,0.007374328160285949,-0.044667628439888356
1772568139677657600,10.30265771484375,0.05441022010147571,0.01063946743607521,-0.025163155894353983
1772568139687729700,10.312729736328125,-0.06407295145988463,-0.02645694029824808,-0.011613865426182746
1772568139697800400,10.322800537109375,-0.02273673246502876,0.02948174974583089,0.02593348267972469
1772568139707872500,10.33287255859375,-0.2989379383891821,0.06279102189056575,0.08242109357714653
1772568139717944600,10.342944580078125,-0.3636398354023695,0.01049627783941105,0.07093940316326916
1772568139728015400,10.353015380859375,-0.25857261025309564,0.04098124981103465,-0.03243380448445678
1772568139738087400,10.36308740234375,-0.19150456863045692,-0.013774806319735943,-0.03403517526648939
1772568139748158500,10.373158447265626,-0.11764204456210135,-0.010238576751295476,-0.07093151211775839
1772568139758230500,10.38323046875,-0.1854179421931505,-0.015306399801187216,-0.06802914173975587
1772568139768301600,10.393301513671876,-0.1680038660556078,-0.010338895320612936,-0.055880657980218525
1772568139778373400,10.403373291015624,-0.10216273587942123,0.008333090189844369,-0.04984072022885084
1772568139788444400,10.4134443359375,-0.009757423904538154,-0.03398110699169338,-0.03842617676705122
1772568139798516500,10.4235166015625,0.08173720296621322,-0.07632820179583505,0.03360781669989228
1772568139808587500,10.43358740234375,0.07171499064564704,-0.08355280102081597,0.1432755213819444
1772568139818659600,10.44365966796875,0.03670329849720001,-0.11029712515939026,0.14924341681040823
1772568139828730600,10.453730712890625,-0.045188802769780156,-0.14703662748113275,0.1555167979914695
1772568139838802700,10.463802734375,0.00016483517289161682,-0.17991612990647554,0.1607839247394353
1772568139848873700,10.473873779296875,0.060032736158370965,-0.20824671858949587,0.14022840877100826
1772568139858945500,10.483945556640625,0.12413783632218837,-0.2004860579927452,0.13794796968363224
1772568139869016300,10.494016357421875,0.18192133224904536,-0.14265812013596296,0.11194887442179023
1772568139879088400,10.50408837890625,0.14279928217232227,-0.110116471362859,0.0174118841804564
1772568139889159400,10.514159423828126,-0.05574760618507862,-0.12733221191670746,-0.09997070572786032
1772568139899231500,10.5242314453125,-0.18065408879220485,-0.17281935831224546,-0.14693214419335127
1772568139909302500,10.534302490234374,-0.19688450810313224,-0.1410274501942098,-0.188699448081851
1772568139919374600,10.54437451171875,-0.1305851127654314,-0.12074854094376787,-0.17205262998975812
1772568139929445600,10.554445556640625,-0.04189209931194782,-0.062078252245020116,-0.12661102150268852
1772568139939517400,10.564517333984375,0.01885550711750984,-0.009243501299340278,-0.024765315683186052
1772568139949588500,10.57458837890625,-0.030919454398751257,0.036706458568666125,0.04183532762341201
1772568139959660500,10.58466064453125,-0.15668167705237865,0.034874566966388375,0.04310147510170936
1772568139969731600,10.594731689453125,-0.2562088037312031,0.040860874834377316,0.049644101678207514
1772568139979803600,10.6048037109375,-0.18481939177811144,-0.007028528663609176,0.009502572360634804
1772568139989874700,10.614874755859375,-0.2502659696787596,-0.024667079473100602,0.0036523850277066228
1772568139999946500,10.624946533203126,-0.19611352373063562,-0.17479946274617686,0.07015570543967187
1772568140010017500,10.635017578125,0.05321545735895633,-0.18180535945286974,0.12576339169740677
1772568140020089600,10.645089599609374,0.10320844554007053,-0.2027975863381289,0.1500446501906961
1772568140030161700,10.65516162109375,0.164635266405344,-0.20056920623155308,0.12973755602538584
1772568140040232400,10.665232421875,0.27161680074334144,-0.1442577373523265,0.16538140859752892
1772568140050304500,10.675304443359375,0.3587070551753044,-0.14161580800879744,0.15965747799277305
1772568140060375600,10.68537548828125,0.6891565686374902,-0.22016959516592322,0.02482902856916189
1772568140070447400,10.695447265625,0.8088128756314515,-0.13629538017101586,-0.03743789638206362
1772568140080518400,10.705518310546875,-0.5119026436775922,0.15586615941841153,0.1577265099301934
1772568140090590500,10.715590576171875,-1.1228168657273054,0.13401930673150345,0.014611074480786919
1772568140100661500,10.72566162109375,-1.1929279283076524,0.2626144329898059,0.01087473749667406
1772568140110733600,10.735733642578126,-0.6808925981611013,0.19970435129683464,-0.2249246807385236
1772568140120804600,10.7458046875,-0.22219372140467167,0.20449202396478502,-0.4363058431625366
1772568140130876400,10.75587646484375,0.04748714284002781,0.048836986546404657,-0.4059039098318666
1772568140140947500,10.765947509765626,0.2559755794972181,-0.09003288375511764,-0.3839696528561413
1772568140151019500,10.77601953125,0.3627367490828037,-0.1791577492872253,-0.27980587935261425
1772568140161090600,10.786090576171874,0.43878246240913865,-0.2441566930182278,-0.11350121843032539
1772568140171162600,10.79616259765625,0.6283125160962343,-0.19944109725076703,-0.013802680707350372
1772568140181233400,10.8062333984375,0.4636410093337297,-0.25340724511286244,0.21593889879360795
