time,seconds_elapsed,z,y,x
1772363485635038200,0.1130380859375,0.08498597562909126,-0.10781447803080081,-0.03664206982925534
1772363485645108200,0.123108154296875,0.09095277507901191,-0.05880582471191883,-0.0018554186083376406
1772363485655178000,0.133177978515625,0.08509411217868328,0.0006985036581754684,0.04319412182122469
1772363485665247200,0.143247314453125,0.03877133694291115,0.0288175136834383,0.062113049563765524
1772363485675317000,0.15331689453125,0.03457973047196865,0.039969022294878954,0.07370996385514736
1772363485685387000,0.163386962890625,0.08345160566866397,0.03310205913484096,0.08795578522011638
1772363485695456000,0.1734560546875,0.15747721134424209,-0.008501870885491371,0.057320408459752795
1772363485705526000,0.183526123046875,0.1403191557943821,-0.016700374910235405,0.04491714622154832
1772363485715596300,0.19359619140625,0.04696048861742019,-0.0008370353460311889,0.01200739478841424
1772363485725665000,0.2036650390625,-0.05041033681035041,0.011914894199371338,-0.03106090869605541
1772363485735735600,0.213735595703125,-0.10675415532290936,0.008249357429146766,-0.03804024618938565
1772363485745804500,0.223804443359375,-0.0754945091843605,0.007139350360631943,0.0037884324975311755
1772363485755874600,0.23387451171875,0.0020686229676008224,-0.013990531429648399,-0.009299597134441137
1772363485765944800,0.24394482421875,0.07514028891921043,0.025152561435103415,0.020142185927182435
1772363485776013600,0.254013671875,0.05314005403518676,0.04792787234485149,0.06884031199216842
1772363485786083600,0.26408349609375,-0.017162147203087806,0.013498363998532294,0.06984612803384661
1772363485796153600,0.274153564453125,-0.056494040638208384,0.006781038442254066,0.08275792431607842
1772363485806222600,0.28422265625,-0.003233575093746185,-0.003317746245861053,0.03835325766131282
1772363485816292600,0.294292724609375,0.09019172757863998,-0.0129752169072628,0.00018938509225845335
1772363485826362600,0.304362548828125,0.11634089883565903,-0.018933833050727843,0.018513269551098346
1772363485836431600,0.314431640625,0.008455693656206131,-0.03487959020137787,0.04553936977311968
1772363485846501600,0.324501708984375,-0.1139326686501503,0.005914777001738548,0.05750453285500407
1772363485856571600,0.334571533203125,-0.12272037073969841,0.0328127207994461,0.06537614301294088
1772363485866640600,0.344640625,-0.09810147778987884,0.009513093754649161,0.03916764278411865
1772363485876710700,0.354710693359375,-0.0466202968776226,-0.02277823351919651,0.022807898005098103
1772363485886780400,0.364780517578125,0.010704349365830422,-0.055987844681739805,0.025811171474307774
1772363485896849700,0.374849609375,0.01224982524216175,-0.08489303664863108,0.04115443268716335
1772363485906919700,0.384919677734375,-0.018586627048254013,-0.11194354065954684,0.01600654742717743
1772363485916989400,0.394989501953125,0.012282558467984199,-0.06408171928822994,0.001248684886842966
1772363485927058700,0.40505859375,0.07699556139707565,0.025006430962681767,0.014119856897741555
1772363485937128400,0.41512841796875,0.09839724586606025,0.032387773385643956,-0.0438153224594891
1772363485947198700,0.42519873046875,0.06575754354596137,0.01788344721496105,-0.12584624767526983
1772363485957267500,0.435267333984375,0.054608373022079465,0.023992285484075546,-0.12071882165893912
1772363485967337700,0.445337646484375,0.05624328074753284,0.0631201807796955,-0.036151363702863454
1772363485977407700,0.45540771484375,0.01741641422510147,0.030007600250840184,0.0005607026226818561
1772363485987476500,0.4654765625,-0.03182780141532421,0.030570494830608367,0.016332856772094964
1772363485997546800,0.475546630859375,-0.002240472403168678,0.03485153315067291,0.07158888004794717
1772363486007616500,0.485616455078125,0.0050958618342876435,0.019321955585479736,0.053152621255815026
1772363486017685800,0.495685791015625,0.02759060223698616,0.012108955466747283,0.02085807911157608
1772363486027755500,0.505755615234375,0.05207622419595718,0.0473480266302824,0.0034724984161555767
1772363486037825500,0.515825439453125,0.05648702637553215,0.026319267126917838,-0.051480888651311396
1772363486047894800,0.525894775390625,0.0059235448300838465,-0.04387187495231628,-0.10332724961414932
1772363486057964500,0.535964599609375,-0.0555915388405323,-0.09119827427268028,-0.125746148301661
1772363486068034600,0.54603466796875,-0.06814063929021358,-0.114198041588068,-0.08627206991687417
1772363486078103600,0.556103515625,-0.014713585007190704,-0.09013210634589194,-0.022158932577073572
1772363486088173600,0.566173583984375,0.05782324341535568,-0.03498597318530083,0.039386253970861436
1772363486098243800,0.576243896484375,0.06701017395555972,0.024682021313905716,0.021599691259115934
1772363486108312600,0.5863125,0.07211597266197205,0.09737783969044685,0.039171880567818874
1772363486118382600,0.596382568359375,0.047860067805647846,0.1346370185047388,0.03530409922376275
1772363486128452600,0.60645263671875,0.008693009543418884,0.14254326158463954,0.03561258065104484
1772363486138521600,0.616521484375,-0.06642156041264534,0.13022563180327415,0.011751958722621202
1772363486148591600,0.626591552734375,-0.08298574172258377,0.1333294430375099,0.01736030012369156
1772363486158661600,0.63666162109375,-0.041593408626317975,0.13129472233951092,0.034656302839517594
1772363486168730600,0.646730712890625,-0.01769873829782009,0.12055354809463023,0.08343129353299736
1772363486178800600,0.656800537109375,-0.008555646899342536,0.05554302352368831,0.09481441894322633
1772363486188870700,0.66687060546875,-0.0012695815443992614,-0.017141688936948774,0.09226692641749977
1772363486198939600,0.676939697265625,0.0353746802419424,-0.10338730923831463,0.07911006933301687
1772363486209009700,0.687009765625,0.08691548238694667,-0.1421925484508276,0.05670213043093681
1772363486219078700,0.69707861328125,0.1443359902203083,-0.2131722105592489,0.029087270535528658
1772363486229148700,0.707148681640625,0.16283727707266807,-0.27111761904954906,-0.02038140151053667
1772363486239218700,0.71721875,0.11586159088611601,-0.2605424490213394,-0.06690306031927466
1772363486249287700,0.72728759765625,0.016643676286935805,-0.16805296589434146,-0.043000645075738426
1772363486259357700,0.737357666015625,-0.07813421003818512,-0.024312018957734105,0.07626987747102976
1772363486269427500,0.747427490234375,-0.16202245355844497,0.035136195310950274,0.0759467829965055
1772363486279497700,0.757497802734375,-0.12541034047603605,0.07959726832807064,0.0569660420641303
1772363486289566500,0.76756640625,-0.01578326006531715,0.11408347529768943,0.06910524653866887
1772363486299636500,0.777636474609375,0.06337970849871635,0.13396832546293735,0.10186039193198085
1772363486309705700,0.787705810546875,0.059008069285750385,0.14158406116366384,0.14060644830316305
1772363486319775500,0.797775390625,0.059388593035936355,0.11253858394324778,0.10271598584800957
1772363486329845800,0.807845703125,0.08207739470601082,0.06601648674309253,0.031750206134468315
1772363486339914500,0.81791455078125,0.11947335164248943,-0.008252280038595199,-0.018189006032794712
1772363486349984800,0.82798486328125,0.1680903752952814,-0.06384089626967906,-0.029144407550245523
1772363486360054800,0.8380546875,0.13474281696677207,-0.07336451141834259,-0.0513303742647171
1772363486370124500,0.84812451171875,0.06874328135848044,-0.04745967031121254,-0.04219181291088461
1772363486380193800,0.85819384765625,-0.00004793079495429992,-0.008602993172407149,-0.02004486303254962
1772363486390263600,0.868263671875,-0.04532499637007713,0.01881459058523178,-0.006734422821551561
1772363486400333600,0.87833349609375,-0.08663666544556617,0.0044815293282270425,-0.002219868006557226
1772363486410402600,0.888402587890625,-0.08895429473817348,0.003029576954245567,0.023954145430773496
1772363486420472600,0.89847265625,-0.07258534373939036,-0.027753683844208715,0.020688860024511813
1772363486430542600,0.90854248046875,-0.036437341037392615,-0.05474807375371456,-0.007936492087692022
1772363486440611600,0.918611572265625,0.0016764087796211243,-0.05151391413807869,-0.025114567512273787
1772363486450681600,0.928681640625,-0.031036358776688575,-0.007358546069264412,-0.050035804409533736
1772363486460751600,0.938751708984375,-0.030026304951310156,0.06760346367359162,-0.009282353738695383
1772363486470820600,0.948820556640625,0.010759878945350645,0.06781622964143752,-0.001197831482440233
1772363486480890600,0.958890625,0.017595862445235252,-0.005503273591399192,-0.07209536826536059
1772363486490960600,0.968960693359375,0.0667494771927595,-0.0634165333777666,-0.1044166522860527
1772363486501029600,0.979029541015625,0.15604045653939247,-0.10830430737435817,-0.09888312968686222
1772363486511099600,0.989099609375,0.1990823104083538,-0.13764555267095566,-0.0897496828995645
1772363486521169700,0.999169677734375,0.19840075788497924,-0.1067559088885784,-0.04245484776124358
1772363486531238700,1.00923876953125,0.12937982862889766,-0.04249474138021469,-0.0021735446467995643
1772363486541308700,1.01930859375,0.02282908692359924,-0.0013958382725715636,0.020180325980484484
1772363486551378700,1.029378662109375,-0.051580549633502955,0.020381693771481513,0.03754515614882111
1772363486561447700,1.03944775390625,-0.05081014978289604,0.04622106842696667,0.08790186307579279
1772363486571517700,1.049517578125,-0.025264205116033552,0.029636428850889206,0.12008578445240854
1772363486581587500,1.05958740234375,-0.016940028885006904,0.014973112726211548,0.09226298089474438
1772363486591656700,1.06965673828125,0.030368834778666493,-0.0009504325926303862,0.0633044513054192
1772363486601726500,1.0797265625,0.09306523718833923,0.03266951293647289,0.10717618012726306
1772363486611796700,1.089796630859375,0.09367313995361327,0.03533610179722309,0.10958338739946484
1772363486621865500,1.099865478515625,0.046026422637701035,-0.011437924337387084,0.005254705657809972
1772363486631935500,1.109935546875,-0.027564298751950263,-0.023456863433122633,-0.034725714813917875
1772363486642005800,1.120005859375,-0.05332125582098961,-0.031820202630758285,-0.056716743478178976
1772363486652074500,1.130074462890625,-0.023559154763817786,-0.03836450970768928,-0.05325038254186511
1772363486662144800,1.140144775390625,0.0286649534702301,-0.0513695372313261,-0.04061287315636873
1772363486672214500,1.150214599609375,0.05027122060060501,-0.048556817898154254,-0.0185480486035347
1772363486682283500,1.160283447265625,0.03887187470793724,-0.01672375578582287,0.003239274182170629
1772363486692353800,1.170353759765625,0.018896423649787903,0.008284428742527961,0.05801598950847983
1772363486702423600,1.180423583984375,-0.0028548049092292785,0.012038812839984894,0.0800190008714795
1772363486712492800,1.190492919921875,-0.017776479709148404,0.00969312649667263,0.0590999853529036
1772363486722562600,1.2005625,0.02791208927631378,0.04057692506015301,0.04256473787650466
1772363486732636700,1.21063671875,0.09392214627861976,0.05753624316751957,0.058701633685082195
1772363486742706000,1.220705810546875,0.08999123657047749,0.05291793571710586,0.07395020235180855
1772363486752775700,1.230775634765625,0.02240706211924553,0.035597967603802676,0.0355859849050641
1772363486762845700,1.240845703125,0.010699673190712928,0.04676759639382362,0.021064561469107866
1772363486772915000,1.2509150390625,0.0353226577937603,0.020783844831585883,0.04005567766502499
1772363486782984700,1.260984619140625,0.05416121377646923,-0.044969022539258004,0.028428952757269144
1772363486793054700,1.2710546875,0.05618541308045387,-0.1352332308322191,-0.026808219687640664
1772363486803123700,1.281123779296875,0.08642682208716869,-0.2167372095644474,-0.05599602798819542
1772363486813193700,1.29119384765625,0.14781389546394347,-0.23841128123402594,-0.0666521542981267
1772363486823264000,1.301263916015625,0.14052666106522083,-0.1684299825131893,-0.05520794635042548
1772363486833332700,1.311332763671875,0.060462944269180294,-0.07166822889447212,-0.05361746228858828
1772363486843402800,1.32140283203125,-0.025354221487045286,0.06284370192587375,-0.0141201491586864
1772363486853472800,1.33147265625,-0.05376899958848953,0.14446867668926716,0.04885375501811504
1772363486863542800,1.341542724609375,-0.011956979775428771,0.17979191900491714,0.0823109112009406
1772363486873611800,1.35161181640625,0.020713117682933806,0.1454647019892931,0.03407558034211397
1772363486883681800,1.361681884765625,0.01757891131043434,0.08462357205748558,-0.02694339037463069
1772363486893751800,1.371751708984375,0.030707857474684713,0.054767947497963904,-0.024862054055929183
1772363486903820800,1.38182080078125,0.06272036780714989,0.013037176227569579,0.011465396866202354
1772363486913890800,1.391890869140625,0.07104805116951465,-0.017591770792007445,0.026236995670944452
1772363486923960600,1.401960693359375,0.07714870613217353,-0.04072013292312622,0.00676277213320136
1772363486934029800,1.41202978515625,0.030623686322569846,-0.09984452206492424,-0.02851312390938401
1772363486944099600,1.422099609375,-0.06039864686131477,-0.11974573884308337,-0.029967414370924234
1772363486954169900,1.432169921875,-0.1263759706377983,-0.07475508899390697,0.021175474497675893
1772363486964238800,1.44223876953125,-0.13823475073575972,0.008961889612674712,0.11026625509709119
1772363486974308600,1.45230859375,-0.09786825355589389,0.08893500551581382,0.1891550828948617
1772363486984379000,1.46237890625,-0.08455226038694381,0.08804770128726959,0.1893665336884558
1772363486994447600,1.472447509765625,-0.07461714182794094,0.03713467565178871,0.13566548476964235
1772363487004518000,1.482517822265625,-0.07843582333326339,-0.014773790761828422,0.07570259897708892
1772363487014588000,1.492587890625,-0.09545943884849548,-0.07402677471935748,0.031016777293384073
1772363487024657000,1.502656982421875,-0.14017360984385013,-0.0718564449429512,0.010049246457964182
1772363487034727000,1.512726806640625,-0.159450557243824,-0.004420154529809952,0.005026888251304626
1772363487044796700,1.522796630859375,-0.13691840744018555,0.08084229995310306,0.02731222368702292
1772363487054866000,1.532865966796875,-0.054365211915969845,0.11622165637016296,0.057570583828538656
1772363487064935700,1.542935791015625,0.06281622939705848,0.11824527115225791,0.059587768869847055
1772363487075005700,1.553005615234375,0.14709142640829084,0.06593699176609516,0.024271979208290575
1772363487085076000,1.563075927734375,0.22850012807250022,0.03582593114078045,0.009400427160412072
1772363487095144700,1.573144775390625,0.25082886425852774,0.01688449930548668,-0.010940203948318957
1772363487105214700,1.583214599609375,0.22335399735569952,-0.019608955833315848,-0.045739276259392496
1772363487115284700,1.59328466796875,0.19219605802595613,-0.050692660883069035,-0.06612506168410182
1772363487125353700,1.603353759765625,0.1038455743998289,-0.08720482072234154,-0.07644318821132183
1772363487135424000,1.613424072265625,-0.004637012150883675,-0.11110884340107441,-0.08853899193555116
1772363487145493800,1.62349365234375,-0.021815525966882705,-0.12654489746391773,-0.11561492264866828
1772363487155562800,1.633562744140625,-0.011882160973548888,-0.06263970378637314,-0.09164616417065262
1772363487165632800,1.6436328125,-0.017210662519931794,0.016326865422725677,-0.08578647835701704
1772363487175702800,1.653702880859375,-0.052110126465559,0.07692600329220295,-0.0947365314014256
1772363487185771800,1.663771728515625,-0.09520224921703338,0.11545593269467354,-0.05603153769299388
1772363487195841800,1.673841796875,-0.05138005862534046,0.11285481028556824,-0.03225932470038533
1772363487205911800,1.683911865234375,0.019908815562725064,0.06403203492760658,-0.0463840039037168
1772363487215981800,1.69398193359375,0.06430208404064178,0.025550036320090293,-0.08449000880569218
1772363487226050800,1.70405078125,0.09662380645275115,0.043214872348308564,-0.04987579154223203
1772363487236120600,1.71412060546875,0.1064905359506607,0.06412438938617705,-0.010857640231400728
1772363487246190800,1.72419091796875,0.06719312930703163,0.07704758384525776,0.02720715587735176
1772363487256259600,1.734259521484375,0.026427403676509857,0.08002513835132122,0.015814385855942963
1772363487266329900,1.744329833984375,-0.018956044882535935,0.07752163109779357,-0.0037529227927327155
1772363487276399900,1.75439990234375,-0.1108387942880392,0.04628653487861156,0.01915799719542265
1772363487286468900,1.76446875,-0.1776139904439449,0.02702595409154892,0.05550400668755173
1772363487296539000,1.774538818359375,-0.22754911095798014,0.009575637596845626,0.05787117421030998
1772363487306608600,1.784608642578125,-0.19003624964356422,0.0013935001850128173,0.04750613980144262
1772363487316678000,1.794677978515625,-0.08987024053931236,0.025126842471957206,0.08628054548427462
1772363487326748000,1.804747802734375,-0.06259644916653632,0.05408990210592746,0.10357055685073137
1772363487336817700,1.814817626953125,-0.07037643551826477,0.06160334647595882,0.07298530284240841
1772363487346887000,1.824886962890625,-0.07434650819301605,0.05882862106561661,0.020705665028840303
1772363487356956700,1.834956787109375,-0.0031938276052474973,0.022577157989144322,-0.05243015220016241
1772363487367026700,1.845026611328125,0.013346388307213783,-0.036620296388864514,-0.08685849150270224
1772363487377097000,1.855096923828125,-0.13781623306274413,-0.11934884847998618,-0.11265051988512277
1772363487387165700,1.865165771484375,0.058390229648351666,-0.07483516849279404,0.034395752207189795
1772363487397236000,1.875236083984375,0.30219840148985383,0.024617139384150503,0.1580329455308616
1772363487407305700,1.8853056640625,0.20956687954366207,0.043189737907052037,0.07070216034129262
1772363487417375000,1.895375,0.007495908713340759,0.037509938704967494,0.008581950384378433
1772363487427444700,1.90544482421875,-0.0435965651422739,0.03446984035670757,0.042807168330252166
1772363487437514800,1.9155146484375,-0.03847439982295036,0.03189385238885879,0.09030892421752214
1772363487447583700,1.925583740234375,-0.015278817674517631,-0.007866495591402053,0.07499108970686792
1772363487457653800,1.93565380859375,0.02964402763545513,0.035676878058910365,0.07624006685465574
1772363487467723800,1.945723876953125,0.05464753598868847,0.10676116958558558,0.10391133311241865
1772363487477792800,1.955792724609375,0.036355507972836494,0.11790624845623969,0.0996424236215651
1772363487487862800,1.96586279296875,-0.050230888590216634,0.03164718415141105,0.056253509880602355
1772363487497932800,1.975932861328125,-0.07880173403620719,-0.06085749654471874,0.02253609532639384
1772363487508002800,1.9860029296875,-0.05277297428846359,-0.08782324488162994,-0.004695172078907489
1772363487518071800,1.99607177734375,0.018142974933981895,-0.0264168822824955,-0.014836334604024887
1772363487528141800,2.006141845703125,0.04332826959490776,0.003616436931490898,-0.014932780715823173
1772363487538211800,2.0162119140625,-0.018406594306230543,0.03528291030526161,-0.013853168785572051
1772363487548280800,2.02628076171875,-0.05287234300971031,0.06795593037307263,-0.0003226560831069946
1772363487558350800,2.036350830078125,-0.06979191362857819,0.06902151377797126,-0.028022710043936968
1772363487568420900,2.0464208984375,-0.09395604854822158,0.050994274178147316,-0.06081161157637834
1772363487578489900,2.05648974609375,-0.07561258260607719,0.057877019429206845,-0.09014218934848904
1772363487588560000,2.066559814453125,-0.0008148235142230987,0.0639917029172182,-0.09259060541391372
1772363487598629600,2.076629638671875,0.03226560831069946,0.03862345290482044,-0.11031111715212463
1772363487608699000,2.086698974609375,0.014865560698509216,0.04604162020683288,-0.09480915824621915
1772363487618768600,2.0967685546875,-0.0022808044135570523,0.0015063129097223282,-0.08962181873619555
1772363487628838700,2.106838623046875,0.01822889965176582,-0.02182838544845581,-0.07900237117484211
1772363487638909000,2.116908935546875,0.030881460475921628,0.0016185411125421523,-0.03285772898495197
1772363487648977700,2.126977783203125,0.03210954096615314,0.021298808616399763,-0.0073977090358734125
1772363487659048000,2.1370478515625,0.028602409628033638,0.052802784904837606,0.014735066186636685
1772363487669117700,2.14711767578125,0.004430091401934623,0.07736614827513694,0.02023600169047713
1772363487679187000,2.15718701171875,0.0019616554617881772,0.06885784764885902,0.01906067430078983
1772363487689256700,2.167256591796875,-0.006201777249574661,0.04408639448583126,-0.009513239885121583
1772363487699326700,2.17732666015625,0.011597498813271523,0.03145546097159385,-0.02840732544735074
1772363487709396700,2.187396728515625,0.0042097266495227815,0.04535480698645115,-0.00007394201904535293
1772363487719465700,2.1974658203125,-0.0304775558501482,0.06392156029045581,0.01052490114569664
1772363487729535500,2.207535400390625,-0.04555588251650333,0.03968143752515316,-0.03742372172623872
1772363487739605800,2.217605712890625,0.003323591464757919,0.008044774767756462,-0.05809665352925658
1772363487749674500,2.227674560546875,0.0738783061593771,-0.016611527583003043,-0.046901013515144585
1772363487759744800,2.237744873046875,0.12370353655815124,-0.07129647297263145,-0.058939534094184634
1772363487769814800,2.247814697265625,0.13880115244686603,-0.09670973117053508,-0.07485460384562612
1772363487779883500,2.257883544921875,0.16109890897274015,-0.05369710339605808,-0.06209682908132672
1772363487789953800,2.267953857421875,0.1438344704389572,-0.01205634849667549,-0.052032238923758266
1772363487800023600,2.2780234375,0.12386018842458724,0.03717968383729458,-0.01631020654886961
1772363487810093600,2.288093505859375,0.10646014081239699,0.05219195953011512,0.0028944062672555445
1772363487820162600,2.29816259765625,0.09704816934466362,0.01885024642050266,-0.009392536114901304
1772363487830232600,2.308232666015625,0.07754501197338104,0.012863573226332664,-0.013303864339739083
1772363487840302600,2.318302490234375,0.05604162069559097,0.0031359599381685253,0.01972556795030832
1772363487850371600,2.32837158203125,-0.004195698124170303,-0.012622165685892105,0.006477233190089464
1772363487860441600,2.338441650390625,-0.10645195750594139,0.017309446719288826,-0.02184709014892578
1772363487870511600,2.34851171875,-0.1318967798858881,0.03485328671634197,-0.04711977083235979
1772363487880580600,2.35858056640625,-0.0670639499694109,0.05365326425433158,-0.023961305823922155
1772363487890650600,2.368650634765625,0.06492050819993019,0.029802433067560193,0.005866261684894561
1772363487900720600,2.378720703125,0.16614041027128695,-0.004227846828103066,0.002811258028447628
1772363487910790700,2.388790771484375,0.17886252920031548,0.0036287118911743164,-0.0029167642295360565
1772363487920859600,2.398859619140625,0.15131342801749706,-0.013842647391557692,0.005759732570499182
1772363487930929700,2.4089296875,0.0694990681618452,-0.013553309056162833,0.013266893330216406
1772363487940999400,2.41899951171875,-0.00517009611427784,0.007857143241167068,0.05269508674666285
1772363487951068700,2.429068603515625,-0.04880991587638855,0.033906361255049706,0.05785816859826445
1772363487961138700,2.439138671875,-0.038825697478652,0.08366963233351707,0.09682926589697599
1772363487971208400,2.44920849609375,-0.047458501267433166,0.08180676107108592,0.1488813785649836
1772363487981278700,2.45927880859375,-0.08786299237012862,0.011450199297070503,0.1482967105448246
1772363487991347500,2.469347412109375,-0.11309914043545723,-0.03738660458624363,0.15577318390533326
1772363488001417700,2.479417724609375,-0.09561609071493148,-0.04974398185610771,0.13472367387488485
1772363488011487700,2.48948779296875,-0.05190203667283058,-0.0037958851516246795,0.1087264783091843
1772363488021556700,2.499556640625,-0.0076566522330045695,0.0469470446139574,0.1082639753639698
1772363488031626800,2.509626708984375,0.01604220326244831,0.07915069360435009,0.06650383186861872
1772363488041696500,2.519696533203125,0.012718027275800705,0.08782441392540931,0.04815057518482208
1772363488051766500,2.5297666015625,-0.03736789988577366,0.04506371508538723,0.013223492579907178
1772363488061835500,2.53983544921875,-0.03078326079845428,0.03491407699286937,-0.0009008943624794482
1772363488071905500,2.549905517578125,-0.007930792999267577,-0.008635726398229598,0.0051331251047551625
1772363488081975800,2.559975830078125,-0.001522095000743866,-0.01806523352265358,-0.02703925196453929
1772363488092044500,2.57004443359375,-0.005514379507303237,-0.00032382512688636776,-0.030895927392691373
1772363488102114600,2.580114501953125,0.004987725284695625,0.005229717347025871,-0.04355754830613732
1772363488112184600,2.5901845703125,-0.027149288210272786,0.014460487028956413,-0.038793694905191654
1772363488122254600,2.600254638671875,-0.07157762800157069,0.0685188249528408,-0.03029109336733818
1772363488132323600,2.610323486328125,-0.1249076516509056,0.14115443757474422,-0.002933423103392124
1772363488142393600,2.6203935546875,-0.13020634258091449,0.19593056837916373,0.07316431267112493
1772363488152463600,2.630463623046875,-0.14553133748471736,0.15118424867987632,0.06091814069077372
1772363488162532600,2.64053271484375,-0.15072832160592078,0.09252806157171725,-0.01882438132688403
1772363488172602600,2.6506025390625,-0.06868249108195304,0.0693254651606083,-0.043904754308611155
1772363488182672400,2.66067236328125,0.05134966348707676,0.02839315079152584,-0.04019099448248744
1772363488192742700,2.67074267578125,0.08159633319079876,-0.044528877556324,-0.08505407242923975
1772363488202811600,2.680811767578125,0.04644026413559913,-0.08106792540252208,-0.13054551140740514
1772363488212881700,2.690881591796875,-0.011704466319084167,-0.11179624114334583,-0.14030921892225742
1772363488222951700,2.70095166015625,-0.05467851564884185,-0.10014964249134063,-0.14376403555124997
1772363488233020700,2.711020751953125,-0.019094576570391653,-0.006577040302753448,-0.10050064788609743
1772363488243090700,2.721090576171875,0.09125088124275207,0.06075169808268547,-0.0808026985950768
1772363488253160700,2.73116064453125,0.16461889979243277,0.08231471059322357,-0.06789426331371068
1772363488263230500,2.74123046875,0.17984511049687862,0.04962357034683227,-0.06247165374308824
1772363488273299700,2.7512998046875,0.14557634567022323,0.0004383914172649383,-0.0558257859878242
1772363488283369500,2.761369384765625,0.08887304619550704,-0.00660568187534809,-0.042081776665151116
1772363488293439700,2.771439697265625,0.05439969870746136,0.02370703880190849,-0.05350260373726487
1772363488303509800,2.781509765625,0.03439969772994518,0.09226794933080673,-0.06514569525793194
1772363488313578500,2.79157861328125,0.033144729232788085,0.1306277828633785,-0.037207887018471955
1772363488323648800,2.801648681640625,0.025565233889222144,0.06982464685440062,-0.015008914691954851
1772363488333718500,2.811718505859375,0.03277998757362365,0.022241642424464223,-0.004940671272575855
1772363488343787800,2.821787841796875,0.03939443727731704,-0.0372919120401144,-0.0022973171569406984
1772363488353857500,2.831857421875,0.04271685969829559,-0.05739361982643604,0.014525222828239202
1772363488363927600,2.841927490234375,0.03205225782096386,-0.02844400419592857,0.04631707614734769
1772363488373997600,2.85199755859375,0.009332476490736007,0.047994507840275764,0.07724149898216127
1772363488384066600,2.862066650390625,-0.036301731958985325,0.06180149939656257,0.04990311794057488
1772363488394136600,2.872136474609375,-0.09962123470306396,0.12490122191011906,0.0806555452093482
1772363488404206600,2.88220654296875,-0.13001754201054572,0.15596739130318163,0.09291530732363462
1772363488414276600,2.892276611328125,-0.12193828045129776,0.1593196243405342,0.08148235142230988
1772363488424345900,2.902345947265625,-0.10017419241070746,0.10230535922050475,0.038663931045681235
1772363488434415600,2.91241552734375,-0.060493339407443995,0.038276831424236296,0.001679331389069557
1772363488444485600,2.922485595703125,-0.013972411251068115,0.004225508740544319,-0.008699000892788172
1772363488454554600,2.9325546875,0.08427987318634986,0.023578443986177443,0.028263679192960262
1772363488464624600,2.942624755859375,0.18421733423173425,0.028785949501395222,0.019044746079295873
1772363488474694700,2.952694580078125,-0.006676409024000168,-0.030505028378963468,-0.04545797509998083
1772363488484764700,2.9627646484375,-0.24565818362236022,0.035948096215724944,0.023790771562606096
1772363488494833700,2.972833740234375,-0.08140987070798873,0.1732581333220005,0.16233210402950643
1772363488504903700,2.982903564453125,0.15229951644539833,0.1855833618879318,0.13883227823749184
1772363488514973700,2.9929736328125,0.23018413563668727,0.16448387523591518,0.09025953211784363
1772363488525043700,3.003043701171875,0.08996960926055908,0.01303016196489334,-0.0030215397782623766
1772363488535112700,3.01311279296875,-0.20874328820109367,-0.031794483667612075,0.01879237875342369
1772363488545182700,3.0231826171875,-0.2953583263367414,-0.02870294739305973,0.07588438528478145
1772363488555252500,3.03325244140625,-0.12529109801054,-0.04985679458081722,0.08384601181373
1772363488565321700,3.04332177734375,-0.0022767127603292464,-0.07400514740943909,0.03576762508228421
1772363488575391500,3.0533916015625,0.0014221417576074599,-0.10953063429892063,-0.036219022111594674
1772363488585461500,3.06346142578125,0.014865560698509216,-0.08961421995162963,-0.042900253441184755
1772363488595531800,3.07353173828125,0.038972996994853015,-0.03737082249522209,-0.026564766320586203
1772363488605600500,3.0836005859375,0.029599603971838948,0.0021738369077444076,-0.026589170109480618
1772363488615670800,3.0936708984375,0.03453764489591121,0.024921675288677215,-0.0315665201306343
1772363488625740500,3.103740478515625,0.05262158311903476,0.058007367810606954,-0.05573372379019856
1772363488635810600,3.113810546875,0.07601181105673313,0.08854279132783413,-0.06457520189359783
1772363488645879600,3.123879638671875,0.08073416340351104,0.09236088831126689,-0.03471636246368289
1772363488655949600,3.133949462890625,-0.017535072168707845,0.03862169933915138,-0.01393909350335598
1772363488666019600,3.14401953125,-0.1181102465957403,-0.026009470525383948,-0.001271773501485586
1772363488676089600,3.154089599609375,-0.08844634521603584,0.015468787288665771,0.05409238632395863
1772363488686158600,3.16415869140625,-0.019851532417535782,0.02334405070841312,0.07140870117545127
1772363488696228600,3.174228515625,-0.022878186762332914,-0.004783727145195007,0.015780921977758405
1772363488706298600,3.184298583984375,-0.15615385378599167,-0.04736030158996582,-0.059630877359211444
1772363488716368600,3.19436865234375,-0.1892611736178398,-0.04776420621573925,-0.06111658587232232
1772363488726437600,3.204437744140625,-0.14792787723243236,0.030750527572631834,-0.019241291564702986
1772363488736504000,3.214504150390625,-0.082513448035717,0.13584054907560347,0.033521453590691086
1772363488746574000,3.224573974609375,-0.06362929934561252,0.17782734093368052,-0.00821589355096221
1772363488756644000,3.23464404296875,-0.10139233602881431,0.19709785859286785,-0.05762172949388623
1772363488766713000,3.244713134765625,-0.13001228131353854,0.16429858179688453,-0.07316694301962852
1772363488776783000,3.254783203125,-0.10372165575921535,0.1160281796246767,-0.07106222582533955
1772363488786853000,3.26485302734375,-0.08785890071690082,0.041302901247143746,-0.06945157575830817
1772363488796923100,3.274923095703125,-0.036034020933508874,0.020687398719787597,-0.03464753501117229
1772363488806992100,3.2849921875,0.00003857844471931457,0.02261222930252552,-0.0022439795345067974
1772363488817062100,3.295062255859375,0.02713701325058937,0.02225099477469921,-0.015908055488765237
1772363488827132200,3.305132080078125,0.0274450562864542,-0.006551905861496925,-0.058602118833363054
1772363488837201200,3.315201171875,0.013108487898111343,-0.062802200871706,-0.07703954666927457
1772363488847271200,3.325271240234375,0.00828793587386608,-0.09917349093556403,-0.11828399572744965
1772363488857341000,3.3353408203125,0.02348667404949665,-0.09863047010004519,-0.14389759880304337
1772363488867411200,3.3454111328125,0.07778934212327003,-0.04994271929860115,-0.09511705515161156
1772363488877480000,3.35547998046875,0.13210662324428557,-0.05644201819002628,-0.06711173463389276
1772363488887550200,3.36555029296875,0.09532733690142631,-0.08284253385961056,-0.0611475655324757
1772363488897620200,3.3756201171875,0.04411854318976402,-0.07076981875002383,-0.033164602977037425
1772363488907690000,3.38568994140625,0.05100128844082355,-0.07154606381952762,-0.019875205554068087
1772363488917759200,3.39575927734375,0.07533961088359356,-0.10901625503599643,-0.05263429647013545
1772363488927829000,3.4058291015625,0.13920564159452914,-0.1134136132121086,-0.05657163591906428
1772363488937899000,3.41589892578125,0.1872311290949583,-0.0759387458205223,-0.0270757845826447
1772363488947969300,3.42596923828125,0.16615969949364662,-0.0533259319961071,-0.011492284873127936
1772363488958038000,3.4360380859375,0.11315759262442589,-0.03752513627409935,-0.02769990783035755
1772363488968108300,3.4461083984375,0.12832125948667525,-0.02679799055457115,-0.05111263986080885
1772363488978178000,3.456177978515625,0.1837234132349491,0.038781273815035815,-0.04745397122278809
1772363488988248000,3.466248046875,0.2239221526324749,0.10063011948466301,-0.02735562443733215
1772363488998318000,3.476318115234375,0.19846388624906539,0.09522153843939304,-0.04143134993240237
1772363489008387000,3.486386962890625,0.18819266760349274,0.08439327043294906,-0.01594371132403612
1772363489018457000,3.49645703125,0.1834843437820673,0.0253144739985466,-0.012334288655221461
1772363489028527000,3.506527099609375,0.11180851610302925,-0.06484861200749874,-0.05825710478797554
1772363489038597000,3.51659716796875,0.0856248580545187,-0.10704290913641452,-0.049671501141786575
1772363489048666000,3.526666015625,0.06839256822466849,-0.1056803886115551,-0.06384981022849678
1772363489058736000,3.536736083984375,0.0535655859708786,-0.07131342410743235,-0.06662833503112196
1772363489068806100,3.54680615234375,0.002090250277519226,-0.056606268841028214,-0.04852700728178024
1772363489078876000,3.5568759765625,-0.07749766570031642,0.00007949497699737548,-0.009628390697389841
1772363489088945200,3.566945068359375,-0.10535071826577186,0.06509703381061553,0.03799713770002126
1772363489099015200,3.57701513671875,-0.1241892742484808,-0.0029389760613441466,0.010394260503351687
1772363489109085200,3.587085205078125,-0.14763503176569936,-0.052936640417575835,-0.02788900066167116
1772363489119155200,3.5971552734375,-0.06575578998029231,-0.05094634338319301,-0.0053818391688168045
1772363489129224000,3.607223876953125,0.008959551525115966,-0.02640460732281208,0.03614785657152533
1772363489139294200,3.617294189453125,-0.035381109982728955,-0.02654430805444717,0.052893531928211446
1772363489149364200,3.6273642578125,-0.042135844939947126,-0.027480127599835393,0.08537029877156019
1772363489159434000,3.63743408203125,0.02798047833740711,-0.005087678527832031,0.14169000575616955
1772363489169503200,3.647503173828125,0.09826046774387359,-0.034516602107882495,0.15915727338567376
1772363489179573000,3.657572998046875,0.06382979035377502,-0.09303250396251678,0.1377970899708569
1772363489189643300,3.667643310546875,0.042972880285978315,-0.06229834300279617,0.16894202368855477
1772363489199713300,3.67771337890625,0.10485913535654544,-0.004748655831813812,0.2274577794127166
1772363489209782000,3.687781982421875,0.09992518608570099,0.06608546032607555,0.2338992106370628
1772363489219852300,3.697852294921875,0.01538870778977871,0.08273848896324634,0.1883857059575617
1772363489229922000,3.707922119140625,-0.04427110340297222,0.05971592529416084,0.1488240954197943
1772363489239992000,3.717991943359375,-0.01606616865992546,0.05303016391992569,0.16206731561347842
1772363489250061000,3.72806103515625,0.023684826970100402,0.0365600906342268,0.19174393034428358
1772363489260131000,3.738131103515625,0.026564181798696518,-0.02749824777841568,0.17272519548907875
1772363489270201000,3.748201171875,0.04414075502157211,-0.04556465034484863,0.15843889598324895
1772363489280271000,3.75827099609375,0.08348258532881736,-0.06532733543515205,0.13524769774898887
1772363489290341000,3.768341064453125,0.12258826879262924,-0.07223346156179905,0.12344181688204407
1772363489300410000,3.77841015625,0.09001111031472682,-0.09418284304141998,0.15169702050760386
1772363489310480100,3.788480224609375,0.032573066824674604,-0.10865677407383918,0.16121712852492928
1772363489320550100,3.798550048828125,-0.009442366605997085,-0.06449439174234867,0.1843384763933718
1772363489330620200,3.8086201171875,-0.03673077102601528,0.001975099465250969,0.23485475779622791
1772363489340689200,3.818689208984375,-0.13249182316958905,0.03213467540740966,0.22215572748184204
1772363489350759000,3.828759033203125,-0.19079320549070833,0.0727928490102291,0.23309359334260224
1772363489360829200,3.8388291015625,-0.11633797622621059,0.09980711266398429,0.2523017132900655
1772363489370899200,3.848899169921875,-0.0274362884581089,0.08898352083265781,0.21533698737770318
1772363489380968200,3.85896826171875,0.055203416305780406,0.08214812185466289,0.14146072704493998
1772363489391038200,3.8690380859375,0.12226035201251506,0.05181903456449508,0.050289633040130136
1772363489401108000,3.87910791015625,0.13115502160787582,0.020196400332450865,0.012762450939416884
1772363489411178200,3.88917822265625,0.0784662184715271,-0.04214227468073368,-0.016528087083250282
1772363489421247000,3.8992470703125,0.008829203143715858,-0.11224340038895607,-0.05542874949425459
1772363489431317000,3.90931689453125,-0.05671732800006866,-0.10912322254180908,-0.05891249995678663
1772363489441387300,3.91938720703125,-0.07431728209853172,-0.09870704246759414,-0.08442571139782666
1772363489451457000,3.92945703125,-0.09567921907901764,-0.06171499015688896,-0.06622180005684494
1772363489461527000,3.939527099609375,-0.12762918556928635,-0.03171908034384251,-0.0046282443225383755
1772363489471596000,3.949595947265625,-0.1372083302974701,-0.024611878687143325,-0.02368102757781744
1772363489481666000,3.959666015625,-0.16171441052258015,-0.01784779137969017,-0.07404971720352768
1772363489491736000,3.969736083984375,-0.1363672032982111,-0.01717500668466091,-0.11472586485445499
1772363489501806000,3.97980615234375,-0.04333996003270149,-0.0395879140228033,-0.14796996280848979
1772363489511875000,3.989875,0.003972995284199714,-0.046156771019101143,-0.1907679249189794
1772363489521945000,3.999945068359375,0.06294716230034827,-0.034087563040852545,-0.21953400067612527
1772363489532015000,4.01001513671875,0.12966449078917502,0.04000467813014984,-0.21255963161885738
1772363489542085000,4.020085205078125,0.20236966151595115,0.11450257749259471,-0.15199804928079247
1772363489552155100,4.030155029296875,0.12412088518738745,0.024613047730922696,-0.21797113527357578
1772363489562224000,4.04022412109375,0.002499415600299835,-0.0905658215880394,-0.29138167779073115
1772363489572294100,4.050294189453125,-0.008811082965135573,-0.18340835593640803,-0.2958145456716418
1772363489582364200,4.0603642578125,0.09650164137780666,-0.2168108593225479,-0.2620560684546828
1772363489592434200,4.07043408203125,0.16556874786317347,-0.18314122943282127,-0.24077596453875302
1772363489602503200,4.080503173828125,0.14772738622426987,-0.12705986124873161,-0.23744521268084645
1772363489612573200,4.0905732421875,0.05914426288604736,-0.1318833358824253,-0.27090149208083747
1772363489622643200,4.100643310546875,-0.02759878554344177,-0.0976847136825323,-0.2367509468063712
1772363489632713000,4.110712890625,-0.020677461847662924,-0.036436171993613244,-0.17178528429046272
1772363489642783200,4.120783203125,0.046238019561767575,-0.027132921597361564,-0.12006634909957646
1772363489652852000,4.13085205078125,0.10927052205801009,0.019666238978505134,-0.07358984460681676
1772363489662922200,4.140922119140625,0.17660159853100776,0.10368950705528258,0.005680675984919071
1772363489672992300,4.1509921875,0.2285048042476177,0.16090017153024672,0.05539323978945612
1772363489683062000,4.16106201171875,0.24753508341014382,0.15555764145851134,0.09987959337830543
1772363489693131300,4.17113134765625,0.2093734027981758,0.1385369485527277,0.12768866067156195
1772363489703201000,4.181200927734375,0.21338030035197733,0.13883213210701942,0.1621083782762289
1772363489713271000,4.19127099609375,0.25683073502182957,0.11885726557075976,0.21213936038017273
1772363489723341300,4.20134130859375,0.21121289318501948,0.10669394956827163,0.2359049975015223
1772363489733410800,4.211410888671875,0.09593991584181785,0.07952654117941856,0.23577260329350827
1772363489743480000,4.22147998046875,-0.042843116426467896,0.04689093051254749,0.23229849744215605
1772363489753549800,4.2315498046875,-0.10660276415348052,0.05889467203915119,0.24573183338046073
1772363489763619800,4.241619873046875,-0.16958850489854813,0.06801379804015159,0.22175153059512376
1772363489773690000,4.251690185546875,-0.20974457419812678,0.051553077104687685,0.16846198508664964
1772363489783758800,4.2617587890625,-0.16749942366480827,0.0426075541049242,0.15997954955399035
1772363489793828900,4.271828857421875,-0.05181260482370853,0.004020341557264328,0.15455445576533675
1772363489803899000,4.28189892578125,0.03777648068666458,-0.014206220006942749,0.1495565013475716
1772363489813969000,4.291968994140625,0.045913025391101835,-0.031229251000285146,0.1590508904017508
1772363489824039000,4.302038818359375,-0.0075718965590000145,-0.0015483984857797622,0.20375643969923257
1772363489834108000,4.31210791015625,-0.0805050308227539,0.007219429859519004,0.20774930872768163
1772363489844178000,4.322177978515625,-0.0984907693684101,-0.0014566285490989685,0.18696780198365448
1772363489854248000,4.332248046875,0.025592706418037414,0.011302315258979796,0.17006547476053238
1772363489864318000,4.34231787109375,0.20081834042072294,0.08112930020093917,0.1823280133537948
1772363489874388000,4.352387939453125,0.2863531821042299,0.029490882900357243,0.10529343512058258
1772363489884457000,4.36245703125,0.23692659563422203,-0.027074469408392903,0.01569777373895049
1772363489894527000,4.37252685546875,0.17931319557726383,-0.06159457864761352,-0.0217317932061851
1772363489904596700,4.3825966796875,0.14985270781517027,-0.06928747123777866,-0.07990998753905296
1772363489914667000,4.3926669921875,0.11381634879410266,-0.07115151154398917,-0.14892887096852064
1772363489924735700,4.40273583984375,0.04144903171956539,-0.07854805153608321,-0.18338745927885175
1772363489934805800,4.4128056640625,-0.013030746486783026,-0.09323007236123085,-0.22546178328990935
1772363489944876000,4.4228759765625,0.029926936230063438,-0.10395838712453842,-0.2510498135328293
1772363489954945800,4.43294580078125,0.09116612556874752,-0.07029343340992927,-0.25592224187478424
1772363489965015800,4.443015869140625,0.11998948447108268,0.002952420064806938,-0.27154139741957184
1772363489975084800,4.453084716796875,0.11851064409017562,0.12369359968602657,-0.22343714559450745
1772363489985154800,4.46315478515625,0.08775777842998504,0.12705693863928316,-0.19905454561859368
1772363489995224800,4.473224853515625,0.026887422403693198,0.07262450670599938,-0.201923232922703
1772363490005294800,4.483294921875,-0.03399696214795112,0.04584814346134662,-0.15880436829477548
1772363490015364900,4.49336474609375,-0.0981558383256197,0.04349252024590969,-0.09648863576576114
1772363490025433900,4.503433837890625,-0.15704174253642558,0.019101590833067894,-0.05200418187305331
1772363490035503900,4.51350390625,-0.20027707315087317,0.044162382331490516,-0.013271277244389056
1772363490045574000,4.523573974609375,-0.15229367122650145,0.10123977581560611,0.0755937317751348
1772363490055644000,4.533643798828125,-0.06055296064019203,0.14356325228214262,0.13163535247072577
1772363490065714000,4.5437138671875,-0.0876549025774002,0.09279811068475245,0.08470555125251412
1772363490075782700,4.55378271484375,-0.14138883085250853,0.009887187764048577,0.018830080415308474
1772363490085853000,4.56385302734375,-0.14972820465266704,-0.06323065541684628,-0.01483677299544215
1772363490095923000,4.5739228515625,-0.07569324662685394,-0.064758595636487,-0.024401304676383732
1772363490105992700,4.58399267578125,0.007360884156823158,-0.04940963533520698,-0.04875365564450621
1772363490116064800,4.594064697265625,0.15667174018025398,0.03546060495972633,-0.02844561163112521
1772363490126134800,4.604134765625,0.22845102823376653,0.07351414902210235,0.03658464055359363
1772363490136203800,4.614203857421875,0.2512836222887039,0.07909107237160205,0.04781140635833144
1772363490146273800,4.624273681640625,0.21595862640738486,0.0711029962271452,0.023806553653627632
1772363490156344000,4.634343994140625,0.1688350561827421,0.12004618309438228,0.04163374063670635
1772363490166413800,4.644413818359375,0.11988719314038752,0.16257073509097097,0.10627236315533518
1772363490176482800,4.65448291015625,0.06936462812721729,0.1645744761288166,0.14867708816453815
1772363490186552800,4.664552734375,-0.004815291327238082,0.12223814018070697,0.16344868696928022
1772363490196622800,4.674622802734375,-0.04760580078363418,0.0762964732170105,0.1373839791253209
1772363490206692900,4.68469287109375,-0.009935118559002875,0.06105740303099155,0.13629399193152786
1772363490216763000,4.694762939453125,0.05390402414500713,0.09242050954401493,0.20832082500532267
1772363490226832000,4.704831787109375,-0.006865209594368934,0.0330699104309082,0.1982601803705096
1772363490236902000,4.71490185546875,-0.20260639288127422,-0.10002806193828583,0.1367103176474571
1772363490246972000,4.724971923828125,-0.2426952421635389,-0.08314005550146103,0.154612761823833
1772363490257042000,4.7350419921875,-0.19436872588992118,-0.0168704707801342,0.19440569689944384
1772363490267111700,4.745111572265625,-0.11482231096625327,0.016029343780875206,0.16764876900762318
1772363490277181000,4.755180908203125,-0.13956746064424513,0.014421324062347411,0.14666794029921293
1772363490287250700,4.765250732421875,-0.1986725605636835,-0.0058352820247411724,0.11248042401522397
1772363490297321000,4.775321044921875,-0.16183657559752462,0.0033721067816019057,0.06873787453100084
1772363490307391000,4.785390869140625,-0.06763561237752437,0.035222704550623894,0.04544511561840772
1772363490317460700,4.795460693359375,-0.010024550408124923,0.03691664898693561,0.008826572795212269
1772363490327530800,4.80553076171875,0.043323593419790266,0.054178749433159826,-0.03669219258129597
1772363490337599700,4.815599853515625,0.1311772334396839,0.09432195925116539,-0.042000528122484684
1772363490347669800,4.825669677734375,0.1652273870795965,0.07825929772257804,-0.07241130234673619
1772363490357740000,4.835739990234375,0.14177052364647388,0.04221007921993732,-0.08600786602273583
1772363490367809800,4.845809814453125,0.12240005274415015,0.030853987947106358,-0.06418415674939751
1772363490377879800,4.8558798828125,0.07617723075151443,0.0020019874721765515,-0.0565717820495367
1772363490387948800,4.86594873046875,-0.014057751446962356,-0.05454875178933143,-0.07916121499836444
1772363490398018800,4.876018798828125,-0.06726561002135277,-0.0908311945259571,-0.10616159625723957
1772363490408088800,4.8860888671875,-0.06741407858133315,-0.06485679531395434,-0.09795008662045002
1772363490418158800,4.896158935546875,-0.09163198951482772,-0.023953122517466542,-0.095183398386091
1772363490428228900,4.906228759765625,-0.14581599964499473,0.04039104709923267,-0.07956102797091007
1772363490438297900,4.9162978515625,-0.17853285885453224,0.1301928985774517,0.001533200916647911
1772363490448367900,4.926367919921875,-0.21578911505937576,0.12892390155494213,0.0045094402484595775
1772363490458438000,4.93643798828125,-0.24642858347296714,0.05949146888852119,-0.05091580211445689
1772363490468507600,4.946507568359375,-0.2114297508060932,0.03134673990011215,-0.05804521560296416
1772363490478578000,4.956577880859375,-0.06260229438543319,0.08230944989621639,-0.03514890866205096
1772363490488647000,4.96664697265625,0.0051005380094051355,0.09404080422222613,-0.022685294538736342
1772363490498717000,4.976717041015625,-0.026177228307723996,0.08387655308246612,-0.025623832208663225
1772363490508787000,4.986786865234375,0.004353519034385681,0.05105214184522629,-0.04859554247334599
1772363490518856700,4.996856689453125,0.11047931332588196,-0.012262684723734854,-0.06940130687579513
1772363490528927000,5.006927001953125,0.15782675543427466,-0.09198737882375717,-0.10309490216299891
1772363490538997000,5.0169970703125,0.0985042133718729,-0.12181728442013263,-0.11363938479200004
1772363490549065700,5.027065673828125,0.051501054656505584,-0.08941489798724651,-0.084313190934062
1772363490559136000,5.037135986328125,0.03244914818406105,-0.004952069449424743,-0.07408274269029498
1772363490569205800,5.047205810546875,0.044083471876382826,0.09199614665210247,-0.06219093710556626
1772363490579275800,5.05727587890625,0.016675824990868567,0.09174830937087536,-0.08825359912291168
1772363490589346000,5.067345947265625,0.031228081956505775,0.05936755024790764,-0.09400412547364831
1772363490599414800,5.077414794921875,0.13551847751438617,0.046583471998572344,-0.04828092356622219
1772363490609484800,5.08748486328125,0.22862638480067252,0.03846738556027412,-0.02812529363557696
1772363490619554800,5.097554931640625,0.20703180810809135,0.02479951021373272,-0.05366480856165289
1772363490629624800,5.107624755859375,0.1586661288678646,0.012234627673029899,-0.03533668631911278
1772363490639694800,5.11769482421875,0.15423545294404029,0.060491585841774935,-0.008572159642726182
1772363490649764900,5.127764892578125,0.16777181086540222,0.0622317075073719,-0.011859803011268377
1772363490659833900,5.137833740234375,0.13808452861011028,0.04700958845615387,-0.061988984792679544
1772363490669904000,5.14790380859375,0.07323533208072185,0.08557751178145408,-0.01696720915287733
1772363490679974000,5.157973876953125,-0.027875848919153214,0.0644628275603056,0.033513124153763056
1772363490690044000,5.1680439453125,-0.12049568042755127,0.013708791878819465,0.040652036122977735
1772363490700113700,5.17811376953125,-0.16521803472936153,-0.008462123396992684,0.017598200532793998
1772363490710183000,5.188182861328125,-0.15312603039741515,-0.045963878795504565,-0.02770546078830957
1772363490720252700,5.198252685546875,-0.0738695383310318,-0.06273848798573017,-0.025043255841732025
1772363490730322700,5.20832275390625,0.02061141087412834,-0.05304653053283691,0.004446750275790691
1772363490740392700,5.218392822265625,0.10942132870554923,0.002354454171657562,0.04711100300401449
1772363490750462500,5.22846240234375,0.12212182032465935,0.024197452667355537,0.05339738979712128
1772363490760532700,5.23853271484375,0.003502455163002014,-0.007869418200850487,-0.020728169121593237
1772363490770601500,5.2486015625,-0.10683189673423767,-0.01373860249519348,-0.053249651889503
1772363490780671500,5.25867138671875,-0.0947872386753559,0.028100305324792862,-0.011289601907879114
1772363490790741800,5.26874169921875,-0.025835867524147033,0.059197454378008836,0.04809285364821553
1772363490800811500,5.2788115234375,0.021656536012887955,0.06727437784969806,0.03780556065067649
1772363490810881500,5.288881591796875,0.046294133663177486,0.06768412769436837,-0.004255611617863178
1772363490820951800,5.298951904296875,-0.014334814822673797,0.03384147932529449,-0.05097761530429124
1772363490831020500,5.3090205078125,-0.06376841555535794,-0.005136778366565704,-0.052680181438475845
1772363490841090600,5.319090576171875,-0.06739420483708382,-0.023124854999780654,-0.018638357235491274
1772363490851160600,5.32916064453125,-0.03677928634285926,0.027851298999786375,0.006031096857786179
1772363490861230600,5.339230712890625,0.01310731885433197,0.09114800539016724,0.033253158043324946
1772363490871300600,5.349300537109375,0.06088789168298244,0.15099252550005912,0.06410086238011717
1772363490881370600,5.35937060546875,0.06640870093107223,0.12594985418021679,0.030093817229568956
1772363490891439600,5.369439697265625,0.07493629077970981,0.011606266641616821,-0.058825113934278486
1772363490901509600,5.379509521484375,0.08333119415938854,-0.13199556408524513,-0.1658329517573118
1772363490911579600,5.38957958984375,0.07180383797287941,-0.21140344732105731,-0.1950751205936074
1772363490921649700,5.399649658203125,0.06656301470994949,-0.22723405365943908,-0.21300182242840526
1772363490931719400,5.409719482421875,0.020307459491491316,-0.1873486179947853,-0.20682108796685933
1772363490941789700,5.419789794921875,0.023278584256768226,-0.13393617675900457,-0.15293898339271544
1772363490951858400,5.4298583984375,0.05173720149993896,-0.11332301231920719,-0.17771292077377437
1772363490961928700,5.4399287109375,0.08999415917992591,-0.07673486463427544,-0.18526918137222528
1772363490971998700,5.449998779296875,0.14067337605953215,-0.05140051689147949,-0.1459988088659942
1772363490982068500,5.460068359375,0.16901099727153776,0.017667174115777014,-0.12742241095080972
1772363490992138800,5.470138671875,0.08704699981212616,0.07578677012920379,-0.09149930304586887
1772363491002208800,5.480208740234375,0.01768178716301918,0.1261105976998806,-0.06253259015008807
1772363491012278500,5.490278564453125,0.09594283845126628,0.1571148077726364,-0.045579994044452905
1772363491022347800,5.50034765625,0.08161503789126873,0.10887129360735416,-0.0628602146692574
1772363491032417500,5.51041748046875,0.037006665357947346,0.07993103032708168,-0.029705110172927377
1772363491042487600,5.520487548828125,0.05597673876583576,0.045330841588974,0.01345277129113674
1772363491052557800,5.530557861328125,0.08752046254277229,0.0036392332851886747,0.030317104591429233
1772363491062627600,5.540627685546875,0.03818096983432769,-0.023439912298321722,0.025329963828623292
1772363491072697600,5.550697509765625,-0.03254150264263153,-0.018241759133338926,0.03085910251364112
1772363491082766600,5.5607666015625,-0.05191372711062431,-0.029745734444260596,0.07709054620414972
1772363491092836600,5.570836669921875,-0.06423427950143813,-0.05203413861989974,0.09260609524399041
1772363491102906600,5.58090673828125,-0.05894435639977455,-0.038627544558048246,0.11867124147936702
1772363491112976600,5.5909765625,-0.03237199129462242,-0.010275894820690154,0.15663286947458982
1772363491123046700,5.601046630859375,-0.05226151763498783,-0.030948680493235587,0.20008724966719746
1772363491133116700,5.61111669921875,-0.10031330862045287,-0.025105215162038803,0.20775427716374395
1772363491143186700,5.621186767578125,-0.0647410599797964,-0.015551789397001265,0.20201076507568358
1772363491153255700,5.631255615234375,0.008391980770230293,-0.014097498935461044,0.19420798237025735
1772363491163325400,5.641325439453125,0.04417816442251205,0.014475100076198576,0.1695749147646129
1772363491173395700,5.651395751953125,0.04620061016082763,0.03655190732777119,0.12519012185409664
1772363491183465700,5.6614658203125,-0.016288286978006362,0.005668693286180496,0.1127371752552688
1772363491193535500,5.671535400390625,0.10905892513394355,-0.0066916065931320184,0.109287473192811
1772363491203605800,5.681605712890625,0.21978198408782482,-0.08896773874163627,0.10372340932488441
1772363491213675500,5.691675537109375,0.27659049750268455,-0.07245557987987995,0.09246946325227617
1772363491223744500,5.70174462890625,0.2485164956629276,-0.018155834415555,0.08780702439919114
1772363491233814800,5.711814697265625,0.16141922696828842,0.031084289571642873,0.1087527817942202
1772363491243884500,5.721884521484375,0.08267009990215302,0.011174889487028121,0.06937544178217649
1772363491253954600,5.73195458984375,-0.03946808703541756,-0.05473053809702396,0.002007540430128574
1772363491264024800,5.74202490234375,-0.05465688833892345,-0.07833177843689917,-0.019501257675141093
1772363491274094600,5.752094482421875,0.052068625411391255,0.01703998212814331,0.061920741862058634
1772363491284164600,5.76216455078125,0.034334231278300285,0.09424363331794738,0.11792436863481998
1772363491294233600,5.772233642578125,-0.0863520032852888,0.15823533623516559,0.11801789213716983
1772363491304303600,5.7823037109375,-0.09976970326304435,0.18264263226091862,0.11298545092791318
1772363491314373600,5.79237353515625,-0.04116904573440552,0.07707797898352145,0.05808452470004558
1772363491324443600,5.802443603515625,0.022594109123945234,0.01011222869157791,0.05687792538926005
1772363491334513700,5.812513671875,0.05076104994416237,-0.03148351802229881,0.08704670755118131
1772363491344583400,5.82258349609375,-0.014885434442758558,-0.04111819233000278,0.09128785225227475
1772363491354653700,5.83265380859375,-0.13240882106125354,-0.012660744130611419,0.12184124981760978
1772363491364722700,5.84272265625,-0.1827992841273546,0.0235281751036644,0.13170388766229152
1772363491374792400,5.85279248046875,-0.1683557482331991,0.057042322170734405,0.13212035950869322
1772363491384862700,5.86286279296875,-0.09175532363355159,0.04757306755781173,0.13266659521460533
1772363491394932500,5.872932373046875,0.006576455780863762,0.03888882584273815,0.15882906434461475
1772363491405002500,5.88300244140625,0.013331775259971618,0.0030009353816509246,0.15815613351911306
1772363491415072800,5.89307275390625,-0.05591185683608055,-0.006271919876337051,0.1984916510388255
1772363491425142500,5.903142578125,-0.10549509517252445,0.03142798844277859,0.2125510099209845
1772363491435212500,5.913212646484375,-0.026011808612942694,0.034193946024775504,0.19321049576550722
1772363491445281500,5.923281494140625,-0.028846155256032943,0.0026297639816999434,0.1165177167072892
1772363491455351600,5.9333515625,-0.02250233918726444,-0.003941431102156639,0.0767636523373425
1772363491465421600,5.943421630859375,0.03378244261443615,0.009030278673768042,0.0980795582190156
1772363491475491600,5.95349169921875,0.0702618692278862,0.03667582596838474,0.11741276585087179
1772363491485561600,5.9635615234375,0.08947276565432548,0.10391513250470161,0.153292326875031
1772363491495631600,5.973631591796875,0.07933598704338073,0.12236088977754116,0.14155702702626585
1772363491505701600,5.98370166015625,0.07271393855512141,0.06981003380715847,0.09669877138510345
1772363491515771600,5.993771728515625,0.07038812595605849,0.04492576791942119,0.04481675458699465
1772363491525840600,6.003840576171875,0.08257190022468566,0.06532324378192425,0.01659092318639159
1772363491535910700,6.01391064453125,0.053449850636720656,0.04362403767108917,-0.0367559054672718
1772363491545980700,6.023980712890625,-0.01917348702549934,-0.016674655947089195,-0.08799334075152873
1772363491556050400,6.034050537109375,-0.025939912420511243,-0.0767494776815176,-0.11441621438339351
1772363491566120700,6.04412060546875,-0.007839023062586783,-0.10978197871148586,-0.1583785440981388
1772363491576190700,6.054190673828125,0.003492518290877342,-0.09688917939066886,-0.18225450972616672
1772363491586260500,6.064260498046875,-0.00005669862329959869,-0.044129064583778375,-0.16257979518026114
1772363491596330800,6.074330810546875,-0.006034603989124298,-0.01525660584270954,-0.1484405029296875
1772363491606399500,6.0843994140625,0.05156184493303299,0.013877134183049202,-0.1320209907874465
1772363491616469500,6.094469482421875,0.1427490132898092,-0.010081249031424521,-0.1343110014207661
1772363491626539800,6.104539794921875,0.1614934612482786,-0.018145897543430326,-0.1567820686869323
1772363491636609500,6.114609619140625,0.07425181564688682,-0.004559270739555359,-0.20497282975167036
1772363491646679600,6.124679443359375,0.022540917631983754,0.015831190860271453,-0.2335753855101764
1772363491656749800,6.134749755859375,0.01613455772101879,0.04558277052342891,-0.20677111134529114
1772363491666819600,6.144819580078125,0.0035503859579563138,0.09510404953956604,-0.15586480771154165
1772363491676889600,6.1548896484375,0.09072948771715164,0.13517419412136078,-0.12160744106173514
1772363491686959600,6.164959716796875,0.11993746202290058,0.04957096337676048,-0.16162424802109598
1772363491697028600,6.175028564453125,0.10297697487175464,0.006373626685142517,-0.15178557557389138
1772363491707098600,6.1850986328125,0.07980944977402686,0.0030500352203845977,-0.08065510681793094
1772363491717168600,6.195168701171875,0.0400894338041544,-0.012542086187005043,-0.08849033048823475
1772363491727239000,6.205239013671875,-0.03073416095972061,-0.03194178318381309,-0.09486936400085687
1772363491737309000,6.215308837890625,-0.03661971186697483,-0.02665419816970825,-0.10180442396104335
1772363491747379000,6.22537890625,-0.008497779232263565,0.03418400915265083,-0.0679044924467802
1772363491757449000,6.235448974609375,-0.03502162902057171,0.029195114824175833,-0.08295067040920256
1772363491767519000,6.24551904296875,-0.09363105437755584,0.03590834872722626,-0.04603489820510149
1772363491777588000,6.255587890625,-0.12351064433455466,0.026280688682198523,-0.005070142871141433
1772363491787658000,6.265657958984375,-0.1072486608415842,0.013853753307461738,0.020379940205812453
1772363491797728000,6.27572802734375,-0.060630117529630656,0.012660744130611419,0.07925693045780062
1772363491807798000,6.285798095703125,0.007362637722492218,0.04235562517046928,0.13393135445341467
1772363491817868000,6.295867919921875,0.06998948202729224,0.08198796285688877,0.1496346811503172
1772363491827938000,6.30593798828125,0.03626724516749382,0.05761573814451694,0.08689867738261818
1772363491838007800,6.3160078125,0.08440145373940468,-0.0372831442117691,0.05413344898670912
1772363491848078000,6.326078125,0.14697335298657416,0.1212824468910694,0.22808131813853977
1772363491858148000,6.336148193359375,0.04405892195701599,-0.10227964025735854,0.024520839402824637
1772363491868217900,6.3462177734375,0.12348843250274658,-0.08973053980767727,0.036948213168978686
1772363491878287000,6.356287109375,0.06922258930802346,-0.038459786775708195,0.04471066386401653
1772363491888356900,6.36635693359375,0.0139338328063488,0.02958031474947929,0.03473156003281474
1772363491898427100,6.37642724609375,-0.053393152013421055,0.02426175007522106,0.02127265126183629
1772363491908497200,6.3864970703125,-0.11329320170283316,0.026239772149920463,0.03729103525727987
1772363491918567000,6.39656689453125,-0.05767360581159591,0.04382394415736198,0.051768473421037194
1772363491928637000,6.406636962890625,-0.005912438914179801,0.03841887024343014,0.051818303912132976
1772363491938707000,6.41670703125,0.023925649988651276,0.03839724293351173,0.05642535931617021
1772363491948777000,6.42677685546875,0.07099310611188411,0.018334698113799095,0.03560454347506165
1772363491958847000,6.436846923828125,0.09133914404809475,0.0021346739411354063,0.004047814086079597
1772363491968917000,6.4469169921875,0.08458850074410439,0.03427168743610382,0.01795154401510954
1772363491978986000,6.456986083984375,0.05282207412719726,0.06641103901863098,0.02293912316933274
1772363491989056000,6.467055908203125,-0.049130818393826485,0.045725393864512444,0.03456599420756101
1772363491999126000,6.4771259765625,-0.1698410183548927,-0.011844167050719261,0.02985270195007324
1772363492009196000,6.487196044921875,-0.24842414120435713,-0.06328033977746964,0.04852072367146611
1772363492019265800,6.497265869140625,-0.20759645625352857,-0.04979308169484138,0.0598790069013834
1772363492029336000,6.507336181640625,-0.04918985510468483,0.012817395997047424,0.0828590466029942
1772363492039406000,6.517406005859375,0.05547521898448467,0.0069195701301097865,0.05743745896816253
1772363492049475800,6.527475830078125,0.07278232761621475,-0.007104863569140434,-0.002209931134432554
1772363492059546000,6.537546142578125,0.04218143764734268,-0.028752047231793403,-0.026761896327883002
1772363492069616000,6.5476162109375,-0.04248597355186939,-0.03386544472277164,-0.0499957646600902
1772363492079684900,6.557684814453125,-0.063281508821249,-0.012342179700732231,-0.04415390676409006
1772363492089755100,6.567755126953125,0.017685878816246985,-0.002980477115511894,-0.05330927312225103
1772363492099825000,6.577824951171875,0.08857494003176689,0.015673369950056075,-0.04611337026879191
1772363492109895000,6.58789501953125,0.08183890977501869,-0.015817162334918974,-0.05348316838443279
1772363492119965200,6.597965087890625,0.05873217495381832,-0.03572305528819561,-0.026320582301169633
1772363492130035000,6.608034912109375,0.09176292241811752,-0.02416939561665058,0.027574820145964622
1772363492140105000,6.61810498046875,0.11324585542976856,-0.021861703196167946,0.04127411354407668
1772363492150175000,6.628175048828125,0.10370938079953193,0.022999767315387724,0.04061579576581716
1772363492160245000,6.638244873046875,0.024906477719545364,0.03764963943660259,0.009648118311166763
1772363492170315000,6.64831494140625,-0.03212766114473343,0.0827267985254526,0.015840250949561596
1772363492180384800,6.658384765625,-0.06336860258281231,0.14390695115327834,0.029742373443394896
1772363492190455000,6.668455078125,-0.04560439783334732,0.1290869831621647,0.00791238055974245
1772363492200524000,6.67852392578125,0.01848082858622074,0.07306056003570556,0.0008471183486282825
1772363492210594000,6.688593994140625,0.06488602140843867,-0.0199029703438282,-0.02960881019160151
1772363492220664000,6.6986640625,0.048880058503150935,-0.10618483100235461,-0.10347294169515371
1772363492230734000,6.708734130859375,-0.0010533084452152251,-0.12178922736942767,-0.11221928886100649
1772363492240803800,6.718803955078125,0.001724339574575424,-0.09299567908346652,-0.11308657321482896
1772363492250874000,6.7288740234375,0.019000468546152113,-0.0638180999159813,-0.12600523762926458
1772363492260944000,6.73894384765625,0.043726329001784324,-0.02928103954195976,-0.1252338148653507
1772363492271014000,6.749013916015625,0.07923661832213401,-0.0031260230660438535,-0.092180709438771
1772363492281084200,6.759084228515625,0.09508943649232388,0.02782324194908142,-0.05961772561669349
1772363492291154000,6.76915380859375,0.08158639631867408,0.06884089651405811,-0.03541983455792069
1772363492301224000,6.779223876953125,0.053712885487079615,0.06278641878068447,-0.07370470315814018
1772363492311294000,6.7892939453125,0.01893266400694847,0.05758358944058418,-0.11111249666288495
1772363492321363000,6.799363037109375,0.0023491934746503827,0.04878536595702171,-0.09635565703585744
1772363492331433000,6.809432861328125,0.0625496874153614,0.05689385361075401,-0.028991847337037323
1772363492341503000,6.8195029296875,0.10664543425142764,0.057657239198684686,0.047803076921403405
1772363492351573000,6.829572998046875,0.07922025170922278,0.01789221504330635,0.04546060544848442
1772363492361643000,6.83964306640625,0.05690612857043743,-0.018805238234996795,0.03840703367516398
1772363492371713000,6.849713134765625,0.04311082745194435,-0.04070668891966343,0.058548927341401574
1772363492381783000,6.859782958984375,0.008133037573099135,-0.015886135917901993,0.07982888512685894
1772363492391853000,6.86985302734375,-0.032605215528607366,0.040676878303289414,0.12079743985310196
1772363492401922800,6.8799228515625,-0.14095277752280236,0.07086860294938087,0.12350304554998874
1772363492411993000,6.8899931640625,-0.21888123585581779,0.08480360479950905,0.11511398738920688
1772363492422062800,6.900062744140625,-0.21425474509894846,0.10597791025340557,0.11487798667624592
1772363492432132900,6.9101328125,-0.1522784736573696,0.08158756536245346,0.08718114758580922
1772363492442203100,6.920203125,-0.07592471729516982,0.042750177446007724,0.06129997961521148
1772363492452273000,6.93027294921875,0.04509411022365093,-0.03455459603071213,0.019514847809076308
1772363492462342100,6.940342041015625,0.12333353420197964,-0.08733166197240352,-0.0008196458198130131
1772363492472412200,6.950412109375,0.12009002223610878,-0.007381926944851875,0.05949161501899361
1772363492482482000,6.96048193359375,0.08237433182597159,-0.022325229054689404,0.03326864787340164
1772363492492552000,6.970552001953125,0.0474959106683731,-0.0011497545570135115,0.03815612765401601
1772363492502622000,6.9806220703125,0.05494447310864925,0.04192950871288776,0.06671995883733034
1772363492512692000,6.99069189453125,0.0571077886223793,0.035518472626805304,0.0631944150596857
1772363492522762000,7.000761962890625,0.07914192577600479,0.026761165675520896,0.030653496938943862
1772363492532832000,7.01083203125,0.10520984849035739,0.03299450710713863,0.05478197602331638
1772363492542902000,7.020902099609375,0.08767652988731861,0.046803252229094504,0.03124298726469278
1772363492552972000,7.030971923828125,0.024818799436092377,0.043860769036412235,-0.06590922697633504
1772363492563042000,7.0410419921875,-0.04890051676928997,0.01709142005443573,-0.10392419259399176
1772363492573112000,7.051112060546875,-0.08947393469810486,-0.004649287110567093,-0.08326397414207458
1772363492583182000,7.06118212890625,-0.04657470417022705,0.0024497312396764754,-0.0753932407669723
1772363492593251800,7.071251953125,0.020672201150655746,0.025079496198892593,-0.0622317075073719
1772363492603322000,7.081322021484375,0.04930208330750465,0.0432698174059391,-0.05199103013053536
1772363492613390800,7.091390869140625,0.05062660990953445,0.019222586864233015,-0.0076927464596927165
1772363492623461000,7.101461181640625,0.03253682646751404,0.0018856676161289215,-0.006411036086082458
1772363492633531100,7.11153125,0.0019797756403684614,-0.0035831191837787627,-0.027766835586726664
1772363492643601000,7.121600830078125,-0.017225860089063644,0.04342413118481636,-0.0003289396934211254
1772363492653671000,7.1316708984375,-0.03682897070348263,0.05522270552814006,0.07082885546088219
1772363492663741000,7.141740966796875,-0.056852352556586265,0.06547931112647057,0.1282898414351046
1772363492673811000,7.15181103515625,-0.11213234122991561,0.039406712237000464,0.15255100698843596
1772363492683881000,7.161880859375,-0.12206862883269787,0.0075134443700313564,0.1129397120900452
1772363492693951000,7.171950927734375,-0.06048749418854713,0.03137888860404491,0.10205269963368772
1772363492704021000,7.18202099609375,0.04587386242449283,0.04158464079797268,0.09570946808680891
1772363492714091000,7.192091064453125,0.1305325057953596,0.04954173728227615,0.08948884000629186
1772363492724161000,7.2021611328125,0.12156418644189834,0.026199440139532088,0.054573740100115536
1772363492734231300,7.212231201171875,0.07085691251158714,-0.011842998006939887,0.005336392591893673
1772363492744301300,7.22230126953125,0.05964227553606033,-0.03565992692410946,-0.014833265864104031
1772363492754371000,7.23237109375,0.06986322529911995,-0.07037643551826477,-0.06013678105473518
1772363492764441300,7.24244140625,0.04716974745392799,-0.056634325891733166,-0.0729804805368185
1772363492774510300,7.25251025390625,0.011650105783343315,-0.03277764948606491,-0.038783904163539405
1772363492784580400,7.262580322265625,-0.012190788531303405,-0.0015834697991609571,-0.013638795382529496
1772363492794650400,7.272650390625,-0.028587796580791473,0.06287585062980651,0.03191635648161173
1772363492804720400,7.282720458984375,-0.038729835888743396,0.08595803553164005,0.03133314976617694
1772363492814790100,7.2927900390625,-0.022810966745018958,0.05237491488158703,-0.011030658710747956
1772363492824860400,7.3028603515625,0.07271452307701111,0.04218085312545299,0.01022752563431859
1772363492834930200,7.31293017578125,0.17865327036380768,0.04670855968296528,0.00012654898911714554
1772363492845000200,7.323000244140625,0.1167342820674181,0.03578267652094364,-0.0802525173664093
1772363492855070500,7.333070556640625,0.005442483314871788,0.024120295777916908,-0.12909151320680975
1772363492865140200,7.34314013671875,-0.06617606121897697,-0.021501053190231323,-0.11832198965027928
1772363492875210200,7.353210205078125,0.000042670097947120666,-0.04232172290086746,-0.0829582691937685
1772363492885280300,7.3632802734375,0.10531155529916286,-0.024401450806856153,-0.04230024172142148
1772363492895350300,7.373350341796875,0.039191023659706115,-0.02349485735595226,-0.05426350510716438
1772363492905420300,7.383420166015625,-0.008831541231274604,0.009433014255762099,-0.04909063251391053
1772363492915490300,7.393490234375,0.011435586249828338,0.000377016618847847,-0.03533244853541255
1772363492925560300,7.403560302734375,0.02768646382689476,-0.03742109137773514,-0.038767683681100604
1772363492935630300,7.41363037109375,0.037412323549389837,-0.04950082074999809,-0.03333849823921919
1772363492945699300,7.42369921875,0.04256079235374927,-0.03021218291223049,-0.02479001173302531
1772363492955769300,7.433769287109375,0.06105272685587406,-0.00949789618551731,-0.042623920717835426
1772363492965839400,7.44383935546875,0.07057926461398602,0.046128129446506495,-0.031023060903698205
1772363492975909000,7.4539091796875,0.05718962168693542,0.08188859413564205,0.02579845812320709
1772363492985979400,7.4639794921875,0.033628713357448575,0.07838438540697097,0.027488310906291006
1772363492996049200,7.474049072265625,0.027566052317619324,0.08576280522048473,0.041520781781524414
1772363493006119200,7.484119140625,0.03724924194216728,0.051934769898653026,0.035818624617159366
1772363493016189400,7.494189453125,0.01092179150879383,-0.014098667979240417,0.035253976471722126
1772363493026259200,7.50425927734375,-0.02898644050955772,-0.04703530741930008,0.052811991124600166
1772363493036329200,7.5143291015625,-0.04285480686426162,-0.0522714545071125,0.06074935999512672
1772363493046399200,7.524399169921875,-0.03444295234978199,-0.03914718451797962,0.0669701342061162
1772363493056469200,7.53446923828125,-0.07090133617520332,-0.02333762096762657,0.04546089770942926
1772363493066539300,7.544539306640625,-0.12251403451263904,0.013421207109093666,0.027381781791895626
1772363493076609300,7.554609375,-0.16392331874370575,0.0016670564293861387,-0.013969342511147259
1772363493086679300,7.56467919921875,-0.15528876138925551,0.009226678028702735,-0.049560441982746124
1772363493096749300,7.574749267578125,-0.09885551102757453,0.022069208467006683,-0.04004062622636556
1772363493106819300,7.5848193359375,-0.029212065958976744,0.040004093608260155,-0.003813859199732542
1772363493116889300,7.594889404296875,0.03840951789319515,0.07415887666642665,0.02529927642941475
1772363493126958300,7.604958251953125,0.05161912807822227,0.06587970862090588,0.022646716094017028
1772363493137028000,7.615028076171875,0.027231705796718596,0.030574586483836173,-0.006135872406512499
1772363493147098400,7.625098388671875,0.006197101074457168,0.007449731484055519,-0.018811521845310927
1772363493157168400,7.63516845703125,0.05251578465700149,0.016558336091041563,-0.005521247639507055
1772363493167238100,7.645238037109375,0.14325696281194686,0.004733458262681961,0.025574147848039862
1772363493177308400,7.655308349609375,0.1798725830256939,-0.04657528869211673,0.014709347223490475
1772363493187378200,7.665378173828125,0.14479133277237413,-0.08449497724175453,0.021438070956617594
1772363493197448200,7.6754482421875,0.10754735152721405,-0.08381400924026966,0.05731470937132835
1772363493207518500,7.6855185546875,0.05614098941683769,-0.08586509655117988,0.018692425510287283
1772363493217588200,7.695588134765625,0.018883564168214798,-0.027466099074482917,-0.015453735850006341
1772363493227658200,7.705658203125,-0.007821487405896187,-0.016944705060124396,-0.05863002975359559
1772363493237728300,7.715728271484375,-0.00685059654712677,-0.013224807754158973,-0.06434387735575438
1772363493247798300,7.72579833984375,0.012379589101672172,0.024035540103912352,-0.03758738785535097
1772363493257868300,7.735868408203125,0.014710077875852583,0.06078676939606666,-0.013933394414931535
1772363493267938300,7.745938232421875,0.029880759000778197,0.09296762203276157,0.013124123858660458
1772363493278008300,7.75600830078125,0.06123275959789753,0.09459200836420059,0.020347499240934847
1772363493288078300,7.766078369140625,0.1110305174678564,0.09651099372804164,0.03224704974070191
1772363493298148400,7.7761484375,0.11823825688958167,0.09540800092220306,0.027595424542576075
1772363493308218400,7.78621826171875,0.1082242278754711,0.0544499675899744,0.011803542779386042
1772363493318288400,7.796288330078125,0.05033727157413959,0.033654432320594785,0.06350187357366084
1772363493328357000,7.806357177734375,-0.01715805554986,0.01452419991493225,0.13917729228287934
1772363493338427400,7.816427490234375,-0.0871451994895935,-0.033870120897889135,0.1464260943673551
1772363493348497400,7.826497314453125,-0.15032967767715452,-0.08493512222468852,0.0892858647800982
1772363493358567200,7.836567138671875,-0.11346797374784946,-0.10407821411192417,0.029174072036147115
1772363493368637400,7.846637451171875,-0.029429508101940154,-0.05812251862287521,0.0009403495900332927
1772363493378707200,7.856707275390625,-0.0272837282449007,0.043944940188527105,0.02859656440913677
1772363493388777200,7.866777099609375,-0.09433364968895912,0.08767068466842173,0.04586480233520269
1772363493398847200,7.87684716796875,-0.14903379264771938,0.09108604606986045,0.008076485080271959
1772363493408917200,7.886917236328125,-0.1312345165848732,0.0816512782484293,-0.034330724146962165
1772363493418987300,7.8969873046875,-0.045157823109626766,0.04692892443537712,-0.024509002834558487
1772363493429057300,7.907057373046875,0.03721183254122734,0.031125790625810622,-0.0013135668165981768
1772363493439127300,7.917127197265625,0.0833633428633213,0.025708441752195357,-0.014690788653492926
1772363493449197300,7.927197265625,0.08951485123038291,0.03266834389269352,-0.04814443770498037
1772363493459267300,7.937267333984375,0.04866027827262878,0.045154315978288645,-0.060015638893097634
1772363493469337300,7.94733740234375,0.007854805153608322,0.016962240716814993,-0.06977525475472211
1772363493479407400,7.957407470703125,-0.0027647885382175445,0.001554243704676628,-0.07694514638409018
1772363493489477400,7.967477294921875,-0.02293722347319126,-0.014874328526854514,-0.05550502960085869
1772363493499547100,7.977547119140625,-0.034033787027001376,0.0008446341305971145,0.006766863786429166
1772363493509617400,7.987617431640625,-0.05937573355436325,0.06304653102159499,0.06994140510186553
1772363493519687200,7.997687255859375,-0.048749125599861144,0.09612637832462786,0.10699892386421561
1772363493529754400,8.00775439453125,-0.04900865331888198,0.09620938043296337,0.10747633211761712
1772363493539824000,8.01782421875,-0.030296938586235046,0.06537585075199603,0.09978636213690043
1772363493549894400,8.027894287109374,-0.007508183673024177,-0.003157587248086929,0.06024608664810657
1772363493559964200,8.037964111328124,-0.00760346074104309,-0.06268412744998932,0.006324234585464
1772363493570034200,8.0480341796875,-0.0025227964758872986,-0.10332534991800785,-0.011048486628383397
1772363493580104400,8.0581044921875,0.004259411010146141,-0.09361761037409305,-0.019919336956739423
1772363493590174200,8.06817431640625,0.01988718825280666,-0.05194879842400551,-0.011073328808695077
1772363493600244200,8.078244140625,0.035414427730441095,-0.024642273825407027,-0.017820026589930055
1772363493610314500,8.088314453125,0.06528875699043274,0.008521160107851028,-0.004009527902305126
1772363493620384300,8.09838427734375,0.13219547057151793,0.0460889664798975,0.004289660017937421
1772363493630454300,8.108454345703125,0.15420622684955596,0.06287526610791683,-0.025240678109973668
1772363493640524300,8.118524169921875,0.11748247008621691,0.05056874224245548,-0.04381181532815098
1772363493650594300,8.12859423828125,0.0773807613223791,0.02810907315313816,-0.05712853914946317
1772363493660664300,8.138664306640624,0.07076338900923729,0.010828268006443978,-0.052899377147108316
1772363493670734000,8.148734130859374,0.0493044213950634,0.017227029132843016,-0.031962387580424544
1772363493680804400,8.158804443359376,0.0177636202275753,0.005583353090286254,0.00858005068823695
1772363493690874400,8.168874267578126,-0.04190788140296936,-0.012107201901078224,0.018128654147684574
1772363493700944100,8.178944091796875,-0.05134732539951801,0.013546294793486595,0.05710866540521383
1772363493711013400,8.189013427734375,-0.06234159762263298,0.0031260230660438535,0.08782456005588174
1772363493721083400,8.19908349609375,-0.07856091101765632,0.01215221008658409,0.07096665649637579
1772363493731153200,8.209153076171875,-0.0776595782637596,0.039219665232300756,0.07317658763080835
1772363493741223000,8.219222900390625,-0.06721826374828815,0.04689151503443718,0.054000324126332995
1772363493751292700,8.229292724609374,-0.06391045437455177,0.04179331511259079,0.014948562806844711
1772363493761362700,8.23936279296875,-0.05872749877870082,0.05627075327634811,0.007174129413068294
1772363493771432700,8.2494326171875,-0.07161153027117252,0.054469841334223744,-0.02179302187412977
1772363493781502700,8.259502685546876,-0.11149930402338504,0.044914077481627464,-0.0430146736010909
1772363493791572700,8.26957275390625,-0.13889876760244368,0.04525076209008693,-0.059227849516272545
1772363493801642800,8.279642822265625,-0.09220365192294121,0.046238604083657264,-0.026320582301169633
1772363493811712800,8.289712646484375,-0.026163784304261205,0.035187633237242694,-0.01528057124018669
1772363493821782800,8.29978271484375,0.055543608045578,0.04553074807524681,0.004746463874727487
1772363493831852800,8.309852783203125,0.09038871145546436,0.027810382467508315,0.025234540630131957
1772363493841922800,8.3199228515625,0.0782522834599018,-0.018731588476896283,0.006481178712844848
1772363493851992800,8.329992919921875,0.06817980225682259,-0.02936170356273651,0.0026657120779156685
1772363493862062600,8.3400625,0.1016109472155571,-0.035920039165019985,-0.004125117105990648
1772363493872132900,8.3501328125,0.09397007707357406,-0.04049216938614845,-0.002202040088921785
1772363493882202600,8.36020263671875,0.11617723270654677,0.002942483192682266,0.022198826196044682
1772363493892272600,8.370272705078126,0.14168401440680026,-0.0064174658268690106,0.019039485382288692
1772363493902343000,8.380343017578125,0.1135579901188612,-0.006287701967358589,-0.019607786789536476
1772363493912412700,8.39041259765625,0.06764379568397999,0.019446458747982977,-0.059520402722060675
1772363493922482700,8.400482666015625,0.026162030738592145,0.02158990051746368,-0.07552841145396232
1772363493932552700,8.410552734375,-0.07239946577847003,-0.024146599262952803,-0.07362023974508047
1772363493942621700,8.42062158203125,-0.12799042009711264,-0.030637130326032637,-0.08438932491019367
1772363493952691700,8.430691650390624,-0.03835983353257179,0.026338556349277495,-0.052890901579707855
1772363493962761700,8.44076171875,0.07610124290585517,0.0633510669261217,-0.01341989193484187
1772363493972831700,8.450831787109376,0.09297872794866562,0.0527332267999649,0.010996610310673713
1772363493982901800,8.46090185546875,0.06618073739409447,0.04026654393672943,0.03630187808945775
1772363493992971800,8.4709716796875,0.04838672202825546,0.04012333607375622,0.048195729500800366
1772363494003041800,8.481041748046875,0.0071007719159126275,0.057038230517506595,0.042092151928693054
1772363494013111800,8.49111181640625,-0.03329085970520973,0.05102934549152851,0.05764467197805643
1772363494023181600,8.501181640625,-0.08077040376067161,0.012334580916166306,0.08210603627860545
1772363494033251800,8.511251953125,-0.0882785874336958,-0.004180500555038452,0.13473054200708864
1772363494043321900,8.52132177734375,-0.0867313579916954,-0.021890929290652273,0.11182561336830257
1772363494053391600,8.5313916015625,-0.0724924047589302,-0.01374912388920784,0.08504325877428054
1772363494063462000,8.5414619140625,-0.02920271360874176,-0.001600420933961868,0.0590250204205513
1772363494073531600,8.55153173828125,-0.033417116433382035,0.012370821273326874,0.00786357298195362
1772363494083601700,8.5616015625,-0.04493453574776649,0.04456161078214645,0.005041939689964056
1772363494093671700,8.571671630859376,-0.05991700082421302,0.039704233878850935,0.026427257546037433
1772363494103741700,8.58174169921875,-0.04843932899832725,-0.02129413244128227,-0.0036227205418050286
1772363494113812700,8.591812744140626,0.16275076783299444,-0.04870119480490684,-0.04599500458613038
1772363494123881700,8.6018818359375,0.20612112300395966,-0.0740653531640768,-0.06806523596644401
1772363494133951700,8.61195166015625,0.12244564545154571,-0.08108838366866111,-0.07629062799811363
1772363494144021800,8.622021728515625,0.006803250274062156,-0.05742459948658943,-0.07165478489100932
1772363494154091800,8.632091796875,-0.04860591773688793,-0.002070376533269882,-0.03525119999274611
1772363494164161800,8.642161865234375,-0.03998597342967987,0.08199906877279281,0.02477203768491745
1772363494174231800,8.652231689453124,-0.025203999361395835,0.11580255417525767,0.03696750239133834
1772363494184301800,8.6623017578125,-0.032815643408894535,0.11825696159005164,-0.0011105915904045104
1772363494194371600,8.67237158203125,-0.019590835654735565,0.16375030026435852,0.022797084350138903
1772363494204441900,8.68244189453125,-0.01703296786546707,0.10921206986904143,-0.015876491306722165
1772363494214511600,8.69251171875,-0.060551791596412656,0.008127776876091957,-0.08454480773285031
1772363494224581600,8.70258154296875,-0.09257949949800967,-0.060581017690896986,-0.11758403076454996
1772363494234652000,8.71265185546875,-0.0503022002607584,-0.09168167387545108,-0.07079597610458731
1772363494244721700,8.7227216796875,0.006741875475645065,-0.09593290157914161,-0.057132192411273715
1772363494254791700,8.732791748046875,0.024966098952293396,-0.09094342272877692,-0.09422872800976037
1772363494264861700,8.74286181640625,0.03189268334507942,-0.08958324029147624,-0.1021935694091022
1772363494274931700,8.752931640625,0.051692777836322784,-0.09287117592096328,-0.07522051454856991
1772363494285001700,8.763001708984374,0.05367956773936748,-0.06917348946928978,-0.04141556784138083
1772363494295071700,8.77307177734375,0.04449731337428093,-0.01887304277420044,-0.007074030039459466
1772363494305141800,8.783141845703126,0.028416531667113304,0.05075695829093456,0.042088060275465244
1772363494315211800,8.793211669921876,0.04677110352516174,0.12553835076987743,0.11804857953637837
1772363494325281800,8.80328173828125,0.0749976655781269,0.11269348224401474,0.10079042461290955
1772363494335351800,8.813351806640625,0.06444529190361499,0.06794482445716858,0.038497926829010244
1772363494345421800,8.823421875,0.0684837536394596,0.025073650979995726,0.03775441498532891
1772363494355491600,8.83349169921875,0.11335048484802246,0.00376665905714035,0.05645400088876486
1772363494365561600,8.8435615234375,0.12680910135805606,-0.007331658062338829,0.06208265442550182
1772363494375632000,8.8536318359375,0.09891104060709476,-0.02327624616920948,0.06852846956402063
1772363494385700600,8.86370068359375,-0.0008715221375226974,-0.05115034152269363,0.07975991154387593
1772363494395771000,8.87377099609375,-0.04646013787984848,-0.06633738926053047,0.10269362788572907
1772363494405840600,8.883840576171876,-0.04479775762557983,-0.039994741258025164,0.10508052302226424
1772363494415910700,8.89391064453125,-0.052613399812579155,-0.022601123386621475,0.09405790148749947
1772363494425981000,8.90398095703125,-0.03660626786351204,0.010605565166473388,0.08595058287754655
1772363494436050700,8.91405078125,-0.023980010524392126,0.021594576692581177,0.07733078470081091
1772363494446120700,8.92412060546875,-0.035709611284732816,0.024002806878089904,0.04424655348360538
1772363494456190700,8.934190673828125,-0.06787234374284744,0.0005593874484300613,0.022891338504850863
1772363494466260700,8.9442607421875,-0.08189151674509047,0.009849193841218948,-0.001154138471186161
1772363494476330800,8.954330810546875,-0.0855769272595644,0.04031622829735279,0.011391454847157001
1772363494486400800,8.96440087890625,-0.04988426710963249,0.0325035087198019,0.033048136990517375
1772363494496470800,8.974470703125,-0.00947042365670204,0.029601942059397694,0.04773161912038922
1772363494506540800,8.984540771484374,0.056769934970140455,0.06605331162214279,0.0869939544506371
1772363494516610800,8.99461083984375,0.1488753872156143,0.07877893768250942,0.09786927646920085
1772363494526680800,9.004680908203126,0.12836919028162955,0.021286533656716344,0.04254837126359343
1772363494536750800,9.014750732421875,0.06818857008516788,-0.038061142846941946,-0.024547435148805377
1772363494546820600,9.024820556640625,0.061897945508360856,-0.08850245931744576,-0.05991437047570943
1772363494556890600,9.034890625,0.06051672028303146,-0.12537936081588266,-0.09490648114085197
1772363494566961000,9.0449609375,0.038215456625819204,-0.07956102797091007,-0.11416545449271798
1772363494577030700,9.05503076171875,0.0035223289072513577,0.020261866784095764,-0.07294774731099606
1772363494587100700,9.0651005859375,-0.024444705426692963,0.08836042049825191,-0.01397284964248538
1772363494597171000,9.0751708984375,-0.06998129872083664,0.07351882519721985,0.012133359255641699
1772363494607240700,9.08524072265625,-0.07336217333078383,0.04528875601291656,-0.002463905895501375
1772363494617310700,9.095310791015624,-0.034010406151413916,0.003171615773439407,-0.04478504427447915
1772363494627380700,9.105380615234376,0.04722644607722759,0.02865852372944355,-0.038632951385527844
1772363494637450800,9.11545068359375,0.1354167707055807,0.03470248006880283,-0.03966857804358005
1772363494647520800,9.125520751953125,0.14956629208922384,0.01544657545685768,-0.08012406868115067
1772363494657590500,9.135590576171875,0.10297989748120308,0.00007248071432113647,-0.09651552377268671
1772363494667660800,9.145660888671875,0.071547232863307,-0.012057517540454863,-0.07029255662709474
1772363494677729800,9.155729736328125,0.029840426990389822,-0.01362228263914585,0.012473843256384133
1772363494687799800,9.1657998046875,-0.07581482717990874,-0.00021978023052215574,0.07479673617854714
1772363494697869800,9.175869873046874,-0.13786007220447064,0.01326981593966484,0.09135010383352636
1772363494707939600,9.185939697265624,-0.12263503054380416,0.030437223839759824,0.09112477064505219
1772363494718009600,9.196009521484376,-0.06768003604114055,0.04003624231219292,0.05693257818594574
1772363494728080000,9.206079833984376,-0.030562311524152754,0.02028992383480072,-0.0016126958936452864
1772363494738150100,9.216150146484376,-0.012401216411590575,0.030602059012651443,-0.031947190011292696
1772363494748220000,9.226219970703125,0.0029962592065334317,0.05294716181159019,-0.03469108189195394
1772363494758290200,9.236290283203125,-0.019994155758619306,0.06590250497460365,-0.03792363407239318
1772363494768360200,9.246360107421875,-0.029537060129642485,0.020129764837026595,-0.06045563774555921
1772363494778430000,9.256429931640625,-0.005755787047743797,-0.009894786548614502,-0.06596680238246917
1772363494788500000,9.2665,0.06586041939854621,0.0028150574207305907,-0.04284983842819929
1772363494798570000,9.276570068359375,0.10086392824053764,0.003381459131836891,-0.01178016190379858
1772363494808640000,9.286639892578124,0.038133039039373394,-0.002991583031415939,-0.0037527766622602937
1772363494818710000,9.2967099609375,-0.02607084532380104,0.02552840901017189,0.026618396203964948
1772363494828780000,9.306780029296876,-0.054604865890741344,0.04851473232209682,0.029030718042701482
1772363494838850000,9.31685009765625,-0.06552139670252799,0.03945464303195476,0.029487375769019126
1772363494848920000,9.326920166015626,-0.056223407003283495,0.010843465575575828,0.045355537638813254
1772363494858990000,9.336989990234375,-0.04242109162211418,0.031980361628532405,0.06541662115380167
1772363494869060000,9.34706005859375,-0.014109773895144461,0.06966974855363368,0.09648936641812324
1772363494879130000,9.357130126953125,0.02930734302699566,0.11080080036520958,0.11778744438216089
1772363494889199900,9.367199951171875,0.056658875811100004,0.057521045598387714,0.072144029712677
1772363494899270100,9.377270263671875,0.03242342922091484,-0.024824060133099554,0.04441489578783512
1772363494909340200,9.387340087890625,-0.0003986439287662506,-0.0762830292135477,0.02904138556718826
1772363494919410000,9.397409912109374,-0.018204349732398987,-0.08434475511610508,0.02521159814596176
1772363494929480200,9.407480224609374,-0.03562017943561077,-0.061416299471259116,0.018087006963044404
1772363494939550000,9.417550048828126,0.014504326170682907,0.007881693160533904,0.04943418525457382
1772363494949620000,9.427619873046876,0.06317337227165698,0.026399931147694587,0.036201340324431654
1772363494959690000,9.43768994140625,0.0327519305229187,0.01480301685631275,-0.011673632789403199
1772363494969760000,9.447760009765625,0.018028408643603323,-0.013442249897122383,-0.03371098481342196
1772363494979830000,9.457830078125,0.038759646505117415,-0.007684124761819839,-0.034148645578324796
1772363494989900000,9.467900146484375,0.0729629448801279,0.035654081705212594,-0.023191490495204924
1772363494999969000,9.477968994140625,0.12123685418367385,0.07145195579528808,-0.019718407557159662
1772363495010039000,9.4880390625,0.11714169382452964,0.061414545905590055,-0.021214783594757317
1772363495020109000,9.498109130859374,0.05279460159838199,0.030786767929792402,-0.004128331976383924
1772363495030179000,9.508178955078124,0.004542904126644134,0.023489012137055395,0.044196430731564755
1772363495040249000,9.5182490234375,-0.03938157779574394,0.014549334356188773,0.028743717794865366
1772363495050318800,9.52831884765625,-0.043892917740345,0.007637363010644912,0.015561434008181094
1772363495060389000,9.53838916015625,-0.019880173990130423,0.036786885127425194,0.010837328095734119
1772363495070459100,9.548459228515625,0.002013093388080597,0.03103869686424732,0.02363952652364969
1772363495080529000,9.55852880859375,-0.027129414466023443,0.026608605462312696,0.023844985967874526
1772363495090599200,9.56859912109375,-0.09365618881881237,0.0058054714083671565,-0.02046469587981701
1772363495100669200,9.578669189453125,-0.11515782653093337,-0.01092354507446289,-0.03967983008995652
1772363495110739000,9.588739013671875,-0.05756020856499672,0.011689853271842002,-0.035056115812063214
1772363495120809000,9.59880908203125,0.025631284862756728,0.07181085223555564,-0.0028672259993851182
1772363495130879000,9.60887890625,0.0351484702706337,0.08008008340895176,-0.004027794211357832
1772363495140949000,9.618948974609374,-0.021240356427431106,0.03812777834236622,-0.036395109330862756
1772363495151019000,9.62901904296875,-0.05130582434535026,0.005231470912694931,-0.06616831630393863
1772363495161089000,9.639089111328126,0.00968085153698921,0.021271336087584494,-0.01966784641370177
1772363495171159000,9.649158935546875,0.07276713004708289,0.027505846562981603,0.010723492457717657
1772363495181229000,9.65922900390625,0.07721709519326686,0.03428922309279442,-0.0027777941502630707
1772363495191299000,9.669299072265625,0.08428396483957767,0.03782616504728794,-0.007042611987888812
1772363495201369000,9.679369140625,0.0806792183458805,0.012512860092520712,-0.02158420142903924
1772363495211439000,9.689439208984375,0.05799626189470291,-0.011368950754404068,-0.021647768184542653
1772363495221508900,9.6995087890625,0.03514437861740589,-0.06751110921502113,-0.038096360290795564
1772363495231579100,9.7095791015625,0.04343932875394821,-0.10368366183638572,-0.04262684332728386
1772363495241649200,9.719649169921874,0.07098667637109755,-0.08165887703299522,0.010807079087942838
1772363495251719000,9.729718994140624,0.06185410636663437,-0.021581132689118383,0.0384726462572813
1772363495261789200,9.7397890625,0.016949381235241888,0.037646716827154154,0.007042904248833656
1772363495271859000,9.74985888671875,-0.04354395817220211,0.0696428605467081,-0.05605097304582596
1772363495281929000,9.759928955078125,-0.05327274050414562,0.04824702129662037,-0.05091054141744971
1772363495291999000,9.7699990234375,-0.03805120597481727,0.01294131463766098,-0.030246085181832312
1772363495302069000,9.780069091796875,0.042135844939947126,0.005309212324023246,-0.0141026135019958
1772363495312139000,9.790138916015625,0.09062719638645649,0.03838730606138706,0.015157090990990399
1772363495322209000,9.800208984375,0.11325462325811385,0.057692310512065886,0.0433873063057661
1772363495332279000,9.810279052734375,0.10715805994868279,0.029800094980001447,0.05253156674802303
1772363495342349000,9.82034912109375,0.08113280733227729,0.04117079930007458,0.03882087517306208
1772363495352418000,9.83041796875,0.06368892057836055,0.05029284791052341,0.009651040920615195
1772363495362488000,9.840488037109376,0.011287117689847945,0.05771861399710178,0.008874065198749304
1772363495372558000,9.85055810546875,-0.07443009482324123,0.04126432280242443,0.024125702605396506
1772363495382627800,9.8606279296875,-0.13391981014609336,-0.00926174934208393,0.047300826487690205
1772363495392698000,9.870697998046875,-0.13247253394722938,-0.031086043137311933,0.053865007308870554
1772363495402768100,9.88076806640625,-0.06467383996248245,-0.012715104666352272,0.05796060605943203
1772363495412838000,9.890837890625,0.02004325559735298,0.042915597140789026,0.08944368569031358
1772363495422908200,9.900908203125,0.0055097033321857445,0.06438567067086697,0.024470862781256437
1772363495432978000,9.91097802734375,-0.04802607202231884,0.03864391117095947,-0.03904255509972572
1772363495443048000,9.9210478515625,-0.052093759852647775,0.021503975799679755,-0.04646291435882449
1772363495453118200,9.9311181640625,-0.005023381119966507,-0.012647300127148627,-0.04373655813485384
1772363495463188000,9.94118798828125,0.054957917112112044,-0.0022597616255283356,-0.026643092253804207
1772363495473258000,9.951258056640626,0.0710024584621191,0.00990881507396698,0.0008889116637408733
1772363495483328000,9.961327880859375,0.08188099535107612,0.004271101447939872,-0.030024551385641095
1772363495493398000,9.97139794921875,0.05569733730256557,0.0013905775755643844,-0.043986587373167275
1772363495503468000,9.981468017578125,0.011455459994077682,0.03559621403813362,-0.03969108213633299
1772363495513538000,9.9915380859375,-0.03533902440667152,0.06614391251504421,-0.018189444424211977
1772363495523608000,10.001608154296875,-0.03448562244772911,0.10355214441120623,-0.006280249313265085
1772363495533678000,10.011677978515625,-0.055361237215995784,0.0675865125387907,0.00041369536742568016
1772363495543748000,10.021748046875,-0.08303717964887619,-0.011952888122200965,-0.05386632248312235
1772363495553818000,10.031818115234374,-0.05214285969138145,-0.04733341358304023,-0.07495251126214861
1772363495563888000,10.04188818359375,0.02563596103787422,0.014424246671795845,-0.050815264349430796
1772363495573958000,10.0519580078125,0.0397971728593111,0.05837503207921981,-0.0013208733402192592
1772363495584028000,10.06202783203125,-0.040245501148700714,0.05175590620040893,0.005219634344428777
1772363495594098200,10.07209814453125,-0.11435177084505557,0.0014905308187007902,0.01067936105504632
1772363495604168000,10.08216796875,-0.12414894223809242,-0.0777951873421669,-0.0016989128723740577
1772363495614238000,10.092238037109375,-0.06174012459814548,-0.08905833963453769,-0.02620513922795653
1772363495624308200,10.10230810546875,0.03640226972401142,-0.04331248750388622,-0.013062749060243368
1772363495634378000,10.1123779296875,0.1131786354124546,0.00017477204501628875,-0.013059095798432827
1772363495644448000,10.122447998046875,0.12776888630092142,0.020602058523893355,-0.039031449183821676
1772363495654518000,10.13251806640625,0.12840075446367263,0.04841594812273979,-0.032469314189255236
1772363495664588000,10.142588134765624,0.09535013325512409,0.07038578786849975,0.007386456989496946
1772363495674658000,10.152657958984374,0.02200140392780304,0.050659927657246584,-0.002713350611925125
1772363495684728000,10.16272802734375,0.004225508740544319,0.0552647911041975,-0.003840162684768438
1772363495694798000,10.172798095703126,0.01272387249469757,0.07235854924619198,0.04623465856090188
1772363495704868000,10.1828681640625,0.056260231882333755,0.06141746851503849,0.0533171641677618
1772363495714937900,10.192937744140625,0.09350596669316291,0.04400222333371639,0.070992375459522
1772363495725008100,10.203008056640625,0.08476268826723098,0.019200375032424926,0.05670563756227493
1772363495735078100,10.213078125,0.02770516852736473,-0.051796238210797305,0.014896832619607447
1772363495745148000,10.22314794921875,0.005930559092760085,-0.07693886277377605,0.0013322715170681475
1772363495755218000,10.233218017578125,0.003692424777150154,-0.06536240674853325,0.006213321556895971
1772363495765288000,10.243287841796874,-0.025231471890211105,-0.04429974497556686,-0.010204729280620812
1772363495775358000,10.25335791015625,-0.04133621899485588,0.00229834007024765,0.045554275081306696
1772363495785427200,10.26342724609375,-0.06902911256253719,0.02802373295724392,0.07369038237184286
1772363495795497000,10.2734970703125,-0.06791618288457393,0.04952186353802681,0.06796878985464573
1772363495805567000,10.28356689453125,-0.07670680758357047,0.014120879811048507,0.0068410980664193625
1772363495815637000,10.293636962890625,-0.05546469759047031,0.014839841735363006,0.007833031713217496
1772363495825707000,10.30370703125,-0.06808394066691398,0.03122340578138828,-0.001794628331810236
1772363495835777000,10.313777099609375,-0.08282266011536121,0.07333937697708606,-0.017489771722257137
1772363495845846800,10.3238466796875,-0.08478899175226688,0.07102583933770656,-0.028613953935354947
1772363495855917000,10.3339169921875,-0.052476037168502805,0.03238017460107803,-0.04213862141892314
1772363495865987000,10.343987060546874,0.0039162966609001156,0.05270458522737026,-0.012425035678595304
1772363495876056800,10.354056884765624,0.0033148236364126202,0.03839315128028393,0.022555092287808654
1772363495886127000,10.364127197265624,-0.038673721787333484,0.05765139397978782,0.028235914403200148
1772363495896197000,10.374197021484376,0.15188509042561055,0.020336101064085958,-0.015687398475408555
1772363495906267000,10.384266845703126,0.28416940832436083,-0.05197217929959297,-0.10436024592369794
1772363495916337000,10.3943369140625,0.2064279969960451,-0.021601590955257415,-0.08653101311400532
1772363495926407200,10.4044072265625,0.10088380198478698,-0.0029530045866966244,-0.026291356206685303
1772363495936477000,10.414476806640625,0.07724690580964089,-0.0036988545179367062,0.01780877454355359
1772363495946547000,10.424546875,0.11713994025886058,-0.025852818658947944,-0.035651159095764155
1772363495956617000,10.434616943359375,0.1693272236138582,0.008009703454375267,-0.08602028711289167
1772363495966687000,10.44468701171875,0.09812836579680442,0.016011808124184606,-0.0794964383020997
1772363495976757000,10.454757080078124,0.00939677389860153,-0.0030658173114061354,-0.06404547893106936
1772363495986827000,10.464826904296874,-0.06569149257242679,0.0344248321712017,-0.027181583044677972
1772363495996897000,10.47489697265625,-0.07696341269314289,0.07510463308393955,-0.026961802814155816
1772363496006967000,10.484967041015626,-0.004416647398471832,0.07790975363254547,-0.030898557741194963
1772363496017036800,10.495036865234376,-0.05684241568446159,-0.001723170530796051,-0.06139496442228555
1772363496027107000,10.505107177734375,-0.020668694019317625,0.0011526771664619444,0.02875613888502121
1772363496037177000,10.515177001953125,0.04635200133025646,0.03609948738515377,0.08155673183277248
1772363496047246800,10.525246826171875,0.0811672941237688,0.061633741614222526,0.07391191616803407
1772363496057317000,10.535317138671875,0.03960428063571453,0.06848024650812148,0.06222717746272683
1772363496067387100,10.54538720703125,-0.08469371468424797,0.039216158100962635,0.0680341101758182
1772363496077457000,10.555456787109375,-0.2094172419399023,0.029283962151408195,0.16660130578130483
1772363496087527000,10.56552685546875,0.049236616855859755,0.08466565763354301,0.24608912238553166
1772363496097597000,10.575596923828124,0.45976972085833545,-0.04721943181455135,0.08048866420984267
1772363496107667000,10.5856669921875,0.09577975684404373,-0.14298632917702198,0.08857961620688438
1772363496117737000,10.595737060546876,-0.3901426424026489,-0.13678162931799887,0.15366247536167502
1772363496127807000,10.605806884765625,-0.4721516480475664,-0.03497311370372772,0.18374562506675718
1772363496137877000,10.615876953125,-0.45468262685239313,-0.009487959313392639,0.20404636255651712
1772363496147947000,10.625947021484375,-0.41198096472322937,-0.06013035131394863,0.12104381582960486
1772363496158017000,10.63601708984375,-0.2576999190717935,-0.06960895827710628,0.03702127840518951
1772363496168087000,10.646087158203125,-0.27561726855635643,-0.05658873318433761,0.026372166357934473
1772363496178157000,10.656156982421875,-0.37788404933214187,0.07397884392440318,0.04997223765403032
1772363496188226800,10.666226806640625,0.053767830544710155,0.14273498476445673,0.0582547667004168
1772363496198297000,10.676297119140624,0.37571021242439745,0.08673369607925414,-0.001585223364830017
1772363496208367000,10.6863671875,0.6247106922119855,-0.01848433571755886,-0.1323734574869275
1772363496218436900,10.696436767578126,0.6035089142292738,0.13656535621881485,-0.09948255688473581
