time,seconds_elapsed,z,y,x
1772568116674298000,0.115298095703125,-0.32377251991629596,-0.4721666994862258,-0.10679536411613225
1772568116684369200,0.125369140625,-0.11606032832860946,-0.3896526669286191,-0.2776755893256515
1772568116694441000,0.13544091796875,-0.026057985842227935,-0.26904695025533437,-0.39340252098143097
1772568116704513000,0.145512939453125,0.02485094814002514,-0.19024974626377225,-0.4090189000472426
1772568116714584000,0.155583984375,0.16927169403433798,-0.1729302165418863,-0.3508861522912979
1772568116724656000,0.16565625,0.2035211696386337,-0.18384177891761064,-0.31247334646247327
1772568116734728200,0.175728271484375,0.14031214153170585,-0.1636941861629486,-0.2918559077063575
1772568116744800000,0.185800048828125,0.12624211512506006,-0.18279504634365437,-0.2529522496206686
1772568116754871000,0.19587109375,0.15495909104347227,-0.18534429243505,-0.3008290858980268
1772568116764943000,0.205943115234375,0.16262334206104279,-0.14748480964004992,-0.2954585718408227
1772568116775015200,0.21601513671875,0.04506956030428409,-0.09703209499269723,-0.13593001745734362
1772568116785086200,0.226086181640625,-0.20923194850087165,-0.058092123484611506,-0.02996734130568802
1772568116795158300,0.236158203125,-0.28466449836492536,-0.0837967658445239,-0.1729785491956398
1772568116805230000,0.24622998046875,-0.024519524228572846,-0.018323884458839892,-0.2893571496931836
1772568116815301000,0.256301025390625,0.22898937289416788,0.22107626168206332,-0.32651031084973364
1772568116825373200,0.266373291015625,0.28022271652519704,0.28515125896856186,-0.365918374793604
1772568116835445200,0.2764453125,0.27719021696150303,0.20662585765570401,-0.4198417977588251
1772568116845516300,0.286516357421875,0.29812896009385587,0.16289923639297485,-0.4224025150923058
1772568116855588000,0.296588134765625,0.22070260606408118,0.18292860959544777,-0.4469322319213301
1772568116865660200,0.30666015625,0.053397243666648865,0.16759966916888952,-0.5150753919621929
1772568116875732200,0.316732177734375,-0.05867898346185684,0.1592002357445657,-0.438273818767257
1772568116885803300,0.32680322265625,-0.37950668209791183,0.08482932376265526,-0.12132460553236304
1772568116895875300,0.336875244140625,-0.592855418267846,0.03126987527161836,0.06819395864633843
1772568116905947100,0.346947021484375,-0.36015959207117554,0.10566329134628176,-0.03222706639859825
1772568116916018200,0.35701806640625,0.009148936617374419,0.21641060795858502,-0.1330310080802068
1772568116926090200,0.36709033203125,0.04804243863523006,0.3374984090603888,-0.19375916089052334
1772568116936162300,0.377162353515625,-0.09893851313591003,0.4688755489863455,-0.19008715784689412
1772568116946233000,0.387233154296875,-0.13138824584186076,0.44877983254939313,-0.12812451307186856
1772568116956305200,0.39730517578125,-0.20502280637323855,0.4152057719886303,0.020920860415790228
1772568116966377000,0.407376953125,-0.24455460629463194,0.4516898747771978,0.18758414378371088
1772568116976448000,0.417447998046875,-0.18961714744865893,0.5253595066219567,0.3765890045529231
1772568116986520000,0.42752001953125,0.029103929409384725,0.5827766534544527,0.4771718873623758
1772568116996592000,0.437592041015625,0.3679734806925058,0.622415859273076,0.47227425151392816
1772568117006664000,0.447663818359375,0.7945885354459286,0.5581573221132159,0.5837882416497916
1772568117016735000,0.45773486328125,1.0026163688540457,0.4454897049628198,0.6705903998553753
1772568117026807000,0.46780712890625,0.8959159895449876,0.48293929178267714,0.40594427837487307
1772568117036879000,0.477879150390625,0.779891317051649,0.5803907812312245,0.1031454633064568
1772568117046950100,0.4879501953125,0.9251303935915232,0.8933018615238368,0.37700847207400945
1772568117057022200,0.498022216796875,0.5554664755940437,0.519781852620095,0.24542064853943882
1772568117067094000,0.508093994140625,0.3216454447597265,-0.24336086646541952,0.42432350975014266
1772568117077165000,0.5181650390625,0.3630155660241842,-0.5869779045365751,0.4621430989261716
1772568117087237000,0.528237060546875,0.4496551540791988,-0.6221309048518538,0.6610092093005776
1772568117097309200,0.53830908203125,0.6660358052909374,-0.19303046302348373,0.9847394244451075
1772568117107380200,0.548380126953125,0.8402110534578562,0.1159990996606648,0.9966590678848326
1772568117117452000,0.5584521484375,0.688267510843277,0.04034355469569564,0.8905011979546398
1772568117127524000,0.568524169921875,0.24229309110343455,-0.17608794992044566,0.6504256367702037
1772568117137596200,0.57859619140625,-0.13092179737389087,-0.29204715596213937,0.8128869932025671
1772568117147667200,0.588667236328125,-0.18287585649490357,-0.4689113509520888,0.9273020385421812
1772568117157739300,0.5987392578125,-0.11330547666251659,-0.7078843577221036,0.5156405150316655
1772568117167811000,0.60881103515625,-0.02004851629436016,-0.7111543193034827,0.08315773728862404
1772568117177882000,0.618882080078125,0.030835867768526076,-0.7702651183113456,-0.16862696639001368
1772568117187954200,0.6289541015625,-0.034819968968629836,-0.99572660934031,-0.4503755773082375
1772568117198026200,0.639026123046875,-0.27783786721527576,-1.1584279850736259,-0.625440029399842
1772568117208097300,0.64909716796875,-0.8672083659768104,-1.286155808711797,-0.5956924683246761
1772568117218169000,0.659169189453125,-0.7096241871267557,-1.3188516251333058,-0.3859672564141452
1772568117228241200,0.6692412109375,-0.6208195299923419,-0.9921505044192075,-0.2283401152051985
1772568117238312200,0.679312255859375,-0.49786418145298955,-0.590055412285775,-0.07512779476381838
1772568117248384300,0.68938427734375,-0.6273509775876999,-0.402062651168555,0.011221358977258204
1772568117258456300,0.699456298828125,-0.603928016424179,-0.32276370819993316,0.09858129719607532
1772568117268527000,0.709527099609375,-0.5819032316207885,-0.30108181855008004,0.16140344487726688
1772568117278599000,0.719598876953125,-0.8252829489171505,-0.3489121488045901,0.29796171376816927
1772568117288671000,0.7296708984375,-1.14707160153985,-0.368409534022212,0.4828804012022912
1772568117298743300,0.739743408203125,-1.3069517823725938,-0.27460809151381255,0.49831587074324485
1772568117308814000,0.74981396484375,-0.8966261836409568,-0.11820282025001942,0.2734011999420822
1772568117318886100,0.75988623046875,-0.7959194917887449,0.00759717713072896,0.10226400429680943
1772568117328958000,0.7699580078125,-0.914457023885846,-0.02765826064571738,0.10126593317016959
1772568117339029000,0.780029052734375,-0.8432178340584039,-0.15830182560011744,0.20499927936717866
1772568117349101000,0.79010107421875,-0.6556582036614418,-0.2686293093651533,0.2636282862074673
1772568117359171600,0.800171630859375,-0.45717853532135483,-0.22452757117971778,0.18187135562747717
1772568117369242600,0.81024267578125,-0.2372591885894537,-0.004824351416528224,0.05308452445566654
1772568117379314700,0.820314697265625,-0.14579261876940727,0.23416502196639774,-0.10612769398763776
1772568117389386800,0.83038671875,0.023283844953775404,0.3174661132484674,-0.21847250892445444
1772568117399457800,0.840457763671875,0.18063479956984518,0.21365502564013003,-0.263206407533586
1772568117409529600,0.850529541015625,0.19855390262007713,0.015422756189852952,-0.202243112526834
1772568117419601700,0.8606015625,0.2817044795155525,-0.25355901987478136,-0.15426029512435196
1772568117429673700,0.870673828125,0.3321113091945648,-0.3940896264627576,-0.1306802437029779
1772568117439744800,0.880744873046875,0.3854489316284656,-0.33346506189107894,-0.19963366068080066
1772568117449816600,0.890816650390625,0.37425475291907784,-0.03467924532368779,-0.4126777148157358
1772568117459888600,0.900888671875,0.2276736141204834,0.3364461235284805,-0.42474589988067746
1772568117469959700,0.910959716796875,0.17189619731903075,0.4378270613804459,0.023998569094389674
1772568117480031700,0.92103173828125,0.21059154641628264,0.41626814052313565,0.5394379355307668
1772568117490103800,0.931103759765625,1.0513193172246218,0.2647029297016561,0.9994464335810392
1772568117500174600,0.941174560546875,0.3994102369636297,0.32448169109895825,0.8024199597239494
1772568117510246400,0.951246337890625,0.4110404690027237,0.49528015630915756,0.3076468761540949
1772568117520318700,0.961318603515625,0.6571393821299075,0.6926957025490701,-0.106589758541435
1772568117530389500,0.971389404296875,0.4496387874662876,0.9509116083189845,-0.33660058343783017
1772568117540461600,0.981461669921875,0.28243513187766073,1.0928852533221245,-0.02981361204870045
1772568117550533600,0.99153369140625,0.22254677262604236,0.8779555315710603,0.5321339691929519
1772568117560604700,1.001604736328125,-0.13249649934470653,0.6982431075431406,0.8838463431753217
1772568117570676500,1.011676513671875,0.0939554640263319,0.4953444537170231,0.8563954416699707
1772568117580748500,1.02174853515625,0.3938531873583793,0.2832737746588886,0.6014611879192292
1772568117590819600,1.031819580078125,0.5232692563444375,0.27336861284673214,0.37423349093534053
1772568117600891600,1.0418916015625,0.6918371860235929,0.4275722093477845,0.393985800762102
1772568117610963500,1.05196337890625,0.04614332701563835,0.41134339747205373,0.8526595430772751
1772568117621035500,1.062035400390625,-0.2934071922689676,0.26198680261075497,1.2402267089687287
1772568117631106600,1.0721064453125,0.2757441098064184,0.3778991007708013,1.1177621396210045
1772568117641178600,1.0821787109375,0.6349415788471698,0.17757789621725678,1.4114659036837518
1772568117651250700,1.092250732421875,0.4039338518679142,-0.13237594170495867,1.2066967798106372
1772568117661321700,1.10232177734375,0.265431390106678,-0.3795233409717679,0.9184148216009139
1772568117671393500,1.1123935546875,0.3287468011975288,-0.39432665008902545,1.1142361574519426
1772568117681465600,1.122465576171875,0.4379267223626375,-0.12691285399347543,1.3138175764888524
1772568117691536600,1.13253662109375,0.5566308431982994,0.00868380332365632,1.1278617280267178
1772568117701608700,1.142608642578125,0.4576718717962503,-0.11871902614384888,1.0124477347776293
1772568117711680800,1.1526806640625,0.372439812451601,-0.264135212816298,0.9457240496132522
1772568117721751800,1.162751708984375,0.20271979012787342,-0.337644393402338,0.7264077833410352
1772568117731823600,1.17282373046875,-0.019517185896635054,-0.4525255949489772,0.17775522554554044
1772568117741895700,1.182895751953125,-0.19698679943382738,-0.6994426925912499,-0.4322715096125379
1772568117751966700,1.192966796875,-0.3995008378565311,-0.8366330488406121,-1.161606395914033
1772568117762038800,1.203038818359375,-0.3317769626736641,-0.852129600919038,-1.7204012122131882
1772568117772110600,1.213110595703125,0.07248714406192303,-1.0591760220743716,-2.151829366336763
1772568117782181600,1.223181640625,0.3097697135269642,-1.5591573418118059,-2.504906306670606
1772568117792253700,1.233253662109375,0.23903028991520403,-1.6502729062370955,-2.6504949273005125
1772568117802325800,1.24332568359375,-0.08220306691229343,-1.2793293236926198,-2.5247771283105016
1772568117812397800,1.253397705078125,-0.7126900044381618,-0.7726970216333866,-2.2979756208494306
1772568117822468600,1.263468505859375,-0.6505284395575524,-0.34742081426829097,-1.9103820784077048
1772568117832540400,1.27354052734375,-0.5288642998725176,0.21119396928884088,-1.5339393139250577
1772568117842612700,1.28361279296875,-0.18244857099354267,0.7735352990884333,-1.195800488069281
1772568117852683500,1.29368359375,0.46044659720659253,1.1396794454619288,-0.5003173102261498
1772568117862755600,1.303755615234375,-0.13414075942039488,0.7898002782560885,0.36746724820341914
1772568117872827600,1.31382763671875,-0.5749725555747747,-0.075697776671499,0.6681612730123102
1772568117882898700,1.323898681640625,-0.28235563690066334,-0.26934783289805053,0.6084338034108281
1772568117892970500,1.333970458984375,-0.14146598774194716,-0.15826872704811393,0.7028533778175711
1772568117903042600,1.34404248046875,-0.045127427971363064,-0.3622627018302679,0.8417512686371803
1772568117913113600,1.354113525390625,0.19841478641033172,-0.6675253862615674,0.7735011045578867
1772568117923185700,1.364185546875,0.8635971897423267,-0.39708961199633774,0.8474613168470561
1772568117933257500,1.374257568359375,0.4447369868993759,-0.2541195033017546,0.9116343676805496
1772568117943328500,1.38432861328125,0.8509247551739215,-0.18657595312185585,0.8937473402690141
1772568117953400600,1.394400634765625,-0.27852994113266466,-0.22539171372838318,0.9588343641422689
1772568117963472600,1.40447265625,-1.0590215621650219,-0.9328272317044436,0.8573192054513842
1772568117973543700,1.414543701171875,0.2744470557332039,-0.09500493654664605,0.6979574224695563
1772568117983615700,1.42461572265625,0.059738721647858616,0.5875883280524984,0.26814335247911514
1772568117993687600,1.4346875,0.6650748513042927,0.5943978254042566,-0.022726284136250614
1772568118003758600,1.444758544921875,0.26182956622242926,0.07953278825711459,-0.2658765765909105
1772568118013830700,1.45483056640625,0.08812368913292884,0.29135237863101066,-0.35669498470053074
1772568118023902700,1.46490283203125,-0.9919570276737213,-0.29941498131640254,-0.5232217639409006
1772568118033974500,1.474974609375,-0.018598317486047743,0.10433624399360268,-0.5837772087991238
1772568118044045600,1.485045654296875,-0.11881342642903327,0.5344365470468998,-0.4591425288707018
1772568118054117600,1.49511767578125,-0.46283495364785193,0.09098222036920488,-0.44135304354950783
1772568118064189700,1.505189697265625,0.5839882212013006,0.5067635272234678,-0.305083309276402
1772568118074260700,1.5152607421875,-1.218065292173624,0.2556029102599248,-0.3499995787151158
1772568118084332800,1.525332763671875,-1.0231325026601552,-0.30055308196824043,-0.19393442612588405
1772568118094404600,1.535404541015625,-0.6797346602976322,0.5888751164600253,-0.22777137540653347
1772568118104475600,1.5454755859375,-2.0228461358100174,0.0671092138832435,-0.4474181888073683
1772568118114547700,1.555547607421875,-0.8394839082270861,0.10901143273040652,-0.3673948040217161
1772568118124619800,1.565619873046875,-1.1181985582768916,-0.08111907106786966,-0.3538248360916972
1772568118134690600,1.575690673828125,-1.0030033223450183,-0.3894094327572733,-0.3081853669449687
1772568118144762600,1.5857626953125,-0.839297445744276,-0.4258825757604092,-0.09274974149838089
1772568118154834700,1.595834716796875,-0.949933410936594,-0.36669447373263536,0.11773586032539606
1772568118164905500,1.605905517578125,-0.2565980953097343,-0.047758726323023436,0.25736148089766503
1772568118174977500,1.6159775390625,1.1722276701062917,0.2459983388295397,0.2945848577462137
1772568118185049600,1.626049560546875,-0.6642512599617243,-0.4767306464008987,0.2099916808269918
1772568118195120600,1.63612060546875,1.0852379534393548,-0.6470688006229698,0.24556451398953794
1772568118205192400,1.6461923828125,1.7296645689904688,-0.09180073367785661,0.3541461770005524
1772568118215264500,1.656264404296875,-1.5008230801343918,-0.20996004357971249,-0.06190934368520975
1772568118225335600,1.66633544921875,-0.1365238551646471,-0.041112931632995606,-0.22296529029905796
1772568118235407600,1.67640771484375,0.7248036360800266,0.21527108253464103,-0.05265928478091955
1772568118245479700,1.686479736328125,0.7877502138584852,0.049238735747709865,-0.014569792622327804
1772568118255550700,1.69655078125,-0.2952326541304588,0.07292798316460103,-0.3892975698806345
1772568118265622500,1.70662255859375,0.4736550383478403,0.16785897769220173,-0.5447353843517602
1772568118275694600,1.716694580078125,-0.2557137136906385,0.1622084411172196,-0.49274523100405926
1772568118285765600,1.726765625,-0.3789034555077553,-0.08476805856209248,-0.1308971013240516
1772568118295837700,1.736837646484375,-0.4373913003116846,-0.09641922379136085,0.05429711511582136
1772568118305909800,1.74690966796875,-0.17523147922158241,-0.16520349474735557,0.1968687260121107
1772568118315980800,1.756980712890625,0.24900164883136747,-0.1572187796037644,0.3999982659846544
1772568118326052600,1.767052490234375,0.8729764279842376,-0.16275478642098604,0.5529289199404418
1772568118336124700,1.777124755859375,0.25089433071017264,-0.20643756854198872,0.6067888126827776
1772568118346196700,1.78719677734375,0.48034489137530323,-0.03457103570885956,0.21581658758819103
1772568118356272600,1.797272705078125,1.2391694550007581,-0.18403342903219164,0.27690190153941513
1772568118366344700,1.8073447265625,0.04705985733866691,-0.16368761029168963,0.0838601864695549
1772568118376416800,1.817416748046875,1.4284458261877298,-0.3785528154391795,0.20921499736607074
1772568118386487800,1.82748779296875,0.37023791849315163,-0.40352110634855926,0.0856464853644371
1772568118396559600,1.8375595703125,0.9199351630359888,-0.27854996100738644,-0.15955810927152633
1772568118406631700,1.847631591796875,1.3648060054481028,-0.1613205888994038,-0.06485211913883686
1772568118416702700,1.85770263671875,0.2858674444139004,-0.19568689581640064,-0.2460746554687619
1772568118426774800,1.86777490234375,0.8660703018575906,-0.40208186732567847,-0.28190935443788767
1772568118436846800,1.877846923828125,-0.6444675320833921,0.15969722548127174,-0.3961693553462624
1772568118446918000,1.88791796875,-0.7278869890481233,0.10627608948238193,-0.12310995457917451
1772568118456989700,1.89798974609375,-0.7152268294394016,-0.10748035070560871,0.12274462839812039
1772568118467061800,1.908061767578125,-1.0272352618038654,-0.031001287463307377,0.07102554707676172
1772568118477132800,1.9181328125,-0.6623287674665451,0.06404591732248663,-0.22217297087758778
1772568118487204900,1.928204833984375,-0.3876069864451885,0.04019165206961334,-0.6400456239879131
1772568118497276700,1.938276611328125,-0.1040548332363367,-0.10181574907265603,-0.8230822240024804
1772568118507347700,1.94834765625,-0.01613280415534973,-0.11598280611298978,-0.586790419140458
1772568118517419800,1.958419677734375,-0.23691958137154578,0.1367500651359558,-0.36896073816418645
1772568118527491800,1.968491943359375,-0.7710358104228973,0.08102657047882676,-0.33581659345328807
1772568118537563000,1.97856298828125,-0.11900339604318141,0.12688574679084122,-0.08940028494000435
1772568118547635000,1.988635009765625,-0.8129787631392479,0.18243571151196955,0.09471797283142805
1772568118557706800,1.998706787109375,-1.009869116461277,0.05890435318294912,0.08579670749008655
1772568118567777800,2.00877783203125,-1.2096306413054465,0.01823474487066269,-0.0315887319624424
1772568118577849900,2.018849853515625,-1.3993565098255871,0.0045980683799833055,-0.18620967709273098
1772568118587922000,2.028921875,-1.5175556037485598,0.12651055680289863,-0.21373832000941037
1772568118597992700,2.03899267578125,-1.9552409185707569,0.054950537523254746,-0.2652782453715801
1772568118608064800,2.049064697265625,-1.4796224711954593,-0.011166998441517353,-0.03055325143486261
1772568118618136600,2.059136474609375,-1.7043629544734953,0.3769870639597997,0.2830386507287621
1772568118628207600,2.06920751953125,-1.6039619675695895,0.5075102174049243,0.34115766222029925
1772568118638279700,2.07927978515625,-1.4175585214704274,0.4644715784063562,-0.09750731128901242
1772568118648351700,2.089351806640625,-1.44573423011899,0.5333325313277543,-0.3713379886895418
1772568118658422800,2.0994228515625,-1.1978794132351875,1.0019680610131472,-0.21037030488103628
1772568118668494600,2.10949462890625,-1.084510223686695,0.5512655898381025,0.13997136527001858
1772568118678566700,2.119566650390625,0.48274552277624605,1.2472162755951284,0.6391515977576374
1772568118688638700,2.129638671875,0.16572364616394042,0.669834466921538,0.8715092780411243
1772568118698709800,2.139709716796875,-0.0002437456279993057,-0.3378486838027835,1.0022235701441764
1772568118708781800,2.14978173828125,0.18443243828713893,-0.0888288417275995,0.981726141038537
1772568118718853600,2.159853515625,0.687750793492794,0.37995150325596333,0.7818783992156386
1772568118728924700,2.169924560546875,1.322818629068136,0.38242373858839274,0.24091975692361592
1772568118738996700,2.179996826171875,1.5163865599691866,0.5433238370534033,0.058301236190646887
1772568118749068800,2.19006884765625,2.0634078633010384,0.7817279578942805,-0.046288872966170305
1772568118759139800,2.200139892578125,2.332850242614746,0.5307000639323145,-0.04269099460467696
1772568118769211600,2.210211669921875,1.5198358236402272,0.49008989418968557,-0.015472732811421155
1772568118779283700,2.22028369140625,1.4034271202653645,0.042279710390046236,0.1801994768925011
1772568118789354800,2.230354736328125,1.0548433996975422,-0.27951537197344,0.43961613675430417
1772568118799426800,2.2404267578125,0.9031167147040366,-0.4629753119666129,0.45605347681418057
1772568118809499000,2.250498779296875,0.7948252668112515,-0.8257350765988231,0.30550957186445593
1772568118819570000,2.26056982421875,0.8907213435113429,-1.1189494497094303,0.0023404256463050842
1772568118829641700,2.270641845703125,0.9898486572176217,-1.0309293670814483,-0.2567999014921486
1772568118839713800,2.2807138671875,0.9027712622672319,-0.9800002670940011,-0.3720126730807125
1772568118849784800,2.290784912109375,0.6485895804494619,-1.1754956589262933,-0.31277371764853595
1772568118859857000,2.30085693359375,0.28361177444159985,-1.1298342702087014,0.008681319105625153
1772568118869929000,2.310928955078125,-0.11824819376170635,-1.123810333744064,0.38380101829096674
1772568118879999700,2.320999755859375,-0.7570832729160786,-1.0886286918561905,0.7062329372532665
1772568118890071800,2.33107177734375,-0.7883908498495816,-0.7876775870136916,0.7049927279338241
1772568118900143900,2.341143798828125,-0.8652426188617944,-0.5867195823939517,0.5670550604484975
1772568118910216000,2.3512158203125,-0.5526847359210253,-0.4772382305968553,0.45571927642375226
1772568118920286700,2.36128662109375,-0.4264537267118692,-0.34078086479716,0.33499417115449903
1772568118930358500,2.371358642578125,-0.5923474687457084,-0.30906057887692,0.39751492473632094
1772568118940430600,2.3814306640625,-0.8618149825006723,-0.13411763427313417,0.4953355397582054
1772568118950501600,2.391501708984375,-1.2239876679599284,-0.021790026199445128,0.5492842798277735
1772568118960573700,2.40157373046875,-1.4327753798246383,-0.16088606993965804,0.5571922764733434
1772568118970645800,2.411645751953125,-1.0371791481912136,-0.1788383446071297,0.23244272821843623
1772568118980716800,2.421716796875,-0.7033090126305818,-0.246846845417656,-0.18594737289473412
1772568118990788600,2.43178857421875,-0.6343418593883514,-0.4631478555219248,-0.4286592739321291
1772568119000860700,2.441860595703125,-0.7053735439449549,-0.6624981326840818,-0.2919819817714393
1772568119010931700,2.451931640625,-0.7315238842457532,-0.5137841465752572,-0.17970102585107087
1772568119021003800,2.462003662109375,-0.777161015304923,-0.3812125361677259,-0.029627076500654218
1772568119031075800,2.472075927734375,-0.8574521111160516,-0.14077307357434182,0.1250156420700252
1772568119041147600,2.482147705078125,-0.7707564089596272,0.018837240808457136,0.15792568576410412
1772568119051218700,2.49221875,-0.6368991426557302,0.1213782719483599,0.0430463839136064
1772568119061290800,2.502290771484375,-0.4953893157720565,0.28518896063044663,-0.01014408513456583
1772568119071362800,2.51236279296875,0.08137889104783534,0.10712550938595086,-0.07163176934160291
1772568119081433900,2.522433837890625,0.8331868539094924,-0.1959392266096547,-0.07669891653805971
1772568119091505700,2.532505615234375,0.8873387153357267,0.062073850064538416,-0.23886691604703664
1772568119101577700,2.54257763671875,0.898479702553153,0.1641429893763736,-0.3791523157022893
1772568119111648800,2.552648681640625,0.9943336936771869,0.08875559382829815,-0.08765526790358126
1772568119121720800,2.562720947265625,0.737746119761467,0.1989156120719388,-0.157089015744254
1772568119131793000,2.57279296875,0.49436055724620814,-0.20184264196716248,0.25680892504882064
1772568119141864000,2.582864013671875,0.31138240942060946,-0.16884294722825288,0.30899664679523553
1772568119151935700,2.592935791015625,0.7694803976744413,0.17302242486998437,-0.00040964024681597945
1772568119162007800,2.6030078125,0.8948112431734799,0.13277250327449291,-0.08632759949639439
1772568119172079900,2.613079833984375,0.7187959200978279,0.071978025496006,-0.03530830047484487
1772568119182151000,2.62315087890625,0.626992665669322,0.059198513823933895,0.0321983517607674
1772568119192222700,2.63322265625,0.5443272419422864,-0.053217466652952135,0.10692545676920562
1772568119202294800,2.643294677734375,0.44887364831268783,-0.07593432537373154,0.1798372377176769
1772568119212365800,2.65336572265625,0.3589601531535387,-0.012993994672968983,0.18921265830099582
1772568119222438000,2.66343798828125,0.3014046207636595,0.03318922596164048,0.09364981387695297
1772568119232510000,2.673510009765625,0.280868028691411,0.017852504087425766,0.03325787075106054
1772568119242581800,2.683581787109375,0.24807459711432456,-0.07510755569338798,-0.014276691427268087
1772568119252652500,2.693652587890625,0.16437983033955098,-0.05982921294290572,-0.07882241149805486
1772568119262724600,2.703724609375,0.09954641590118407,-0.0790117235250771,-0.08345701249614357
1772568119272797000,2.713796875,-0.07611936308443545,-0.10061890397090464,-0.04641414331365377
1772568119282867700,2.72386767578125,-0.3904384104788303,-0.031320180686749514,-0.004629596029408276
1772568119292939800,2.733939697265625,-0.6204144563227891,-0.0035723055288195606,0.09889869258217512
1772568119303011600,2.744011474609375,-0.7261001056313514,0.041416736885160205,0.17504812201131134
1772568119313082600,2.75408251953125,-0.6756424225479364,0.20627525411974637,0.16322386523745952
1772568119323154700,2.76415478515625,-0.419443555688858,0.15782858206517994,0.024134945357777177
1772568119333226800,2.774226806640625,-0.13255612057745456,0.023930508826859292,-0.11623173937276005
1772568119343298600,2.784298583984375,0.02766366747319698,-0.027763620716333388,-0.2555990012697875
1772568119353369600,2.79436962890625,0.04881926822662353,-0.1174789629548788,-0.3632429085066542
1772568119363437000,2.80443701171875,-0.15454583406746386,-0.13183094810806215,-0.3359786521472037
1772568119373508900,2.8145087890625,-0.34807284843623637,-0.17106084247343242,-0.21889427800048142
1772568119383580000,2.824579833984375,-0.37312136497497556,-0.237168843424879,-0.12329111983235924
1772568119393652000,2.83465185546875,-0.3366460300147533,-0.23815573557037858,-0.10395736421123146
1772568119403724000,2.84472412109375,-0.27907588457763194,-0.21576138680223375,-0.07583179658101871
1772568119413795800,2.8547958984375,-0.09581833528876305,-0.14711999491564928,-0.08782983901919797
1772568119423867000,2.864866943359375,0.048752048209309576,-0.03633632834833115,-0.09375656218705698
1772568119433939000,2.87493896484375,0.15051263302862644,-0.07571991543807088,-0.06643005424635484
1772568119444011000,2.885010986328125,0.12088964818120002,-0.01787851531151682,-0.06562732302872464
1772568119454082000,2.89508203125,0.017099018839001653,0.026196590595319865,-0.04915567884044721
1772568119464154000,2.905154052734375,-0.13925474143326283,0.10219532297477125,0.046815143596287814
1772568119474226000,2.915225830078125,-0.2975362548977136,0.28581206096485257,0.08379630918679759
1772568119484297000,2.925296875,-0.2907318355798721,0.36127606541309504,0.09191727272961288
1772568119494369000,2.935369140625,-0.21742811443805693,0.17698314519450067,0.15060243020392952
1772568119504441000,2.945441162109375,0.09956687416732311,-0.12531959345266222,0.13136734918430445
1772568119514513000,2.955512939453125,0.4646089775830507,-0.22181714317724108,0.10692317348057404
1772568119524584000,2.965583984375,0.5271230091631413,-0.19619594131708143,0.07174933130666614
1772568119534656000,2.975656005859375,0.542591796451807,-0.08617635445743799,-0.08953474324094131
1772568119544728000,2.98572802734375,0.49684068362414835,0.0028381460353732106,-0.18134786147633566
1772568119554799000,2.995799072265625,0.3289215732425451,0.3440204312402755,-0.18722420616382732
1772568119564871200,3.00587109375,0.2616138776451349,0.3532852493222803,-0.11641918823625892
1772568119574943000,3.01594287109375,0.21257249110043047,-0.28624628766365345,0.13492922465065493
1772568119585015000,3.02601513671875,0.07426935130357742,-0.13703772297091782,-0.14390452173417434
1772568119595086000,3.036086181640625,0.4414852916270494,0.2199647933088243,-0.027972130634170023
1772568119605158100,3.046158203125,0.23730068964362144,-0.10863741178624331,-0.08553099662545137
1772568119615230200,3.056230224609375,0.3293617182254791,-0.13923654818944634,-0.24801682077879084
1772568119625301200,3.06630126953125,0.5723883843004703,0.02725892259720713,-0.02874083171803504
1772568119635373000,3.076373046875,0.08853636158704757,-0.019448650705069303,-0.1075188104193192
1772568119645445000,3.086445068359375,-0.038410686936974525,-0.3200374250411987,-0.1613772509900853
1772568119655517200,3.09651708984375,-0.2959381720513105,-0.1681012985480949,-0.17568530566999688
1772568119665588000,3.106587890625,-0.13075403959155082,0.3769215975081548,0.15761482971664517
1772568119675659800,3.11665966796875,-0.37840135120451446,-0.3899146058004349,0.10199610147508792
1772568119685731800,3.12673193359375,-0.5054606279313564,-0.47027080273702737,0.0912783446384128
1772568119695803000,3.136802978515625,-0.5882125608980655,-0.19876582833770662,0.1650119176980108
1772568119705875000,3.146875,-0.5188444256395102,-0.2551648841688409,0.1609884343355894
1772568119715947000,3.156947021484375,-0.4146855475068092,-0.30760961288362737,0.14083053938262163
1772568119726018800,3.167018798828125,-0.2130418621778488,-0.2580596922948956,0.17282969704316928
1772568119736089900,3.17708984375,-0.15639000062942504,-0.30773751357961443,0.2856551168374717
1772568119746162000,3.187161865234375,-0.5125456177562475,-0.11721410147361457,0.3039252800813876
1772568119756234000,3.19723388671875,-0.8348504032075404,-0.01637596526145935,0.3344910439379513
1772568119766305000,3.207304931640625,-0.993475615543127,0.4833757469711825,-0.095992130086245
1772568119776377000,3.217377197265625,-0.24413316601216792,0.45762138371802863,-0.17574819657206533
1772568119786449000,3.227448974609375,0.051500470134615894,-0.3283510068129748,0.12234294312889687
1772568119796520000,3.23752001953125,0.036225159591436386,-0.46411366834677753,0.3137031074531376
1772568119806592000,3.247592041015625,0.018312486281991003,-0.4272866704046726,0.4022855732042342
1772568119816664000,3.2576640625,0.08358663022518158,-0.40108569589518006,0.36037761873602864
1772568119826735900,3.26773583984375,-0.13937515294253824,-0.3297119199026376,0.4597152141921222
1772568119836807000,3.277806884765625,-0.02540682845711708,-0.24314452030099926,0.5762416256625205
1772568119846879000,3.28787890625,0.509027380502224,-0.6373004899982363,0.7677777584750205
1772568119856951000,3.297950927734375,0.38867140080630774,-0.3136353759791702,0.37437326473221183
1772568119867022000,3.30802197265625,0.6034551382154226,0.5099072320766747,-0.138757477701921
1772568119877094100,3.31809423828125,0.9285182824641466,0.24674385996721684,-0.2730210415180772
1772568119887166000,3.328166015625,0.41413375884294507,-0.16697284250743685,-0.45970220858007665
1772568119897238000,3.338238037109375,0.32041093452870845,-0.1914572223573923,-0.45660351191237564
1772568119907309000,3.34830908203125,0.40475802773237224,-0.001552197878062725,-0.23405615476444364
1772568119917381000,3.358381103515625,0.14970949995219707,0.28952501707337797,-0.27091544754095376
1772568119927453000,3.368452880859375,0.6080576635748147,-0.26468634389303625,0.05855835275687277
1772568119937524000,3.37852392578125,0.4138911822587251,-0.6210695592306554,0.4147786691503599
1772568119947596000,3.388595947265625,0.12689210346639154,-0.9448124146610498,0.6913100203443319
1772568119957668000,3.398668212890625,-0.09291559958457946,-1.102509040909633,0.7571934552922844
1772568119967740200,3.408740234375,-0.7009726786375046,-0.4385531106326729,0.32247546584308145
1772568119977811200,3.418811279296875,-0.6880693579226732,0.19974632727503774,0.008513689187448471
1772568119987883000,3.428883056640625,-0.5756535235762595,0.007671703671663999,-0.05253796452276874
1772568119997955000,3.438955078125,-0.4070645511090755,-0.1396799080427736,0.05415006676136981
1772568120008026000,3.449026123046875,-0.19047931723594663,-0.055934653189778326,0.05162485913268756
1772568120018098200,3.45909814453125,0.03380406992435455,-0.07549019833542406,0.05417397735991981
1772568120028170000,3.469169921875,-0.14457681323885918,-0.025090455984324217,0.12015673992992378
1772568120038242000,3.479241943359375,-0.4019599214464426,0.09019771892800926,0.17998229047786443
1772568120048312800,3.489312744140625,-0.24951135191917417,0.11422061874605714,0.16517163830436765
1772568120058385000,3.499385009765625,-0.13921967011988162,0.14897753241583703,0.06979018289579544
1772568120068457000,3.50945703125,0.13968787215352058,0.2802564726643264,-0.12968072953792287
1772568120078528000,3.519528076171875,0.3160299429655075,0.18747180598303675,-0.24506566108930855
1772568120088599800,3.529599853515625,0.2722901699602604,-0.1430000654414296,-0.15132884478233755
1772568120098671900,3.539671875,-0.0280026901692152,-0.1274345397800207,-0.08591000427198596
1772568120108744000,3.549743896484375,-0.08017711404263973,-0.08218165879808366,-0.028448853900982066
1772568120118815000,3.55981494140625,-0.1181412262558937,-0.20856135576292872,0.05439957084329799
1772568120128887000,3.569886962890625,-0.06200023683905601,-0.17207498795203863,0.14574527249634264
1772568120138958800,3.579958740234375,0.03965922569334507,0.010914046593755482,0.07539363349261693
1772568120149030000,3.59002978515625,0.05391922171413898,0.04341594787836075,0.006339888812322169
1772568120159102000,3.60010205078125,0.10490940423905849,0.10183401538170873,0.0213837652198039
1772568120169174000,3.610174072265625,0.21938684729039667,-0.004864537296444178,-0.009262361263437196
1772568120179245800,3.620245849609375,0.2917939118534326,-0.3737357705462724,0.031892665078770366
1772568120189316900,3.63031689453125,0.24159517196714878,-0.17307897736281155,0.009427689626673235
1772568120199389000,3.640388916015625,0.2155991454452276,0.06808861684203148,-0.05590597508456557
1772568120209461000,3.6504609375,0.1348152976810932,-0.07783632307015359,-0.083497015712969
1772568120219532000,3.660531982421875,-0.23751871630847451,-0.17867738189175725,-0.012739380591083318
1772568120229604000,3.67060400390625,-0.4585802188128233,-0.11738617010489105,0.09359270426169969
1772568120239676000,3.680676025390625,-0.42634851277172564,-0.0655396630115807,0.20531777073182164
1772568120249748000,3.690748046875,-0.39274084220230576,-0.07903912298865616,0.1777527778601274
1772568120259819000,3.700819091796875,-0.24454233133494852,0.01749371724501252,0.1342025269444566
1772568120269891000,3.71089111328125,-0.11898878299593925,0.09620740767158567,0.05602257806840352
1772568120279963100,3.720963134765625,0.09626783262193202,0.04384783648960292,-0.01285737181440927
1772568120290034200,3.7310341796875,0.11203180346488952,-0.04801065525747835,-0.044650805169250816
1772568120300106000,3.74110595703125,-0.017576573222875595,-0.1467266116838902,-0.0042826457552611824
1772568120310178000,3.751177978515625,-0.09926467635035514,-0.18138342598006127,0.06445567630031146
1772568120320250000,3.76125,-0.07472527837753296,-0.09003544103838503,0.010556465327739715
1772568120330321200,3.771321044921875,0.059464580881595605,-0.15209712574109435,-0.07300819052765145
1772568120340393000,3.78139306640625,0.07607552394270896,-0.18364662167169152,-0.13000895684529096
1772568120350465000,3.791465087890625,0.0491606290102005,-0.10372567434720695,-0.14448927195272407
1772568120360537000,3.801537109375,0.023251111727952956,0.0012162439219653605,-0.14871976739563977
1772568120370609200,3.811609130859375,-0.033955461093783376,0.05128105523027479,-0.08205846167667769
1772568120380681000,3.821680908203125,-0.120947515848279,0.1052118943169713,-0.01929812718532048
1772568120390753000,3.8317529296875,-0.18560206658840178,0.13900368928164242,0.03969896404868923
1772568120400824000,3.841823974609375,-0.22413316503465175,0.12932802537642418,0.0650400794589892
1772568120410896100,3.851896240234375,-0.29941841538250447,0.06962305986769497,0.04289660931252874
1772568120420968000,3.861968017578125,-0.23709844506978986,0.03829042155817151,-0.0639631800756324
1772568120431040000,3.8720400390625,-0.0867833804398775,0.0019699118334800003,-0.14413080477071924
1772568120441111000,3.882111083984375,0.06992752270698548,-0.03007730448618531,-0.2152220374948345
1772568120451183000,3.89218310546875,0.15796645616590976,-0.027406623972207306,-0.2605324390839785
1772568120461255200,3.902255126953125,0.16380992149710655,-0.03912029651105404,-0.21059792135814204
1772568120471326200,3.912326171875,0.04420329886376857,-0.004819602176174521,-0.1027188353922218
1772568120481398000,3.92239794921875,-0.058529345858097076,-0.00165207805596292,-0.006839307968132198
1772568120491470000,3.932469970703125,-0.10455459945201873,0.007346490305289626,0.05020496869767085
1772568120501542100,3.942542236328125,-0.07521861485242844,0.015266981106251477,0.026624990341532973
1772568120511613200,3.95261328125,-0.03845043442547321,0.012697422879189253,-0.041774939205683766
1772568120521685200,3.962685302734375,-0.04540624491274357,-0.07519063086695969,-0.054763727980572725
1772568120531757000,3.972757080078125,-0.03879647138416767,-0.15390841294676064,-0.06932946548229083
1772568120541829000,3.9828291015625,-0.04330722680687904,-0.11770159272961318,-0.08891193516748025
1772568120551900200,3.992900146484375,-0.12014905894696712,-0.05571830702535808,-0.08027290256731212
1772568120561972200,4.00297216796875,-0.07291969026029109,-0.0511069407723844,-0.09135278898095711
1772568120572044000,4.0130439453125,-0.04006429936289787,-0.09866327639110385,-0.07077109739165753
1772568120582114800,4.02311474609375,-0.018690671944618223,-0.12237995980419218,-0.02637141743926331
1772568120592187000,4.033186767578125,0.029881928044557568,-0.14729776263535022,0.07836827452238648
1772568120602259200,4.04325927734375,0.07453238615393638,-0.1009169736020267,0.0952027424073778
1772568120612331300,4.053331298828125,0.12318565016388892,-0.06304229323789477,0.02999622034030035
1772568120622399000,4.06339892578125,0.12306523865461348,-0.06180274150557816,0.031012539509683846
1772568120632471000,4.073470947265625,0.1867991674184799,-0.10864493750557302,-0.007821560471132397
1772568120642543000,4.083543212890625,0.1784200461298227,-0.15708090550303458,-0.01579551675869152
1772568120652615200,4.093615234375,0.17015373756587504,-0.20093108008019625,0.06447214337792247
1772568120662686200,4.103686279296875,0.04153787904679775,-0.2428017712779343,0.14987996114827692
1772568120672758000,4.113758056640625,-0.021699206110835072,-0.19595088051483034,0.1848578788912855
1772568120682830000,4.123830078125,-0.10760638823807239,-0.07724800178818404,0.19793385275928302
1772568120692901000,4.133901123046875,-0.18406185140907763,-0.06475165443904697,0.20359783333772793
1772568120702973200,4.14397314453125,-0.15127601861655712,-0.057247708549723025,0.15625990797635167
1772568120713045200,4.154045166015625,-0.1064817681223154,-0.1286172467585653,0.12310363443624228
1772568120723117000,4.164116943359375,-0.06914426337480545,-0.1586412136223167,0.09063369919247925
1772568120733188000,4.17418798828125,0.013768413111567497,-0.10816928281784056,0.04417220960576087
1772568120743260200,4.18426025390625,-0.01796937193274498,-0.1386875360045582,0.09159279001560061
1772568120753332200,4.194332275390625,-0.02807809349298477,-0.11824505195654927,0.09462136232284829
1772568120763403000,4.204403076171875,-0.015731822139024732,-0.04836005321703851,0.04946039740806445
1772568120773474800,4.214474853515625,-0.05774667104780674,-0.05402319354526698,0.06834239067370071
1772568120783547100,4.224547119140625,-0.06855097365677357,-0.05422916444614529,0.04865642408141866
1772568120793619200,4.234619140625,-0.08960954377651215,-0.056327671095356344,0.043822702048346394
1772568120803690000,4.24468994140625,-0.15281798736155033,-0.08881576305031776,0.04786496317647397
1772568120813762000,4.254761962890625,-0.16267185737788675,-0.1379131906311959,0.08988644275544211
1772568120823833900,4.264833740234375,-0.10396540138721465,-0.09488558448329568,0.0784369741107337
1772568120833905000,4.27490478515625,-0.052014264875650404,-0.019606033223867416,0.04908440370252356
1772568120843977000,4.28497705078125,-0.02420505145192146,-0.03362403718233108,0.02760702364882454
1772568120854049000,4.295049072265625,-0.018013795596361157,-0.14334062250740826,0.010953264359291642
1772568120864121000,4.30512109375,-0.016761165186762808,-0.19240151747018097,-0.04378531091371551
1772568120874192000,4.31519189453125,-0.0614823504447937,-0.20149726259559392,-0.09522305454304442
1772568120884264000,4.325263916015625,-0.1243020869731903,-0.17885434589385985,-0.08715568435098975
1772568120894336000,4.3353359375,-0.22557985671162603,-0.11074731661230325,-0.031120548195112493
1772568120904408000,4.345407958984375,-0.23488193806409835,-0.05778145010024309,-0.02125732582854107
1772568120914479000,4.35547900390625,-0.19987667565643785,-0.04054061163775623,-0.03529854626581073
1772568120924551000,4.365551025390625,-0.15952771413326264,0.02663651638254523,-0.05066151682613417
1772568120934623000,4.375623046875,-0.15187866068482397,0.01797835895679891,0.01810236892895773
1772568120944694000,4.385694091796875,-0.17039631415009499,-0.04669087789580226,0.10382078701844438
1772568120954766000,4.39576611328125,-0.18717326142787932,-0.06844057208485901,0.11365920373732223
1772568120964838100,4.405838134765625,-0.16205051060914993,-0.08456694649942219,0.0991340722406283
1772568120974910000,4.415909912109375,-0.12207915022671222,-0.07979111039973795,0.03732526632044464
1772568120984981000,4.42598095703125,-0.11080489201843738,-0.07947459179647266,0.00040039749443531033
1772568120995053000,4.436052978515625,-0.11468144119083881,-0.07794460575021803,-0.029557043471746144
1772568121005125000,4.446125,-0.12625439008474348,-0.0820738875746727,0.022106015079747885
1772568121015196200,4.456196044921875,-0.05454232204854488,-0.10993848444744944,0.06599833003189415
1772568121025268000,4.46626806640625,-0.0014168810606002807,-0.05856894721612334,0.09116576024256647
1772568121035340000,4.476340087890625,0.042615152889490124,-0.02895882185027003,0.09922686509061604
1772568121045412000,4.486412109375,0.09194763133525848,-0.03806362706497311,0.11609718974027781
1772568121055483100,4.496483154296875,0.11685294001102446,-0.021058716250211,0.10744396421797572
1772568121065555200,4.50655517578125,0.15616145257055758,-0.03844057061858475,0.08171188586186617
1772568121075627000,4.516626953125,0.12800503314435482,-0.056491629485413426,0.06329911754317581
1772568121085698000,4.526697998046875,0.11700959187746048,-0.094602895084396,0.04583385920766741
1772568121095770000,4.53677001953125,0.08840776677131652,-0.10786825404465197,0.08818316423520445
1772568121105842200,4.54684228515625,0.08859072212278843,-0.05320544742159545,0.11756222079154104
1772568121115914000,4.5569140625,0.10184650953710078,-0.01042370579354465,0.08669025879632682
1772568121125985000,4.566985107421875,0.04721417111754417,-0.034764220193400974,0.10099917199276387
1772568121136057000,4.57705712890625,0.03481938444674015,-0.042836102163791655,0.06420877973400056
1772568121146129200,4.587129150390625,-0.016041618740558622,-0.11287497629076242,0.06534512682016938
1772568121156200000,4.597199951171875,-0.08311725914776324,-0.16878113403841852,0.07220924043599515
1772568121166272300,4.607272216796875,-0.18820844969451425,-0.17863295822814107,0.11197506830897182
1772568121176344000,4.617343994140625,-0.27329730117619033,-0.18503128096312282,0.1652887618780136
1772568121186416000,4.627416015625,-0.26516718621253965,-0.20258629994131624,0.2061808903671801
1772568121196487000,4.63748681640625,-0.1669879670113325,-0.17603351631946862,0.1760502482585609
1772568121206560300,4.647560302734375,-0.061596916735172265,-0.14625570623651146,0.14258162083365022
1772568121216632000,4.657632080078125,0.011249123767018317,-0.101109427434206,0.09744469438157975
1772568121226702800,4.667702880859375,0.0039221418797969814,-0.06640117521174252,0.033849626099132
1772568121236775200,4.677775146484375,-0.07702712557911873,-0.05502659843415022,0.006784289845265448
1772568121246847200,4.68784716796875,-0.15640987437367437,-0.0625637890059501,0.008606682966835796
1772568121256919000,4.6979189453125,-0.18963351406157017,-0.09403656643852591,0.0529229041531682
1772568121266989800,4.70798974609375,-0.10762217032909392,-0.04950681209936738,0.04152242574933916
1772568121277062000,4.718061767578125,-0.03288929316699505,-0.024152152220904825,0.009802468622662127
1772568121287134000,4.728134033203125,-0.041944121760129925,-0.10338212160654366,0.00906151406224817
1772568121297205000,4.738205078125,-0.03442249408364296,-0.11535371442921459,-0.0031679259790107607
1772568121307277000,4.748277099609375,-0.05488368283212185,-0.10805931963734328,-0.02904686545990407
1772568121317348900,4.758348876953125,-0.0599397971779108,-0.15609934711977838,-0.027556517304293808
1772568121327421000,4.7684208984375,-0.07533201209902762,-0.1850797232147306,0.03013184768501669
1772568121337492000,4.778491943359375,-0.013725743013620376,-0.09946977046839892,0.019952216313034295
1772568121347564000,4.78856396484375,0.032625673794746395,-0.04984919579625129,-0.006612951866351068
1772568121357636000,4.798635986328125,0.08281564585268497,-0.04619578785523772,-0.05165211703237146
1772568121367705900,4.808705810546875,0.12176292388439178,-0.09482530566342175,-0.05243588782120496
1772568121377778000,4.81877783203125,0.09965981314778327,-0.10201302521042525,-0.026779322386719286
1772568121387849700,4.828849609375,0.11419570350050925,-0.10502177857235073,-0.030028643038868902
1772568121397921800,4.838921875,-0.0013040683358907699,-0.09276135887093842,-0.019846089057438076
1772568121407992800,4.848992919921875,-0.1539554669588804,-0.052552244209870695,0.0065052902407944195
1772568121418065000,4.85906494140625,-0.2574719555348158,-0.059461000685021276,0.07538808966781943
1772568121428136700,4.86913671875,-0.26581600551009177,-0.06093764910884201,0.08787530386243016
1772568121438207700,4.879207763671875,-0.12883154709637165,-0.0521411791909486,-0.008364362110942603
1772568121448279800,4.88927978515625,-0.048640404528379436,-0.05480579529032111,-0.1182762508124113
1772568121458351900,4.899351806640625,-0.08102408626079559,-0.04394808199368417,-0.17309300588816404
1772568121468424000,4.909423828125,-0.19191139586567876,-0.06995784478001296,-0.13024247334022074
1772568121478495000,4.919494873046875,-0.2635392927497625,-0.009550503155589102,-0.04948218911476433
1772568121488566800,4.92956689453125,-0.225979085162282,0.04324278326854109,0.02512234895993024
1772568121498638800,4.939638916015625,-0.17898001810014247,0.028725962942466137,0.11797818118128925
1772568121508711000,4.9497109375,-0.09535714751780032,-0.01732128328755498,0.1600007384724915
1772568121518782000,4.959781982421875,0.010348960056900978,-0.034029914569482206,0.13008198554888367
1772568121528854000,4.96985400390625,0.06461421872973441,-0.03203019211962819,0.10145396655555813
1772568121538925800,4.97992578125,0.1624129141807556,-0.0285326323274523,0.05159713544212281
1772568121548996900,4.989996826171875,0.2917547488868236,0.004813756957277655,-0.019082301610708237
1772568121559069000,5.00006884765625,0.37374154269993304,0.024372005516663194,-0.09773995100110769
1772568121569141000,5.01014111328125,0.31733927199840545,-0.007892360685020685,-0.10363211431223898
1772568121579212800,5.020212890625,0.19534078579246997,-0.06354600497633218,-0.04646043014079332
1772568121589283800,5.030283935546875,0.023467969349026677,-0.030164471312984824,-0.019119966739974913
1772568121599356000,5.04035595703125,0.0686146865427494,0.025321999717876315,0.15846059635840357
1772568121609428000,5.050427978515625,-0.017487725895643232,-0.03960961439795792,0.22029128531683234
1772568121619499000,5.0604990234375,-0.05420680648386478,-0.041613720761984586,0.1185530219271779
1772568121629571000,5.070571044921875,-0.05105506445467472,0.030348741838708518,0.0259949670759961
1772568121639643000,5.080642822265625,-0.09271160144507884,-0.006891366948932409,0.00897807356249541
1772568121649715000,5.09071484375,-0.14940379500389098,-0.04741298162527382,0.012687193746119737
1772568121659786000,5.100785888671875,-0.16026596527993678,-0.0047585196387022735,0.027801066649891435
1772568121669858000,5.110858154296875,-0.15492518877387046,-0.0270926626522094,0.0507700735008344
1772568121679929900,5.120929931640625,-0.10931786833107471,-0.03715791039690375,0.07638437069617211
1772568121690002000,5.131001953125,0.0031646015107631683,-0.07282280575707555,0.06749306210167706
1772568121700072700,5.14107275390625,0.012099603116512299,-0.11354147737547754,0.03391315632201731
1772568121710145000,5.15114501953125,0.02270984445810318,-0.11896291790232062,0.012803294406458735
1772568121720217000,5.161217041015625,-0.04778583352565765,-0.16433431069739163,0.01733838055282831
1772568121730289000,5.171288818359375,-0.09469780682623385,-0.19810864307060835,0.05255597053691744
1772568121740359700,5.181359619140625,-0.07290273912549018,-0.17176738330759106,0.03607501053102314
1772568121750431700,5.191431640625,-0.02976385462284088,-0.15867299700006843,0.007846585314534605
1772568121760503800,5.20150390625,-0.028621698850393295,-0.1984888014946133,0.028216734778694807
1772568121770574800,5.211574951171875,0.05669511616826057,-0.19024770043715833,0.037369397723115975
1772568121780647000,5.22164697265625,0.069072367182374,-0.17559483264125883,0.008747406611777841
1772568121790718700,5.23171875,0.059711249119043346,-0.18602138797901568,0.014819821860641241
1772568121800790800,5.241790771484375,0.026261983981728552,-0.16041238801330326,0.044671208636462685
1772568121810861800,5.25186181640625,-0.0004980126500129699,-0.115673740163818,0.007194368483498692
1772568121820934000,5.261933837890625,-0.04446984084546566,-0.12540471445284784,0.011079429755918682
1772568121831005700,5.272005615234375,-0.08778758904635905,-0.13858107995539903,0.020943601970560846
1772568121841077800,5.282077880859375,-0.08924246402978897,-0.10044994061216711,-0.01033993650022894
1772568121851148800,5.292148681640625,-0.09934300228357315,-0.07744988103583454,-0.013973616827465594
1772568121861220900,5.302220947265625,-0.055720718178153036,-0.038851781767979265,-0.07505209917910396
1772568121871293000,5.31229296875,-0.0003618190497159958,-0.03831124515049159,-0.10265760672427714
1772568121881364700,5.32236474609375,-0.03398234910070896,0.005455781187862157,-0.07941584734655917
1772568121891435800,5.332435791015625,-0.03247837427854538,0.02277034247368574,-0.05739274304360151
1772568121901507800,5.3425078125,-0.07214987493157386,-0.02240275127030909,0.0012746230456978083
1772568121911580000,5.352579833984375,-0.09571019873917103,-0.005879340362176299,0.0646222559057176
1772568121921652000,5.36265185546875,-0.05312193385660648,-0.04849821957871318,0.0824783036570996
1772568121931722800,5.37272265625,-0.05170680636167526,-0.1252727586362511,0.1702359359566122
1772568121941794800,5.382794921875,-0.02135959889292717,-0.09258519858643412,0.21610716803260147
1772568121951867000,5.392866943359375,-0.0009258826732635498,-0.014000249106064438,0.22790340428836642
1772568121961938000,5.40293798828125,-0.017405308309197426,-0.007917348995804787,0.1857433016899973
1772568121972010000,5.413010009765625,-0.05297229625284672,-0.016571049442142247,0.15780921977758405
1772568121982081800,5.423081787109375,0.0322901582300663,-0.07663966063149273,0.08484978202879428
1772568121992153900,5.43315380859375,0.09218786983191966,-0.06878200593367219,-0.01182736204639077
1772568122002225000,5.443224853515625,0.14834639490544796,-0.07563852076493204,-0.112368488073349
1772568122012297000,5.453296875,0.16255436847805976,-0.08123020329214632,-0.18962657286413012
1772568122022369000,5.463369140625,0.08446867375671863,-0.11089030527956784,-0.18043712157327682
1772568122032440800,5.47344091796875,-0.011478840869665146,-0.07610833023376762,-0.15504589254409074
1772568122042512000,5.483511962890625,-0.04266366820633411,-0.013375614401698111,-0.11400270167905836
1772568122052584000,5.493583984375,-0.03771685945391655,0.07826718876808882,-0.08950538928229361
1772568122062656000,5.503656005859375,-0.01967033063173294,0.0993993355806917,-0.060648858762718735
1772568122072727800,5.513727783203125,-0.000043839141726493834,0.020619594180583952,-0.051692120249196886
1772568122082798800,5.523798828125,-0.006818447843194008,-0.051320218196883795,-0.028152839229628444
1772568122092871000,5.533870849609375,-0.045021044987440105,-0.07398885386176407,-0.03023947277795523
1772568122102943000,5.54394287109375,-0.08055354613959789,-0.093434947283566,-0.01644833637792617
1772568122113015000,5.55401513671875,-0.18478841211795805,-0.14195464804172514,0.03279628112129867
1772568122123086000,5.564086181640625,-0.3280406987547874,-0.16288659610711037,0.1139725257365033
1772568122133158000,5.574157958984375,-0.3622217852979898,-0.15732720841430126,0.18959446069281546
1772568122143230000,5.58422998046875,-0.31439795784950253,-0.11403488691560923,0.21440935113877058
1772568122153302000,5.594302001953125,-0.19934008456170557,-0.0962244318716228,0.15030154756121336
1772568122163373000,5.604373046875,-0.14091712168753145,-0.04142426260448992,0.07218392333164811
1772568122173444900,5.61444482421875,-0.06520692392587661,-0.02891995114460587,-0.0037647593609988687
1772568122183517000,5.624516845703125,-0.03437456328868866,-0.07225574645884335,-0.011577259742841123
1772568122193587700,5.634587646484375,-0.10895429571568965,-0.11390176205523311,0.0016025763584300876
1772568122203659800,5.64465966796875,-0.1262111354649067,-0.1463314748864621,-0.006002674480900168
1772568122213731800,5.65473193359375,-0.12295534853935242,-0.12976919327266515,-0.012839571296237409
1772568122223804000,5.664803955078125,-0.033743864169716836,-0.08684943141341209,-0.06608019962906837
1772568122233874700,5.674874755859375,0.03050970455408096,-0.1141359361372888,-0.04571779507994651
1772568122243946800,5.68494677734375,0.029083471143245696,-0.10897643448226153,0.03658011050894856
1772568122254018800,5.695018798828125,0.0610159019768238,-0.15798917945437133,0.11596417447775602
1772568122264091000,5.7050908203125,0.046992637321352955,-0.16412227538190782,0.15439583113752306
1772568122274162000,5.715161865234375,0.03433656936585903,-0.12406060636751352,0.1643288308046758
1772568122284233700,5.725233642578125,0.06615092677772044,-0.14237119295336306,0.15131949243210255
1772568122294305800,5.735305908203125,0.11384615941047668,-0.16481493382118642,0.15492920736186205
1772568122304377900,5.7453779296875,0.12823708833456038,-0.23152546724304557,0.1547241863090545
1772568122314449000,5.755448974609375,0.12071662970185279,-0.23231186838038265,0.1591852573711425
1772568122324520700,5.765520751953125,0.11527706899642944,-0.21822898249216377,0.1848636693112552
1772568122334592800,5.7755927734375,0.12246551919579506,-0.21990707177221774,0.13883929250016808
1772568122344663800,5.785663818359375,0.058419455742835996,-0.24502317365445195,0.1547249169614166
1772568122354735900,5.79573583984375,0.007359715113043785,-0.23368249914646147,0.1783780336190015
1772568122364808400,5.805808349609375,-0.01917231798171997,-0.23651648046337068,0.16292166742049158
1772568122374880300,5.81588037109375,-0.05061316590607166,-0.2341309735663235,0.1450833014562726
1772568122384951300,5.825951416015625,-0.06171148302555084,-0.18675518214628098,0.16183935207650063
1772568122395023400,5.8360234375,-0.060548868986964224,-0.13226853580772877,0.182699257818982
1772568122405095400,5.846095458984375,-0.1089654016315937,-0.11187047542333602,0.19929989868178963
1772568122415167200,5.856167236328125,-0.1117711067020893,-0.052944604528322815,0.08886895454227924
1772568122425238300,5.86623828125,-0.06651625295877456,-0.03179053814485669,-0.03103146340586245
1772568122435310300,5.876310302734375,0.018766075268387795,-0.05417005467005074,-0.14333923426792025
1772568122445382400,5.88638232421875,0.0628676673233509,-0.0738506875000894,-0.1999276021260768
1772568122455454500,5.896454345703125,0.11202595824599265,-0.08946224426031112,-0.21622195351868867
1772568122465525500,5.906525390625,0.13473697174787522,-0.08199848425090313,-0.18073117261640725
1772568122475597300,5.916597412109375,0.07010697092711925,-0.09971351609639822,-0.07699095828719436
1772568122485669400,5.92666943359375,-0.06142798990905284,-0.09356624551303684,0.042506139557063574
1772568122495741400,5.936741455078125,-0.10008008438646793,-0.07369213593751192,0.0911141031205654
1772568122505812500,5.9468125,-0.08266367016136646,-0.03880465469062328,0.06398300815410912
1772568122515884300,5.95688427734375,-0.07492050868868827,-0.06798004190102219,0.05245996281653642
1772568122525956400,5.966956298828125,-0.09834405437409877,-0.12126856449618935,0.06293013810031116
1772568122536027400,5.97702734375,-0.08242401618659496,-0.14011596137247978,0.08008497877977788
1772568122546099500,5.987099365234375,-0.009826397487521172,-0.20613120600655674,0.05167838398478925
1772568122556171500,5.997171630859375,0.05532616590261459,-0.2382105710301548,0.0023841917227953673
1772568122566243300,6.007243408203125,0.01690145044028759,-0.23509886875040828,-0.074127458614856
1772568122576314400,6.017314453125,-0.0731155050933361,-0.26880313156209884,-0.09081000560745596
1772568122586386400,6.027386474609375,-0.09659341131448745,-0.2749277519222349,-0.10607705977894365
1772568122596458500,6.03745849609375,-0.06771510735452174,-0.16855178226195275,-0.12074998398218303
1772568122606529500,6.047529541015625,0.02327273903787136,-0.08307225096225739,-0.15709687025714664
1772568122616601300,6.057601318359375,0.07624152815937996,-0.02660707109235227,-0.18618735566306857
1772568122626673400,6.06767333984375,-0.01853694268763065,0.00026069676280021664,-0.1448288152385503
1772568122636745500,6.077745361328125,-0.16945932556092738,-0.037943069425225254,-0.08347641131635755
1772568122646816500,6.08781640625,-0.273208453848958,-0.0959530675843358,-0.025619777088053523
1772568122656888600,6.097888671875,-0.3992103304773569,-0.1074856114026159,0.05078918006010353
1772568122666960400,6.10796044921875,-0.37941841929256914,-0.09323284884020686,0.04090794711280614
1772568122677032400,6.118032470703125,-0.32953473670482636,-0.11985197569653391,0.0026068945627659556
1772568122687103200,6.128103271484375,-0.18704466661214827,-0.13066080835014582,-0.019850326841138303
1772568122697175300,6.13817529296875,-0.06675298432409763,-0.11170819753371178,-0.08618749690596014
1772568122707247600,6.14824755859375,0.024669746354222297,-0.12740706725120543,-0.08927793720196932
1772568122717319400,6.1583193359375,0.045260698962211604,-0.11578509158380329,-0.04962009974811226
1772568122727390200,6.16839013671875,-0.018944938966631887,-0.08032346371077001,0.04592471582889557
1772568122737462300,6.178462158203125,-0.09752455468475818,-0.07998064162246882,0.11303732724562286
1772568122747534300,6.188534423828125,-0.06779869398474693,-0.03625540859922766,0.1250790626950562
1772568122757605400,6.19860546875,0.044050738650560375,0.026163272847607732,0.0363001975890249
1772568122767677200,6.20867724609375,0.11302899780869484,0.009982976288720965,-0.04982471894212067
1772568122777749200,6.218749267578125,0.1590063206076622,-0.041595162191987035,-0.09612820495553315
1772568122787821300,6.2288212890625,0.16227672058045864,-0.05650945740304887,-0.12930508289225398
1772568122797892400,6.238892333984375,0.1195440787911415,-0.0611245499830693,-0.11810936981290578
1772568122807964400,6.24896435546875,0.08000643365085125,-0.042578693336620926,-0.06945471756346523
1772568122818036200,6.2590361328125,-0.009711246675252914,-0.04107230736166238,0.019376754512637852
1772568122828107300,6.269107177734375,-0.1374649354070425,-0.08072408040091394,0.1168463641397655
1772568122838179300,6.279179443359375,-0.20443536187410352,-0.06974288685508072,0.16809461307898163
1772568122848251400,6.28925146484375,-0.17161796489953993,-0.03879048003479838,0.10550284008756279
1772568122858323500,6.299323486328125,-0.1596639077335596,-0.05823613506518304,0.0541373945094645
1772568122868394500,6.30939453125,-0.1265548343360424,-0.06398717287257313,0.019809227645769714
1772568122878466300,6.31946630859375,-0.10229191521704196,-0.09095978934168815,0.05267353250198066
1772568122888538400,6.329538330078125,-0.12378127796947955,-0.11794248881340026,0.09431852518506348
1772568122898610400,6.3396103515625,-0.14016308844983577,-0.13131854160651563,0.13230945234000682
1772568122908681500,6.349681396484375,-0.17436346421539783,-0.10189604776725172,0.13891330758444964
1772568122918753300,6.359753173828125,-0.14404197570979593,-0.08755180752910673,0.13781710984557866
1772568122928825300,6.369825439453125,-0.08412906653881072,-0.08219020743072032,0.1275175418883562
1772568122938896400,6.379896484375,-0.0183387897670269,-0.044862055033445356,0.0878844004843384
1772568122948968400,6.389968505859375,0.022265023300051687,-0.06602467004954815,0.09799275671839713
1772568122959040500,6.40004052734375,0.09709610013961792,-0.0615485475488007,0.03995506683476269
1772568122969112300,6.4101123046875,0.1051268463820219,-0.03739208447895944,0.01661912636756897
1772568122979183400,6.420183349609375,0.07268120532929898,-0.04611994614005088,0.004445654297247529
1772568122989255400,6.43025537109375,0.05656885944008827,-0.04325337772779166,0.03435622391439974
1772568122999327500,6.440327392578125,0.0350438408523798,0.00033420039042830464,-0.001064122100174427
1772568123009398500,6.4503984375,-0.02367138296663761,0.0014223609533160924,-0.03217873374484479
1772568123019470300,6.46047021484375,-0.05598842920362949,-0.025828926326707004,-0.050471711608767504
1772568123029542400,6.47054248046875,-0.04402268159985542,-0.03882547828294337,-0.052242593738809226
1772568123039614500,6.480614501953125,-0.050416766551136964,-0.06070237904824316,0.01881196023672819
1772568123049685500,6.490685546875,-0.01701250959932804,-0.0578004470616579,0.05446056204922497
1772568123059757600,6.500757568359375,0.021619711133837698,-0.024035247842967507,0.049887262784317134
1772568123069829400,6.510829345703125,0.036274259430170055,-0.09838175603598355,0.038174978484958405
1772568123079900200,6.520900146484375,0.06375380250811577,-0.10735840482637285,0.03481419681496918
1772568123089972500,6.530972412109375,0.061092474344372746,-0.07905958125479519,0.01734261833652854
1772568123100044500,6.54104443359375,0.035165421405434605,-0.12106865800991654,0.041973347854614255
1772568123110116600,6.55111669921875,-0.013759645283222198,-0.16214301119819283,0.0806622672110796
1772568123120187400,6.5611875,-0.06072247198820114,-0.2236014693107456,0.1107975854948163
1772568123130259200,6.57125927734375,-0.10378712221086024,-0.21109796156845986,0.11481595429070293
1772568123140331300,6.581331298828125,-0.06836509569585322,-0.13955116709657012,0.035480624834448096
1772568123150403300,6.5914033203125,-0.010898995155096054,-0.13229871175028382,-0.08412409810274839
1772568123160474400,6.601474365234375,-0.030252514922618864,-0.09428907989487051,-0.18690993431657552
1772568123170546200,6.611546142578125,-0.06955284417569636,-0.06601166443750262,-0.20059169205799698
1772568123180618200,6.6216181640625,-0.12592881139218806,-0.04586261037811637,-0.17671108678746966
1772568123190689300,6.631689208984375,-0.20772095941603183,0.004641249934583902,-0.08637523803040385
1772568123200761300,6.64176123046875,-0.28133973785638805,0.043888241565227505,0.007169124444387853
1772568123210833400,6.65183349609375,-0.3490338024228811,0.06002988661415875,0.0668500149577856
1772568123220904400,6.661904541015625,-0.4421925631135702,0.01144289277344942,0.11976575871780513
1772568123230976300,6.671976318359375,-0.46976972134709355,-0.02996025397777557,0.12807473737969993
1772568123241048300,6.68204833984375,-0.332625688457489,-0.039512949090451,0.08484832072407007
1772568123251120400,6.692120361328125,-0.16924831315875052,-0.03347045405581593,0.015868746391683817
1772568123261191400,6.70219140625,0.009250058904290199,0.002920563621819019,-0.046129590751230715
1772568123271263500,6.712263427734375,0.09607026422321796,0.005131809930503368,-0.06686587011404335
1772568123281335300,6.722335205078125,0.09810440039932727,0.014861761306226252,-0.004230769437551498
1772568123291406300,6.73240625,0.10393792885839938,0.04082447008043527,0.04637297105304897
1772568123301478400,6.742478515625,0.01776712735891342,0.03848864754401147,0.09206080938614904
1772568123311550500,6.752550537109375,0.009695464584231376,0.04055507855452597,0.11121208457984029
1772568123321622300,6.762622314453125,0.07856967884600162,0.03806808404438197,0.12086093354336917
1772568123331693300,6.772693359375,0.15427695399820804,0.01871865593008697,0.10416238526403904
1772568123341765400,6.782765380859375,0.25145547172427174,0.007966156573593616,0.02227685986831784
1772568123351837400,6.79283740234375,0.2462742696940899,-0.012279781989008188,-0.031749621612578625
1772568123361909000,6.802908935546875,0.1879763945043087,-0.03191160724125802,-0.06264715644046664
1772568123371980800,6.812980712890625,0.1766822625517845,-0.028697394435107708,-0.060130789705365895
1772568123382052900,6.823052978515625,0.1229991876810789,-0.03153780549280345,-0.02012589237950742
1772568123392125000,6.833125,0.09960369904637337,-0.03579670504629612,-0.018122443602606654
1772568123402195700,6.84319580078125,0.06996084045469761,-0.07726283403113483,-0.03106061643511057
1772568123412267800,6.853267822265625,0.03263561066687107,-0.12239581496044993,-0.05350289599820971
1772568123422339600,6.863339599609375,-0.040863340786099434,-0.15572788345888255,-0.04605294531844556
1772568123432410600,6.87341064453125,-0.10107552516460418,-0.19741028554290532,-0.01620031643360853
1772568123442482700,6.883482666015625,-0.20402970368266105,-0.21668489485532044,0.04431742676272988
1772568123452554800,6.8935546875,-0.3006166852563619,-0.22550145771317182,0.12095518769808113
1772568123462626800,6.903626708984375,-0.3631786476314068,-0.22979104466587305,0.16599596029929817
1772568123472697900,6.91369775390625,-0.3584720773756504,-0.20917977992221712,0.17352062018308786
1772568123482769700,6.923769775390625,-0.28899755913317204,-0.16052987691313028,0.11305365732591599
1772568123492841700,6.933841796875,-0.17951602467298505,-0.1664249263010919,0.05333517474848777
1772568123502912800,6.943912841796875,-0.03377484382987022,-0.19289156600944696,-0.04934142893720418
1772568123512984800,6.95398486328125,0.046774026134610173,-0.21078319653086364,-0.13535382500458507
1772568123523056600,6.964056640625,0.06564706890881061,-0.20861907729953527,-0.1588996088301763
1772568123533127700,6.974127685546875,0.007926116824150085,-0.22301599757298826,-0.0910168898237869
1772568123543199700,6.98419970703125,-0.03434183006286621,-0.18855894363261758,0.0065621715271845455
1772568123553271800,6.994271728515625,-0.1144897180110216,-0.14375424480959773,0.11796112044863402
1772568123563344000,7.00434375,-0.17768413307070732,-0.08862382067479192,0.17793708491846918
1772568123573415000,7.014414794921875,-0.08742927712798118,-0.04155278435498476,0.1281614658150822
1772568123583486700,7.02448681640625,-0.014668576821684836,0.0015356120694428681,0.04216832243744284
1772568123593558800,7.034558837890625,0.03134790894389152,0.05101422098763287,-0.015224384073540568
1772568123603629800,7.0446298828125,0.14157470881342887,0.015078253601118922,-0.055919638283737
1772568123613702000,7.054701904296875,0.2290852344840765,-0.0429424120824784,-0.07517883083131163
1772568123623773700,7.064773681640625,0.18348551282584666,-0.010238558484986424,-0.017590820943936703
1772568123633844700,7.0748447265625,0.14420271922945976,-0.028872312610596418,0.024076748897135257
1772568123643916800,7.084916748046875,0.14954174216985702,-0.011167290702462196,0.07117642678953706
1772568123653988900,7.09498876953125,0.14693126741051674,-0.03153729403614998,0.009958499434590339
1772568123664061000,7.10506103515625,0.08324936109483241,-0.02900390310101211,0.031574703437089915
1772568123674132000,7.115132080078125,0.051767012116312974,0.020086875543370842,0.05059460733607411
1772568123684203800,7.125203857421875,0.09184417096078396,0.02143412543386221,0.094681221017614
1772568123694275800,7.13527587890625,0.08078267872035502,-0.03865487095639109,0.11108060368727891
1772568123704347000,7.145346923828125,0.015277648630738258,-0.13595796491019427,0.10790296003185212
1772568123714419000,7.1554189453125,-0.07152911268472671,-0.21153898333422838,0.08787183326371013
1772568123724491000,7.165490966796875,-0.14686463191509247,-0.2956875582911074,0.09347568115275352
1772568123734561800,7.175561767578125,-0.23683482569754122,-0.44001236953027545,0.12934680314213037
1772568123744633900,7.1856337890625,-0.339679114100337,-0.4043902903985232,0.07546164809437468
1772568123754706000,7.195705810546875,-0.2833376336753368,-0.3059305737555027,-0.08469844565829261
1772568123764778000,7.205778076171875,-0.2788105116397142,-0.21311105495654045,-0.18728499644035473
1772568123774848800,7.215848876953125,-0.32591420812010763,0.04769121404476463,-0.17892927429359406
1772568123784920600,7.225920654296875,-0.3996276791065931,0.14620770237632094,-0.0561171153509058
1772568123794992600,7.23599267578125,-0.39715982768833635,0.15894867213629185,0.053991081373952324
1772568123805063700,7.246063720703125,-0.3791641522705555,0.19066979830674827,0.09715252476828172
1772568123815135700,7.2561357421875,-0.3169821291238069,0.1076814262356609,0.040356158448942005
1772568123825207800,7.266207763671875,-0.12286591669023036,0.0040383156053721905,-0.07650578685244545
1772568123835278800,7.27627880859375,-0.062410571205615994,-0.00614931640997529,-0.17557620100602506
1772568123845350700,7.2863505859375,-0.17932839314639568,-0.029244068532437086,-0.20832515412056818
1772568123855422700,7.296422607421875,-0.29123101727366446,-0.04336487527824938,-0.18787529048370197
1772568123865494800,7.306494873046875,-0.3202034292578697,-0.09992511302046478,-0.10017430200856178
1772568123875565800,7.31656591796875,-0.19888474200963974,-0.13449600259885192,-0.035778329139389095
1772568123885638000,7.326637939453125,-0.05684592281579971,-0.1427934369534254,-0.021799871740024537
1772568123895709700,7.336709716796875,0.1868693100452423,-0.128353408190608,-0.06780541598647832
1772568123905780700,7.34678076171875,-0.053687166523933405,0.010795461715385318,0.030963804997131226
1772568123915852800,7.356852783203125,-0.05189560693204403,-0.4949787622097879,0.20751126218810675
1772568123925924900,7.3669248046875,0.1168476793140173,-0.5260429588414728,0.05885843168199062
1772568123935996000,7.376995849609375,-0.09543956510424613,-0.036408041877672076,0.2223979387398809
1772568123946067700,7.387067626953125,-0.35591654767394065,-0.06833667331896721,0.30977428010422736
1772568123956139800,7.397139892578125,-0.5420540363132953,-0.22463724209927022,0.19424312674887478
1772568123966210800,7.4072109375,-0.42533378277122974,-0.5433522594302892,0.13853183398619293
1772568123976283000,7.417282958984375,0.5425970571488141,0.3956128905072808,0.4638517294749617
1772568123986355000,7.42735498046875,-0.11843173363506793,1.0625520013134926,0.15988080188725143
1772568123996426800,7.4374267578125,-0.7655231844812631,-1.5420052776113151,-0.47260702713225033
1772568124006497800,7.447497802734375,0.2310012972384691,-0.6856656577818095,0.10929156484603882
1772568124016569900,7.45756982421875,-0.4606710536122322,-1.4136312650240956,-0.17849523025788366
1772568124026642000,7.467641845703125,0.12923311363458634,-0.15206220055818556,-0.10307276339642703
1772568124036713000,7.477712890625,0.27500235152840613,0.45381483104191717,-0.4880270433757454
1772568124046784800,7.48778466796875,1.0224643941402434,0.8024949246563017,-0.41203875932507217
1772568124056856800,7.49785693359375,1.3379320270478725,1.142418515037,-0.3842321762498468
1772568124066927900,7.507927978515625,0.9601233810395002,-0.11055953895524144,-0.2722111864399165
1772568124077000000,7.518,0.29154256744086743,-0.5575792299643159,0.056077714922279115
1772568124087072000,7.528072021484375,-0.010514964273571967,-0.08001874514315277,0.20427301091924308
1772568124097143800,7.538143798828125,-0.2707850260943174,-0.08031728969831019,0.33701676302328704
1772568124107214600,7.548214599609375,-0.4656067564487457,-0.16501655734051018,0.40328948954977095
1772568124117286700,7.55828662109375,-0.4104682220727205,-0.10508607598021626,0.3467203378487378
1772568124127359000,7.56835888671875,-0.3912450506865978,0.03866382144782692,0.3477997305832803
1772568124137429800,7.5784296875,-0.2732908714354038,0.15661869481876492,0.31659853663370013
1772568124147501800,7.588501708984375,-0.14289923541545868,0.15319602689370512,0.2061160084374249
1772568124157573600,7.59857373046875,0.012765958070755003,0.2017868566593155,0.014432503043487668
1772568124167644700,7.608644775390625,0.16682313183844089,0.150520451008901,-0.19611092991475015
1772568124177716700,7.618716796875,0.20347791501879692,0.014053038739226758,-0.31153109717629845
1772568124187788800,7.628788818359375,0.2657195593982935,-0.060462286682054396,-0.3395702468983829
1772568124197859800,7.63885986328125,0.17227964367866516,-0.09377528515383601,-0.22184004912879315
1772568124207931600,7.648931640625,0.018149404674768447,-0.05605714705828577,-0.029526538735628126
1772568124218003700,7.659003662109375,-0.030462358281016347,0.07026216148883103,0.0004926423551514745
1772568124228074800,7.66907470703125,0.12470073090195655,0.1693987544801086,-0.1268032196065411
1772568124238146800,7.679146728515625,0.03249006471633911,0.14131952847596257,-0.21683825878612695
1772568124248219000,7.689218994140625,-0.08273030565679072,-0.1336076023917645,-0.30104177880063654
1772568124258290000,7.6992900390625,0.014552256965637207,-0.5316303305197507,-0.45979872775711117
1772568124268361700,7.70936181640625,0.1479822377681732,-0.8531788177110254,-0.5227428943827748
1772568124278433800,7.719433837890625,0.36101124046444893,-0.7905440823607146,-0.6499838112868368
1772568124288505900,7.729505859375,0.7005249348700047,-0.7109541205562651,-0.8065769332729279
1772568124298577000,7.739576904296875,0.776385354757309,-0.6876312587663531,-0.6477067332003266
1772568124308648700,7.749648681640625,0.07407704360187053,-0.6283057940945029,0.2268768194532953
1772568124318720800,7.759720703125,-0.6321060631603003,-0.8112902985956519,0.6120501307444647
1772568124328791800,7.769791748046875,-0.7341232530891895,-0.34073991173226387,0.3311372034654021
1772568124338863900,7.77986376953125,-0.7861024466514587,0.14719854004457592,0.15553438844708725
1772568124348936000,7.78993603515625,-0.7544868266820907,0.24634225689638406,0.33939704575594515
1772568124359007000,7.800007080078125,-0.5676368058592081,0.06720814421307295,0.4723555731218308
1772568124369082000,7.81008203125,-0.3776958332836628,-0.058784471396636215,0.4788579407531768
1772568124379154200,7.820154296875,-0.21185119108855724,-0.18189893775414676,0.43295390238612885
1772568124389225200,7.83022509765625,-0.27091362091004845,-0.43931784792747347,0.3941666737543419
1772568124399297300,7.84029736328125,-0.6316016207695007,-0.6120811834698543,0.47493747937381264
1772568124409369300,7.850369384765625,-0.9315455213308333,-0.4907806529328227,0.5370460354255512
1772568124419440000,7.860440185546875,-0.8532908997833728,-0.14472022203123197,0.5308091868625954
1772568124429512000,7.870511962890625,-0.7529565483748912,0.09319364934097975,0.5227407754909247
1772568124439584000,7.880583984375,-0.40233226189017296,0.07348116006795316,0.5321506645994261
1772568124449656300,7.89065625,0.11358604716956615,-0.20382890214724464,0.4063051475765183
1772568124459727000,7.90072705078125,0.38792613539695736,-0.40530495755802837,0.18921039327867328
1772568124469799200,7.910799072265625,0.547910945647955,-0.5123412542905659,0.1710264287471771
1772568124479871000,7.92087109375,0.5581628750711679,-0.36681517750285564,0.1882283234387636
1772568124489942000,7.93094189453125,0.549975476962328,-0.0025250249655917284,0.17670871216729284
1772568124500014000,7.94101416015625,0.45983109565675256,0.27199325110660866,0.1343157506611198
1772568124510086100,7.951086181640625,0.4067787199050188,0.5997228198193013,0.1495822203107178
1772568124520157200,7.9611572265625,0.2485562431514263,0.46023134702071544,0.14980853987988083
1772568124530229000,7.97122900390625,0.07263795070946216,0.43692046792954203,0.04155070199575275
1772568124540301000,7.981301025390625,0.01262450377345085,0.6154029117710889,-0.24306772873774168
1772568124550372000,7.9913720703125,-0.2840320456802845,2.241860496526211,-1.0509777372453362
1772568124560444200,8.001444091796875,0.3739046243071556,-0.1165800961527042,0.13967110368181018
1772568124570516200,8.01151611328125,-0.8094102570027113,-0.7705491959497333,-0.047593306628242134
1772568124580587300,8.021587158203126,0.3230179021567106,0.02124229265619069,-0.02755867272876203
1772568124590659000,8.0316591796875,0.3659568801730871,0.35997254506647586,0.03918525150604546
1772568124600731100,8.041731201171874,0.3154886756956577,-0.09165588184706866,-0.16243775636106728
1772568124610802200,8.05180224609375,0.04686988772451877,-1.1945759877756237,-0.4036910560879856
1772568124620874200,8.061874267578125,-0.4926783032476902,-4.161255171820521,-0.2504369423314929
1772568124630945300,8.0719453125,-0.24428046552836893,-0.8364457826402037,0.4212471710447222
1772568124641017000,8.08201708984375,-0.04887362876236438,1.2977058151215315,0.03365552829913795
1772568124651088100,8.092088134765625,0.804785519811511,1.7365430764578282,0.3717159551564604
1772568124661160200,8.10216015625,1.0345569829940795,1.8407203670300543,0.37191856505647297
1772568124671232300,8.112232177734375,0.3751064013123512,0.44572475582771,0.01915996995680034
1772568124681303000,8.122302978515625,-0.1465191794782877,-0.5223816598549484,-0.27237185689434407
1772568124691375000,8.132375,0.0020540099203586576,0.08956147598423994,-0.23527539436109363
1772568124701447200,8.142447265625,-0.011611527338624,0.3609570991244167,-0.16549159097373484
1772568124711518000,8.15251806640625,-0.2135258463025093,-0.007895577838702593,-0.18390731843449173
1772568124721590000,8.162590087890624,-0.28662440026104447,-0.7682812510177492,-0.4079508324243128
1772568124731662000,8.172662109375,-0.5410954204142093,-1.2444137853950261,-0.3159983057182282
1772568124741733000,8.182733154296875,-0.9212018219709396,-1.3111639932401478,-0.06236775497719645
1772568124751805200,8.19280517578125,-0.9313684111982583,-1.088188327677548,-0.013958967247605323
1772568124761877000,8.202876953125,-0.5312678538829088,0.6004180355418474,0.07396496152952313
1772568124771948000,8.212947998046875,-0.007437456524372101,1.051243840835616,0.09097513304129243
1772568124782020000,8.22302001953125,0.8490256435543299,1.3296017133370042,0.32383038758337496
1772568124792092200,8.233092041015626,0.4135965832263231,0.21971975077288225,0.1714043952140957
1772568124802163200,8.2431630859375,0.33605683194994923,-0.14685357166496105,0.09917875163257121
1772568124812235000,8.253235107421874,0.4221282647281885,0.170428901245445,-0.12106785429231821
1772568124822307000,8.26330712890625,-0.22191139733195303,-0.9146681093532592,-0.4099306080646813
1772568124832378000,8.273378173828124,-0.8809370315998792,-2.0802764343850315,-0.1987468679089099
1772568124842450200,8.2834501953125,-0.6890279738217592,-0.8947087326470762,-0.024096330380439755
1772568124852522200,8.293522216796875,-0.08233224624991417,0.5953698853068053,0.01616042281463742
1772568124862593300,8.30359326171875,0.7049567798376083,0.7601120461527258,0.16505758347064256
1772568124872665000,8.3136650390625,1.0142226354956627,0.7230760816350579,0.229847524093464
1772568124882737200,8.323737060546875,0.32338147477209567,-0.6563286502689123,0.0030552959173917767
1772568124892808200,8.33380810546875,0.4171797024101019,-0.5698009616231545,0.060282582733593874
1772568124902880300,8.34388037109375,0.7803022359400987,0.002811436124960892,-0.03162025961186737
1772568124912952000,8.3539521484375,0.6247299814343452,-0.3345781011668965,-0.007526523047313094
1772568124923023000,8.364023193359374,0.6223538999527692,0.38142102781925347,0.25270850399266925
1772568124933095200,8.37409521484375,0.017868834167718887,0.09897868988267146,0.1460264640579
1772568124943167200,8.384167236328125,-0.7592763990461826,-0.13575671585020607,0.2755260831415653
1772568124953238300,8.39423828125,-1.0995634159117937,-0.0607447614518227,0.11953349346504547
1772568124963310300,8.404310302734375,-0.5517682055979967,0.4715787800630554,0.08251689123497344
1772568124973382100,8.414382080078125,-0.5110626857221127,0.29857677692659196,-0.17150414752783252
1772568124983453000,8.424452880859375,-0.5743114613175392,-0.14175961865996942,-0.43845772396679966
1772568124993525000,8.43452490234375,-0.36649931648671624,-0.05252778562204912,-0.49752994452994315
1772568125003597000,8.44459716796875,-0.5180237569063901,-0.039668404513644055,-0.3666907474055886
1772568125013668000,8.454668212890626,-0.6836527105242014,-0.16125510418144984,-0.2480374617080204
1772568125023740200,8.464740234375,-0.8015899386405945,-0.11396457989206536,-0.06888419223309028
1772568125033812000,8.47481201171875,-0.8200725207924843,-0.08940378293818793,0.07568114519710652
1772568125043884000,8.484884033203125,-0.47770811313092704,-0.049820138665125704,-0.03137081032886636
1772568125053955000,8.494955078125,-0.36916006012856956,-0.00696838227447588,0.014286290372675283
1772568125064027100,8.505027099609375,-0.21925766795277593,0.09866921294154599,0.06785129182166419
1772568125074099000,8.515098876953125,-0.18992577500641344,0.1747527557939291,0.11363280892074107
1772568125084170000,8.525169921875,-0.15355390042066575,0.04711154186013154,0.09056910952366888
1772568125094242000,8.535241943359376,-0.17464929541945456,-0.21364461384397,0.03737885967120528
1772568125104314000,8.545314208984376,-0.8399369126915931,-1.2753127815276384,-0.24209205210600046
1772568125114385200,8.55538525390625,-0.0822919142395258,-0.5865694333335384,0.049698809273820366
1772568125124457200,8.565457275390624,0.00537877042889595,-0.04334646283872425,0.11143226666916162
1772568125134529000,8.575529052734375,1.1113701735615729,1.178220699976012,0.41784908957164735
1772568125144600000,8.58560009765625,0.7421908242106438,0.5838074943395332,0.4813732480423525
1772568125154672000,8.595672119140625,-0.08564765440821648,-0.350905952970311,0.34690895575601605
1772568125164744200,8.605744140625,0.22670330778360365,0.010129453821014612,0.2788131785208359
1772568125174815200,8.615815185546875,0.7953694566905498,0.14999513022685423,0.22209837127141654
1772568125184887300,8.62588720703125,0.9590583821564912,0.03575312163289636,0.24076730630826204
1772568125194959000,8.635958984375,0.7759592382997273,0.0494435376048088,0.23148750985283403
1772568125205030100,8.646030029296876,0.6256137785315513,0.05997505115438252,0.2235595663977787
1772568125215105000,8.65610498046875,-0.03809036894142628,-0.15293392362510785,-0.07064758060984314
1772568125225176000,8.666176025390625,-0.40851358087360856,-0.25401399710066613,-0.02491239600367844
1772568125235248000,8.676248046875,-0.5007575648069381,-0.2723713454376906,-0.1293449765112251
1772568125245320200,8.6863203125,-0.6048550681412219,-0.22948610690254717,-0.15829061008635908
1772568125255391200,8.69639111328125,-0.745974434402585,-0.17434561803145332,0.02615713536776602
1772568125265463000,8.706463134765626,-0.7474445069551467,-0.1359399908620864,0.1980245084511116
1772568125275535000,8.71653515625,-0.6040671326339244,-0.017085218642512334,0.30835480522774156
1772568125285607200,8.726607177734374,-0.3983136738985777,-0.011471296884026377,0.24132285783179103
1772568125295678200,8.73667822265625,-0.31918343856036663,-0.07771693447418511,0.12433288397025316
1772568125305750000,8.74675,-0.08106383374929428,-0.18336594156678765,0.01602620197571814
1772568125315821000,8.756821044921875,0.16815759531259536,-0.22849872156670314,-0.06462185404691845
1772568125325893000,8.76689306640625,0.24302140537798403,-0.23077063028775155,-0.0001730915445834398
1772568125335965200,8.776965087890625,0.04234218116700649,-0.16677213230356572,0.1737524196449667
1772568125346037200,8.787037353515625,-0.30721827547848224,0.07424689287659712,0.35656354034058746
1772568125356108300,8.7971083984375,-0.43535014987289905,0.2352775315192528,0.32832210951205343
1772568125366176500,8.807176513671875,-0.30705928552448747,0.26766455598622557,0.1505954890064895
1772568125376248600,8.81724853515625,-0.075128013959527,0.14513668474447913,0.053189994124136865
1772568125386319600,8.827319580078125,0.39655893918573853,-0.037151188395172355,-0.03561290944460779
1772568125396391700,8.8373916015625,0.7776005757659673,-0.11408832500274292,-0.14296974336840212
1772568125406463700,8.847463623046876,0.7721995935052632,-0.22258608172312377,-0.2037356161069125
1772568125416534800,8.85753466796875,0.6753752960443496,-0.32663375456631183,-0.17573482563383877
1772568125426606600,8.867606689453124,0.4260357935607433,-0.2625374587634578,-0.049821248343400654
1772568125436678700,8.8776787109375,0.18937223277688026,-0.2602415298460051,0.0941573067413643
1772568125446749700,8.887749755859375,0.15574761107265947,-0.2369481498789042,0.1658646255372092
1772568125456821800,8.89782177734375,0.1212351006180048,-0.19113745235111562,0.15948318087179214
1772568125466893600,8.9078935546875,0.1262584817379713,-0.16428826133226976,0.07264492843952029
1772568125476964600,8.917964599609375,0.3434340827196836,-0.15011897580223157,-0.11596658563055097
1772568125487036700,8.92803662109375,0.09200140734910964,0.021464824249513913,-0.1639581343287602
1772568125497108700,8.938108642578126,-0.3952256447553634,0.08805934605929068,0.03910009397324175
1772568125507179800,8.9481796875,-0.6121668524593115,0.020419886340422088,0.12932773311547935
1772568125517251800,8.958251953125,-0.6819441530406475,-0.007462004160450305,0.07783155556349083
1772568125527323600,8.96832373046875,-0.5754752443999052,-0.04927006246773526,0.08048141248514876
1772568125537394700,8.978394775390624,-0.21393851875662803,-0.07508605624763294,0.014003189981821923
1772568125547466800,8.988466796875,0.12171031691431998,-0.1331341122616548,-0.09954044281812384
1772568125557538800,8.998538818359375,0.29694588778913017,-0.2328404040328227,-0.13421965160919352
1772568125567609900,9.00860986328125,0.35500118639469147,-0.20536350956968963,-0.1141689981566742
1772568125577681700,9.018681640625,0.0405161347836256,-0.08031406569476239,-0.02613864986300468
1772568125587753700,9.028753662109375,-0.3116583037525415,-0.021649750079074874,0.05572864575628191
1772568125597824500,9.038824462890625,-0.5672615428060293,0.028009110776847226,0.09987586705125867
1772568125607896600,9.048896484375,-0.6152116269826888,0.12684522298420778,0.09564203800694085
1772568125617968600,9.05896875,-0.5813368299096823,0.21040389662338418,0.03398057726873085
1772568125628039700,9.069039794921874,-0.3638870881617069,0.09386440647570415,0.0016998444541357458
1772568125638111500,9.079111572265624,-0.09796002349257468,-0.03374884402222233,-0.03341338097318075
1772568125648183600,9.08918359375,-0.011454875472187995,-0.10956519415564835,-0.03581473389333114
1772568125658254600,9.099254638671875,0.018779519271850585,-0.15685301503129304,-0.02172663297387771
1772568125668326700,9.10932666015625,0.047206572332978244,-0.14424107847847042,-0.031757083399826656
1772568125678398700,9.119398681640625,0.1113923365175724,-0.09637853558794594,-0.09981312227966263
1772568125688469800,9.1294697265625,0.18950316568017006,-0.04043624708098359,-0.1792616845857352
1772568125698541600,9.13954150390625,0.19685235939919948,-0.0063121183143404775,-0.17129437723467125
1772568125708612600,9.149612548828125,-0.0018470891714096069,0.055502371852891516,-0.06684348475229926
1772568125718684700,9.1596845703125,-0.09219254600703716,-0.0016367960051517,-0.027384521738253533
1772568125728756700,9.1697568359375,-0.21709961313605308,0.02170161269705277,0.039524082405818624
1772568125738828500,9.17982861328125,-0.16064298189878462,0.00005752346131775994,0.0341098662042059
1772568125748899600,9.189899658203124,-0.11329963144361972,-0.15408680172096936,0.05496681280462071
1772568125758971600,9.1999716796875,0.0031990883022546767,-0.20498395393388344,0.08778636520365253
1772568125769043700,9.210043701171875,0.007919687083363533,-0.16623681985046715,0.14818298450466244
1772568125779114800,9.22011474609375,-0.15304185924530028,-0.08912755981269292,0.2105014569800347
1772568125789186800,9.230186767578125,-0.14149404479265212,-0.06323675179749261,0.17154365755431353
1772568125799257900,9.2402578125,-0.14747779537737368,0.08720531391268596,0.08997215741067192
1772568125809329700,9.25032958984375,-0.19344284321665764,0.03486885417823214,-0.009598698812024667
1772568125819401700,9.260401611328126,-0.10879647480547427,-0.05630552319562994,-0.07212640272444114
1772568125829472800,9.27047265625,-0.02386485971212387,-0.16324655199330299,-0.09633369179922155
1772568125839544800,9.280544921875,-0.07482113996744155,-0.19092865017233415,-0.06642232759762555
1772568125849616600,9.29061669921875,-0.14810148023366929,-0.12674456648817284,-0.010763678337633609
1772568125859687700,9.300687744140625,-0.06324293037652969,-0.05992179573033936,-0.092903826948395
1772568125869759500,9.310759521484375,-0.18059329851567743,0.03524666994810104,-0.11447126903887837
1772568125879831600,9.32083154296875,-0.17798749993145466,0.016190580490883438,-0.14608424952658824
1772568125889902600,9.330902587890625,-0.10387889214754104,-0.1551456265915185,-0.17612302123382687
1772568125899974700,9.340974609375,-0.08543488844037056,-0.2188386570894159,-0.14182986175143159
1772568125910046500,9.35104638671875,-0.1287725103855133,-0.20921320726778356,-0.0528013966653496
1772568125920117500,9.361117431640626,-0.1279758070498705,-0.15326573112905026,-0.004009345239214599
1772568125930189600,9.371189453125,-0.209242469894886,-0.09076140809222125,0.061308108122739936
1772568125940261600,9.38126171875,-0.20185878938436508,-0.08282826787224039,0.07819255262929946
1772568125950332700,9.391332763671874,-0.19500702379345894,-0.1310510497767478,0.08511352926520631
1772568125960404700,9.40140478515625,-0.15529752921760082,-0.1717601498492062,0.06885656900722532
1772568125970476500,9.4114765625,-0.07433657132089137,-0.15659885760713368,0.04679442960182205
1772568125980547600,9.421547607421875,-0.040840544432401656,-0.18423572840495034,0.06073414415968582
1772568125990619600,9.43161962890625,0.09370061248242854,-0.21889948389856143,0.0770280206282623
1772568126000691700,9.441691650390625,0.04337035517096519,-0.1613725382823497,0.16153512669922784
1772568126010762800,9.4517626953125,-0.0036281273692846294,-0.09563528860574588,0.2541833988508209
1772568126020834600,9.46183447265625,-0.006499883413314819,-0.017185235817730425,0.2509398868849501
1772568126030906600,9.47190673828125,-0.0346995574593544,-0.00031681086421012875,0.17946747282352296
1772568126040977700,9.481977783203124,0.05307224949598312,0.029062355289980767,-0.029877105738967655
1772568126051049700,9.4920498046875,0.13549685020446778,0.0024257475758902728,-0.2352799609383568
1772568126061121800,9.502121826171875,0.19704408257901668,-0.02596230691540986,-0.3877055514488369
1772568126071192800,9.51219287109375,0.23310849865078925,-0.06924986090743913,-0.41750422165673223
1772568126081264600,9.5222646484375,0.2790337990015745,-0.08498254156298934,-0.3363280135741457
1772568126091336700,9.532336669921875,0.3723047878950834,-0.07375970301469788,-0.25345851864237334
1772568126101407700,9.54240771484375,0.3638835810303688,-0.085881773691345,-0.1304413203805685
1772568126111479800,9.552479736328126,0.30790391965508457,-0.09949375413218513,0.038210597787611184
1772568126121552000,9.5625517578125,0.20710721143186092,-0.04225875893356278,0.14203227985519915
1772568126131622700,9.57262255859375,0.016056816309690476,-0.04815674919728189,0.17922975507751107
1772568126141694700,9.58269482421875,-0.28117957885861394,-0.17780397832440212,0.2050090701088309
1772568126151766800,9.592766845703125,-0.3486515251070261,-0.2423096403794363,0.1937199796576053
1772568126161837600,9.602837646484375,-0.324290990832448,-0.25924621693203226,0.14886143175549804
1772568126171909600,9.61290966796875,-0.11643442233800888,-0.29405754593648015,0.11283723809625953
1772568126181981400,9.6229814453125,0.09333703986704349,-0.2713519027294591,0.09360098803285509
1772568126192052500,9.633052490234375,0.20866145513653753,-0.2595559222020209,0.09518422036999837
1772568126202124500,9.64312451171875,0.05916062949895858,-0.21296680591395123,0.09305577524024992
1772568126212196600,9.653196533203126,-0.22272505180239677,-0.10480073796650394,0.08481175157334656
1772568126222267600,9.663267578125,-0.4871551559120416,0.0002674187645316124,0.022727690642047674
1772568126232339700,9.673339599609376,-0.5427805970221757,-0.007223740708455443,-0.06478407713761553
1772568126242410800,9.68341064453125,-0.4331020786851644,-0.025204401220194995,-0.09167040356276557
1772568126252482600,9.693482666015624,-0.2363824057549238,-0.06040949704889208,-0.08469800726687535
1772568126262554600,9.7035546875,0.0647457361549139,-0.07849109718445688,-0.18034473058208822
1772568126272625700,9.713625732421875,0.16117431229650972,-0.08991840879628435,-0.23047794921780004
1772568126282697700,9.72369775390625,0.0946001916706562,-0.08687162497891113,-0.20498855704376473
1772568126292769800,9.733769775390625,0.01741290709376335,-0.026559359493106602,-0.14869462382122872
1772568126302840800,9.7438408203125,0.06557049654126167,-0.04733251853389665,0.006321385041251779
1772568126312912600,9.75391259765625,0.024776129338145256,-0.01622819082122296,0.23294581890236585
1772568126322984700,9.763984619140626,0.12135609664916991,-0.002492857995349914,0.22534391079759225
1772568126333055700,9.7740556640625,0.18417349509000777,-0.06251145603051408,0.1223369609126821
1772568126343127800,9.7841279296875,0.23750410326123236,-0.1344081781849265,0.07960528723774478
1772568126353199600,9.79419970703125,0.26877427079379557,-0.16191444487301632,0.03489628560785204
1772568126363274000,9.80427392578125,0.23741291784644125,-0.13041222215024753,0.031418124635890124
1772568126373345800,9.814345703125,0.4114624938070774,-0.25348317815959454,0.028172210650378837
1772568126383417900,9.82441796875,0.21126550015509127,-0.15557746040383352,0.13339759463658554
1772568126393489000,9.834489013671876,-0.09367956969439983,-0.1272801712022163,0.046365536665264516
1772568126403561000,9.84456103515625,-0.32759412403106686,-0.021295922539569436,-0.0389608955651056
1772568126413632800,9.8546328125,-0.7955898214429616,0.058691331486776466,0.07548623454635962
1772568126423703800,9.864703857421874,-0.8080763780504464,0.1294854444278404,0.06994629133953713
1772568126433775900,9.87477587890625,-0.7491857976645231,0.23180585508700458,0.03704592878925614
1772568126443848000,9.884847900390625,-0.5861784247219562,0.23602442263010887,0.008202522612735628
1772568126453918700,9.894918701171875,-0.3850187235176563,0.18446727213850245,-0.1429952066032216
1772568126463990800,9.90499072265625,-0.23044015622437,0.01859828095342964,-0.27525071853259575
1772568126474061800,9.915061767578125,-0.042212417307496065,-0.08637954887934028,-0.3173798232045024
1772568126484133600,9.925133544921875,0.2260211707383394,-0.1335966426063329,-0.32592571589481084
1772568126494205700,9.935205810546876,0.4954296477824449,-0.2359577140694484,-0.35338034372720867
