time,seconds_elapsed,z,y,x
1772363407535306200,0.12030615234375,0.017788170146942138,-0.11625263603031634,-0.08096183467954397
1772363407545376300,0.130376220703125,-0.051855274921655654,-0.16642741051912308,-0.08759674264937639
1772363407555445500,0.140445556640625,-0.07125672548413277,-0.14244739999473094,-0.03772957280501723
1772363407565515300,0.150515380859375,-0.1372650289207697,-0.06367664561867714,0.03474354273155331
1772363407575584500,0.16058447265625,-0.15466273844540118,0.02754384048581123,0.08097191768214106
1772363407585654300,0.170654296875,-0.09150865539610385,0.12445581623017787,0.10768500643223523
1772363407595723300,0.18072314453125,0.030572832918167113,0.205133865532279,0.13217194356545806
1772363407605793300,0.190793212890625,0.06372048476040362,0.15924071388542652,0.04966185653060674
1772363407615862300,0.2008623046875,0.03966623995602131,0.09997954662144183,0.01324585054218769
1772363407625932300,0.210932373046875,0.006204699859023094,0.07588087815344333,0.02750190104022622
1772363407636001300,0.221001220703125,-0.02459200494289398,0.014843348866701125,-0.014501695822179316
1772363407646070300,0.2310703125,-0.05294599276781082,-0.06772036805152892,-0.08322890282869339
1772363407656139000,0.241138916015625,-0.02687807005345821,-0.10983049402832984,-0.06838117004781961
1772363407666209300,0.251209228515625,0.021091303345561026,-0.08723696942627429,-0.005750234089791775
1772363407676278000,0.261278076171875,0.021509236496686936,0.011647183173894881,0.03640446168109775
1772363407686347300,0.27134716796875,0.010547697499394416,0.12200374690294265,0.0264189281091094
1772363407696417000,0.2814169921875,0.0037467853128910064,0.2050216373294592,-0.0017003741770982741
1772363407706486300,0.291486328125,-0.02503039636015892,0.16250819124877453,-0.062197805237770076
1772363407716556300,0.301556396484375,-0.06215805774927139,0.02477320672869682,-0.09283815043419599
1772363407726625300,0.311625244140625,-0.16184885055720805,-0.062252750295400616,-0.043944647927582264
1772363407736695300,0.3216953125,-0.05815992802381515,-0.08381868541538715,-0.025501374872773885
1772363407746764300,0.331764404296875,0.10613163951039313,-0.0648328299164772,-0.046892976339161396
1772363407756834300,0.341834228515625,0.10616963343322276,0.015392799443006514,-0.009918605815619229
1772363407766903000,0.351903076171875,0.054146016207337375,0.0785837073713541,0.015091186147928237
1772363407776973300,0.361973388671875,0.03332300840914249,0.12700491619110107,-0.013459493292868137
1772363407787042000,0.3720419921875,-0.0111801501840353,0.05708733035624027,-0.02358604277074337
1772363407797112300,0.3821123046875,-0.02511924368739128,-0.056115854975581164,0.003917319574207067
1772363407807181000,0.39218115234375,0.02640460732281208,-0.08746142583191395,0.03131108406484127
1772363407817251300,0.402251220703125,0.06698503951430321,-0.034977205356955525,0.09675254739895463
1772363407827320000,0.412320068359375,0.060360068416595455,0.020492752930521965,0.1341110949344933
1772363407837390000,0.42239013671875,0.05081833308935165,0.13496493528485298,0.16546952527239916
1772363407847459000,0.432458984375,0.030329087290167808,0.1297346334159374,0.12974369350522755
1772363407857529000,0.442529052734375,-0.025929391026496884,0.053908700320124625,0.05707768574506044
1772363407867598300,0.452598388671875,-0.07743979803323746,0.01424362940788269,0.052231999279558655
1772363407877668000,0.462668212890625,-0.10269932697415352,0.027570143970847127,0.06895838541388512
1772363407887737300,0.4727373046875,-0.105579850846529,0.027360300612449644,0.04668225619792938
1772363407897807000,0.48280712890625,-0.1295475864112377,0.022213585373759268,-0.0070313599415123456
1772363407907876400,0.49287646484375,-0.13177636837661266,0.03813537712693214,-0.02096446209549904
1772363407917946000,0.502946044921875,-0.0339981311917305,0.09200140734910964,0.006876169379800558
1772363407928015400,0.513015380859375,0.06445873590707779,0.126063251426816,0.0205740014731884
1772363407938085000,0.523085205078125,0.028086276799440382,0.06238543676435947,-0.043249213009327644
1772363407948154000,0.533154052734375,-0.07697276504337787,0.014471008422970772,-0.08128376011028886
1772363407958224400,0.543224365234375,-0.11064239493310452,-0.05161737451255321,-0.07205182138457894
1772363407968293000,0.553293212890625,-0.04587736955583095,-0.0634603725194931,-0.05287438883632421
1772363407978363400,0.56336328125,0.004765022444725036,0.023214286848902702,-0.030178572903573512
1772363407988432100,0.57343212890625,0.007148118188977241,0.05796645127832889,-0.05469853552356362
1772363407998502100,0.583502197265625,-0.023930326163768768,0.039492052432894706,-0.07385010297819972
1772363408008571100,0.593571044921875,-0.03350011854171753,-0.013643909949064253,-0.040231326492875814
1772363408018641200,0.60364111328125,0.020754034215211867,-0.07910276280939578,-0.024622692342102525
1772363408028710100,0.613710205078125,0.10417758283317088,-0.09978723891973496,-0.017562252436578274
1772363408038780200,0.6237802734375,0.10716390516757965,-0.09966682741045951,0.00480623123794794
1772363408048849200,0.63384912109375,0.023479075264930725,-0.1355646547436714,-0.022435265300422905
1772363408058919200,0.643919189453125,-0.06393792690336704,-0.15703823540508746,-0.02508124976456165
1772363408068988200,0.65398828125,-0.10177461334466933,-0.1227905133664608,-0.008338935408741236
1772363408079058200,0.66405810546875,-0.05356032527387142,-0.036550153762102126,0.045969724014401435
1772363408089127400,0.67412744140625,-0.008075169906020164,0.08263736667633056,0.09758695239648223
1772363408099197200,0.684197265625,0.049938043123483655,0.1455640707105398,0.09857245630249381
1772363408109266200,0.69426611328125,0.07554302450120448,0.13306173201203345,0.08786723015382886
1772363408119336200,0.704336181640625,0.04690671260356903,0.08862696247994899,0.06177519591152668
1772363408129405200,0.7144052734375,0.03337970703244209,0.05543254888653755,0.054944326978176826
1772363408139474200,0.72447412109375,0.040833530169725414,0.06491817011237144,0.05597600811347365
1772363408149544200,0.734544189453125,0.06943067910075187,0.09701602064073085,0.05726385596692562
1772363408159614200,0.7446142578125,0.055220951962471,0.07249357380270957,0.0437599390104413
1772363408169683200,0.75468310546875,0.008078092515468597,-0.006077274087071418,-0.007279197222739457
1772363408179752200,0.764752197265625,0.05997311492562293,-0.07124328148066997,-0.006879676511138677
1772363408189822200,0.774822265625,0.14850830746889113,-0.04457037861049175,0.03630933074355125
1772363408199891200,0.78489111328125,0.10732757129669189,-0.0659831689953804,-0.026325404606759546
1772363408209961200,0.794961181640625,-0.02585164961516857,-0.06601882483065127,-0.08936068358197807
1772363408220030200,0.8050302734375,-0.12515081275701523,-0.06283844122886657,-0.09357289444953203
1772363408230100200,0.815100341796875,-0.15413783778846263,-0.07362579270303249,-0.06605754940584302
1772363408240169200,0.825169189453125,-0.12659925799965857,-0.043918052181601525,-0.018453794448822735
1772363408250239200,0.8352392578125,-0.013314239603281021,0.020174188500642776,0.0670437839642167
1772363408260308200,0.84530810546875,0.0867576614767313,0.04514554814994335,0.11261690987646579
1772363408270378200,0.855378173828125,0.06740647979676723,0.024347090271115302,0.06520487809926272
1772363408280447200,0.865447265625,-0.018825111979246138,-0.016142741027474403,-0.017597762141376733
1772363408290517000,0.87551708984375,-0.05711246479749679,-0.03340659503936767,-0.06507496810927987
1772363408300586200,0.885586181640625,-0.045398061606287954,-0.01022679498195648,-0.07456292742267251
1772363408310656300,0.89565625,-0.025607903987169264,-0.031657121023535725,-0.07160992283597588
1772363408320725200,0.905725341796875,0.015149638336896896,-0.0409258846282959,-0.03443549969568849
1772363408330795300,0.915795166015625,0.11637889275848864,0.0005547112733125686,0.02160568260848522
1772363408340864300,0.9258642578125,0.10902443834245204,-0.010412672942876814,-0.01915434393361211
1772363408350934300,0.935934326171875,0.048664954447746274,-0.036546062108874316,-0.06528568825051188
1772363408361003300,0.946003173828125,0.06002864450514316,-0.012341010656952858,-0.0011130758084356785
1772363408371073300,0.9560732421875,0.1087432833135128,0.011229250022768974,0.02752601256817579
1772363408381142000,0.96614208984375,0.1264332537829876,-0.0013689502656459808,0.010717793369293212
1772363408391212300,0.97621240234375,0.09809621709287165,-0.03965513404011726,0.04138283461555838
1772363408401281000,0.986281005859375,-0.02021802764236927,-0.07521276963353156,0.06142842830047011
1772363408411351300,0.996351318359375,-0.10565642321407795,-0.053470308902859684,0.09631327919885516
1772363408421420000,1.006419921875,-0.1478513048648834,-0.02222059963643551,0.09690598439499735
1772363408431490300,1.016490234375,-0.13075637767910955,0.06228314543366432,0.10915522511526941
1772363408441559300,1.026559326171875,-0.09673954178690909,0.08462824823260306,0.083264120272547
1772363408451629000,1.036629150390625,-0.03979600381553173,0.12125848149359225,0.0560533111333847
1772363408461698300,1.0466982421875,-0.016428572231531144,0.11851122861206531,0.034786943481862544
1772363408471768000,1.05676806640625,-0.0405552977502346,0.11778700599074363,0.014722791226953268
1772363408481837300,1.06683740234375,-0.057490065938234323,0.1133399634540081,0.008778495869785546
1772363408491907000,1.076906982421875,-0.017698153775930404,0.09617606268525122,-0.010570493853092193
1772363408501976300,1.086976318359375,0.017421674922108648,0.08623685247302054,-0.05249971030503511
1772363408512046000,1.097046142578125,0.0471346761405468,0.038598318463563916,-0.07782119856625795
1772363408522115300,1.107115234375,0.01439911223053932,-0.0032540333598852157,-0.12957432828769086
1772363408532185000,1.11718505859375,-0.034676176583766934,-0.030219781696796417,-0.12162892224118113
1772363408542254300,1.12725439453125,-0.06464227578043938,-0.043108489364385605,-0.11769991222918033
1772363408552324400,1.137324462890625,-0.09206570475697518,-0.010185293927788735,-0.09822598095238208
1772363408562393000,1.14739306640625,-0.0704103377878666,0.02755143927037716,-0.03794263103380799
1772363408572463400,1.15746337890625,-0.038113165295124055,0.03273030321300029,-0.009064765465259552
1772363408582532000,1.167531982421875,-0.029732290440797803,0.05300912113189697,0.003031330519914627
1772363408592602400,1.177602294921875,0.008198504024744034,0.051851767790317534,-0.0040877077050507065
1772363408602671000,1.187671142578125,0.05067980140149593,0.02897650363743305,-0.011299246519058942
1772363408612741000,1.1977412109375,0.01899579237103462,-0.02259527816772461,-0.014753332495689392
1772363408622810000,1.20781005859375,-0.04181961859762669,-0.05299216999709606,-0.008753361428529024
1772363408632880000,1.217880126953125,-0.06910977658331394,-0.053387891316413874,0.009081716600060463
1772363408642949000,1.22794921875,-0.06862053176164627,-0.05106850845813751,-0.0011461012952029704
1772363408653023200,1.238023193359375,-0.009286883783340454,-0.03283259454369545,-0.012491232782602309
1772363408663092500,1.248092529296875,0.042454993891716,0.009815876093506813,0.013147943125665187
1772363408673162200,1.258162353515625,0.07184475450515747,0.05876081652641296,0.04425868231281638
1772363408683231200,1.268231201171875,0.051938277029991146,0.0570294626891613,0.02148936275243759
1772363408693301500,1.278301513671875,0.011023498317599295,0.04065349742770195,0.008416822950541972
1772363408703370200,1.288370361328125,0.033871874463558195,0.07005085682570934,0.012992460303008555
1772363408713440500,1.2984404296875,0.07866729400157928,0.08606617208123206,0.005506050070375204
1772363408723509200,1.30850927734375,0.09584054712057113,0.07120061138272285,-0.008163432711362838
1772363408733579500,1.31857958984375,0.0938467429548502,0.048507718059420585,0.025574878500401972
1772363408743648300,1.328648193359375,0.08691782047450541,0.046781040397286415,0.05503419721871614
1772363408753717500,1.338717529296875,0.01022679498195648,0.03637655076086521,0.04058744645416736
1772363408763787300,1.348787353515625,-0.03261339883506298,0.0092892218708992,0.029739450833946465
1772363408773856500,1.3588564453125,-0.05440262131690979,0.024420155507326124,0.031550445778667925
1772363408783926300,1.36892626953125,-0.10282558370232582,0.04965864166021347,0.01964724201709032
1772363408793995300,1.378995361328125,-0.10723170970678329,0.05464052172601223,0.015257774886488914
1772363408804065300,1.389065185546875,-0.04281973555088043,0.02621814484000206,-0.0070623396016657345
1772363408814134300,1.39913427734375,0.021895605465769765,0.019989479583501814,-0.017215484825521706
1772363408824204300,1.409204345703125,0.024861469534039497,0.0036029929280281064,-0.020960516572743653
1772363408834273300,1.419273193359375,0.05301029017567634,0.0040092356413602825,-0.011964286299049854
1772363408844343300,1.42934326171875,0.028158172991871833,0.029624153891205787,0.012457768904417752
1772363408854412300,1.439412353515625,-0.00835632493495941,0.03367722867429256,0.015115882197767496
1772363408864482300,1.449482421875,0.006375380250811576,0.0339238969117403,0.0059000178240239615
1772363408874551300,1.45955126953125,0.012459668600559234,-0.00003565583527088165,-0.010710925237089395
1772363408884621300,1.469621337890625,0.0013747954845428467,-0.048071080207824704,-0.02970277208536863
1772363408894690300,1.479690185546875,-0.04018587991595268,-0.03780219964981079,-0.019837503892183302
1772363408904760300,1.48976025390625,-0.07510112595260143,0.01223638123869896,-0.02562529351338744
1772363408914829300,1.499829345703125,-0.0351484702706337,0.07221592590510845,-0.05687850991114974
1772363408924899300,1.5098994140625,0.004477437674999237,0.10333528679013251,-0.04008724184706807
1772363408934968300,1.51996826171875,0.005647650498151779,0.06448737747967243,-0.0428654743887484
1772363408945038300,1.530038330078125,0.03060439710021019,0.013138298514485358,-0.060555444858223194
1772363408955107300,1.540107421875,0.04065466647148132,0.009151859226822852,-0.0598297609321773
1772363408965177300,1.55017724609375,0.055987844681739805,0.03725333359539509,-0.03494476439207792
1772363408975246300,1.560246337890625,0.08509235861301422,0.04074643640816211,0.006969839012622833
1772363408985316400,1.57031640625,0.13783259967565537,0.03472878355383873,0.008135521791130303
1772363408995385300,1.58038525390625,0.11855448323190211,0.012053425887227057,-0.034029110851883884
1772363409005455400,1.590455322265625,0.032035891208052635,-0.006067337214946746,-0.03718362936004996
1772363409015524400,1.6005244140625,-0.0512999791264534,-0.04745908578932285,-0.04135010138973593
1772363409025594000,1.610593994140625,-0.09715572137236594,-0.015537760871648787,-0.016836130119115115
1772363409035663400,1.620663330078125,-0.13984686210751532,-0.028100889846682547,-0.036006548404693604
1772363409045733000,1.630733154296875,-0.10860065997242926,-0.040136195555329324,-0.05260784685462713
1772363409055802400,1.64080224609375,-0.03793722420632839,-0.0034118542701005936,-0.015479600943624973
1772363409065872400,1.650872314453125,-0.049262335819005965,0.01161503446996212,-0.003248480401933193
1772363409075941400,1.66094140625,-0.11189444082081318,0.030566987699270246,0.010329963095486163
1772363409086011400,1.671011474609375,-0.14021569541990755,0.04731120175123214,0.013706453791260719
1772363409096080400,1.681080322265625,-0.09815700736939907,0.09126432524621486,0.002880523872375488
1772363409106150400,1.691150390625,-0.011903203761577606,0.13869126233160495,0.014470570031553507
1772363409116219400,1.701219482421875,0.008329436928033828,0.12492401826381683,-0.0043988194808363915
1772363409126289400,1.711289306640625,0.03143441818356514,0.09102350222766399,-0.0076072601333260536
1772363409136358100,1.721358154296875,0.044376317343115805,0.055258945885300635,-0.011470073041319846
1772363409146428400,1.731428466796875,0.024509002834558487,0.060683893543481825,0.01576864701807499
1772363409156497200,1.7414970703125,0.009216741156578064,0.05661386762559414,0.0038220425061881538
1772363409166567400,1.7515673828125,-0.01856616878211498,0.05397182868421077,-0.019716800121963023
1772363409176636200,1.76163623046875,-0.03899228621721267,0.005211597168445587,-0.016208792001008988
1772363409186706400,1.77170654296875,-0.03739537241458893,-0.020518471893668174,0.0235072784461081
1772363409196775400,1.781775390625,-0.013356325179338454,-0.02278817039132118,0.05120017201378941
1772363409206844400,1.791844482421875,0.019314941322803498,0.017386603608727454,0.03743000533655286
1772363409216914400,1.80191455078125,-0.0013619360029697416,0.003381459131836891,0.020965338878333566
1772363409226983400,1.8119833984375,-0.053255789369344705,-0.02272854915857315,0.022875410283356903
1772363409237053400,1.822053466796875,-0.0667804568529129,-0.042997430205345154,0.023542934281378984
1772363409247122200,1.8321220703125,-0.07985679604709148,-0.055103463062644,0.008301672138273715
1772363409257192400,1.8421923828125,-0.0528115527331829,-0.032199557337164876,0.004906184481084347
1772363409267261200,1.85226123046875,-0.014705401700735091,0.011153262177109718,0.0675460343979299
1772363409277331500,1.86233154296875,0.04611760805249214,0.036328035444021224,0.10674524136409162
1772363409287400200,1.872400146484375,0.06843231571316719,0.06121463941931724,0.07900441700145602
1772363409297470200,1.88247021484375,0.06670914518237113,0.07276596100330353,0.031847675159573555
1772363409307539200,1.892539306640625,0.048094461083412164,0.08145254080593585,-0.0015123042590916157
1772363409317609200,1.902609130859375,0.005932897180318832,0.09190613028109074,0.026485855865478514
1772363409327678200,1.91267822265625,-0.026236265018582342,0.09988310050964355,0.027817542860656973
1772363409337748200,1.922748291015625,-0.004868482819199562,0.09052373601198196,0.015509849951416254
1772363409347817500,1.9328173828125,0.00450257211625576,0.05583528446853161,0.006559650776535272
1772363409357887200,1.94288720703125,0.009179916277527808,0.030267712491750715,0.004673983160406351
1772363409367956500,1.95295654296875,0.026695699223875997,-0.02079261265993118,0.011565496239811181
1772363409378026200,1.963026123046875,0.053170449173450464,-0.05551087481975555,0.026276450898498296
1772363409388095500,1.973095458984375,0.04930032974183559,-0.0880126299738884,0.0031961656928062437
1772363409398165200,1.983165283203125,-0.0010977321088314056,-0.08580255270898342,-0.012808335907757281
1772363409408234200,1.993234130859375,0.014748071798682212,-0.010285831692814827,0.01836976942718029
1772363409418304300,2.00330419921875,0.02581424021422863,0.05875087965428829,0.025891981625556944
1772363409428373200,2.013373291015625,-0.015010522127151489,0.07602993123531342,0.013760083674639463
1772363409438443500,2.023443603515625,-0.02170505132973194,0.08576105165481566,0.01497691211849451
1772363409448512300,2.03351220703125,0.006889759513735771,0.05496551589667797,0.02063990631625056
1772363409458582500,2.04358251953125,-0.00838555102944374,-0.013977671948075294,-0.002340133385360241
1772363409468651300,2.0536513671875,-0.031174305942654607,-0.054929860061407085,-0.016407821704447267
1772363409478721300,2.06372119140625,0.010984919872879981,-0.07984276752173901,-0.004277677319198847
1772363409488790300,2.073790283203125,0.07510112595260143,-0.0767237587183714,0.006538315727561712
1772363409498860300,2.0838603515625,0.10336334384083748,-0.07728314616680144,0.024941402902454137
1772363409508929300,2.09392919921875,0.1058019691646099,-0.06784662477970123,0.042012364690750835
1772363409518999300,2.103999267578125,0.10067278958261013,-0.06899228768348693,0.06408025798350572
1772363409529068300,2.114068359375,0.07739069819450378,-0.08453004855513573,0.01853299716487527
1772363409539138300,2.12413818359375,0.06335223596990108,-0.023564415460824967,0.009374708197265862
1772363409549207300,2.134207275390625,0.0733463912397623,0.040867432439327236,0.004246259267628193
1772363409559277300,2.14427734375,0.03961304846405983,0.09664251115322113,-0.009577245032042265
1772363409569346300,2.15434619140625,0.0018377368211746215,0.1059463460713625,0.0011946166120469569
1772363409579416300,2.164416259765625,0.11566109987795352,0.1357166304349899,0.03694236795008182
1772363409589485300,2.1744853515625,-0.04395955323576927,0.08980828121900558,0.015061667792499064
1772363409599555300,2.184555419921875,-0.16268179425001145,0.06473053858578205,0.03789119310751557
1772363409609624300,2.194624267578125,0.016139818418025968,0.0007733224600553512,0.03826704068258405
1772363409619694300,2.2046943359375,0.18378186542391775,-0.08266367016136646,-0.039067543410509824
1772363409629763300,2.214763427734375,0.17582067728638648,-0.12296645445525646,-0.09932605114877223
1772363409639833000,2.2248330078125,0.04206161065995693,-0.10793488954007625,-0.07367226219326257
1772363409649902300,2.23490234375,-0.10905775609016417,-0.08889584254920482,-0.022639409570395945
1772363409659972400,2.244972412109375,-0.21323709248900413,-0.07256839260458946,0.013250672847777605
1772363409670041300,2.255041259765625,-0.2090063230514526,-0.026051556101441383,0.058348290202766655
1772363409680111400,2.265111328125,-0.0812111332654953,0.014016834914684294,0.06557941050007939
1772363409690180400,2.275180419921875,0.03214987297654152,0.03602174597382545,0.04407090465575456
1772363409700250400,2.28525048828125,0.06985621103644371,0.051989714956283566,0.03165522132739425
1772363409710319400,2.2953193359375,0.053711131921410554,0.06924129400849342,0.04366802294328809
1772363409720389400,2.305389404296875,0.024877251625061034,0.08714286140203475,0.051475043432414526
1772363409730458400,2.315458251953125,-0.020026304462552068,0.07426350608468055,0.005579699828475713
1772363409740528400,2.3255283203125,-0.051070262023806566,0.04366320063769817,-0.07020707030072808
1772363409750597000,2.33559716796875,-0.01824468174278736,0.012148118433356284,-0.10807532092407345
1772363409760667400,2.34566748046875,0.021786884394288063,-0.04182663286030292,-0.11868439322188495
1772363409770736000,2.355736083984375,0.06684475426077842,-0.03819616740345955,-0.08309767766445875
1772363409780806400,2.365806396484375,0.07151800676882267,-0.020066636472940443,-0.03942687824219465
1772363409790875400,2.37587548828125,0.028466216027736663,-0.034870237851142884,-0.048129824657738206
1772363409800945400,2.3859453125,-0.01014145478606224,-0.0703314273327589,-0.06398644222021102
1772363409811014400,2.396014404296875,-0.014525368958711623,-0.06589432166814804,-0.05089812032729387
1772363409821084200,2.406084228515625,-0.049205052673816675,-0.060517889326810834,-0.057190060078352686
1772363409831153400,2.4161533203125,-0.11906769345104694,0.013076923716068268,-0.03521642094030976
1772363409841223200,2.42622314453125,-0.10888824474215507,0.12216624398827552,0.02560936529189348
1772363409851292400,2.43629248046875,-0.051746553850173946,0.15995090798139572,0.03642696577385068
1772363409861362200,2.446362060546875,-0.019351181679964063,0.13672083904147148,0.0277042917445302
1772363409871431400,2.456431396484375,0.010623100823163985,0.1021159741282463,0.041818011162430044
1772363409881501400,2.46650146484375,0.02676876446008682,0.02217909858226776,0.042718759394437075
1772363409891570400,2.4765703125,0.06634381900131701,-0.010184709405899047,0.027921733887493607
1772363409901640400,2.486640380859375,0.11251754115521907,-0.04209259032011032,0.03951616396084428
1772363409911709200,2.496709228515625,0.09991700277924537,-0.08588029412031173,0.001994388687610626
1772363409921779500,2.506779541015625,0.06854571295976639,-0.0927834976375103,-0.028025340392440555
1772363409931848200,2.51684814453125,0.04000292456448078,-0.0714946258932352,-0.03757686646133661
1772363409941918500,2.52691845703125,0.016116437542438505,-0.040294600987434384,-0.04283391020670533
1772363409951987200,2.5369873046875,0.031900866651535034,-0.012290157252550124,-0.03103241325393319
1772363409962057500,2.547057373046875,0.08830956709384917,0.0016840075641870497,-0.034255320823192596
1772363409972126200,2.557126220703125,0.1428454594016075,-0.039838089391589164,-0.058579322479665276
1772363409982195500,2.567195556640625,0.13306757723093032,-0.09172142136394977,-0.050207799975574015
1772363409992265200,2.57726513671875,0.06040040042698383,-0.10232172583341598,0.0078350775398314
1772363410002335200,2.587335205078125,0.02182137118577957,-0.0946568902939558,0.02061754835397005
1772363410012404200,2.597404296875,0.018009119421243665,-0.025762217766046522,0.07578077877983451
1772363410022474200,2.60747412109375,0.052985740256309505,0.04427519505620003,0.12555807838365435
1772363410032543500,2.61754345703125,0.09333177917003631,0.10850304481685161,0.11558569655418395
1772363410042612200,2.6276123046875,0.06400163978934288,0.11709317850768565,0.05920315346643328
1772363410052682500,2.6376826171875,-0.0022469021439552304,0.07110358074903488,-0.0034128771834075447
1772363410062752300,2.647752197265625,-0.06645780076980591,0.03890051628053188,0.0008661153100430965
1772363410072821500,2.657821533203125,-0.08189093222320079,0.031334464940428734,0.026062077495455742
1772363410082890200,2.66789013671875,-0.053583121627569195,0.023559154763817786,0.03967252356633544
1772363410092960300,2.677960205078125,-0.02600187174081802,0.004622983625531196,0.04053308591842651
1772363410103030300,2.6880302734375,-0.03490940081775188,-0.01317395434975624,0.04112316076606512
1772363410113099300,2.698099365234375,-0.031385318344831464,-0.03641279111802578,0.01916618050187826
1772363410123168300,2.708168212890625,-0.024058920979499816,-0.08722820159792899,-0.021212153246253727
1772363410133238300,2.71823828125,-0.01955050364434719,-0.10518120691776275,-0.05220408835932612
1772363410143308300,2.728308349609375,-0.013207272097468376,-0.09098901543617248,-0.03899769304469228
1772363410153377300,2.738377197265625,-0.021229835033416748,-0.042936639928817744,-0.0003999591030180454
1772363410163446500,2.748446533203125,-0.027315876948833463,-0.025284663382172584,0.022306816615164277
1772363410173516300,2.758516357421875,0.022679449319839475,0.0035620763957500455,0.041778994326293464
1772363410183586300,2.76858642578125,0.07834288435280323,0.011027589970827102,0.04075155097469687
1772363410193655300,2.7786552734375,0.06977905414700508,-0.0029980127722024916,-0.009907207638770342
1772363410203724300,2.788724365234375,0.07549392466247082,-0.01118365731537342,-0.046735301559418435
1772363410213794300,2.798794189453125,0.1087035358250141,-0.01786006633937359,-0.06554024753347039
1772363410223863300,2.80886328125,0.09641571666002273,-0.03290624430179596,-0.07813800943046807
1772363410233933300,2.818933349609375,0.02895896798074245,-0.01725683974921703,-0.05855199608132243
1772363410244002300,2.829002197265625,0.02515197691321373,0.030240239962935445,-0.004141337588429451
1772363410254072300,2.839072265625,0.015205167916417121,0.09161679194569587,0.014587766670435666
1772363410264141300,2.849141357421875,-0.01810615005493164,0.08394143501222133,-0.008184767760336399
1772363410274211300,2.85921142578125,0.030758710879087447,0.023073417073488235,-0.026445962246507405
1772363410284280300,2.8692802734375,0.09077741851210594,-0.022878186762332914,-0.020890227815508842
1772363410294350300,2.879350341796875,0.10124562103450298,-0.03521276767849922,0.016470365546643734
1772363410304419300,2.88941943359375,0.081368369653821,-0.0335275910705328,0.04814721418395638
1772363410314489300,2.8994892578125,0.013123685467243193,-0.03650456105470657,0.04891059977188706
1772363410324558300,2.909558349609375,-0.13470599208772183,-0.04891980599164963,0.006644844841957092
1772363410334628400,2.91962841796875,-0.23766484678089617,-0.04552840998768806,0.01314998895227909
1772363410344697300,2.929697265625,-0.16233634181320666,-0.01087561427950859,0.054364335133135315
1772363410354767400,2.939767333984375,-0.03270224616229534,0.012488310173153877,0.0681117054566741
1772363410364836000,2.949836181640625,0.04694236843883991,0.029340076252818106,0.08016030903831124
1772363410374906400,2.95990625,0.06843231571316719,0.01564706646502018,0.07727437833845614
1772363410384975400,2.969975341796875,0.045781507965922355,0.025522563791275023,0.0627393647685647
1772363410395045400,2.98004541015625,-0.02133037279844284,-0.013708207356929777,-0.01649929938018322
1772363410405114400,2.9901142578125,-0.06359072090089321,-0.020243162083625792,-0.060222998033463954
1772363410415184400,3.000184326171875,-0.015435469540953635,-0.01640168422460556,-0.04862213821932673
1772363410425253400,3.01025341796875,0.05303776270449161,0.004787818798422813,-0.025996026521921158
1772363410435323100,3.0203232421875,0.0546504585981369,0.008601824128627776,-0.025520956356078386
1772363410445392400,3.030392333984375,0.025671616873145103,-0.0059761518001556395,0.008659107273817062
1772363410455462100,3.040462158203125,-0.003715221130847931,-0.009020341801643371,0.0225162215821445
1772363410465531400,3.050531494140625,-0.011261983248591423,0.03963701386153698,0.04971928580626845
1772363410475601400,3.060601318359375,0.03871522284150123,0.067996262383461,0.07679317069277167
1772363410485670400,3.07067041015625,0.031014146944880482,0.0574082328736782,0.04798427870720624
1772363410495740400,3.080740478515625,-0.017461422410607337,0.03838789058327675,0.01013341761007905
1772363410505809400,3.090809326171875,-0.02001929019987583,0.08913257391452789,0.045484278585016726
1772363410515879400,3.10087939453125,0.02282441074848175,0.120028062915802,0.0938448432587087
1772363410525948200,3.1109482421875,0.03736673084199428,0.06547463495135307,0.05929945344775915
1772363410536018400,3.121018310546875,-0.027770634979009626,0.007725625815987586,0.021263591172546146
1772363410546087200,3.131087158203125,-0.08464753745496273,-0.055122167763113974,0.015476386073231697
1772363410556157400,3.141157470703125,0.0007008417457342147,-0.1263449909776449,-0.004105681753158569
1772363410566226200,3.15122607421875,0.09551730651557445,-0.17657880217730998,-0.06498524399921297
1772363410576296400,3.16129638671875,-0.141264912211895,-0.1462222423583269,-0.084855919508636
1772363410586365200,3.171365234375,-0.16007950279712677,-0.098996380802989,-0.03343640565574169
1772363410596435200,3.181435302734375,0.009933364993333816,0.0197200149923563,0.023570406810194254
1772363410606504400,3.19150439453125,0.06741466310322285,0.10509002150297164,0.024858985316008327
1772363410616574200,3.20157421875,0.03556348081231117,0.1068733977884054,-0.009458294827491045
1772363410626643500,3.2116435546875,-0.006872223857045173,0.04746259292066097,-0.02581248664855957
1772363410636713200,3.221713134765625,-0.020929390782117842,-0.00994447090923786,-0.006137625972181558
1772363410646780200,3.2317802734375,0.02145370691716671,0.0050911856591701506,0.026155162606388328
1772363410656849400,3.241849365234375,0.045945758616924286,0.017112462842464447,0.02827186249941587
1772363410666918400,3.25191845703125,0.01949088241159916,0.016583470532298087,0.03787628779932856
1772363410676988400,3.261988525390625,-0.009607201778888701,0.04045475998520851,0.08147665233388543
1772363410687058400,3.272058349609375,-0.021698621588945387,0.06369476579725741,0.09951645915433764
1772363410697127400,3.28212744140625,-0.007340425890684127,0.060333180409669875,0.07940569127872586
1772363410707196400,3.292196533203125,-0.03599661153256893,0.008624035960435867,0.009624445174634457
1772363410717266400,3.302266357421875,-0.03519757010936737,-0.02660626737475395,-0.013626812683790922
1772363410727335400,3.31233544921875,-0.02908931636214256,-0.041025253349542615,-0.02055880390405655
1772363410737405200,3.3224052734375,-0.08688216463923454,-0.024940379989147186,-0.020325871931016443
1772363410747475500,3.332475341796875,-0.16503858650922773,0.0232318225055933,-0.008864712848514318
1772363410757544200,3.342544189453125,-0.19255787707567215,0.051388826453685754,0.02146539735496044
1772363410767613400,3.352613525390625,-0.17015782921910286,0.07565233009457588,0.029179917255043982
1772363410777683200,3.36268310546875,-0.14273089311122894,0.07672609680593014,0.028115795154869554
1772363410787752400,3.37275244140625,-0.0522106642305851,0.074296239310503,0.03506327620521187
1772363410797822500,3.382822509765625,0.04431728063225746,0.05265606991052627,0.016072306139767168
1772363410807892200,3.392892333984375,0.05794540849030017,0.032470190972089766,-0.001558335357904434
1772363410817961500,3.40296142578125,0.022051088288426397,0.007903320470452307,-0.012435849333554506
1772363410828030500,3.413030517578125,0.010884382107853889,-0.005052607214450836,0.002717880656570196
1772363410838100500,3.4231005859375,0.0567635052293539,-0.012118307816982268,0.033577859953045845
1772363410848170200,3.433170166015625,0.10222820233106612,-0.016422727012634277,0.04729030509367585
1772363410858239500,3.443239501953125,0.08921089984774588,-0.028156419426202773,0.03143237235695123
1772363410868308200,3.45330810546875,0.1337830320239067,-0.05632803642153739,-0.028189444912970065
1772363410878378500,3.46337841796875,0.16320786395072936,-0.017624504017829893,-0.07279314127117395
1772363410888448500,3.473448486328125,0.09907295317053794,0.03083528324663639,-0.10417962865978479
1772363410898517200,3.483517333984375,0.04660334574282169,0.060085927650332445,-0.10365268217623233
1772363410908587500,3.49358740234375,0.04610007239580154,0.040510289564728734,-0.0973708254277706
1772363410918656300,3.50365625,0.050562897023558616,-0.08095978885293006,-0.11800897817835211
1772363410928726500,3.5137265625,0.07274141108393668,-0.1383931561678648,-0.0885338773690164
1772363410938795300,3.523795166015625,0.1165332065373659,-0.12395429644882679,-0.04223930531442165
1772363410948864500,3.533864501953125,0.1546978097587824,-0.05014379482865333,0.0109884270042181
1772363410958934300,3.543934326171875,0.143974755692482,0.048179216757416723,0.08348463115543127
1772363410969003500,3.55400341796875,0.09798691149950027,0.14762334132790564,0.13129852173179388
1772363410979073300,3.5640732421875,0.04289689244031906,0.21800328397750854,0.12691811469048261
1772363410989143300,3.574143310546875,-0.03242401374280453,0.22952362590134143,0.11282368449494241
1772363410999212300,3.58421240234375,-0.08960486760139465,0.12703589585125447,0.08686915902718902
1772363411009282300,3.5942822265625,-0.11745324399173258,0.00945171895623207,0.08848580044358968
1772363411019351300,3.604351318359375,-0.07298983288705349,-0.05840075104236602,0.07302738841846584
1772363411029420300,3.614420166015625,0.06061024378538132,-0.056305824589729304,0.04555778221264481
1772363411039490600,3.624490478515625,0.13902151719927788,-0.02519464701116085,-0.012465952210873365
1772363411049560300,3.634560302734375,0.12118190912604332,0.025257190853357314,-0.049230771636962885
1772363411059629600,3.644629638671875,0.045565819388628005,0.07012392206192017,-0.03724558868035674
1772363411069699300,3.65469921875,-0.04200374299287796,0.03310731983184814,-0.07612681573852896
1772363411079768300,3.664768310546875,-0.05438216305077076,-0.00023906945288181304,-0.09107128689214587
1772363411089838300,3.67483837890625,-0.008758475995063781,-0.01816226415634155,-0.11257365525662898
1772363411099907300,3.6849072265625,0.041352001085877416,-0.0076554831892251965,-0.09635434186160564
1772363411109977300,3.694977294921875,0.02388356441259384,0.019494974064826965,-0.06495645629614591
1772363411120046300,3.70504638671875,-0.016924246793985367,0.03262684283852577,-0.049891135241836304
1772363411130116400,3.715116455078125,-0.05322480970919132,0.018757307440042496,-0.04432590233013033
1772363411140185300,3.725185302734375,-0.061325114056468004,0.0557569585353136,-0.024770576380193234
1772363411150255400,3.73525537109375,-0.0766097769498825,0.08494739718437194,-0.006876169379800558
1772363411160324400,3.745324462890625,-0.09819617033600807,0.0954191068381071,0.03978898955285549
1772363411170394400,3.755394287109375,-0.12675590986609458,0.03224047386944294,0.05997706044837832
1772363411180463400,3.76546337890625,-0.10477087255120276,0.02521978145241737,0.073051353815943
1772363411190533400,3.775533447265625,-0.015531331130862235,0.08177168975770473,0.06949234616011381
1772363411200602400,3.785602294921875,0.06923603331148624,0.09946166022717952,0.06910685397386551
1772363411210672400,3.79567236328125,0.0429781409829855,0.020799042400717734,0.04051657317504286
1772363411220741400,3.805741455078125,-0.017845453292131424,-0.06207505564093589,0.004276946666836738
1772363411230811400,3.815811279296875,-0.05455810413956642,-0.0975064345061779,-0.022049334722757337
1772363411240880000,3.825880126953125,-0.031105916881561276,-0.09209785346090793,-0.040150954733043906
1772363411250950400,3.835950439453125,0.01609539475440979,-0.0691284812837839,-0.016337386816740036
1772363411261019400,3.846019287109375,0.06171908181011677,-0.03790449098050594,0.011043079800903797
1772363411271089400,3.85608935546875,0.06637187605202198,-0.004038461735844612,0.012642770082503557
1772363411281158400,3.866158447265625,0.05502396808564663,0.005232639956474304,0.0028564123444259166
1772363411291228400,3.876228515625,0.047588265126943585,0.0365296954959631,0.006145955409109592
1772363411301297400,3.88629736328125,0.025125088906288146,0.06004676468372345,0.005247545264661312
1772363411311367200,3.8963671875,-0.05634674112200737,0.02806581853330135,-0.013953998811542988
1772363411321436400,3.9064365234375,-0.1091746604681015,0.007516366979479789,-0.02831087933555245
1772363411331506200,3.916506103515625,-0.09948913275599479,0.006069675302505493,0.01092003794312477
1772363411341575400,3.926575439453125,-0.030126258194446563,0.049802434045076366,0.07810834494456648
1772363411351645400,3.9366455078125,0.01087386071383953,0.07924363258481025,0.10494681363999843
1772363411361714400,3.94671435546875,0.02587912214398384,0.058414779567718504,0.08710092195644974
1772363411371784400,3.956784423828125,0.04852057754099369,0.03108136696219444,0.05988908990398049
1772363411381853400,3.966853515625,0.01930558897256851,-0.002000233906507492,0.021474457444250583
1772363411391923500,3.97692333984375,-0.032545594295859334,-0.025840543699264525,0.011743044763803482
1772363411401992400,3.986992431640625,-0.060685647109150885,-0.022525720062851903,0.04535772959589958
1772363411412062500,3.9970625,-0.05322597875297069,0.05760229414105415,0.0996181659631431
1772363411422131200,4.007131103515625,-0.07457680981755256,0.10514262847304344,0.10180778496190905
1772363411432201500,4.017201416015625,-0.1426759480535984,0.12099310855567455,0.0813894124418497
1772363411442270200,4.027270263671875,-0.10826865153908728,0.08894552690982818,0.0313369491584599
1772363411452340500,4.037340576171875,0.023066402810811994,0.08477028705179691,0.010458119519799948
1772363411462409200,4.0474091796875,-0.03137655051648617,0.005147299760580063,-0.011665595613420008
1772363411472479200,4.057479248046875,-0.01895136870741844,-0.012317629781365394,-0.013186083178967236
1772363411482548500,4.067548583984375,0.07734861261844635,-0.002353285127878189,-0.004870820906758308
1772363411492618200,4.0776181640625,0.12468611785471438,-0.01285071374475956,-0.008330021449923515
1772363411502687500,4.0876875,0.05540390731394291,-0.04139291761815548,-0.02849719568789005
1772363411512757200,4.09775732421875,0.033548049336671826,-0.04408873257339001,-0.034718700551241634
1772363411522826500,4.107826416015625,0.06212064834833145,0.0030021044254302976,-0.016083412055671212
1772363411532896300,4.117896240234375,0.04646832118630409,0.04533317967653274,0.002733955008536577
1772363411542965500,4.127965576171875,-0.005398644173145294,0.029441198539733884,-0.017409546092897653
1772363411553035300,4.13803515625,-0.03667114979326725,0.0015828852772712706,-0.059376464206725356
1772363411563104500,4.1481044921875,-0.028315409380197522,0.004497895941138267,-0.07410276256501674
1772363411573174500,4.158174560546875,0.011125789648294448,0.0027706337571144104,-0.0670863079316914
1772363411583243300,4.1682431640625,0.027990999731421468,-0.06476677894294261,-0.09668795773014426
1772363411593313500,4.1783134765625,0.046745969083905214,-0.11244622948467731,-0.14706658422797916
1772363411603382300,4.18838232421875,0.07254734981656075,-0.0816904412150383,-0.12386457233875989
1772363411613452500,4.19845263671875,0.050607320687174794,-0.04322480922043323,-0.07671937480419874
1772363411623521300,4.208521240234375,-0.007180266892910003,0.0005652326673269272,-0.04698839953765273
1772363411633591300,4.21859130859375,0.007587678650021553,0.05098784443736076,-0.013985124602168797
1772363411643660300,4.228660400390625,0.07169102524816989,0.0787362675845623,0.0028442835152149197
1772363411653730600,4.23873046875,0.060415013474225995,0.10934826346933842,0.013951368463039397
1772363411663799600,4.248799560546875,0.05114858795702457,0.1351432144612074,0.03319514424577355
1772363411673869600,4.25886962890625,0.016702128475904465,0.08654080385565757,0.010767623860388993
1772363411683938600,4.2689384765625,-0.05831657989025116,0.042616321933269495,-0.01357698219269514
1772363411694008600,4.279008544921875,-0.11508300772905349,-0.01730827767550945,-0.019572423215210438
1772363411704077600,4.28907763671875,-0.10844576167166232,-0.06361059464514256,-0.01741831392124295
1772363411714147600,4.299147705078125,-0.06590893471539021,-0.06936930430233477,0.032089374960958955
1772363411724216600,4.309216552734375,-0.07092588609457015,-0.029933950492739676,0.0715088005490601
1772363411734286600,4.31928662109375,-0.08373509878516197,0.013489011648297309,0.04511252266317606
1772363411744355600,4.32935546875,0.0007446808874607086,0.034928105518221855,-0.021071721862256525
1772363411754425600,4.339425537109375,-0.11272563094794749,0.04085808008909225,-0.040437516589462756
1772363411764494600,4.34949462890625,-0.20611586230695247,0.04659457791447639,0.017993045069277284
1772363411774564600,4.359564697265625,-0.10737199496030807,0.07837854018807411,0.033259441653639074
1772363411784633600,4.369633544921875,-0.027859482306241988,0.043350481426715846,0.012702391315251587
1772363411794703400,4.379703369140625,-0.02882394342422485,0.0030208091259002682,-0.005410626871883869
1772363411804772600,4.389772705078125,0.003745616269111633,-0.03736088562309742,0.0045874739207327365
1772363411814842400,4.39984228515625,0.07498012992143631,-0.0920773951947689,0.01810804975107312
1772363411824911600,4.40991162109375,0.12457096704244613,-0.0774205088108778,0.037015579316765065
1772363411834981600,4.419981689453125,0.06856441766023635,-0.028495442122220993,0.06535597700774669
1772363411845050600,4.430050537109375,-0.06000351006388664,0.018084522745013237,0.07659414098933338
1772363411855120600,4.44012060546875,-0.13340133922994135,0.09464753794372081,0.10126081860363483
1772363411865189600,4.450189697265625,-0.08546294549107551,0.17089549584388733,0.1169632685177028
1772363411875259600,4.460259765625,0.005589782831072807,0.1930173112809658,0.11872457910180091
1772363411885328600,4.47032861328125,0.06547171234190463,0.11468845545351504,0.07213233927488327
1772363411895398700,4.480398681640625,0.09037526745200157,0.04753799624443054,0.025723054799437522
1772363411905467400,4.49046728515625,0.10461714329421519,0.0014326631516218184,-0.02159852221533656
1772363411915537700,4.50053759765625,0.09971242011785507,-0.05854688151478767,-0.059996349670737976
1772363411925606400,4.5106064453125,0.04983750535845756,-0.08956219750344753,-0.06358253759443759
1772363411935676700,4.5206767578125,0.04949497553110122,-0.07417056710422039,-0.05082227861210704
1772363411945745400,4.530745361328125,0.0769499686896801,-0.07215045945346354,-0.056777095363289114
1772363411955815700,4.540815673828125,0.08058160319030284,-0.06720598878860473,-0.08868731436505914
1772363411965884700,4.550884765625,0.02637012053132057,-0.03468552893400192,-0.12047551442235707
1772363411975954400,4.560954345703125,-0.014941548544168471,0.002420505145192146,-0.12325199339836836
1772363411986023700,4.571023681640625,-0.01514554668366909,0.06657236706018448,-0.10460326089933514
1772363411996093400,4.581093505859375,-0.05983341419398784,0.0940600934445858,-0.07543430342972278
1772363412006162700,4.59116259765625,-0.10312368986606597,0.08667816649973392,-0.02956497104987502
1772363412016232400,4.601232421875,-0.09562310497760772,0.00968786579966545,-0.004443243144452572
1772363412026301700,4.6113017578125,-0.026414544194936752,-0.014480945295095443,0.013401333364844321
1772363412036371500,4.621371337890625,0.00705751729607582,-0.018960136535763738,0.015360358478128909
1772363412046440700,4.631440673828125,-0.022608137649297713,-0.013429974937438964,0.02108823460564017
1772363412056510700,4.6415107421875,-0.09119126001000404,0.013880056792497633,0.027016747871786356
1772363412066579500,4.651579345703125,-0.12919687327742577,0.04941197342276573,0.05470394235104322
1772363412076649700,4.661649658203125,-0.11776362511515617,0.05080781169533729,0.0820259567797184
1772363412086718500,4.671718505859375,-0.06062018065750598,0.04502221403121948,0.09640139587372541
1772363412096788700,4.681788818359375,0.020751111605763435,0.03695464290976524,0.09847235692888498
1772363412106857500,4.691857421875,0.10266308661699294,0.016895605221390723,0.09938917951285839
1772363412116927700,4.701927734375,0.06703998457193375,0.01513327172398567,0.05885770102962851
1772363412126996500,4.71199658203125,-0.04444996710121631,-0.02470481766760349,0.007243687517940998
1772363412137066500,4.72206640625,-0.0940682767510414,-0.03873509658575058,-0.03823649941384792
1772363412147135500,4.732135498046875,-0.06570785918533802,0.0031990883022546767,-0.036748452813178296
1772363412157205500,4.74220556640625,0.0023719898283481597,0.0640875645071268,0.014332768996059893
1772363412167274500,4.7522744140625,0.04422083452045917,0.09555530043840407,0.03586158697605133
1772363412177344500,4.762344482421875,0.0934755715548992,0.11667173822522163,0.036449469866603613
1772363412187413500,4.77241357421875,0.41766017940342426,0.09624912792146205,0.03720920219272375
1772363412197483500,4.7824833984375,0.22491174819171428,-0.0036199440628290175,-0.03866246974095702
1772363412207552800,4.792552734375,-0.2332978837430477,-0.05936755024790764,-0.03529357782974839
1772363412217622500,4.80262255859375,-0.07792319763600826,-0.03137596599459648,0.017323621375113726
1772363412227691800,4.81269189453125,0.17242402058541773,-0.05851473281085491,-0.05082359378635883
1772363412237761500,4.822761474609375,0.11189210273325442,-0.09841127439141273,-0.07001593164280057
1772363412247830500,4.83283056640625,-0.045987844192981714,-0.11429331865608691,-0.015715017134696245
1772363412257900500,4.842900634765625,-0.09195347655415534,-0.06912380510866642,0.014213672661036252
1772363412267969500,4.852969482421875,-0.10411036281585692,0.01783259381055832,0.0031296763278543947
1772363412278039600,4.86303955078125,-0.11991700375676155,0.07571312037110328,-0.030164398247748612
1772363412288108500,4.873108642578125,-0.10892740770876407,0.08904606467485428,-0.02293196277618408
1772363412298178600,4.883178466796875,-0.068309566116333,0.0682008450448513,-0.0009054244071245193
1772363412308247600,4.89324755859375,-0.02018237180709839,0.07077391040325165,0.001305675771087408
1772363412318317600,4.903317626953125,-0.01748655685186386,0.06046060618162155,-0.026604659939557313
1772363412328386600,4.913386474609375,-0.010232640200853347,0.017339841857552527,-0.030948242101818322
1772363412338456600,4.92345654296875,0.07767945200800895,0.01596679993867874,-0.0010584230117499827
1772363412348525600,4.933525634765625,0.14767653281986712,0.045644145321846005,0.024772622206807135
1772363412358595600,4.943595703125,0.11278583670258521,0.054365211915969845,0.0299449102781713
1772363412368664600,4.95366455078125,0.026342063480615616,0.03320376594364643,0.026192864268273115
1772363412378734600,4.963734619140625,-0.039548751056194306,0.027233459362387656,0.0698784228682518
1772363412388803600,4.973803466796875,-0.11618716957867145,-0.008652093011140822,0.05209317533075809
1772363412398873600,4.98387353515625,-0.15409867482185363,-0.04909866968989372,0.05579392954483628
1772363412408943600,4.993943603515625,-0.09407879814505576,-0.03032148850560188,0.058908408303558826
1772363412419012600,5.0040126953125,0.021429156997799872,0.00027297172248363493,0.05425868280157446
1772363412429082600,5.01408251953125,0.04746083935499191,0.028384382963180542,0.04783434884250164
1772363412439151600,5.024151611328125,-0.028896424138545988,0.025176526832580565,0.017485387808084486
1772363412449221600,5.0342216796875,-0.07488777546286582,0.023346388795971867,-0.023563538677990437
1772363412459290600,5.04429052734375,-0.06635843204855918,0.027409400451183317,-0.0644075902417302
1772363412469360600,5.054360595703125,-0.0037906244546175,0.04948386961519718,-0.06617956835031509
1772363412479429400,5.064429443359375,0.04041267440915108,0.05246610029637813,-0.04361234723329544
1772363412489499600,5.074499755859375,0.005553542473912239,-0.010569909331202507,-0.07818667087778448
1772363412499568400,5.084568359375,-0.015962123763561247,-0.04640519282221794,-0.08831775040030479
1772363412509638700,5.094638671875,0.004234861090779305,-0.04333177672624588,-0.06905366248190403
1772363412519707600,5.104707763671875,0.009317863443493843,-0.0025736498802900313,-0.038933103375881906
1772363412529777400,5.11477734375,-0.02312368595600128,0.03763970256447792,-0.013318331256508827
1772363412539846700,5.1248466796875,-0.06071954937875271,0.08295885371565818,0.04910378425642848
1772363412549916400,5.13491650390625,-0.06007832886576652,0.07304477794468403,0.03545885139405727
1772363412559985700,5.144985595703125,-0.08282090654969215,0.04502981281578541,0.0020125088661909103
1772363412570055400,5.155055419921875,-0.06945756710767746,0.03318447672128677,0.008934709344804287
1772363412580124700,5.165124755859375,-0.0137900404214859,0.014849194085597992,0.02068155350089073
1772363412590194400,5.1751943359375,0.02305880402624607,-0.013214870882034302,0.027356501220166682
1772363412600263700,5.185263671875,-0.008452771046757698,-0.03549859888255596,0.004087561574578285
1772363412610333700,5.195333740234375,-0.04686345798373222,-0.03285831350684166,-0.0003232406049966812
1772363412620402700,5.205402587890625,-0.04463876767158508,-0.02888765631020069,0.011990882045030593
1772363412630472700,5.21547265625,0.003025485301017761,-0.004644026413559914,0.014610416893661021
1772363412640541400,5.22554150390625,0.050102293774485586,-0.012722703450918197,-0.002862695954740047
1772363412650611000,5.23561083984375,0.07737900775671004,0.011840075397491455,-0.012381050406396388
1772363412660680000,5.245679931640625,0.12583470336794852,0.018646248281002045,-0.007688947067409753
1772363412670750000,5.25575,0.1424012227654457,0.024368717581033705,-0.049805648915469646
1772363412680818700,5.265818603515625,0.11588146463036536,0.042187867388129234,-0.0763289141818881
1772363412690889000,5.275888916015625,0.07650222492218017,0.04009937067627906,-0.06916969007700681
1772363412700957700,5.285957763671875,0.03468552893400192,-0.003415361401438713,-0.08979191460609436
1772363412711028000,5.296028076171875,0.014306757771968841,0.0022135843962430954,-0.06180749074593186
1772363412721096700,5.3060966796875,0.013456278422474861,0.03993628906905651,-0.01607595940157771
1772363412731166700,5.316166748046875,0.03257189778089523,0.04231470863819122,-0.008108779914677143
1772363412741236000,5.326236083984375,0.01421440331339836,0.06636135465800762,0.014383622400462627
1772363412751305700,5.3363056640625,-0.019808277797698972,0.05653495717048645,0.0492301871150732
1772363412761375000,5.346375,-0.043241760355234145,0.02000876880586147,0.047493134189397095
1772363412771444700,5.35644482421875,-0.05026771346926689,0.0026391163319349287,0.03288461699187755
1772363412781514000,5.366513916015625,-0.0858814631640911,-0.023335867401957512,0.005291822797805071
1772363412791583700,5.376583740234375,-0.09946808996796608,0.015572247663140295,0.019124679447710513
1772363412801653000,5.386653076171875,-0.04496142375469207,0.071302902713418,0.07694178538322448
1772363412811722800,5.39672265625,-0.034893618726730344,0.07850362787246704,0.048574791946262116
1772363412821792000,5.4067919921875,-0.04088029192090034,0.07497253113687039,-0.0037676819704473017
1772363412831862000,5.416862060546875,-0.066793316334486,0.07310439917743206,-0.001030219830572605
1772363412841930800,5.4269306640625,-0.07902151426672935,0.0558399606436491,-0.011364566840231419
1772363412852001000,5.4370009765625,-0.11231237397193908,0.017904490002989767,-0.024643004477769136
1772363412862069800,5.44706982421875,-0.09994096817672252,0.007860650372505187,-0.0368139192648232
1772363412872140000,5.45714013671875,-0.009140753310918808,0.005216857865452766,-0.013406301800906658
1772363412882208800,5.467208740234375,0.0467728570908308,-0.0025689737051725384,-0.007398293557763099
1772363412892278800,5.47727880859375,0.06782558199167252,-0.012533318358659744,-0.0006515957765281201
1772363412902347800,5.48734765625,0.08604629833698273,0.01106383032798767,0.02502878892496228
1772363412912417800,5.497417724609375,0.04306348117887974,-0.015871522870659828,-0.01830386458411813
1772363412922486800,5.50748681640625,-0.029245968228578566,-0.04422141904234886,-0.030493191810697314
1772363412932556800,5.517556884765625,-0.023704700714349745,-0.0384334832906723,0.025923838068544862
1772363412942625800,5.527625732421875,0.04468085324764252,-0.05092120894193649,0.06341536433398723
1772363412952695800,5.53769580078125,0.050696168014407156,-0.09643149875104427,0.03770005444958806
1772363412962765000,5.54776513671875,0.017107202145457266,-0.0980289970755577,0.0018259002529084681
1772363412972834800,5.557834716796875,-0.03242284469902515,-0.00864040257334709,0.05742635305225849
1772363412982904000,5.567904052734375,-0.06546060642600059,0.1013017351359129,0.06471183388531207
1772363412992973800,5.577973876953125,-0.10794950258731842,0.11530980222225189,-0.006662672759592533
1772363413003042800,5.588042724609375,-0.08182721933722495,0.09419453347921371,-0.030968115846067665
1772363413013112800,5.59811279296875,0.03399228597283363,0.05567454094886779,-0.038922728112339974
1772363413023181800,5.608181884765625,0.1336041683256626,0.058822191324830055,-0.038690819052606816
1772363413033251800,5.618251953125,0.10657587614655493,0.019585574957728384,-0.04609934174343943
1772363413043320800,5.62832080078125,0.06830430541932582,-0.023471476480364798,-0.048956192479282616
1772363413053391000,5.63839111328125,0.08121756300628184,-0.04025719158649444,-0.0051914311632514
1772363413063459800,5.6484599609375,0.06887421426177025,-0.050666941919922825,0.005364449642598628
1772363413073529900,5.65852978515625,0.006506313154101371,-0.042103111714124675,-0.006545914512127637
1772363413083598800,5.668598876953125,-0.05335165095925331,0.032736148431897164,0.03940305897518992
1772363413093668900,5.6786689453125,-0.10874912853240966,0.08251637064516544,0.10832038172632455
1772363413103737900,5.68873779296875,-0.17834814993739126,0.05640460878908634,0.14601108382567762
1772363413113808000,5.698807861328125,-0.2136731458187103,-0.015707856741547583,0.12554039659649133
1772363413123876900,5.708876953125,-0.12020984922349452,-0.0184258835285902,0.09997530883774161
1772363413133947000,5.71894677734375,0.013979425513744353,0.008619359785318375,0.09066226769983768
1772363413144016000,5.729015869140625,0.07127426114082336,0.012009002223610878,0.06030497722849249
1772363413154086000,5.7390859375,0.0919248349815607,0.036034605455398556,0.06446399660408496
1772363413164156000,5.749156005859375,0.0899725318700075,0.031309915021061896,0.04086319465562701
1772363413174225000,5.759224853515625,0.07903904992341995,-0.020975568011403083,-0.03329349005371332
1772363413184295000,5.769294921875,0.07352467041611671,-0.04771569089889526,-0.05202464013919234
1772363413194364000,5.779364013671875,0.16308160722255705,-0.005458849927783012,-0.0014290098898112774
1772363413204434000,5.789433837890625,0.19128829553127288,-0.00417056368291378,-0.027574820145964622
1772363413214503000,5.7995029296875,0.10129004469811916,-0.03329436683654785,-0.06984992742612958
1772363413224573000,5.809572998046875,0.049967269217967986,-0.033436990177631375,-0.05778861049339175
1772363413234641700,5.8196416015625,0.04505670082271099,-0.0016664719074964522,-0.03071735595539212
1772363413244712000,5.8297119140625,0.019686697244644166,0.034491467666625975,-0.03536313593462109
1772363413254780700,5.83978076171875,-0.01910217535495758,0.024589082333445547,-0.030652766286581753
1772363413264851000,5.849850830078125,-0.023756138640642164,0.01711363188624382,-0.007842384063452482
1772363413274919700,5.859919677734375,-0.03454173654913902,0.03957973071634769,-0.00006838906109333039
1772363413284990000,5.869989990234375,-0.002682370951771736,0.13167992226481437,0.025023089836537837
1772363413295059000,5.880058837890625,-0.002949497455358505,0.13213994099199772,0.025591829635202883
1772363413305128700,5.890128662109375,-0.04887655137181282,0.06655366235971451,-0.030788229234516618
1772363413315198000,5.900197998046875,-0.0785141492664814,0.004873158994317055,-0.05836787168607115
1772363413325267700,5.910267822265625,-0.05813830071389675,-0.038702363359928126,-0.06095686526596546
1772363413335337000,5.9203369140625,0.021903204250335692,-0.052854807353019714,-0.05865267997682094
1772363413345406700,5.93040673828125,0.04203881430625915,-0.05746317793130874,-0.05828998414427042
1772363413355476000,5.94047607421875,0.010900164198875427,-0.09003215310275554,-0.060389002250134945
1772363413365545700,5.950545654296875,0.007465513575077056,-0.09260229585170746,-0.049643444091081616
1772363413375615000,5.960614990234375,0.03851239374577999,-0.08010638689398765,-0.057916036265343425
1772363413385685000,5.97068505859375,0.06498129847645759,-0.031221652215719223,-0.06648454264625907
1772363413395754000,5.98075390625,0.06610007337331772,0.02938040826320648,-0.0480886158645153
1772363413405824000,5.990823974609375,0.04734978019595146,0.04935995097458362,-0.04373115130737423
1772363413415892700,6.000892822265625,0.03941080389022827,0.07058160270154476,-0.016757511924952267
1772363413425963000,6.010962890625,0.04286065208315849,0.07021744556427001,0.02179740578830242
1772363413436031700,6.02103173828125,0.045049686560034746,0.04511106135845184,0.024640520259737966
1772363413446102000,6.03110205078125,0.02589782684445381,0.03733692022562027,0.039685675308853384
1772363413456170800,6.041170654296875,0.0032739071041345594,-0.011246201157569885,0.03984115813151002
1772363413466240800,6.05124072265625,0.016156185030937194,-0.05427694911062717,0.014478607207536697
1772363413476309800,6.061309814453125,0.03824702080786228,-0.03753858027756214,0.02849514986127615
1772363413486379800,6.0713798828125,0.06447217991054058,0.017852467554807662,0.09206672767028212
1772363413496448800,6.08144873046875,0.050291094344854355,0.027737901753187178,0.08684913915246724
1772363413506518800,6.091518798828125,-0.005136778366565704,0.010797872868180274,0.053707186398655175
1772363413516588000,6.101588134765625,-0.09973346290588378,-0.0254494985550642,0.009319324748218059
1772363413526657800,6.11165771484375,-0.09681085345745086,-0.019306173494458196,0.031031682601571083
1772363413536727000,6.12172705078125,-0.031157939329743384,0.0404506683319807,0.07039630926251411
1772363413546796800,6.131796875,0.008481412619352341,0.05858838256895542,0.045974546319991344
1772363413556866000,6.141865966796875,-0.02316167987883091,0.05225158076286315,0.033465047228336334
1772363413566935800,6.151935791015625,-0.10273732089698315,0.017300678890943527,0.01142784133478999
1772363413577004800,6.1620048828125,-0.13130232112407683,-0.005049684605002403,-0.01643105644956231
1772363413587074800,6.17207470703125,-0.08771101667881011,0.0007283142745494843,0.006676262893527746
1772363413597143800,6.182143798828125,0.04214695085585117,0.045834699457883835,0.041901597792655225
1772363413607214000,6.192214111328125,0.08858370786011219,0.052419338545203205,0.05002265266701579
1772363413617282800,6.20228271484375,0.056662382942438125,0.027614567634463308,0.014905308187007903
1772363413627352800,6.212352783203125,0.026231004321575165,0.03915887495577335,0.019844810415804385
1772363413637421800,6.222421875,-0.00006838906109333039,0.05124912572205066,0.043430853186547755
1772363413647491800,6.232491943359375,0.07611468690931797,0.06904197204411029,0.04480404123589396
1772363413657561300,6.242561279296875,0.13315467099249362,0.054330725124478334,-0.008710691330581903
1772363413667631000,6.252631103515625,0.11097264980077742,0.0016056816309690475,-0.04303454734534025
1772363413677700400,6.262700439453125,0.03889057940840721,-0.06914075624346733,-0.05740984030887484
1772363413687770000,6.27277001953125,-0.06622633010149001,-0.12060498602092265,-0.09918985754847526
1772363413697839400,6.28283935546875,-0.12140987266302108,-0.12297580680549144,-0.13786884003281594
1772363413707909000,6.2929091796875,-0.09247019390463829,-0.11974047814607619,-0.14156579485461115
1772363413717978000,6.30297802734375,0.00930266587436199,-0.06566869621872902,-0.07568915497362613
1772363413728048000,6.313048095703125,0.07711889551579952,-0.012242810979485512,-0.037032092060148715
1772363413738117000,6.3231171875,0.054900633966922754,0.01794189940392971,-0.03379398692175746
1772363413748187400,6.3331875,0.03819032218456268,0.05493921241164207,0.007968202400207519
1772363413758257200,6.343257080078125,0.06965455098450184,0.06562894873023033,0.06995791784524917
1772363413768326400,6.353326416015625,0.05524024118483066,0.0702004944294691,0.06924684696644544
1772363413778396200,6.363396240234375,0.0340501536399126,0.11875322067439556,0.0638100627399981
1772363413788465200,6.373465087890625,-0.020405659168958663,0.1179278757661581,0.03835238087847829
1772363413798535200,6.38353515625,-0.06451777261793613,0.0921773484379053,0.043143414547294374
1772363413808604200,6.393604248046875,-0.08683364932239056,0.03139174808561802,0.0556502832904458
1772363413818674200,6.403674072265625,-0.08252747656106948,-0.04929857617616653,0.046008448589593166
1772363413828743200,6.4137431640625,-0.05515548551082611,-0.11769523605406283,0.04537248877361417
1772363413838813200,6.423813232421875,-0.008543956461548805,-0.15899053851664066,0.03982610669285059
1772363413848882200,6.433882080078125,0.004852700728178024,-0.14389759880304337,0.03935366687551141
1772363413858952200,6.4439521484375,-0.0005938742399215698,-0.09965864410400391,0.02607274501994252
1772363413869021200,6.454021240234375,-0.018741525349020956,0.00490647674202919,0.0502455016374588
1772363413879091200,6.46409130859375,-0.0338543388068676,0.09214987590909003,0.06378887382149696
1772363413889160200,6.47416015625,-0.060791445571184155,0.13208558045625685,0.07950140673816204
1772363413899230200,6.484230224609375,-0.039250644892454147,0.12371756508350372,0.055874447435140605
1772363413909299200,6.49429931640625,0.01861585314273834,0.05924480065107345,0.008312339662760496
1772363413919369200,6.504369140625,0.08542553609013558,0.02711947759389877,-0.025592852548509834
1772363413929438200,6.514438232421875,0.10154548076391219,-0.009555179330706596,-0.05443477002084255
1772363413939508200,6.52450830078125,0.06411269894838333,-0.04848258361816406,-0.08685790698081254
1772363413949577200,6.5345771484375,0.04781155248880386,-0.027097850283980367,-0.07739698180481791
1772363413959647200,6.544647216796875,0.04010170876383781,0.011043956583738326,-0.042419776447862385
1772363413969716200,6.55471630859375,0.003616436931490898,0.021775778478384016,0.005816285063326358
1772363413979786200,6.5647861328125,-0.06057984864711761,0.00519055438041687,0.01841068595945835
1772363413989855200,6.574855224609375,-0.09624795887768268,0.03949789765179157,0.017770926751196382
1772363413999925200,6.58492529296875,-0.08791793742775916,0.06815232972800732,0.05335618100389838
1772363414009994200,6.594994140625,-0.07445289117693901,0.06790156983733177,0.06616422465071081
1772363414020064000,6.60506396484375,-0.033930326652526856,0.06361936247348784,0.070148471981287
1772363414030133200,6.61513330078125,-0.011968670213222503,0.049859717190265655,0.03372925112247467
1772363414040203000,6.625203125,-0.01527531054317951,-0.0028881226569414135,-0.02358881924971938
1772363414050272300,6.635272216796875,-0.013353402569890021,-0.04654372451007366,-0.04202522417232394
1772363414060342300,6.64534228515625,0.03752396723031998,-0.0782265644967556,-0.036763211990892886
1772363414070411300,6.655411376953125,0.09496493332982063,-0.0832148743033409,-0.029003245513886212
1772363414080481300,6.665481201171875,0.13591186074614525,-0.09699088619947432,-0.05648103502616286
1772363414090550300,6.67555029296875,0.12542553804516793,-0.07490005042254924,-0.04585238124504685
1772363414100620300,6.685620361328125,0.08520283325016498,-0.038052375018596644,-0.03552621754184365
1772363414110689300,6.695689208984375,0.03715864104926586,0.00016775778234004974,-0.03182604784965515
1772363414120759300,6.70575927734375,0.003655599898099899,0.022052257332205772,-0.03240209417194128
1772363414130828000,6.715828125,0.01624386331439018,0.05111410116553306,-0.017369067952036858
1772363414140898300,6.725898193359375,0.05595101980268955,0.09419102634787559,0.0458000665359199
1772363414150967000,6.735967041015625,0.0628852029800415,0.10141805499196052,0.06574789893478154
1772363414161037300,6.746037353515625,0.020914777734875677,0.043316579157114024,0.042848815514892336
1772363414171106000,6.75610595703125,-0.026602760243415832,-0.022956512695550917,0.02314414422214031
1772363414181176000,6.766176025390625,-0.009417232164740563,-0.07349836693108082,0.009110650433599949
1772363414191245000,6.7762451171875,0.024306173738837242,-0.08339023087024688,0.00528378562182188
1772363414201315000,6.786315185546875,0.0030699089646339414,-0.05391746814846992,0.006298369491845369
1772363414211384300,6.79638427734375,-0.0765665223300457,-0.01595861663222313,0.01272387249469757
1772363414221454000,6.8064541015625,-0.1191740764349699,0.035739421901106835,0.06162058987170457
1772363414231523300,6.8165234375,-0.11894435933232307,0.07942366532683372,0.10060425439104437
1772363414241593000,6.826593017578125,-0.07674597055017948,0.06647066025137902,0.10057181342616676
1772363414251662300,6.836662353515625,-0.042620998108386994,0.045268297746777535,0.06809416979998349
1772363414261732000,6.846732177734375,-0.0402548534989357,0.02892155857980251,0.02780716759711504
1772363414271801300,6.85680126953125,-0.04816226562261581,0.012211246797442435,0.015351882910728453
1772363414281871000,6.86687109375,-0.07136486203372477,0.001647182685136795,-0.013863251788169145
1772363414291940000,6.876940185546875,-0.06878712050020694,0.008331775015592575,-0.04955035898014903
1772363414302010400,6.88701025390625,-0.050125090128183364,0.004693126252293587,-0.0406599271684885
1772363414312080100,6.897080078125,-0.0027308862686157226,0.005853402203321457,-0.022648323529213664
1772363414322149400,6.9071494140625,0.050634793215990063,0.009247720816731453,-0.00200447169020772
1772363414332219100,6.91721923828125,0.133224813619256,0.03584638940691948,0.024222440978139637
1772363414342288100,6.9272880859375,0.2046498814076185,0.07681786674261093,0.055831046684831374
1772363414352358100,6.937358154296875,0.18860884718894957,0.044010406640172,0.0429147203579545
1772363414362427100,6.94742724609375,0.05659574744701385,-0.02918400890827179,-0.0361928647570312
1772363414372497200,6.9574970703125,-0.011186579924821853,-0.08176584453880786,-0.07154927868992089
1772363414382566100,6.967566162109375,-0.009789572608470916,-0.08737491659224032,-0.027426789977401493
1772363414392636400,6.977636474609375,0.030281156495213506,-0.05993512100279331,-0.0029712708957493304
1772363414402705200,6.987705078125,0.06324468394219875,-0.04617255311012268,0.03173354726061225
1772363414412775200,6.997775146484375,0.045488662499189376,-0.049202130064368244,0.029543928261846302
1772363414422844200,7.00784423828125,-0.007281389179825782,-0.03253331933617592,0.00800546567067504
1772363414432914200,7.0179140625,-0.057255088138580316,0.0128401923507452,-0.008897153813391923
1772363414442983200,7.027983154296875,-0.056578211790323255,0.0445247859030962,-0.03492079899460077
1772363414453053200,7.03805322265625,-0.0992623382627964,0.020109891092777252,-0.04706643320992589
1772363414463122200,7.0481220703125,-0.11185644689798355,-0.010479892960190772,-0.06383242070227861
1772363414473192200,7.058192138671875,-0.05230594129860401,-0.01978314335644245,-0.019173779286444186
1772363414483261200,7.06826123046875,0.018772505009174347,-0.00434007503092289,0.013249503803998232
1772363414493331200,7.078331298828125,0.04161211332678794,0.00042728550136089324,0.003089490447938442
1772363414503400200,7.088400146484375,0.060222705772519106,0.028308395117521284,0.011163052918761967
1772363414513470200,7.09847021484375,0.056391164785623546,0.06360299586057662,0.03803206288293004
1772363414523539200,7.108539306640625,0.04439209943413734,0.07797989625930786,0.04151975886821747
1772363414533609200,7.118609130859375,0.05173895506560802,0.09085866705477237,0.0629344489492476
1772363414543678200,7.12867822265625,0.0460585713416338,0.05667290433645248,0.06386705362424254
1772363414553748200,7.138748291015625,-0.004603694403171539,0.04370470169186592,0.06717705495506525
1772363414563817200,7.148817138671875,-0.04247545215785503,0.03734977970719337,0.08198489411696791
1772363414573887200,7.15888720703125,-0.004727613043785095,0.02101180836856365,0.07070172194987535
1772363414583956200,7.168956298828125,0.055603813800215715,-0.001017068088054657,0.00870601515546441
1772363414594026000,7.17902587890625,0.08710019130408764,-0.02845627915561199,-0.045701720727980136
1772363414604095200,7.18909521484375,0.087864161413908,-0.02955167317688465,-0.056112201713770626
1772363414614165200,7.199165283203125,0.03669336162507534,-0.03329904301166534,-0.04861673139184713
1772363414624234200,7.209234130859375,-0.09073416389226913,-0.01750000085532665,-0.0506647499628365
1772363414634304300,7.21930419921875,-0.12645605013668537,-0.0027858313262462612,-0.028002397908270357
1772363414644373200,7.229373291015625,-0.0538444029122591,0.032953590574860574,-0.020766163044422865
1772363414654443300,7.239443359375,0.04352992964684963,0.06830313637554646,0.002430149756371975
1772363414664512300,7.24951220703125,0.059898296123743054,0.06565583673715591,0.0028064357228577137
1772363414674582300,7.259582275390625,-0.018650924456119537,0.012267945420742034,-0.05526566788703203
1772363414684651300,7.2696513671875,-0.12564298018813133,-0.024019758012890816,-0.04789411620572209
1772363414694721300,7.27972119140625,-0.12780629570186136,-0.05151800579130649,-0.010399667330831289
1772363414704790000,7.2897900390625,-0.08009645002186298,-0.03593406769037247,0.004415039963275194
1772363414714860300,7.2998603515625,-0.053475569599866865,-0.00745966835618019,0.019850071112811563
1772363414724929000,7.309928955078125,-0.03013677958846092,0.067673606300354,0.06555939062535762
1772363414734999300,7.319999267578125,-0.0074836337536573405,0.11972001987993716,0.09070537618920206
1772363414745068300,7.330068359375,-0.024931612160801885,0.12596972792446612,0.0758846775457263
1772363414755138000,7.340137939453125,-0.0529991842597723,0.047290743485093115,0.059573301953077314
1772363414765208300,7.350208251953125,-0.0539186371922493,-0.0253144739985466,0.028948300456255672
1772363414775277000,7.360277099609375,-0.054425417670607566,-0.10399462748169898,0.015199176567047834
1772363414785347300,7.370347412109375,-0.039921091499924656,-0.1460129835218191,0.019953239226341245
1772363414795416000,7.380416015625,0.04509703283309936,-0.0872322932511568,0.03826367968171835
1772363414805486000,7.390486083984375,0.10545184055268764,-0.04224690409898758,0.04445566618964076
1772363414815555000,7.40055517578125,0.10589899979829788,-0.012625672817230224,0.04392418966144323
1772363414825625000,7.410625,0.0879728824853897,0.00776946495771408,0.05826777231246233
1772363414835694300,7.4206943359375,0.0733902303814888,-0.0031628479450941083,0.03590951777100563
1772363414845764000,7.43076416015625,0.04776654430329799,-0.011618541601300238,-0.007180997545272111
1772363414855833300,7.440833251953125,0.052719198274612425,0.0016945289582014082,-0.022879648067057133
1772363414865903000,7.450903076171875,0.07104512856006621,-0.002954173630475998,-0.05097016265019774
1772363414875972400,7.460972412109375,0.04624970999956131,0.02627776607275009,-0.05288534862175583
1772363414886042000,7.4710419921875,0.02576104872226715,0.06523030480146408,0.013407032453268766
1772363414896111400,7.481111328125,0.003593640577793121,0.08625906430482864,0.0483849684625864
1772363414906181000,7.49118115234375,-0.023875381106138228,0.07983809134662151,0.0679166212759912
1772363414916250000,7.50125,-0.1083165823340416,0.036893852633237835,0.0602786737434566
1772363414926320400,7.5113203125,-0.006248539000749588,-0.0040332010388374325,0.053324909082800145
1772363414936389000,7.52138916015625,0.11936813770234585,-0.04341828596591949,-0.03797185712829232
1772363414946459400,7.53145947265625,-0.12804302706718443,-0.06492693794071674,-0.02441167993992567
1772363414956528000,7.541528076171875,-0.20138181952238082,-0.008242343166470528,0.01911021253094077
1772363414966598400,7.551598388671875,-0.024740473502874373,0.09171966779828071,0.016850597035884856
1772363414976667100,7.561667236328125,0.01152268001139164,0.12956862919926643,0.009494096793234348
1772363414986737200,7.571737060546875,-0.054987727728486056,0.1371691673308611,0.028249358406662938
1772363414996806100,7.58180615234375,-0.07843465428948401,0.11263210744559764,-0.005102876096963882
1772363415006876200,7.591876220703125,-0.05216214891374111,0.08180968368053436,-0.022185528323054312
1772363415016945200,7.601945068359375,-0.07873509854078292,0.055363575303554534,-0.03795622116774321
1772363415027015200,7.61201513671875,-0.10596563529372215,0.033820436537265776,-0.06493439059481024
1772363415037084200,7.622084228515625,-0.08115501916408538,0.013040098837018012,-0.07109247483313083
1772363415047154200,7.632154296875,-0.04163783228993415,-0.03605623276531696,-0.06889452639743686
1772363415057223200,7.64222314453125,0.006257306829094886,-0.051930093723535534,-0.0683776629164815
1772363415067293200,7.652293212890625,0.03257891204357147,-0.023864275190234183,-0.02088219063952565
1772363415077362200,7.662362060546875,0.024005729487538336,-0.010897826111316681,0.0029996202073991297
1772363415087432200,7.67243212890625,0.0031178397595882416,0.023794717085361478,0.01820055034011602
1772363415097501200,7.682501220703125,0.04728139113485813,0.04687690198719501,0.024235592720657586
1772363415107571200,7.6925712890625,0.05685995134115219,0.042101358148455614,-0.0037486850090324877
1772363415117640200,7.70264013671875,0.04795066869854927,0.04133914160430431,0.009635697221010923
1772363415127710200,7.712710205078125,0.02083352919220924,0.028641572594642638,0.017068185309320687
1772363415137779200,7.722779296875,-0.008511807757616043,-0.011560673934221267,0.009228139333426953
1772363415147849000,7.732848876953125,-0.0358802916765213,-0.00113806411921978,-0.0014177578434348105
1772363415157919200,7.742919189453125,-0.05913081888258457,0.017394202393293378,-0.03230886293053627
1772363415167988200,7.75298828125,-0.017517536512017248,0.04994564190804958,-0.03535407584533095
1772363415178058200,7.763058349609375,0.020398644906282425,0.05305705192685127,-0.029975743807852267
1772363415188127200,7.773127197265625,0.034624738657474514,0.019435352832078933,-0.05883475854545831
1772363415198197200,7.783197265625,0.015045593440532683,0.04311959528028965,-0.06691562753990292
1772363415208266200,7.793266357421875,0.04500234028697014,0.08174304818511009,-0.025134879647940395
1772363415218336000,7.8033359375,0.09206395119130611,0.06808394066691398,0.009092676385492085
1772363415228405200,7.8134052734375,0.08695873700678348,0.026755904978513715,0.005085194309800863
1772363415238475000,7.82347509765625,0.07364800453484058,0.011546645408868789,0.004250643181800842
1772363415248544300,7.833544189453125,0.08101941008567809,0.019134908580780027,-0.011906564762443303
1772363415258614300,7.8436142578125,0.04372340639233589,-0.0021264906346797944,-0.05179901468977332
1772363415268683300,7.853683349609375,0.002242225968837738,0.004804185411334038,-0.018169424549490214
1772363415278753300,7.863753173828125,-0.06130582483410835,-0.03426175056397915,-0.017913257831335065
1772363415288822300,7.873822265625,-0.08500468032956122,-0.050453591430187225,-0.031013270162045956
1772363415298892300,7.883892333984375,-0.03812017955780029,-0.022595862689614294,-0.0029199790999293327
1772363415308961300,7.893961181640625,0.03842646902799606,0.021011223846673963,0.014701894569396972
1772363415319031300,7.90403125,0.03984042747914791,0.05846446392834186,0.005418371786922216
1772363415329100000,7.91410009765625,-0.024113866037130356,0.06760112558603286,-0.019742957476526497
1772363415339170300,7.92417041015625,-0.037730887979269025,0.036793314868211746,-0.0483674328058958
1772363415349239000,7.934239013671875,0.013816928428411483,-0.014092238238453864,-0.061126230483502145
1772363415359309300,7.944309326171875,0.06755436383485794,-0.01818506051003933,-0.034815000532567496
1772363415369378000,7.9543779296875,0.07732990791797638,-0.006897358298301696,-0.003821165723353624
1772363415379448000,7.964447998046875,0.027680618607997892,0.004146013763546943,0.014474369423836468
1772363415389517300,7.974517333984375,-0.011751228070259094,0.047453240570425985,0.04459697435647249
1772363415399587000,7.984587158203125,-0.0338280353218317,0.032390111473202705,0.05700885829254985
1772363415409656300,7.99465625,-0.046885085293650625,0.018999884024262427,0.04016059934422374
1772363415419726000,8.00472607421875,-0.007847206369042396,0.047854807108640665,0.05251826887503266
1772363415429795300,8.01479541015625,-0.016761165186762808,0.03699497492015361,0.054985974162816996
1772363415439865000,8.024864990234375,-0.06854395939409733,0.019741642302274702,0.05900660798102617
1772363415449934300,8.034934326171875,-0.06899462577104568,0.06071195059418678,0.1238031975403428
1772363415460004000,8.045004150390625,-0.059490299844741815,0.06732640029788017,0.1337453303620219
1772363415470073300,8.0550732421875,-0.05196984121203422,0.06699556090831756,0.11513619922101496
1772363415480143400,8.065143310546874,-0.01656768844127655,0.03852233061790466,0.1050876834154129
1772363415490212000,8.075212158203126,-0.03928454716205597,-0.0020879121899604796,0.08975757394507526
1772363415500282400,8.085282470703126,-0.07357260121107101,-0.007744330516457557,0.06359320511892437
1772363415510351000,8.09535107421875,-0.06843465380072593,-0.023153496572375296,0.014706716874986887
1772363415520421400,8.10542138671875,0.017844868770241735,-0.0021036942809820173,-0.002667465643584728
1772363415530490000,8.115489990234375,0.07878069124817848,0.0036462475478649136,-0.037423575595766305
1772363415540560100,8.12556005859375,0.08817629610300064,-0.017162147203087806,-0.08663710383698343
1772363415550629000,8.135629150390624,0.07849486004412173,-0.011485855132341384,-0.10013809818401932
1772363415560699100,8.14569921875,0.0433656789958477,0.01047697035074234,-0.09129793525487184
1772363415570769400,8.155769287109376,-0.015049100571870803,0.010377017107605933,-0.06761983028650283
1772363415580838100,8.165838134765625,-0.04120528609156608,0.03995674733519554,-0.05919701598659157
1772363415590908400,8.175908447265625,0.017513444858789442,0.06594517507255077,-0.01645677541270852
1772363415600977200,8.18597705078125,0.06681903529763221,0.036032267367839814,-0.020150515364110468
1772363415611047200,8.196047119140625,0.06649462564885616,0.03237842103540897,-0.008426759822666644
1772363415621116200,8.2061162109375,-0.05909516304731369,0.014351765957474708,0.07631663922220468
1772363415631186200,8.216186279296876,0.05421674335598945,0.0033148236364126202,0.05665902194157242
1772363415641255200,8.226255126953125,0.20060148279964923,-0.020505027890205384,-0.04929200030490756
1772363415651325200,8.2363251953125,0.020076573345065116,-0.03007014409303665,-0.005673223330825567
1772363415661398000,8.24639794921875,-0.1262181497275829,-0.0008054711639881133,0.058842065069079394
1772363415671468000,8.256468017578126,-0.10128361495733261,0.045757542568445206,0.06884001973122358
1772363415681537000,8.266537109375,-0.040001755520701406,0.046266661134362216,0.06260097921118139
1772363415691607000,8.27660693359375,-0.04530395358204841,0.06048749418854713,0.0781672355249524
1772363415701675800,8.28667578125,-0.07410276256501674,0.08440729895830154,0.08505553373396396
1772363415711746000,8.29674609375,-0.056823126462101935,0.07423486451208591,0.05078296951502561
1772363415721814800,8.306814697265626,-0.07065700602531433,0.06982640042006968,0.007849106065183877
1772363415731885000,8.316885009765626,-0.08680559227168559,0.05662789615094661,-0.014349574000388382
1772363415741954000,8.3269541015625,-0.07692600329220295,-0.005167173504829406,-0.045211891384422775
1772363415752023800,8.33702392578125,-0.015396306574344635,-0.0542190814435482,-0.09695333066806197
1772363415762093000,8.347093017578125,0.04271978230774402,-0.014423077628016472,-0.0999178795620799
1772363415772162800,8.357162841796875,0.060223290294408795,0.05356207883954048,-0.06077654026299715
1772363415782232000,8.367232177734374,0.012018939095735549,0.06591536445617675,-0.05343231498003006
1772363415792301800,8.3773017578125,-0.025544191101193426,0.029088147318363188,-0.056049073349684474
1772363415802371000,8.38737109375,-0.006152092888951301,-0.06251695418953895,-0.08586158941984176
1772363415812440800,8.39744091796875,0.008860767325758934,-0.10893149936199188,-0.10151932340934872
1772363415822510000,8.407510009765625,0.028673136776685714,-0.10349895291924475,-0.08070230696052312
1772363415832580000,8.417580078125,0.035306291180849075,-0.05462649320065975,-0.06767974378019571
1772363415842649000,8.427649169921875,0.03477554530501365,-0.010993103179335594,-0.02732712899520993
1772363415852719000,8.437718994140624,0.007989829710125922,-0.009400281029939651,-0.05369081978574395
1772363415862788900,8.447788818359374,-0.09829612357914447,-0.0437491253554821,-0.14712123702466487
1772363415872858000,8.457858154296876,-0.11351064384579658,-0.05780804584622383,-0.17484218764305115
1772363415882927900,8.467927978515625,-0.03615092531144619,-0.04886836806535721,-0.1161314938686788
1772363415892997000,8.4779970703125,0.028682489126920698,-0.0677782357186079,-0.06494038194417953
1772363415903067000,8.48806689453125,0.08691255977749825,-0.07247136197090148,-0.05800707554966211
1772363415913136000,8.49813623046875,0.11187748968601226,-0.03206044112741947,-0.03037453386709094
1772363415923206100,8.5082060546875,0.1536813261926174,0.045264790615439414,0.05433306321203708
1772363415933275000,8.51827490234375,0.18855273308753967,0.13114040856063366,0.11273133003637194
1772363415943345200,8.52834521484375,0.09645780223608016,0.11445113956630229,0.03977116163522005
1772363415953414000,8.538413818359375,-0.005620762491226196,0.06781272251009941,0.006423018784821033
1772363415963484200,8.548484130859375,0.0011234510719776152,0.03665712126791477,0.04523863326087594
1772363415973553000,8.558552978515625,0.023197920235991477,-0.002155132207274437,0.07254092007577419
1772363415983623000,8.568622802734374,0.012563713496923446,-0.06519464896619319,0.061980947616696355
1772363415993692000,8.57869189453125,-0.020314473754167554,-0.08356909456849097,0.043415509486943483
1772363416003763000,8.588762939453124,-0.0335404505521059,-0.0004278700232505798,0.09355082874819635
1772363416013832200,8.598832275390626,0.010879705932736397,0.03085048081576824,0.07355740364193916
1772363416023902000,8.60890185546875,0.021918401819467543,0.008191489762067794,0.018977672192454338
1772363416033971000,8.618970947265625,-0.0031201778471469876,-0.013836802172660827,-0.006027881987392902
1772363416044041000,8.629041015625,-0.001142155772447586,-0.04814122283458709,-0.013538403747975826
1772363416054110000,8.63910986328125,-0.004572130221128463,-0.0442284333050251,-0.0003458908282220363
1772363416064180000,8.649179931640624,0.015281155762076377,-0.0003647416591644287,0.003522621168196201
1772363416074249000,8.6592490234375,0.049666824966669076,0.05003156662583351,0.007007686804980039
1772363416084319000,8.669319091796876,0.08197218076586722,0.07621230206489563,0.011876900276541709
1772363416094388000,8.679387939453125,0.07925532302260399,0.10146890839636326,0.033488428103923794
1772363416104458000,8.6894580078125,-0.09051438366174697,0.06171615920066833,0.025457243470102548
1772363416114527000,8.69952685546875,-0.11664075856506824,0.05416062925457954,0.06017652854323387
1772363416124597000,8.709596923828125,0.28492402608394624,0.08171382209062576,0.029043431393802166
1772363416134666000,8.719666015625,0.8349263910531998,0.06893968071341514,-0.0485483423307538
1772363416144736000,8.729736083984376,0.31962942876219747,-0.05321311927139759,-0.048923166992515324
1772363416154805000,8.739804931640625,-0.2201578316628933,-0.005230301868915557,0.08430793023705482
1772363416164875000,8.749875,-0.09208850111067295,-0.07652969745099544,0.012810089473426342
1772363416174944800,8.75994482421875,-0.2898655741393566,-0.10667933652102947,0.1893570352077484
1772363416185014000,8.770013916015625,-0.5935387243568897,-0.07883797439336776,0.2633705120541155
1772363416195084000,8.780083984375,-0.45223698726594447,-0.06434650770425795,0.16042378619015216
1772363416205153000,8.790153076171874,-0.1603355233848095,-0.0007329904496669769,0.19623525041416287
1772363416215223000,8.80022314453125,-0.11789105088710784,0.010388707545399665,0.17544643714651464
1772363416225292000,8.8102919921875,-0.16105448530912397,0.05108721315860748,0.14963380436748266
1772363416235362000,8.820362060546875,-0.266507494905591,-0.019703063857555388,0.01681274924352765
1772363416245431000,8.83043115234375,-0.017930208966135976,0.014105097720026969,-0.0023658523485064506
1772363416255501000,8.8405009765625,0.22666882099211214,0.04743979656696319,0.013579174149781464
1772363416265570000,8.850570068359374,0.3378518986731767,0.11120996568799019,0.1359947167240083
1772363416275640000,8.86064013671875,0.44144086796343324,-0.09585808277726172,-0.07293897948265075
1772363416285708800,8.870708740234376,0.402568993255496,-0.09370528865754604,-0.2558105981938541
