time,seconds_elapsed,z,y,x
1772568142744174800,0.1171748046875,-0.12548866640925407,-0.011342135812714696,0.18450740321949125
1772568142754246000,0.127245849609375,0.0074514850497245785,-0.007264310180861502,0.09896510888189076
1772568142764317000,0.13731689453125,0.05646364549994468,0.021409557248186318,-0.0075856328234076495
1772568142774389000,0.147388916015625,0.08259002040326595,0.02315967058483511,-0.012219283973425626
1772568142784460000,0.1574599609375,0.06776654528081416,-0.008742145914770662,-0.040741321841627355
1772568142794532000,0.167531982421875,0.06947919441759585,-0.002488382749632001,-0.08944748508259653
1772568142804603100,0.17760302734375,0.09250117356479168,-0.014198456825595349,-0.10075345360338687
1772568142814675200,0.18767529296875,0.08621639420688151,-0.0010769267828203738,-0.07508768194913863
1772568142824746200,0.197746337890625,0.2331979304999113,-0.007417546247504651,-0.05972381633967161
1772568142834818000,0.207818115234375,0.29777883148193357,0.0842403448935598,-0.016863748778402805
1772568142844888800,0.217888916015625,0.27868717752099037,0.09847221079841255,0.01742430527061224
1772568142854961000,0.2279609375,0.13012977021336555,0.1062869944688864,-0.030247546486556528
1772568142865032000,0.238031982421875,0.0007943652480840683,0.06762834238652139,-0.031470366279780865
1772568142875104000,0.24810400390625,-0.050883215019106864,0.036219022111594674,-0.05145546194911003
1772568142885175000,0.258175048828125,-0.08024959475696086,0.0259254455037415,-0.026793314379453658
1772568142895247000,0.2682470703125,-0.07036065342724322,0.020283676757104692,0.008430997606366872
1772568142905318100,0.278318115234375,-0.0749538264364004,0.034231976480223233,0.07521715354770421
1772568142915390000,0.288389892578125,-0.17260229976177213,0.012293993177451192,0.1708461037442088
1772568142925461000,0.2984609375,-0.26166063939630985,0.019609832616150378,0.21139833275452255
1772568142935533000,0.308532958984375,-0.3762842129200697,-0.020910448619630186,0.21526377601101992
1772568142945604000,0.31860400390625,-0.40722295654118057,-0.0861933055922389,0.1563822557143867
1772568142955676200,0.32867626953125,-0.21642858200669288,-0.11720279462831094,0.04750950080230832
1772568142965747200,0.338747314453125,-0.0797948367267847,-0.13950360162779687,-0.0371143635161221
1772568142975819000,0.348819091796875,-0.012620412120223044,-0.19025515309125185,-0.04444967484027147
1772568142985889800,0.358889892578125,-0.015004092386364937,-0.19902685389406977,-0.018854045812785623
1772568142995962000,0.368962158203125,0.024615385818481442,-0.2141587921774946,0.01768982433900237
1772568143006033000,0.379032958984375,0.06121463941931724,-0.14180049865962938,0.017836977724730967
1772568143016104000,0.38910400390625,0.015928806015849114,-0.12082933282870799,-0.016591069316864014
1772568143026176000,0.399176025390625,0.021262568259239195,-0.14027281416831539,-0.0698879213489592
1772568143036247000,0.4092470703125,-0.021204700592160224,-0.1373498759263195,-0.08831117452904581
1772568143046319000,0.419319091796875,0.03205108877718448,-0.12078213268611579,-0.07673822563514113
1772568143056390100,0.42939013671875,0.010773907470703125,-0.07593699225485324,-0.012905220410972832
1772568143066462000,0.4394619140625,0.01447626911997795,-0.05038335747187957,0.05968816050440073
1772568143076533000,0.449532958984375,0.028902269357442854,-0.007299838151969015,0.11446414517834783
1772568143086605000,0.45960498046875,-0.0406686949968338,-0.11653907002257183,0.151754595913738
1772568143096676000,0.469676025390625,-0.01372866562306881,-0.15241769946496933,0.17178543042093514
1772568143106748200,0.479748046875,-0.08870762650072574,-0.1732614577902481,0.19339841955304143
1772568143116819200,0.489819091796875,-0.23798165764510631,-0.14053016819655895,0.2237669620707631
1772568143126891300,0.499891357421875,-0.29141923332214353,-0.08673767813462764,0.22956673439070582
1772568143136962000,0.509962158203125,-0.23047581205964088,0.014162526995688676,0.16552797746136783
1772568143147033900,0.520033935546875,-0.17145020711719988,0.06238894389569759,0.12302461438328027
1772568143157105000,0.53010498046875,-0.04549918389320373,0.09455569494180381,0.10556085388511419
1772568143167177000,0.540177001953125,0.03168751616179943,0.14375910364780575,0.06024331016913056
1772568143177248000,0.550248046875,0.11542670660018921,0.17863982636034487,-0.07324570734426379
1772568143187320000,0.560320068359375,0.08238836035132407,0.1581375384164974,-0.2115619988836348
1772568143197391000,0.57039111328125,-0.05638356600105762,0.1182114784805104,-0.240550339089334
1772568143207463000,0.580462890625,-0.19162556466162203,0.15349168537203223,-0.2814547425381839
1772568143217534000,0.590533935546875,-0.18578619098365307,0.21607995123211293,-0.3283059255622327
1772568143227606000,0.60060595703125,-0.11620762784481048,0.27796094560567286,-0.35731150916367765
1772568143237677000,0.610677001953125,-0.030301030239462852,0.26099099650643764,-0.3628101065799594
1772568143247749000,0.6207490234375,-0.013154665127396582,0.2154006271984428,-0.28385552006959913
1772568143257820200,0.630820068359375,0.004862637600302696,0.06601400252506137,-0.188066264744848
1772568143267892200,0.640892333984375,0.05985679506957531,-0.1056412987101823,-0.0675277680888772
1772568143277963000,0.650962890625,0.10649170499444008,-0.13673106817454098,0.008846154278516769
1772568143288034000,0.661033935546875,0.10364566791355609,-0.17637834770176558,0.0323664383366704
1772568143298105900,0.67110595703125,0.052063364714384074,-0.22469236981999127,0.07948883951753377
1772568143308177000,0.681177001953125,-0.06183131001293659,-0.1977957411965355,0.13292919167354703
1772568143318249000,0.6912490234375,-0.1662526384741068,-0.18704459354691205,0.18617928195446729
1772568143328320000,0.701320068359375,-0.22211481094956398,-0.15960406730510293,0.18878405762538314
1772568143338392000,0.71139208984375,-0.25518998207747934,-0.10229871028400957,0.20809797603487967
1772568143348463000,0.721463134765625,-0.2718658070683479,-0.06884984700549393,0.19144027122259138
1772568143358535200,0.73153515625,-0.2950169655531645,-0.05199742333870381,0.14283011570200324
1772568143368606200,0.741606201171875,-0.2002238816589117,-0.07156915243417024,0.010321049136668443
1772568143378678000,0.751677978515625,-0.07655892354547977,-0.10996639536768198,-0.10918547412306069
1772568143388748500,0.76174853515625,0.0528770191848278,-0.171037826924026,-0.15511282030045986
1772568143398820600,0.771820556640625,0.07445522926449775,-0.19437482683714477,-0.13389438344389198
1772568143408891600,0.7818916015625,0.04020458461642265,-0.19301405987795442,-0.06559884585291147
1772568143418963700,0.791963623046875,-0.01732055263519287,-0.17385065585505216,0.026015461874753235
1772568143429034800,0.80203466796875,-0.031232173609733578,-0.124551860483177,0.0859293939590454
1772568143439106800,0.81210693359375,-0.07163783375620841,-0.11599997644349933,0.11472513420209288
1772568143449177600,0.822177490234375,-0.1191214694648981,-0.1224807167649269,0.13417743816897273
1772568143459249400,0.83224951171875,-0.17917232580184936,-0.12976999699026345,0.172135412902385
1772568143469320400,0.842320556640625,-0.19114976384341717,-0.11326141832508146,0.16637801841944455
1772568143479392500,0.852392578125,-0.14834522586166857,-0.11117880336474627,0.14362769582048057
1772568143489463600,0.862463623046875,-0.16968728909790515,-0.14943064647819845,0.1398088681846857
1772568143499534600,0.87253466796875,-0.14954758738875387,-0.16436960120648145,0.1215821604900062
1772568143509606700,0.882606689453125,-0.09477730180323124,-0.1388273828666657,0.027524405132979154
1772568143519677700,0.892677734375,-0.04423310948014259,-0.12746603089682756,-0.05917261219769716
1772568143529749500,0.90274951171875,0.046537879291176795,-0.11182236196529119,-0.1485669057883322
1772568143539820500,0.912820556640625,0.0799865599066019,-0.07729242545180022,-0.2017319481343031
1772568143549892600,0.922892578125,0.09611994858384132,-0.06948361486438662,-0.21594693596959114
1772568143559963600,0.932963623046875,0.03738835815191269,-0.09900949601288885,-0.16542743969634174
1772568143570035700,0.94303564453125,-0.010270049601793289,-0.11709021936561911,-0.08644508839622139
1772568143580106500,0.9531064453125,0.034094577303528786,-0.08063545226939021,-0.0502313269816339
1772568143590178800,0.9631787109375,0.09205927501618862,-0.09228073574714363,-0.02217997536510229
1772568143600249600,0.97324951171875,0.16426526404917238,-0.08766732366755604,0.004372515995800495
1772568143610321400,0.9833212890625,0.12603519437611102,-0.07793638591114431,0.09117080174386501
1772568143620392400,0.993392333984375,-0.00012216507494449615,-0.07872570965792983,0.17970175650343298
1772568143630464500,1.003464599609375,-0.12286591669023036,-0.0703260570378974,0.22276889094412325
1772568143640535600,1.01353564453125,-0.18566344138681887,-0.10592457263097166,0.21685981303080915
1772568143650607600,1.023607666015625,-0.20428397070467472,-0.1320060489466414,0.20817060287967323
1772568143660678700,1.0336787109375,-0.1356353818923235,-0.12395221408959478,0.19205065820589662
1772568143670750700,1.043750732421875,-0.03223930482566356,-0.09743917795624583,0.13976736713051796
1772568143680821800,1.05382177734375,-0.046567105385661126,-0.08413819969333708,0.11580313869714737
1772568143690892800,1.063892822265625,-0.08876958582103252,-0.10581380573287606,0.07987535461708903
1772568143700964600,1.073964599609375,-0.10830255380868911,-0.08717256242055445,-0.028302257637679577
1772568143711035600,1.08403564453125,-0.1158715277582407,-0.07198255554065108,-0.15293065395578742
1772568143721107700,1.094107666015625,-0.08318214107751846,-0.06686831779945641,-0.26624416779428717
1772568143731178500,1.104178466796875,-0.04036649717986583,-0.07406319773960858,-0.284225960817188
1772568143741250600,1.11425048828125,-0.0317062208622694,-0.05232165032438933,-0.21670856799185276
1772568143751321600,1.124321533203125,-0.04296177437007427,-0.024275888198427853,-0.142422119423002
1772568143761393700,1.1343935546875,-0.13660393466353415,-0.0011690803119912743,-0.012873363967984913
1772568143771464700,1.144464599609375,-0.20732757618427275,0.009692578507401049,0.08036927561387419
1772568143781536500,1.15453662109375,-0.1917325321674347,0.005580138219892978,0.09198913238942623
1772568143791607600,1.164607666015625,-0.18110241708159447,-0.03627367490828037,0.07057298100367188
1772568143801679600,1.1746796875,-0.1555605640679598,-0.09030768210850655,0.0599202156946063
1772568143811750700,1.184750732421875,-0.13357260414361952,-0.12270864376928657,0.049412704075127836
1772568143821822700,1.19482275390625,-0.10706044479310511,-0.1581294647078961,0.06770005591586231
1772568143831893800,1.204893798828125,0.06413491078019141,-0.1434348766621202,0.08526391578763723
1772568143841965600,1.214965576171875,0.12053075174093246,-0.12866678498871623,0.10323577193841338
1772568143852036600,1.22503662109375,0.04227437662780285,-0.1324626336077228,0.14680252646431327
1772568143862107400,1.235107421875,-0.0242296013712883,-0.06686298403721302,0.14238295645639298
1772568143872179500,1.245179443359375,-0.10853051734566688,-0.025376287188380954,0.1251364919707179
1772568143882250500,1.25525048828125,-0.10213877048194407,0.008718472778238355,0.09609612931683659
1772568143892322600,1.265322509765625,-0.04617372215390205,-0.005498414753191173,0.03837839210256934
1772568143902393600,1.2753935546875,0.02272153489589691,-0.0315624284774065,-0.03767433548644185
1772568143912465700,1.285465576171875,-0.019573299998044965,-0.09067604049686342,-0.023848200838267802
1772568143922536700,1.29553662109375,-0.03831424082517624,-0.09371427568159997,0.0443755866907537
1772568143932608500,1.3056083984375,0.015346622213721274,-0.06098766226302832,0.07657616694122553
1772568143942679600,1.315679443359375,0.15470307045578954,-0.06891706702280789,0.06223959855288267
1772568143952751600,1.325751708984375,0.2749468219488859,-0.09458126777447759,0.031073037525266408
1772568143962822700,1.33582275390625,0.25123861410319803,-0.12979019952807574,0.01842763709425926
1772568143972894700,1.345894775390625,0.1140454813748598,-0.16374909468796103,0.062390112939476966
1772568143982965800,1.3559658203125,0.0007733224600553512,-0.16766056904327123,0.08737462433129549
1772568143993037800,1.366037841796875,-0.11160860961675644,-0.19063176785130054,0.10698854860067367
1772568144003108600,1.376108642578125,-0.11153905151188373,-0.2086651083983481,0.1335785954929888
1772568144013180400,1.386180419921875,-0.11794658046662806,-0.21782091314792631,0.17096140068694948
1772568144023251500,1.39625146484375,-0.10554185692369937,-0.2234045584991574,0.18671163526549933
1772568144033323500,1.406323486328125,-0.0013788871377706526,-0.1711862954840064,0.16926847916394472
1772568144043394600,1.41639453125,0.021166706669330595,-0.1625992305330932,0.11746391151621938
1772568144053465600,1.426465576171875,-0.08097498642206191,-0.16466138722728937,0.10236293462663888
1772568144063537700,1.43653759765625,-0.2028933931291103,-0.14751757939849047,0.11589110924154519
1772568144073608700,1.446608642578125,-0.33249709364175795,-0.09769432176109402,0.10661270102560519
1772568144083680500,1.456680419921875,-0.43021570959389205,-0.05844776852186769,0.11435761606395244
1772568144093751600,1.46675146484375,-0.31466099269986153,0.018542495645582673,0.048750294643640515
1772568144103823600,1.47682373046875,-0.19455226576328277,0.048628166101314124,-0.034939065303653476
1772568144113894700,1.486894775390625,-0.0728062930136919,0.03258746067620814,-0.1060037753470242
1772568144123966700,1.496966796875,-0.027754268366098404,0.06332512876726687,-0.16830723291635513
1772568144134037500,1.50703759765625,-0.05810322940051555,0.058906252879090605,-0.1884577482804656
1772568144144109800,1.51710986328125,-0.008825696012377739,0.08619677619095892,-0.1790888853020966
1772568144154180600,1.5271806640625,-0.0033411271214485168,0.13966266464702784,-0.14374649989455937
1772568144164252400,1.53725244140625,0.06180266844034195,0.11229001600965857,-0.09179419433921575
1772568144174323500,1.547323486328125,0.05364683451354503,0.13040909861139952,-0.028053835834562776
1772568144184395500,1.5573955078125,-0.019078794479370116,0.06067801179196685,0.08266293950900434
1772568144194466600,1.567466552734375,-0.025071897414326666,0.06926292131841183,0.13565277141854165
1772568144204538600,1.57753857421875,0.02432838557064533,0.02466222063489258,0.13914382840469477
1772568144214609700,1.587609619140625,-0.06408464189767837,-0.005124138080701232,0.1631492656312883
1772568144224680700,1.5976806640625,-0.11813771912455558,-0.050301250412687654,0.1511369024068117
1772568144234752800,1.607752685546875,-0.10361235016584396,-0.06889061740729957,0.07789660189002752
1772568144244823800,1.61782373046875,-0.02435761166512966,-0.09346026438791304,0.010694412493705749
1772568144254895600,1.6278955078125,0.05897767414748668,-0.10380191792119293,-0.04585705742016435
1772568144264966700,1.637966552734375,0.06723404583930968,-0.13396514712516217,-0.08397256080284714
1772568144275038700,1.648038818359375,-0.016391747352480886,-0.15593582712113857,-0.08675809986814856
1772568144285109500,1.658109619140625,-0.006962240228056907,-0.08956212443821132,-0.08108341523259878
1772568144295181600,1.668181640625,0.11851473574340343,0.0020473609838634727,-0.09811346048861741
1772568144305252600,1.678252685546875,0.12349661580920218,0.05396079583354294,-0.09714110832512378
1772568144315324700,1.68832470703125,0.13891338064968586,0.05350976413041353,-0.09971227398738264
1772568144325395700,1.698395751953125,0.020213935989141462,0.06934928442761301,-0.15461305408477782
1772568144335467500,1.708467529296875,-0.13284428986907004,-0.005844634374976158,-0.0902722454689443
1772568144345538600,1.71853857421875,-0.30866146002411843,-0.061812714910320934,-0.05024652455076575
1772568144355610600,1.728610595703125,-0.41644554291665553,-0.03862337983958423,-0.06038169572651386
1772568144365681700,1.738681640625,-0.25325638366639613,-0.1526104820907116,-0.12214417828693985
1772568144375753700,1.748753662109375,-0.15817454595863817,-0.11686612828616053,-0.009697802671790122
1772568144385824800,1.75882470703125,-0.02182312475144863,-0.14965185148082671,-0.012883446970582007
1772568144395896600,1.768896484375,-0.0075695584714412685,-0.21112126937881112,0.02561813312023878
1772568144405967600,1.778967529296875,-0.038057635715603826,-0.18924330916758625,0.09692921914011239
1772568144416038400,1.789038330078125,-0.008655600142478943,-0.16153437778055668,0.12061623806729913
1772568144426110500,1.7991103515625,0.007520458632707595,-0.11919541148394346,0.14372808745503424
1772568144436181500,1.809181396484375,-0.0008422960430383682,-0.04797467062864452,0.15146715727448462
1772568144446253600,1.819253662109375,-0.009707739543914795,-0.019339345111697912,0.1181979248791933
1772568144456324600,1.82932470703125,-0.04698270044922828,-0.05431596594676375,0.05123538945764303
1772568144466396700,1.839396728515625,-0.03643441842794418,-0.09567585807815193,0.004034954604506492
1772568144476467700,1.8494677734375,0.022605799561738967,-0.12392353598438202,-0.05312631777077913
1772568144486539500,1.85953955078125,0.043452188235521313,-0.13456585296466947,-0.06691825788840651
1772568144496610600,1.869610595703125,-0.016264321580529213,-0.14115597194470464,-0.007115092702209949
1772568144506682600,1.8796826171875,-0.08309387827217578,-0.14118245809283106,0.09876944017931819
1772568144516753700,1.889753662109375,-0.15194062000513076,-0.16724325694665312,0.17033990778774022
1772568144526825700,1.89982568359375,-0.15080021779835223,-0.180847529005073,0.197055626886338
1772568144536896800,1.909896728515625,-0.07220189737975596,-0.17412929013334214,0.16961144738271833
1772568144546968600,1.919968505859375,-0.023229484418034553,-0.20780494790505616,0.12893909912407397
1772568144557039600,1.93003955078125,-0.04711772500574588,-0.20339326894264667,0.11513473791629075
1772568144567111700,1.940111572265625,-0.06180383748412132,-0.20582495306897908,0.07341741064935922
1772568144577182500,1.950182373046875,-0.06255085645914077,-0.1975635033432394,0.0157680624961853
1772568144587254500,1.960254638671875,-0.13974223268926142,-0.19058069525118915,0.0540165446087718
1772568144597325600,1.97032568359375,-0.20510873109102248,-0.16314115539006888,0.09406783835962414
1772568144607396600,1.980396728515625,-0.267005507555604,-0.10406882522907107,0.08783566597178578
1772568144617468700,1.99046875,-0.2671855402976274,-0.07976951962243765,0.04845379591509699
1772568144627539700,2.000539794921875,-0.2057394302099943,-0.0418373003847897,0.006436608918756246
1772568144637611500,2.010611572265625,-0.13125380580723284,0.0076504051553085445,-0.02674742941111326
1772568144647682600,2.0206826171875,0.029472178199887275,0.07323986212536693,-0.08509148183017969
1772568144657754600,2.030754638671875,0.1411293031334877,0.06085366061981767,-0.12237535669431089
1772568144667825700,2.04082568359375,0.13646891010701656,0.055615285042300816,-0.16708149051368235
1772568144677897700,2.050897705078125,0.07026011566221714,0.027217165814712643,-0.16783289340287447
1772568144687968800,2.06096875,-0.07865735712945461,0.022298377580381928,-0.11789791901931165
1772568144698040800,2.071040771484375,-0.13481471315920351,0.031031974862515924,-0.07020794708356261
1772568144708111600,2.081111572265625,-0.08679390183389186,0.07045012180898338,-0.04567234850302338
1772568144718183400,2.091183349609375,-0.031284196057915686,0.08459365184325725,0.02631590612605214
1772568144728254500,2.10125439453125,0.10599252330064773,0.07755009000729769,0.04589008290693163
1772568144738326500,2.111326416015625,0.1444967337399721,0.0098907314280048,0.06023439621031284
1772568144748397600,2.1213974609375,0.07396364635527133,-0.07317450527157635,0.09876038009002804
1772568144758469600,2.1314697265625,-0.052803369426727295,-0.12717110307086257,0.16279416858330367
1772568144768540700,2.141540771484375,-0.1613245344221592,-0.15744853323902933,0.236173146918416
1772568144778611700,2.15161181640625,-0.1658329517573118,-0.15479253883752972,0.24434929298087954
1772568144788683800,2.161683837890625,-0.1474643513739109,-0.15042068042885512,0.21588585343211888
1772568144798754800,2.1717548828125,-0.023330022183060645,-0.15030724664963782,0.1576784330047667
1772568144808826600,2.18182666015625,0.03880056303739547,-0.14174337991122155,0.06189122350662946
1772568144818897700,2.191897705078125,0.0812719235420227,-0.13738218902703375,-0.02583908239454031
1772568144828969700,2.2019697265625,0.07569675375819206,-0.10387838069088756,-0.10462284238263964
1772568144839040500,2.21204052734375,0.0397404742360115,-0.051768290757946665,-0.18710735658481717
1772568144849112600,2.222112548828125,-0.08766483944952487,-0.025465244113467633,-0.21168109521865844
1772568144859183600,2.23218359375,-0.18205401871800422,0.04291029991116375,-0.18837971460819244
1772568144869255400,2.24225537109375,-0.2265969247996807,0.05954308947790414,-0.13087825049310922
1772568144879326500,2.252326416015625,-0.21852409298121928,0.030365144984237848,-0.0717423170439899
1772568144889398500,2.2623984375,-0.1879284637093544,0.0036347763057798144,-0.027453677984327077
1772568144899469600,2.272469482421875,-0.21049451578259468,-0.05682144596166908,-0.015110475370287894
1772568144909541600,2.282541748046875,-0.24365561162829397,-0.09879373437035828,0.005671469765156507
1772568144919612700,2.29261279296875,-0.22154548662900925,-0.1380704635521397,0.04136427604556083
1772568144929684700,2.302684814453125,-0.15353928737342357,-0.1447754410834983,0.07396335409432649
1772568144939755800,2.312755859375,-0.10289981798231601,-0.1257723787214607,0.11277063913345337
1772568144949827600,2.32282763671875,-0.008660860839486122,-0.09288560630511492,0.09829130127355455
1772568144959898600,2.332898681640625,0.00903086319565773,-0.07661744879968464,0.0629081454642117
1772568144969970700,2.342970703125,0.009252396991848945,-0.07443959330394864,0.0582972906678915
1772568144980041500,2.35304150390625,0.04867547584176063,-0.02619830762837082,0.03871142344921827
1772568144990112500,2.363112548828125,0.12578151187598705,-0.012808847364410757,0.01273614745438099
1772568145000184600,2.3731845703125,0.1366495273709297,-0.014531433373317122,0.002513882517069578
1772568145010255600,2.383255615234375,0.1041243913412094,-0.03687328476924449,0.0043238545484840865
1772568145020327700,2.39332763671875,0.10314356361031532,-0.029304310819692907,-0.031012685640156266
1772568145030398700,2.403398681640625,0.10873568452894687,-0.055336358503066,-0.06984510512053967
1772568145040470500,2.413470458984375,0.07713292404115199,-0.06655249331593513,-0.08151508464813231
1772568145050541600,2.42354150390625,0.017673603856563566,-0.043449009897746145,-0.07222294016778469
1772568145060613600,2.433613525390625,-0.13766425737142562,-0.03040701136458665,-0.007323182494938373
1772568145070684700,2.4436845703125,-0.2260743622303009,-0.009115947663225233,0.05679550780281424
1772568145080756700,2.4537568359375,-0.2580769356906414,-0.004009783630631864,0.1042952178634703
1772568145090827800,2.463827880859375,-0.2856231142640114,-0.05279423627220094,0.12478124879226088
1772568145100899600,2.473899658203125,-0.24548048896789548,-0.07798303806446492,0.13955255533605812
1772568145110970600,2.483970703125,-0.19896306794285773,-0.12100286276470869,0.1397089149415493
1772568145121042700,2.494042724609375,-0.14521978731751442,-0.16320760822240263,0.12763166978731752
1772568145131113500,2.504113525390625,-0.02153729354739189,-0.14825385778378694,0.11040040287077427
1772568145141185500,2.514185546875,0.04133914160430431,-0.12998670848086474,0.09972454894706606
1772568145151256600,2.524256591796875,0.09351356547772884,-0.1153639435622841,0.06844736715182662
1772568145161328600,2.53432861328125,0.016775193712115288,-0.11900949699040501,0.06851487943008541
1772568145171399700,2.544399658203125,-0.0320808993935585,-0.06821575035303831,0.06473667606562376
1772568145181471500,2.554471435546875,-0.10315525404810905,-0.06935213397182524,0.04883490418717265
1772568145191542500,2.56454248046875,-0.10410393307507038,-0.06455956593304872,0.012350216876715421
1772568145201613600,2.574613525390625,-0.08588847742676735,-0.0443181939477101,-0.00253536369651556
1772568145211685600,2.584685546875,-0.04001403048038482,-0.05379004237651824,-0.025280425598472354
1772568145221756700,2.594756591796875,-0.004231938481330871,-0.043503553096577524,-0.03183364663422107
1772568145231828700,2.604828857421875,0.0661532648652792,-0.05101597455330193,-0.0496845067538321
1772568145241899800,2.614899658203125,0.050469958043098444,-0.06701569038089364,-0.07999985777959227
1772568145251971800,2.624971923828125,-0.010415595552325248,-0.09587912556529045,-0.08314151680618524
1772568145262042600,2.635042724609375,-0.08894611143171786,-0.10059186983350664,-0.11586933580115437
1772568145272114400,2.645114501953125,-0.050208676758408545,-0.13185611908193676,-0.09802139829099178
1772568145282185500,2.655185546875,-0.1199929916024208,-0.05515183224901557,-0.09314677799195051
1772568145292257500,2.665257568359375,-0.17648937032818793,-0.05918470449429005,-0.10982421041801571
1772568145302328600,2.67532861328125,-0.2503682610094547,-0.03622742461375892,-0.05805661377981305
1772568145312400600,2.685400634765625,-0.2761544441729784,-0.03012618512921035,-0.011282441514730453
1772568145322471700,2.6954716796875,-0.23784487952291963,-0.028500081764720377,-0.0033510639935731886
1772568145332543500,2.70554345703125,-0.14069091171622275,-0.06398468865454196,0.03375497008562088
1772568145342614500,2.715614501953125,-0.10216039779186248,-0.10915065853800623,0.07908712684884667
1772568145352686600,2.7256865234375,-0.12852116597294808,-0.13781842501983047,0.13187149931415915
1772568145362757600,2.735757568359375,-0.11401917788982391,-0.14275332413874567,0.16931991709023714
1772568145372829700,2.74582958984375,-0.03747019121646881,-0.1436649956235662,0.1866093439348042
1772568145382904300,2.755904296875,-0.006387070688605308,-0.1535733357734978,0.17747633553892372
1772568145392976400,2.765976318359375,0.046288872966170305,-0.1342171856574714,0.1309483931198716
1772568145403047400,2.77604736328125,0.050611996862292286,-0.13485873496402054,0.05938727786168456
1772568145413118500,2.786118408203125,-0.011875731232762336,-0.13685542520657182,-0.008124708136171102
1772568145423190300,2.796190185546875,-0.04445405875444412,-0.103895514488779,-0.08948051056936383
1772568145433261300,2.80626123046875,-0.03153261786103249,-0.09993665732778609,-0.155034202106297
1772568145443333400,2.81633349609375,0.010595628294348717,-0.045085598123632366,-0.17349179594740272
1772568145453404400,2.826404296875,-0.030510873597860335,-0.02108067235369235,-0.11773366836830973
1772568145463476500,2.8364765625,-0.03624269524812698,0.06341119961552322,-0.057908875872194766
1772568145473547500,2.846547607421875,-0.02651391291618347,0.13293321026153862,-0.022670681491494177
1772568145483619300,2.856619384765625,-0.058381461820006364,0.13984123608432708,0.01109656355381012
1772568145493690400,2.8666904296875,-0.10581658221185207,0.12244447640776633,0.0013899930536746979
1772568145503762200,2.87676220703125,-0.10247954674363136,0.08376830693501978,-0.024429361727088688
1772568145513833200,2.886833251953125,-0.06778291189372539,0.07230400604736059,-0.030867139689624307
1772568145523905300,2.8969052734375,-0.09802724350988865,0.04569163772538304,-0.026294717207551
1772568145533976300,2.906976318359375,-0.12813128987252712,0.0403750458125025,-0.023860914189368487
1772568145544048400,2.91704833984375,-0.09496201072037219,0.00792209823615849,-0.007399900992959737
1772568145554119400,2.927119384765625,-0.0404465766787529,-0.006339614817686378,0.00016498130336403845
1772568145564191200,2.937191162109375,0.012707505881786346,-0.009954005922563373,0.012666881610453129
1772568145574262300,2.94726220703125,0.01728255871236324,0.005557487996667623,0.01619768608510494
1772568145584334300,2.957334228515625,0.0352834948271513,0.03199866447020322,0.02954202856570482
1772568145594405400,2.9674052734375,0.04461012609899044,0.0076519395252689715,0.022609306693077084
1772568145604477400,2.9774775390625,0.055017538344860076,0.0061538099220022555,0.021661212188005447
1772568145614548500,2.987548583984375,0.06101531745493412,-0.011448372666165232,-0.027094927674531935
1772568145624620500,2.99762060546875,-0.00871931302845478,-0.03716605717074126,-0.029314211159199473
1772568145634691600,3.007691650390625,-0.0457446830868721,-0.07339406630638987,-0.05298018729835748
1772568145644762400,3.017762451171875,-0.04984627318680286,-0.09999452499486505,-0.08512348440364002
1772568145654834200,3.027834228515625,-0.047003743237257,-0.12950235903002322,-0.06109729664996266
1772568145664905200,3.0379052734375,-0.038948447075486184,-0.14402294221576303,-0.021137918966263533
1772568145674977300,3.047977294921875,-0.13860475309193135,-0.15846808554511516,0.08806947472766041
1772568145685048300,3.05804833984375,-0.19026538222432135,-0.17897917784992604,0.17837372277006505
1772568145695120400,3.068120361328125,-0.2153945627838373,-0.17566713069248943,0.20918153348788618
1772568145705191400,3.07819140625,-0.1514332550048828,-0.22177768794968722,0.16350947724580764
1772568145715263500,3.088263427734375,-0.09924187999665736,-0.24934063499476758,0.15445128765180707
1772568145725334500,3.09833447265625,-0.022377251502871513,-0.25617826246246694,0.10214403117895125
1772568145735406300,3.10840625,-0.01346153911948204,-0.2819602809075266,0.0705029845073819
1772568145745477400,3.118477294921875,-0.0031838907331228255,-0.275484399424307,0.04756327681615948
1772568145755549400,3.128549560546875,-0.014721768313646315,-0.24892314023505896,0.05173427889049053
1772568145765620500,3.138620361328125,-0.042941900625824925,-0.22404906694777307,0.06450432861447333
1772568145775692500,3.148692626953125,-0.0851537334114313,-0.15184117821864782,0.07918371909111738
1772568145785763300,3.158763427734375,-0.21855916429460048,-0.09861421308498829,0.06870777165368198
1772568145795835100,3.168835205078125,-0.32952479983270166,-0.10298252782970667,0.07062383440807461
1772568145805906200,3.17890625,-0.3305862915843725,-0.06970215298589319,0.049263212601840495
1772568145815978200,3.188978271484375,-0.27883096990585327,-0.039251887001469726,0.021331103450804946
1772568145826049300,3.19904931640625,-0.10682312890589236,-0.006832585966400802,-0.017700930254906416
1772568145836121300,3.209121337890625,-0.020530162331461904,-0.006236812030337751,-0.03266775937080383
1772568145846192400,3.2191923828125,0.033089199653267856,-0.01828775369953364,-0.052768005852401254
1772568145856264400,3.229264404296875,0.06230711083114147,-0.030017390992492437,-0.05370616348534822
1772568145866335500,3.23933544921875,0.05625730927288532,-0.029588315392844376,-0.046597646654397244
1772568145876407300,3.2494072265625,0.004219078999757766,-0.030758966607414184,-0.03931728038787841
1772568145886478300,3.259478271484375,-0.05767535937726497,0.0024926935985684394,-0.014224778576940298
1772568145896550400,3.26955029296875,-0.02607026080191135,0.04991181270368397,-0.0061726972855627536
1772568145906621400,3.279621337890625,-0.05055997441411018,0.013980813753232358,0.0023389643415808676
1772568145916692200,3.289692138671875,-0.017848375901579856,0.051245764721184965,0.00882934927418828
1772568145926764300,3.299764404296875,0.04084989678263664,0.004573628058470785,0.01003945571631193
1772568145936835300,3.30983544921875,0.09933364993333815,-0.008299187920242548,0.03197276284396648
1772568145946907400,3.319907470703125,0.15699205817580222,-0.017705935223586856,0.09057546619921922
1772568145956978400,3.329978515625,0.09873919117152691,-0.07301799953561276,0.1684016332015395
1772568145967050200,3.34005029296875,-0.06315583661496639,-0.11096136122178285,0.2549029818296432
1772568145977121300,3.350121337890625,-0.21820845116078852,-0.161139058320038,0.25890374190360305
1772568145987193300,3.360193359375,-0.28658640633821486,-0.20296196485329418,0.2721963541969657
1772568145997264400,3.370264404296875,-0.24007950670719144,-0.16369583013076333,0.22342750098332761
1772568146007336400,3.38033642578125,-0.16561960126757622,-0.18074187667351216,0.1549267962090671
1772568146017407500,3.390407470703125,-0.03674012337625027,-0.14085275121442972,0.08942015868425368
1772568146027479300,3.400479248046875,0.07858838354647159,-0.09326276905443519,-0.013968904119729996
1772568146037550300,3.41055029296875,0.07042845796644687,-0.09225015794578939,-0.09915054845139383
1772568146047622400,3.420622314453125,0.039375148054957385,-0.10656243214309215,-0.1833764994934201
1772568146057693400,3.430693359375,-0.012514613658189773,-0.1051484006267041,-0.22974968974217772
1772568146067765500,3.440765625,-0.09479600650370121,-0.0915171309635043,-0.17124270184636115
1772568146077836300,3.450836181640625,-0.16051497160494327,-0.03807590202465653,-0.08341229657158256
1772568146087908400,3.460908447265625,-0.21701836459338664,-0.013571538832597433,0.02607011467143893
1772568146097979400,3.4709794921875,-0.21662264327406883,-0.008145166402310132,0.07328866970315576
1772568146108051200,3.48105126953125,-0.23248130666315553,-0.07548731225859373,0.08169716321676969
1772568146118122200,3.491122314453125,-0.22260288672745226,-0.12943170494660736,0.08458280165567994
1772568146128194300,3.5011943359375,-0.15811960090100766,-0.1592197076300159,0.07293707978650928
1772568146138265300,3.511265380859375,-0.05321487283706665,-0.1911677013589069,0.0675993720203638
1772568146148337400,3.52133740234375,0.05138064314723015,-0.1609379097247496,0.10892419283837079
1772568146158408400,3.531408447265625,0.0632598815113306,-0.16529906407631934,0.1739884934231639
1772568146168480500,3.54148046875,0.010134440523386001,-0.14926456919629125,0.22490458779856562
1772568146178551600,3.551551513671875,-0.06930383785068989,-0.11466902010068297,0.2294680963218212
1772568146188622600,3.56162255859375,-0.16524726082384586,-0.08201686015781015,0.20214155184850097
1772568146198694400,3.5716943359375,-0.2049900731474161,-0.032402605628594754,0.1543557183228433
1772568146208765200,3.58176513671875,-0.15008359396159648,0.01380523799061775,0.09372633144557475
1772568146218837200,3.591837158203125,-0.03030278380513191,0.01606489001829177,0.039186932006478305
1772568146228908300,3.601908203125,0.07414251005351542,0.02031962485332042,-0.01810629618540406
1772568146238980400,3.61198046875,0.14171031789183616,0.025854791420325634,-0.027911650884896517
1772568146249051400,3.622051513671875,0.1813876637637615,0.07684786002207547,-0.04004851727187633
1772568146259123200,3.632123291015625,0.12350363007187842,0.12172752377744764,-0.08727642465382814
1772568146269194200,3.6421943359375,0.054209729093313216,0.15659136842042207,-0.100096743260324
1772568146279266300,3.652266357421875,-0.0040665187865495675,0.19668931432459502,-0.11593611742705107
1772568146289337300,3.66233740234375,0.15418050788640975,0.1536016850851476,-0.14869681577831506
1772568146299409400,3.672409423828125,0.279167069992423,0.15905392260905354,-0.16172668548226354
1772568146309480400,3.68248046875,0.12175064892470835,0.10452036838885397,-0.09988120081350206
1772568146319552500,3.692552490234375,-0.024334230789542197,0.048079044318571684,-0.0009542319849133491
1772568146329623600,3.70262353515625,0.03110240975022316,0.11193009665608405,-0.0046992637321352955
1772568146339695400,3.7126953125,-0.07856792528033256,0.042525757572986184,-0.00014876082092523573
1772568146349766100,3.72276611328125,-0.006464812099933624,0.06770107882916927,0.014312602990865706
1772568146359838200,3.732838134765625,0.003005611556768417,0.017421784519962964,0.05584551360160112
1772568146369909200,3.7429091796875,-0.006492284628748893,0.020270926873385903,0.07438859376907349
1772568146379981300,3.752981201171875,0.00175415019094944,-0.03859437294080853,0.11025164204984902
1772568146390048800,3.763048828125,-0.10946458332538604,-0.05114679785873741,0.142493869484961
1772568146400120800,3.773120849609375,-0.2873410240978002,-0.08058383168000727,0.16096110793724655
1772568146410192000,3.78319189453125,-0.39975744296610355,-0.09911964185647666,0.16298077719658613
1772568146420263700,3.793263671875,-0.3374918331891298,-0.07293079617619513,0.10626987893730401
1772568146430334700,3.803334716796875,-0.2739613180428743,-0.09308178646434098,0.06729878163859247
1772568146440406800,3.81340673828125,-0.19234335754215717,-0.07592289066426455,0.044054830303788185
1772568146450477800,3.823477783203125,-0.11623451585173607,-0.1017047629788518,0.011971446692198514
1772568146460550000,3.8335498046875,-0.015820669466257094,-0.1152957736968994,-0.023257249207794664
1772568146470620700,3.84362060546875,0.05280629203617573,-0.09963891649022698,-0.06980331180542707
1772568146480691700,3.853691650390625,0.10076280595362186,-0.0991914649836719,-0.11268880606889724
1772568146490763800,3.863763671875,0.030788521495461463,-0.08942823239285498,-0.12203297299742698
1772568146500834800,3.873834716796875,-0.15850012465119362,-0.0724404553759843,-0.11146379431858658
1772568146510906600,3.88390673828125,-0.3763017485767603,-0.04565612802058458,-0.07989639740511774
1772568146520977700,3.893977783203125,-0.3893009308815002,0.006672500033862889,-0.07861717124953865
1772568146531049700,3.9040498046875,-0.216706229904294,0.01913362993914634,-0.11555384011119603
1772568146541120800,3.914120849609375,-0.022104864302277562,-0.039405725856311614,-0.09198138747438787
1772568146551192800,3.92419287109375,0.1356517485052347,-0.0697434713769704,-0.029489421595633027
1772568146561263900,3.934263916015625,0.21128829650878905,-0.09918580242786557,0.04352978351637721
1772568146571335700,3.944335693359375,0.14712182154655457,-0.1531614670369774,0.13818082859143613
1772568146581406700,3.95440673828125,0.030712533649802205,-0.17100107511021195,0.2460470368094742
1772568146591478800,3.964478759765625,-0.00500233833193779,-0.15318411726020276,0.2646690274320543
1772568146601549600,3.974549560546875,-0.04956804076731205,-0.20747922308202832,0.268199101254344
1772568146611622000,3.984621826171875,-0.04277238927781581,-0.2237398548681289,0.3095820820003748
1772568146621691600,3.994691650390625,-0.037276129949092865,-0.1905337508369237,0.300558817589283
1772568146631763700,4.004763671875,-0.009376900154352188,-0.21390410503037272,0.1855089814774692
1772568146641834800,4.014834716796875,0.10887129360735416,-0.22625023025386035,0.004197305559366941
1772568146651906800,4.02490673828125,0.2147241161763668,-0.250298337578401,-0.1496577697649598
1772568146661977900,4.034977783203125,0.28649580544531345,-0.2798884796021506,-0.2773345938682556
1772568146672049700,4.045049560546875,0.21797288883924482,-0.2230771166430786,-0.31635815200656653
1772568146682120700,4.05512060546875,-0.011716156756877899,-0.119693972123228,-0.23190701390653848
1772568146692192800,4.06519287109375,-0.27574820145964624,0.03858271903563291,-0.09926496861129999
1772568146702263800,4.075263916015625,-0.41607495603859423,0.16194485827758906,-0.03211524005457759
1772568146712336000,4.0853359375,-0.4002028486460447,0.20314444528073072,-0.08194149336665868
1772568146722406700,4.09540673828125,-0.30035657301545143,0.1354241868270561,-0.1539006680317223
1772568146732479000,4.10547900390625,-0.24710955147445202,0.01699731203019619,-0.1748803276963532
1772568146742549800,4.1155498046875,-0.1534293972581625,-0.0587935132196173,-0.198110250505805
1772568146752621600,4.12562158203125,-0.049265842950344085,-0.09610044016577303,-0.2017212806098163
1772568146762692600,4.135692626953125,0.03810322842299938,-0.14165763785652816,-0.16548662253767252
1772568146772764700,4.1457646484375,0.11926584637165069,-0.15409001659136265,-0.10468757818192242
1772568146782835700,4.155835693359375,0.14082593627274034,-0.16314911950081587,-0.02937485530525446
1772568146792906800,4.16590673828125,0.10220365241169929,-0.16803718380331992,0.01837239977568388
1772568146802978800,4.175978759765625,0.047965866267681116,-0.14354761632159352,0.033333529803156854
1772568146813049900,4.1860498046875,-0.09996668713986873,-0.11443590546455233,0.08288008939102291
1772568146823121700,4.19612158203125,-0.1966466076940298,-0.0701282329108566,0.11745119816511869
1772568146833192700,4.206192626953125,-0.2320171962827444,-0.030836415757797657,0.13462401289269327
1772568146843264800,4.2162646484375,-0.1614326709717512,-0.01757628096193075,0.0926525647342205
1772568146853335600,4.22633544921875,-0.11180676253736019,-0.042446664454787966,0.04589841234385967
1772568146863407900,4.236407958984375,-0.027745500537753105,-0.08159574866890906,-0.0009513093754649162
1772568146873478700,4.246478759765625,-0.006033434945344925,-0.13173128712587057,-0.01766410537585616
1772568146883550700,4.25655078125,0.0200859256953001,-0.1230572380112484,-0.05763809610679745
1772568146893621800,4.266621826171875,0.08798808005452155,-0.12904003874789924,-0.13785057372376322
1772568146903693600,4.276693603515625,0.13371522748470305,-0.15276220205370336,-0.1852016690939665
1772568146913764600,4.2867646484375,0.11174772582650185,-0.12609415802173315,-0.1626794561624527
1772568146923836700,4.296836669921875,-0.05268588052690029,-0.1162975346179679,-0.06405775389075279
1772568146933907700,4.30690771484375,-0.13252981709241865,-0.0973201181538403,0.009655424834787846
1772568146943979800,4.316979736328125,-0.2930442041754722,-0.08401161417160183,0.09565116202831268
1772568146954050800,4.32705078125,-0.3346867126405239,-0.05532656776141375,0.14653189282938836
1772568146964123000,4.337122802734375,-0.26152970649302004,-0.08283172020465135,0.15880626799091696
1772568146974194000,4.34719384765625,-0.056274844929575914,-0.11023059926182031,0.11267463141307234
1772568146984265700,4.357265625,0.05605389565527439,-0.1575955039616674,0.06078545422181487
1772568146994336800,4.367336669921875,0.06175006147027015,-0.2056889055991545,0.03140811469852924
1772568147004408800,4.377408935546875,0.10402151548862457,-0.21451003503426908,-0.0015305705681443213
1772568147014479600,4.387479736328125,0.066157356518507,-0.19429756034985182,-0.013605039243400096
1772568147024551700,4.3975517578125,0.03239128051698208,-0.14316084549371152,-0.003338058381527662
1772568147034622700,4.407622802734375,-0.03555412846207619,-0.09304982042349874,0.030497721855342386
1772568147044694800,4.41769482421875,-0.14263912317454813,-0.03462031821068376,0.08389847265332936
1772568147054765800,4.427765869140625,-0.21047347299456595,-0.010704860822483897,0.0991414883621037
1772568147064837600,4.437837646484375,-0.2664911282926798,-0.012316643400676548,0.07389554955512284
1772568147074908700,4.44790869140625,-0.2845978628695011,-0.0518940725620836,0.03822451671510935
1772568147084980700,4.457980712890625,-0.19922668731510637,-0.10719481176249682,-0.004456979408860206
1772568147095051800,4.4680517578125,-0.05553717830479145,-0.11931940318979323,-0.03721782389059663
1772568147105122800,4.478122802734375,0.011806173127889633,-0.10861129096429795,-0.029255758970230816
1772568147115195000,4.48819482421875,0.011424480333924293,-0.09406604826133698,0.0071788055881857864
1772568147125266000,4.498265869140625,0.04458382261395454,-0.05881831886731088,0.0182395671762526
1772568147135337700,4.508337646484375,0.06856207957267761,-0.043832419724762435,-0.005901917520165443
1772568147145408500,4.518408447265625,0.06313537834882736,-0.016662052193842827,-0.030347353599220514
1772568147155480600,4.52848046875,0.07137070725262165,-0.029303616699948905,-0.0647362376742065
1772568147165551600,4.538551513671875,-0.013846154522895813,-0.047942485392093656,-0.06630173342525959
1772568147175623700,4.548623779296875,-0.0943383258640766,-0.048370939937233924,-0.03814531399905682
1772568147185694700,4.55869482421875,-0.11295476352870464,-0.027825981895439326,0.01773074087128043
1772568147195766800,4.568766845703125,-0.09864683671295642,-0.022220307375490665,0.05987389233484864
1772568147205837800,4.578837890625,0.033169863674044606,-0.03759860336910933,0.09250321939140557
1772568147215909600,4.58890966796875,0.11610709007978438,-0.08143208253979682,0.1428122877843678
1772568147225980700,4.598980712890625,0.12138240013420581,-0.11683639073502272,0.16182736937776207
1772568147236052700,4.609052734375,0.06462181751430034,-0.13144264291021973,0.17957813012376428
1772568147246123800,4.619123779296875,0.037439796078205106,-0.13613584222774952,0.1620591323070228
1772568147256195800,4.62919580078125,0.018142974933981895,-0.13717084783129393,0.1229714228913188
1772568147266267000,4.639266845703125,-0.05543547149598598,-0.14250453700944782,0.12988880106434225
1772568147276338700,4.649338623046875,-0.1546978097587824,-0.11600951145682484,0.15333558149486778
1772568147286409700,4.65940966796875,-0.216109433054924,-0.06477262416183949,0.12827186738699675
1772568147296481800,4.669481689453125,-0.1490279474288225,-0.05288059938140213,0.03047857876345515
1772568147306552600,4.679552490234375,-0.09936813672482966,-0.025514197821728885,-0.0842253665201366
1772568147316624600,4.689624755859375,-0.11659282777011394,-0.010957008952647448,-0.17838906646966934
1772568147326695700,4.69969580078125,-0.20517127493321893,0.01809745529182255,-0.17533157859519122
1772568147336767700,4.709767822265625,-0.2971417026221752,0.07722418252117931,-0.1505380597308278
1772568147346838800,4.7198388671875,-0.2716962957203388,0.14188107134886085,-0.13644129144772887
1772568147356910600,4.72991064453125,-0.18529519259631633,0.15169738583378492,-0.13904036803022027
1772568147366981600,4.739981689453125,-0.09901683906912803,0.13047222697548566,-0.13832695906385778
1772568147377053700,4.7500537109375,-0.07877192341983318,0.07049713928848504,-0.12183379716351628
1772568147387124500,4.76012451171875,-0.10820786126255988,0.048286768785119054,-0.10431728356480598
1772568147397196500,4.770196533203125,-0.21207214036285876,0.019777042409218848,-0.06310644451528787
1772568147407267600,4.780267578125,-0.188524091514945,0.010274287385493516,-0.0722426677815616
1772568147417338600,4.790338623046875,-0.07803133418560028,-0.021030330405943095,-0.10215338352918624
1772568147427410700,4.80041064453125,0.07482172448933123,-0.05366035158224403,-0.08975567424893378
1772568147437481700,4.810481689453125,0.13792378509044648,-0.09533248800057917,-0.039555034666508435
1772568147447553500,4.820553466796875,0.11088789412677287,-0.10005122361816465,0.019678513938188553
1772568147457624600,4.83062451171875,-0.023779519516229627,-0.0985508655251935,0.09349208429828286
1772568147467696600,4.840696533203125,-0.15502105036377906,-0.08269183680992573,0.1612532227516174
1772568147477767700,4.850767578125,-0.14669570508897303,-0.05477141809668391,0.16344357240274549
1772568147487839700,4.86083984375,-0.09040157093703746,-0.09877108414713293,0.1303879827581346
1772568147497910500,4.87091064453125,0.038678982484340665,-0.11202632357217371,0.03858107506781816
1772568147507982800,4.88098291015625,0.1619692620664835,-0.13957487676572053,-0.05007029120102525
1772568147518053600,4.8910537109375,0.18310206646621227,-0.21172793003506957,-0.07595584308579563
1772568147528125400,4.90112548828125,0.11929741055369376,-0.2203517102671787,-0.0470266857214272
1772568147538196500,4.911196533203125,-0.01603577352166176,-0.1928958037931472,0.023690379928052424
1772568147548268500,4.9212685546875,-0.13392799345254897,-0.18011651131678372,0.08590805891007185
1772568147558339600,4.931339599609375,-0.2553279292434454,-0.18115560857355595,0.14803922865241764
1772568147568411600,4.94141162109375,-0.2593172911405563,-0.18476539656855165,0.1767835309691727
1772568147578482700,4.951482666015625,-0.2283750403881073,-0.1977288499727845,0.14237915706411003
1772568147588554500,4.961554443359375,-0.18452128561437128,-0.18283592634331433,0.11765621921792625
1772568147598625500,4.97162548828125,-0.11750877357125282,-0.17549666949640957,0.0845502145603299
1772568147608697600,4.981697509765625,-0.07426759773790836,-0.14337854336500166,0.04991510063931345
1772568147618768600,4.9917685546875,-0.07061784305870533,-0.07486110665164887,-0.020185732807964086
1772568147628840700,5.0018408203125,-0.0324731135815382,-0.04508384455796331,-0.06334390653297305
1772568147638911700,5.011911865234375,0.016209376522898673,-0.0341621991796419,-0.10847162676528095
1772568147648983800,5.02198388671875,0.05118833544552326,-0.013044007827155292,-0.12003244682997465
1772568147659054600,5.0320546875,0.07638239793479443,-0.006612440409697592,-0.13674202795997262
1772568147669126400,5.04212646484375,0.0082435122102499,-0.0425366808257997,-0.08595891231447458
1772568147679197400,5.052197509765625,-0.09178922590315342,-0.05780841117240488,-0.003857990602403879
1772568147689269500,5.06226953125,-0.1741863540828228,-0.07291194534525275,0.037272622817754744
1772568147699340500,5.072340576171875,-0.18138064950108526,-0.06598806436620652,0.07818082565888762
1772568147709412600,5.08241259765625,-0.06668810239434242,-0.048152547946199775,0.06425824489891528
1772568147719483600,5.092483642578125,0.03912731077373027,-0.058729471540078515,0.03429872157350183
1772568147729555700,5.1025556640625,0.08541209208667278,-0.039799547479487954,0.01308773737102747
1772568147739626800,5.112626708984375,-0.041162031471729275,-0.05523432290069759,0.02143514834716916
1772568147749697800,5.12269775390625,-0.1108610061198473,-0.04974745245482772,0.018826427153497933
1772568147759769600,5.13276953125,-0.08101648747622966,0.0006004135785624385,-0.010878536888957024
1772568147769840600,5.142840576171875,-0.006786883661150932,0.033413499704189595,-0.06435425261929631
1772568147779912700,5.15291259765625,-0.0033761984348297117,0.03024458734448999,-0.0713338823735714
1772568147789983500,5.1629833984375,-0.007018938851356506,0.06789762431457638,-0.09744754392579197
1772568147800055600,5.1730556640625,-0.1518032573610544,0.05366342032216489,-0.07564400065764784
1772568147810126600,5.183126708984375,-0.2571703422397375,0.021391747596859932,-0.03436184993758797
1772568147820198700,5.19319873046875,-0.2011690535545349,0.023510456783883273,-0.01606616865992546
1772568147830269700,5.203269775390625,-0.08053308787345886,-0.002847607983462512,0.0010557926632463932
1772568147840341500,5.213341552734375,0.04107727579772472,-0.06503971413280815,0.026896044101566076
1772568147850412500,5.22341259765625,0.13110650629103182,-0.1402280434448272,0.06706511901319026
1772568147860484600,5.233484619140625,0.0673339990824461,-0.18945680578779428,0.12418532872572541
1772568147870555600,5.2435556640625,-0.030416765573620795,-0.2252913586264476,0.16296923288926482
1772568147880627700,5.253627685546875,-0.0472042342454195,-0.21840894216895101,0.16642682599723338
1772568147890698800,5.26369873046875,-0.10995675075650214,-0.20786913571506738,0.1502956292770803
1772568147900770600,5.2737705078125,-0.1383791276425123,-0.169208273409307,0.12489406151697038
1772568147910841600,5.283841552734375,-0.10078092613220214,-0.1366061266206205,0.04450666572451591
1772568147920913700,5.29391357421875,-0.07439969968497753,-0.1516736030993983,-0.08694412395954132
1772568147930984400,5.303984375,0.03317687793672085,-0.1741236275775358,-0.2121020971097052
1772568147941056800,5.314056884765625,0.047938393738865846,-0.14193656439576297,-0.3474022556982934
1772568147951127600,5.32412744140625,0.030793197670578955,-0.14142185633927584,-0.21746406253427267
1772568147961199600,5.33419970703125,-0.17675357422232627,-0.13947284116335212,-0.0886336844816804
1772568147971270700,5.344270751953125,-0.21734861946105954,0.05210903048701584,0.02163490870296955
1772568147981342500,5.354342529296875,-0.18561200346052645,0.03758552469182759,0.09145882490500808
1772568147991413500,5.36441357421875,-0.1363455759882927,0.020055165230855345,0.11828209603130817
1772568148001484500,5.374484619140625,-0.14955869330465793,-0.04442176392003894,0.1157196981973946
1772568148011556600,5.384556640625,-0.09074117815494537,-0.05932630492206663,0.056684594774246214
1772568148021627600,5.394627685546875,-0.06436112075150012,-0.07119377978313714,0.010110913517326115
1772568148031699700,5.40469970703125,-0.002689385214447975,-0.06160732853133231,0.014113719417899847
1772568148041770800,5.414770751953125,0.05017828162014484,0.017674334508925676,0.006922200478613376
1772568148051842800,5.4248427734375,0.05694178440570831,0.028034583144821226,0.03480535592138767
1772568148061913900,5.434913818359375,0.07072481056451797,0.04712126866970211,0.04751753797829151
1772568148071985700,5.444985595703125,0.1016845969736576,0.05626289876345545,0.03664353113397956
1772568148082056400,5.455056396484375,0.07356734051406383,0.018344561920687556,0.03227744487896561
1772568148092128500,5.46512841796875,0.016321604725718496,0.014346760988794267,0.02207534594684839
1772568148102199600,5.475199462890625,-0.12496902644932269,0.023981946753151715,0.02839402757436037
1772568148112271600,5.485271728515625,-0.18577859219908713,0.015078436264209448,0.016842559859901667
1772568148122342700,5.4953427734375,-0.12467384289503097,0.005513502724468708,0.020153876364976165
1772568148132414500,5.50541455078125,-0.10164777209460735,-0.03190568895712494,0.06359758903309702
1772568148142485500,5.515485595703125,-0.07625204955339432,-0.0655821869790554,0.11822510514706372
1772568148152557600,5.5255576171875,0.0037263270467519758,-0.07310100164394825,0.1256157999202609
1772568148162628600,5.535628662109375,0.07182721884846686,-0.12562723462972789,0.12838409558981656
1772568148172700700,5.54570068359375,0.09499825107753276,-0.13700268819015474,0.12552768324539065
1772568148182771700,5.555771728515625,0.03623626550734043,-0.12052392014134675,0.13842851974219084
1772568148192843800,5.56584375,-0.10195698417425154,-0.12123144735619425,0.1416970200188458
1772568148202914800,5.575914794921875,-0.22456045053601265,-0.1381406061789021,0.14455971597358583
1772568148212986600,5.585986572265625,-0.2549438983619213,-0.1834703517893329,0.1603254403822124
1772568148223057400,5.596057373046875,-0.21277005949914454,-0.20647866773735732,0.1845923050239682
1772568148233129500,5.60612939453125,-0.03531505900919437,-0.2432831250540912,0.17444281306192277
1772568148243200500,5.616200439453125,0.10101941106319427,-0.27472959900163113,0.14460823129042982
1772568148253271600,5.626271484375,0.2070779853373766,-0.2928784922197461,0.10000088167041539
1772568148263343600,5.636343505859375,0.2703407894581556,-0.3053932885410264,0.03993599680811166
1772568148273414700,5.64641455078125,0.2506336339473724,-0.3137031805183738,-0.037814766870439054
1772568148283486700,5.65648681640625,0.14013912305235862,-0.30697858497109265,-0.0997936686605215
1772568148293557800,5.666557861328125,-0.02060088948011398,-0.24261030382644383,-0.1025648869395256
1772568148303629600,5.676629638671875,-0.1792272708594799,-0.16711729247942567,-0.08931640604883431
1772568148313700600,5.68670068359375,-0.34268998635411263,-0.09386647056862711,-0.04605228773131966
1772568148323772700,5.696772705078125,-0.4236731560826301,-0.030090967685356733,0.006319120018929243
1772568148333843700,5.70684375,-0.37845454269647594,0.04161120001133531,0.02684066065251827
1772568148343915800,5.716915771484375,-0.3286041778564453,0.0032092078374698755,0.03499269518703222
1772568148353986600,5.726986572265625,-0.2531979314774275,0.01563248995039612,0.008816635923087596
1772568148364058400,5.737058349609375,-0.16198855128884315,0.05344254411309957,-0.05260594715848565
1772568148374129400,5.74712939453125,-0.12560089461207388,0.04152355826050043,-0.14920491143092512
1772568148384201500,5.757201416015625,-0.0642015462756157,0.04595295554269105,-0.0974322002261877
1772568148394273000,5.76727294921875,-0.19060966561734674,0.120625553884916,-0.03810702781528234
1772568148404345300,5.777345458984375,-0.1999357123672962,0.10592040791250765,-0.02117591288909316
1772568148414416100,5.787416015625,-0.1839279958963394,0.14514087686240673,0.03012085136696696
1772568148424488200,5.79748828125,-0.19550445192158222,0.14212879903223366,0.07876023298203945
1772568148434559200,5.807559326171875,-0.15117781893908977,0.1545116760695353,0.08856763350814581
1772568148444631000,5.817631103515625,-0.05700608181357383,0.1394120143542066,0.06848989111930132
1772568148454702000,5.8277021484375,0.005652326673269271,0.07866638068612665,0.1187622807636857
1772568148464773000,5.837773193359375,0.1695680466324091,0.027258812999352813,0.1489496214956045
1772568148474845200,5.84784521484375,0.28338848707973957,-0.02526413205079734,0.1559400649048388
1772568148484916200,5.857916259765625,0.2854997801452875,-0.058505453525856135,0.19475348742380738
1772568148494988300,5.86798828125,0.25278993519842624,-0.07499003026094288,0.24322949517071246
1772568148505059300,5.878059326171875,0.1334346569776535,-0.08052775411121547,0.2294065753929317
1772568148515131100,5.888131103515625,0.0016974515676498412,-0.12795198778286576,0.19255451607480645
1772568148525202000,5.898201904296875,0.03748305069804191,-0.12754384537339208,0.11000555833429097
1772568148535274200,5.908274169921875,0.33679859022796155,-0.17361827187128365,0.014280746547877787
1772568148545345000,5.918344970703125,0.0792588301539421,-0.12304803179148584,-0.10331892017722129
1772568148555417000,5.9284169921875,-0.15367197384238243,-0.268385929063335,-0.12523059999495745
1772568148565488000,5.938488037109375,-0.17336919248104093,-0.14416373892594128,-0.1627281176097691
1772568148575560200,5.948560302734375,-0.24931612160801886,-0.11935513209030031,-0.1527894919194281
1772568148585631200,5.95863134765625,-0.21868659006655214,-0.06100669575706124,-0.10260784929841756
1772568148595703000,5.968703125,-0.13830781597197056,0.03530201686453074,-0.03300955854579806
1772568148605774000,5.978774169921875,-0.11276947008967399,0.051625411688536404,-0.003171761903911829
1772568148615846100,5.98884619140625,-0.15209785639345644,0.034044271888397634,-0.0022485095791518685
1772568148625917200,5.998917236328125,-0.1852922699868679,0.02301222493816167,-0.037558015630394216
1772568148635989200,6.0089892578125,-0.2836567826271057,-0.025994126825779677,-0.042108956933021545
1772568148646060300,6.019060302734375,-0.2550467742145061,-0.08868497627750038,-0.05758490461483597
1772568148656132000,6.029132080078125,-0.16433248406648635,-0.11232954430244863,-0.04755611642301082
1772568148666203100,6.039203125,-0.14851649077534676,-0.11795688266493379,-0.018703969817608593
1772568148676274200,6.049274169921875,-0.1307546241134405,-0.08431688072849064,0.005808540148288011
1772568148686346000,6.059345947265625,-0.13893617700338362,-0.04828282326236367,0.030147154852002856
1772568148696417000,6.0694169921875,-0.10237491732537746,-0.0024307342782616615,0.02650499895736575
1772568148706489000,6.079489013671875,-0.08606149590611457,0.0909978928623721,-0.009983780006319283
1772568148716560100,6.08956005859375,-0.10641513262689113,0.13437087838184086,-0.01942278561145067
1772568148726632200,6.099632080078125,-0.04322948539555072,0.17760533221345393,-0.039482407821714874
1772568148736703200,6.109703125,0.010427870512008667,0.17742577439546584,-0.023203911585360764
1772568148746775000,6.119775146484375,0.08496201023161411,0.1396772046290338,-0.033519992285966874
1772568148756846000,6.12984619140625,0.12427519896626471,0.11394951018709688,-0.030753304051607845
1772568148766918100,6.139918212890625,0.19950199712514877,0.04088197242133319,-0.017434826664626597
1772568148776989200,6.1499892578125,0.1697685376405716,-0.017167627095803616,0.03969853479042649
1772568148787061200,6.160061279296875,0.12147943076789379,-0.05002466196101159,0.11146350205764174
1772568148797132300,6.17013232421875,0.04487491451501846,-0.049221455819346005,0.16416589532792566
1772568148807204400,6.180204345703125,0.016019406908750533,-0.05349902354069054,0.16380319949537514
1772568148817275100,6.190275146484375,0.04930208330750465,-0.07074567068945616,0.12739917620569466
1772568148827347000,6.200346923828125,0.01653670878112316,-0.07847323273420334,0.10454349353611468
1772568148837418000,6.21041796875,-0.06189969907402992,-0.0850172475501895,0.07450447523370385
1772568148847489000,6.220489013671875,-0.09181436034440994,-0.10147975858394057,0.063562225458771
1772568148857561000,6.23056103515625,-0.08093114728033542,-0.08994882220085709,0.07371215581223368
1772568148867632000,6.240632080078125,-0.1252741468757391,-0.10629764372706413,0.10478943112120032
1772568148877704200,6.2507041015625,-0.11229133118391037,-0.12105864807255566,0.09764964236915111
1772568148887775200,6.260775146484375,-0.09742284787595272,-0.11721424760408698,0.09768383689969777
1772568148897847300,6.270847412109375,-0.19286592011153697,-0.15715893917530774,0.07456263516172766
1772568148907918300,6.28091845703125,-0.15195055687725542,-0.16282028940524906,0.005574585261940956
1772568148917990100,6.290990234375,-0.16522563351392744,-0.17644545812122522,-0.06371390888914466
1772568148928061200,6.301061279296875,-0.21917875749766824,-0.17732337346691637,-0.10713000289797782
1772568148938133200,6.31113330078125,-0.1722375581026077,-0.15995233275350182,-0.14600626152008772
1772568148948204000,6.3212041015625,-0.1483925721347332,-0.11685542422905563,-0.1803817015916109
1772568148958276400,6.3312763671875,-0.14487199679315088,-0.08634433143548667,-0.18887933469340204
1772568148968347100,6.34134716796875,-0.14262158751785756,-0.08511055185683071,-0.17542174109667538
1772568148978419000,6.3514189453125,-0.08960486760139465,-0.036662235834449525,-0.1796038490869105
1772568148988490000,6.361489990234375,-0.13984978471696377,-0.037089265607483685,-0.19263956400975585
1772568148998561000,6.37156103515625,-0.24714228470027444,-0.03317932562213391,-0.18337021588310598
1772568149008633000,6.381633056640625,-0.27660394150614737,-0.044261568389646705,-0.17844985674619673
1772568149018704100,6.3917041015625,-0.2883002245187759,-0.04579853216595947,-0.15264350757747888
1772568149028776200,6.401776123046875,-0.19832535456120967,-0.05669880596268922,-0.12140490422695875
1772568149038847200,6.41184716796875,-0.14355039280056953,-0.06800232679806649,-0.03834200561493635
1772568149048919300,6.421919189453125,-0.11221183620691298,-0.10010931048095226,0.061976563702523704
1772568149058990300,6.431990234375,-0.012204817056655883,-0.09260087107960134,0.1961443572603166
1772568149069062100,6.442062255859375,-0.016921908706426618,-0.07938139708768575,0.32175665004923937
1772568149079133200,6.45213330078125,-0.06345744991004466,-0.11758136388342827,0.3281660787001252
1772568149089205200,6.462205322265625,-0.0077414079070091246,-0.10932239837571978,0.2229028925873339
1772568149099276000,6.472276123046875,0.3284633080810308,-0.051189102630503476,0.2343091066122055
1772568149109348000,6.48234814453125,0.0327519305229187,-0.0652811216732487,0.23402196023389696
1772568149119419100,6.492419189453125,-0.24410510896146295,-0.10467208835184573,0.21614961893483994
1772568149129491200,6.5024912109375,-0.17269699230790136,0.01296940822098404,0.12116042794659733
1772568149139562200,6.512562255859375,-0.048397827944159505,0.007757372661121189,0.07204860651418567
1772568149149634000,6.522634033203125,0.15521628067493437,0.007260492522269487,-0.10577844215855002
1772568149159705000,6.532705078125,0.31029227609634397,-0.008910524751618505,-0.26763927541449667
1772568149169776000,6.542776123046875,0.35864275776743887,-0.032592502177506685,-0.33803616919890045
1772568149179848200,6.55284814453125,0.23706278923451898,-0.016447971051745117,-0.29418928255736826
1772568149189919200,6.562919189453125,0.03028407910466194,0.03430767206493765,-0.18122998898401854
1772568149199991300,6.5729912109375,-0.08589666073322295,0.08237374730408191,-0.06796031428724526
1772568149210062300,6.583062255859375,-0.1916922001570463,0.07858622812200337,0.027871611135452983
1772568149220134100,6.593134033203125,-0.21481822420060634,0.0035306218115612863,0.08810834543332458
1772568149230205200,6.603205078125,-0.11988953122794628,-0.045630445590056475,0.06064210022836923
1772568149240277000,6.613277099609375,-0.03825520411431789,-0.11901110442560166,0.021903788772225378
1772568149250348000,6.62334814453125,0.052771220722794526,-0.17736162311807274,0.010878829149901867
1772568149260420000,6.633420166015625,0.08372457739114761,-0.21689039083216338,0.02105944690257311
1772568149270491100,6.6434912109375,0.030965631628036498,-0.23740162926744668,0.03730345634743571
1772568149280563200,6.653563232421875,-0.11172902112603186,-0.2556548231102526,0.06374927246347069
1772568149290634200,6.66363427734375,-0.2398895370930433,-0.2747747898502275,0.10835033847317099
1772568149300706000,6.6737060546875,-0.30154139888584613,-0.24775373112950472,0.11806173127889633
1772568149310777000,6.683777099609375,-0.26890578821897504,-0.18601967094596475,0.0893041310891509
1772568149320848100,6.69384814453125,-0.2247363916248083,-0.15287771819215268,0.06125190268978476
1772568149330920200,6.703920166015625,-0.16739070259332656,-0.10189623043034225,0.004008358858525753
1772568149340991200,6.7139912109375,-0.11972411153316496,-0.09496325282938778,-0.0589865881063044
1772568149351063300,6.724063232421875,-0.06571838057935238,-0.06382884050570428,-0.12815437848716973
1772568149361134000,6.734134033203125,-0.06816811181902885,-0.05158339917771518,-0.15757409584745763
1772568149371206100,6.7442060546875,-0.0849929898917675,-0.05589505183175206,-0.17725509400367737
1772568149381277200,6.754277099609375,-0.07344517543911934,-0.04087251047324389,-0.20101839303746818
1772568149391348200,6.76434814453125,-0.0873193870127201,-0.03421659624800086,-0.16380656049624084
1772568149401419300,6.774419189453125,-0.08641045547425746,-0.021022695088759064,-0.11008768365979194
1772568149411491000,6.784490966796875,-0.11884499061107635,-0.021542042787745595,-0.03514832414016127
1772568149421562000,6.79456201171875,-0.07168985620439053,-0.017584318137913942,0.008623013047128916
1772568149431634200,6.80463427734375,-0.06332008726596831,-0.016187931876070795,0.019270371528714893
1772568149441705200,6.814705322265625,-0.04392974261939525,-0.034583895190432666,0.04422434165179729
1772568149451777300,6.82477734375,0.04092763819396496,-0.046303449480794366,0.061585080166906114
1772568149461848300,6.834848388671875,0.012589432460069655,-0.11096329745054244,0.0935173648700118
1772568149471919400,6.84491943359375,0.0028419454276561737,-0.11279285096526145,0.12223930922448635
1772568149481991200,6.8549912109375,-0.059733460950851434,-0.08726999491304159,0.148450732062757
1772568149492062200,6.865062255859375,-0.023205519020557404,-0.07856259151808917,0.150588036352396
1772568149502134300,6.87513427734375,0.030330840855836868,-0.06995411845296622,0.16172478578612207
1772568149512205000,6.885205078125,0.11612988643348217,-0.05141027110051363,0.12423939700052142
1772568149522277400,6.89527734375,0.030408582267165182,-0.043890396989695726,0.12019129065349697
1772568149532348200,6.90534814453125,-0.05851005663573742,-0.016307064743712543,0.11932897473573684
1772568149542420200,6.915420166015625,-0.00478314262330532,0.013831103084236383,0.06764554924964905
1772568149552491300,6.9254912109375,0.015889058527350425,0.02526533762719482,0.030951018580794333
1772568149562563000,6.93556298828125,0.05108253698348999,0.019729294277355074,-0.01761705136373639
1772568149572634000,6.945634033203125,0.02901566660404205,0.012762670135125517,-0.05794058618471026
1772568149582706200,6.9557060546875,-0.005405658435821533,-0.0024669015701860187,-0.13558876627162098
1772568149592777200,6.965777099609375,-0.04258475775122642,0.0029334596360102295,-0.1882309537872672
1772568149602848300,6.97584814453125,-0.06873451353013516,-0.040137729925289745,-0.17599734902754424
1772568149612920300,6.98592041015625,-0.08134791138768195,-0.03818721691202372,-0.13528013871386646
1772568149622991400,6.995991455078125,-0.12475742952525615,-0.02966649519558996,-0.06109495856240391
1772568149633063400,7.0060634765625,-0.1704647032111883,-0.03519450136944651,0.016504121685773133
1772568149643134500,7.016134521484375,-0.24155133282542227,-0.07726908110883086,0.0883050370492041
1772568149653206300,7.026206298828125,-0.2595446701556444,-0.12649846450630575,0.1639985759370029
1772568149663277000,7.036277099609375,-0.16859657125174998,-0.1606832043113187,0.16424655934870241
1772568149673349000,7.04634912109375,-0.11869593752920626,-0.2151534840369597,0.16824936524927614
1772568149683420200,7.056420166015625,-0.03049976768195629,-0.2084660421622917,0.16880977561101315
1772568149693492200,7.0664921875,0.015828852772712707,-0.22463804581686853,0.14290873389616607
1772568149703563300,7.076563232421875,-0.062391866505146026,-0.23344310090001671,0.15078896575197576
1772568149713635300,7.08663525390625,-0.06531330690979957,-0.21929789036531,0.14505524440556763
1772568149723706400,7.096706298828125,0.00274842192530632,-0.21270525063462553,0.07780658551901579
1772568149733777400,7.10677734375,0.04985153388381004,-0.19334891785550862,-0.001071574754267931
1772568149743849200,7.11684912109375,0.04735387184917927,-0.1678797647519037,-0.09657719083204865
1772568149753920300,7.126920166015625,0.011981529694795608,-0.1447322595288977,-0.1712161061003804
1772568149763992300,7.136992431640625,-0.09695581488609313,-0.10794614158645272,-0.19327903095707297
1772568149774063400,7.1470634765625,-0.1890431469529867,-0.05592489898074418,-0.14008257055953144
1772568149784135400,7.157135498046875,-0.21942834834456443,0.03069108900297433,-0.06379208869189024
1772568149794206200,7.167206298828125,-0.18512392768263816,0.11089512758515775,-0.006348346113413572
1772568149804278000,7.177278076171875,-0.1617769543647766,0.06056998484022915,0.03885770005211234
1772568149814349000,7.18734912109375,-0.13901274937093258,0.01698346616793424,0.008656184664368629
1772568149824421000,7.197421142578125,-0.03394318613409996,-0.03954001976046711,-0.03549333818554878
1772568149834492200,7.2074921875,-0.03125847709476948,-0.12748458946682512,-0.057870005166530604
1772568149844564200,7.217564208984375,-0.07467500949501991,-0.14176716264560818,-0.011324088699370622
1772568149854635300,7.22763525390625,-0.06961597253978252,-0.14122421487532555,0.03547434122413397
1772568149864706300,7.237706298828125,-0.023495441877841947,-0.11556900114770978,0.048597588299959894
1772568149874778400,7.2477783203125,0.012736731976270675,-0.09043455989118665,0.09042743603065609
1772568149884849400,7.257849365234375,-0.017339841857552527,-0.08751085446421056,0.13830197075307368
1772568149894921200,7.267921142578125,-0.073376786378026,-0.05566675950121134,0.15396321187391876
1772568149904992300,7.2779921875,-0.1647708754837513,-0.05377769435159862,0.1587188819684088
1772568149915064300,7.288064208984375,-0.10008885221481323,0.03501998505275696,0.1459029472760856
1772568149925135000,7.298135009765625,0.019368132814764974,0.08023918296080082,0.12603650955036283
1772568149935207200,7.308207275390625,0.08184007881879805,0.014939100858755409,0.10446721342951058
1772568149945278200,7.3182783203125,0.08605389712154865,0.004320383949764073,0.04059051519408822
1772568149955350300,7.328350341796875,0.08570610659718512,-0.009262991451099514,-0.045669572024047374
1772568149965421300,7.33842138671875,0.13138240062296389,0.016359671713784336,-0.08818068001717329
1772568149975492400,7.348492431640625,0.11046119314730167,0.038841479569673536,-0.10875015144571662
1772568149985564200,7.358564208984375,0.026430910807847974,0.03234897574521601,-0.07740268089324236
1772568149995635200,7.36863525390625,-0.06595452742278575,0.04945303608551621,-0.026413959673047063
1772568150005707300,7.378707275390625,-0.021916648253798483,0.08313508706539868,-0.005166735113412141
1772568150015778300,7.3887783203125,0.06484685844182968,0.01444927151519805,-0.05783142672181129
1772568150025850400,7.398850341796875,0.2186322295308113,-0.0221982782067731,-0.11683920374661684
1772568150035921400,7.40892138671875,0.2438321372389793,-0.15304748526848852,-0.10105243654996156
1772568150045993200,7.4189931640625,0.08563888657987118,-0.18079167063198984,0.003939969797432423
1772568150056064300,7.429064208984375,-0.1508668532937765,-0.22470113764833657,0.12721198307052253
1772568150066136000,7.439135986328125,-0.25939327898621556,-0.2150752311689779,0.20398528001904487
1772568150076207000,7.44920703125,-0.2379512625068426,-0.1657572927052155,0.22685791382342577
1772568150086279200,7.459279052734375,-0.19872633657753466,-0.19856427788361905,0.2320947915636003
1772568150096350200,7.46935009765625,-0.3259925340533256,-0.17530293702259658,0.22520532431080936
1772568150106421200,7.479421142578125,-0.18727146110534668,-0.28277276633419096,0.1722571395859122
1772568150116493300,7.489493408203125,0.07669453262388706,-0.17439279990773646,0.03191138804554939
1772568150126564400,7.499564453125,-0.03800561326742172,-0.2514367670238018,0.002345540212839842
1772568150136636200,7.50963623046875,-0.07750117283165454,-0.2037870540332049,-0.024619623602181673
1772568150146707200,7.519707275390625,-0.11986731939613818,-0.17549319889768958,-0.052954760596156114
1772568150156779300,7.529779296875,-0.13796762423217296,-0.12782295457571743,-0.07930924516692757
1772568150166850300,7.539850341796875,-0.1741898612141609,-0.08331574086192994,-0.07424684721082449
1772568150176922400,7.54992236328125,-0.09961655852794647,-0.01301145726442337,-0.08911489212736487
1772568150186993200,7.5599931640625,-0.060250762823224065,0.02938000640440732,-0.09962912574857473
1772568150197065500,7.5700654296875,-0.001353168174624443,0.031375235342234374,-0.09356412662118672
1772568150207136300,7.58013623046875,0.0319634104937315,0.0163175861377269,-0.07668196540325879
1772568150217207300,7.590207275390625,0.01824818887412548,-0.026876462618261574,-0.029521131908148524
1772568150227279000,7.600279052734375,-0.011752981635928153,-0.06583411591351032,0.033902854123711586
1772568150237350100,7.61035009765625,0.030035072779655454,-0.08062219092901796,0.08493950613886117
1772568150247422200,7.620422119140625,-0.04919043962657451,-0.0927261414270848,0.13001111226975917
1772568150257493200,7.6304931640625,-0.11919395017921924,-0.12370697062425315,0.18989801021665334
1772568150267565300,7.6405654296875,-0.09715162971913814,-0.10660046259853988,0.20295754440650343
1772568150277636400,7.65063623046875,-0.034739889469742775,-0.11268602958992123,0.17450681820884345
1772568150287708200,7.660708251953125,0.021178981629014014,-0.1213761895891279,0.13077639755383133
1772568150297779200,7.670779296875,0.10109481438696384,-0.1259458721248433,0.0625834435544908
1772568150307851300,7.680851318359375,0.10823416474759578,-0.11696399917006492,-0.036417905684560534
1772568150317922300,7.69092236328125,0.05126841494441032,-0.11626487445738166,-0.14576061619594693
1772568150327994400,7.700994384765625,-0.06003215163648128,-0.10616356901861726,-0.19080562658086417
1772568150338065200,7.711065185546875,-0.12721943572461605,-0.06034848757665604,-0.1371603995025158
1772568150348136200,7.72113623046875,-0.2011439191132784,0.03976601053606719,-0.06422083549797535
1772568150358208300,7.731208251953125,-0.21177286515533922,0.08075235664732754,-0.02885214660540223
1772568150368279300,7.741279296875,-0.13452245221436024,0.09195504745673387,-0.051397594282031056
1772568150378351000,7.75135107421875,-0.05936813476979732,0.045042708829976616,-0.07980258164182305
1772568150388422100,7.761422119140625,0.037899230283498765,-0.020043949717096984,-0.12721753602847455
1772568150398494200,7.771494140625,-0.0010264204382896423,-0.10684194320421665,-0.15498261804953217
1772568150408565200,7.781565185546875,-0.10687573587596416,-0.12892945451289414,-0.10137275454550981
1772568150418637300,7.79163720703125,-0.21678747844696045,-0.1342157608853653,-0.03597717617973685
1772568150428708400,7.801708251953125,-0.3549766364753246,-0.10569112920127809,0.023606793297827243
1772568150438780400,7.811780517578125,-0.3747165252119303,-0.093709782169573,0.07609042925089597
1772568150448851500,7.8218515625,-0.29730887588262556,-0.08805701710488646,0.09977905561327934
1772568150458922500,7.831922607421875,-0.21293138754069804,-0.05402699293754994,0.10142097760140895
1772568150468994300,7.841994384765625,-0.09262859933674335,-0.04446333803944289,0.07225523500218987
1772568150479065000,7.852065185546875,0.00756254420876503,-0.048410175969079136,0.024291852952539918
1772568150489137200,7.86213720703125,0.004058920001983642,-0.04218746552933007,-0.009810907657444476
1772568150499208200,7.872208251953125,-0.16669453702270984,-0.10079155712407081,-0.014049422010034321
1772568150509280300,7.8822802734375,-0.19805998162329197,-0.07618143200259656,-0.0225182674087584
1772568150519351300,7.892351318359375,0.00018237082958221434,-0.005573562348634004,-0.08308978661894798
1772568150529423400,7.90242333984375,0.10315993022322655,-0.03626074236147105,-0.11020400351583957
1772568150539494400,7.912494384765625,0.2258119119018316,-0.027102234198153018,-0.09967325715124606
1772568150549565400,7.9225654296875,0.2560422149926424,-0.052165509914606806,-0.04283712507709861
1772568150559637200,7.93263720703125,0.24580139148533342,-0.03877630537897348,0.05064253813102841
1772568150569708300,7.942708251953125,0.12252806303799152,-0.06884283274281769,0.08897957530990243
1772568150579780400,7.9527802734375,-0.01895195322930813,-0.08523834295496344,0.10070800702646374
1772568150589851400,7.962851318359375,-0.08502163146436215,-0.09023706455770879,0.07128361349105834
1772568150599923500,7.97292333984375,-0.15317746832370757,-0.1216131766827777,0.021463205397874115
1772568150609994200,7.982994140625,-0.12011691024303435,-0.11070048179589212,0.02784633056372404
1772568150620066000,7.993066162109375,-0.14765899716317651,-0.07939805596154183,0.042753976838290686
1772568150630137000,8.00313720703125,-0.1388455761104822,-0.05851685170270502,0.048474400311708445
1772568150640209200,8.013209228515626,-0.09923778834342956,-0.06080876203216612,0.04742416060641408
1772568150650280200,8.0232802734375,-0.06843991449773311,-0.0665644760146737,0.03497399048656225
1772568150660351200,8.033351318359376,-0.02943009262382984,-0.09047372285779565,0.027204233267903326
1772568150670423300,8.04342333984375,-0.014224924707412719,-0.08791172688268124,0.031523557771742344
1772568150680494300,8.053494384765624,-0.1367670162707567,-0.06269552562683821,0.04784574701935053
1772568150690566400,8.06356640625,-0.3099339641779661,-0.04905515934173017,0.07019114207923412
1772568150700637400,8.073637451171875,-0.3395218777120113,-0.021844752061367035,0.05380626285895705
1772568150710709200,8.083709228515625,-0.2784446009367704,-0.009212649503350257,-0.03986629257276654
1772568150720780300,8.0937802734375,-0.19950784234404562,0.009697364280372857,-0.10398439834862946
1772568150730852400,8.103852294921875,-0.09054419427812099,-0.005308408606424927,-0.15723244280293583
1772568150740923100,8.113923095703125,-0.011122867038846015,0.004069003004580736,-0.19430325943827628
1772568150750995500,8.123995361328125,0.06936404360532761,0.005344868159294128,-0.20392448974251745
1772568150761066200,8.134066162109375,0.10473404767215251,0.02715063991714269,-0.15621990475952624
1772568150771137300,8.14413720703125,0.10969839208126067,0.003320047800801694,-0.05504764122217893
1772568150781209300,8.154209228515626,0.07275777769684791,-0.008187105847895145,0.07244023618027567
1772568150791280400,8.1642802734375,-0.020782091265916822,-0.06884776464626192,0.18373305784612892
1772568150801352200,8.174352294921874,-0.08167641268968581,-0.13095993742719292,0.28315423993244765
1772568150811423200,8.18442333984375,-0.11164835710525511,-0.12195676595605909,0.3207825443200767
1772568150821495300,8.194495361328125,-0.10649112047255038,-0.14828348573707043,0.31276305012404915
1772568150831566300,8.20456640625,-0.06281798296272754,-0.16198847822360693,0.2451686465397477
1772568150841638400,8.214638427734375,0.05347966125309467,-0.15878270445223897,0.1715346705302596
1772568150851709400,8.22470947265625,0.100874449634552,-0.13826704557016492,0.057861383468657726
1772568150861781200,8.23478125,0.1276397069633007,-0.12822243875470013,-0.05672551130652427
1772568150871852300,8.244852294921875,0.09289572584033012,-0.1332692738154903,-0.15976605293378232
1772568150881923000,8.254923095703125,0.004501403072476387,-0.10247472443804144,-0.21144567902758715
1772568150891995100,8.2649951171875,-0.13449088803231715,-0.06328428530022502,-0.12458265748023986
1772568150902066200,8.275066162109376,-0.23228373826444149,0.04142039014697075,-0.13898235423266886
1772568150912138200,8.28513818359375,-0.27833938699662686,0.07139087325781583,-0.1422695592097938
1772568150922209300,8.295209228515626,-0.2721113062620163,0.11704462665822356,-0.10286650023460388
1772568150932281300,8.30528125,-0.20626725347638128,0.09330284533649683,-0.10910612527653574
1772568150942352400,8.315352294921874,-0.2414285832285881,0.029433453624695537,-0.08521350077465176
1772568150952424200,8.325424072265625,-0.20134207203388213,-0.03211633603312075,-0.09419088021740317
1772568150962495200,8.3354951171875,-0.2078524768412113,-0.06428820164576173,-0.0736548726670444
1772568150972566300,8.345566162109375,-0.19444354469180106,-0.0855351704770699,-0.05263809586241841
1772568150982638300,8.355638427734375,-0.08795885396003722,-0.06140994279570877,-0.04482888341620564
1772568150992709400,8.36570947265625,-0.01819558190405369,-0.09393909741342067,0.024465602084249256
1772568151002781400,8.375781494140625,0.007566635861992835,-0.08288929561078548,0.07315349901616573
1772568151012852200,8.385852294921875,0.002897475007176399,-0.07532083311788737,0.09247253199219703
1772568151022924300,8.39592431640625,-0.028154665860533713,-0.06889580503907054,0.11305413224995135
1772568151032995300,8.405995361328126,-0.0068231240183115,-0.018385076594166456,0.0910438143633306
1772568151043067100,8.416067138671876,0.07335223645865917,-0.010788155191764235,0.05750701707303524
1772568151053138200,8.42613818359375,0.17587328425645826,-0.03918273075539618,-0.040562896534800524
1772568151063210200,8.436210205078124,0.1663040764003992,-0.09472396418079733,-0.06091697164699435
1772568151073281300,8.44628125,0.11430442457199096,-0.08935589780900627,-0.06476590216010808
1772568151083352300,8.456352294921874,0.01525485227704048,-0.05738445013929158,-0.06649637921452523
1772568151093424400,8.46642431640625,0.04278583328127861,-0.06473784510940313,-0.0867887872673571
1772568151103495400,8.476495361328125,0.07411912917792797,-0.0910788856767118,-0.10026187069416045
1772568151113567200,8.486567138671875,0.16261574327647685,-0.06675521281380206,-0.06744461985006928
1772568151123638300,8.49663818359375,0.1964244893759489,-0.10600706328265368,0.048082039993256324
1772568151133710300,8.50671044921875,0.0863654472887516,-0.10635134667567908,0.13559051983729004
1772568151143781000,8.516781005859375,-0.05303776270449161,-0.10722560875955968,0.20147271267622707
1772568151153853200,8.526853271484375,-0.21092180128395557,-0.12583024638853965,0.23054493177309632
1772568151163924200,8.53692431640625,-0.2234381685078144,-0.1441253066116944,0.205637431140244
1772568151173995300,8.546995361328126,-0.21460721179842948,-0.19721498216651379,0.16684651271402834
1772568151184067300,8.5570673828125,-0.17390929070711134,-0.2554923260249197,0.13739888443350792
1772568151194138400,8.567138427734376,-0.1171738425284624,-0.24520748071279375,0.11015417302474378
1772568151204210200,8.577210205078124,-0.04354337365031242,-0.2051965189723298,0.09568623334169388
1772568151214282200,8.5872822265625,-0.1039420205116272,-0.18823888136539607,0.09991963312774896
1772568151224354300,8.597354248046875,-0.07726677955389022,-0.12383235056959092,0.08582520293220877
1772568151234425300,8.60742529296875,-0.1012970589607954,-0.04806286036875099,-0.0035690906584262844
1772568151244497400,8.617497314453125,-0.13078268116414546,-0.055366972837038335,-0.12522446251511574
1772568151254568400,8.627568359375,-0.09910334830880164,-0.02599138687942177,-0.2367806112922728
1772568151264639500,8.637639404296875,-0.12059563367068767,0.003166282011196017,-0.28824133393839
1772568151274711300,8.647711181640625,-0.1996042884558439,0.037648945316858584,-0.27634806704893705
1772568151284782000,8.657781982421875,-0.27271862450540063,0.055376580915600056,-0.22247049251943826
1772568151294854100,8.667854248046876,-0.3227420078247785,0.06829582985192537,-0.16965484813302753
1772568151304925200,8.67792529296875,-0.37847558548450466,0.05058138252831995,-0.10912716806456446
1772568151314997200,8.687997314453124,-0.34168636226952076,0.048429757452383634,-0.022859482061862946
1772568151325068300,8.698068359375,-0.17086276261806488,0.028507022962160407,0.01609451797157526
1772568151335140400,8.708140380859374,0.002620411631464958,-0.027004984368756414,0.008791793742775916
1772568151345211400,8.71821142578125,0.11334697771668434,-0.11775423623230308,0.036448008561879394
1772568151355283200,8.728283203125,0.12487491842508315,-0.19374935188256204,0.0964573638446629
1772568151365354200,8.738354248046875,0.055846974906325335,-0.1793920329671353,0.17979191900491714
1772568151375425300,8.74842529296875,0.011602174988389015,-0.1401593255901709,0.2279492161914706
1772568151385497300,8.758497314453125,0.0012426935374736784,-0.09666348087601363,0.24299174089208245
1772568151395569400,8.7685693359375,-0.027887539356946944,-0.0622485855769366,0.20841639433428644
1772568151405641200,8.77864111328125,-0.0670639499694109,-0.05984572568628937,0.08224412957504391
1772568151415712300,8.788712158203126,-0.12991641972362994,-0.07226137248203159,-0.04026493650153279
1772568151425784300,8.798784423828126,-0.10639233627319335,-0.029361265171319244,-0.1603714714810252
1772568151435855400,8.80885546875,-0.07016951476931571,-0.0284556581011042,-0.24289485638886688
1772568151445927400,8.818927490234374,0.02071077959537506,-0.050028388288058334,-0.27041034756302834
1772568151455998500,8.82899853515625,0.06380407139062881,-0.0262994299152866,-0.20162439610660074
1772568151466069500,8.839069580078124,0.040789106506109236,0.010493738822452723,-0.036855712579935786
1772568151476141600,8.8491416015625,-0.11336743598282337,0.050379905139468606,0.06717237877994775
1772568151486212400,8.85921240234375,-0.19821137279272077,0.04966276984605938,0.10119915154427289
1772568151496284200,8.8692841796875,-0.20773791055083274,0.041167292168736457,0.10056348398923873
1772568151506355200,8.879355224609375,-0.12304653395414351,0.00996796138267964,0.04609875722154975
1772568151516427300,8.88942724609375,-0.025648820519447325,-0.017284202680177985,-0.004431260445713996
1772568151526498300,8.899498291015625,0.055008770516514774,-0.09151753282230347,-0.01426131119504571
1772568151536570400,8.9095703125,0.0648895285397768,-0.11461586514133959,-0.012943506594747304
1772568151546641400,8.919641357421876,-0.08794307186901569,-0.1281326050467789,0.0465332031160593
1772568151556712400,8.92971240234375,-0.17357435966432094,-0.10108940755948424,0.09857231017202138
1772568151566784300,8.9397841796875,-0.13943243608772754,-0.05109167013801634,0.11871142735928296
1772568151576855300,8.949855224609376,-0.05808043304681778,-0.03354793973881751,0.11552212979868054
1772568151586927400,8.95992724609375,0.04318038555681705,-0.021159655874036253,0.050005409271270035
1772568151596998400,8.969998291015624,0.16225041709542273,-0.020617584886588155,-0.0511069407723844
1772568151607070500,8.980070556640625,0.2047287918627262,0.0022530030911788344,-0.07030746193528174
1772568151617141200,8.990141357421875,0.18154782276153564,0.0027489333819597957,-0.0692486005321145
1772568151627213600,9.000213623046875,0.016511574339866636,0.037885932410508395,-0.08364800502359866
1772568151637284400,9.010284423828125,-0.21523440378606318,0.07360580936092882,-0.03696341073811054
1772568151647356200,9.020356201171875,-0.18906886591613292,0.08620108703989535,-0.1104486259266734
1772568151657427200,9.03042724609375,-0.07406126151084899,0.05043850345890969,-0.026615765855461358
1772568151667498200,9.040498291015625,-0.028361586609482764,0.00741875182390213,0.0760075732730329
1772568151677570300,9.0505703125,0.22120354132354259,-0.005448255468532443,0.08157792075127362
1772568151687641300,9.060641357421876,0.3395879286855459,-0.10766173515450209,0.10945903036743401
1772568151697713400,9.07071337890625,0.19989713392257688,-0.07684833494611085,0.09914645679816603
1772568151707784400,9.080784423828124,-0.04840075055360794,-0.04001070601213723,0.019718992079049348
1772568151717856500,9.0908564453125,-0.14249883792102336,-0.06143759798761457,0.0020939035393297673
1772568151727927600,9.100927490234374,-0.19180384383797644,-0.07246814710050821,0.07734948940128088
1772568151737999400,9.110999267578125,-0.16894962247312068,-0.13446885886359958,0.050262160511314866
1772568151748070400,9.1210703125,-0.10712532672286033,-0.1986078247644007,-0.004881926822662353
1772568151758141200,9.13114111328125,-0.08987900836765765,-0.19985230840016155,-0.0570773934841156
1772568151768213200,9.141213134765625,-0.1190256078749895,-0.2099499605771154,-0.042995092117786404
1772568151778284300,9.1512841796875,-0.2208896530687809,-0.12434585304968059,0.0011702128231525421
1772568151788356400,9.1613564453125,-0.23372166211307047,-0.008569273565895855,0.0441980381667614
1772568151798427400,9.171427490234375,-0.1741121198028326,0.012621033174730836,0.0043858138687908645
1772568151808499500,9.18149951171875,-0.2259001747071743,0.08323292141668498,-0.025341654266417026
1772568151818570500,9.191570556640626,-0.3341775940746069,0.05310695548318326,-0.043390082784742115
1772568151828642300,9.201642333984376,-0.4455412890195846,0.039540860010683535,-0.019187223289906977
1772568151838713300,9.21171337890625,-0.4535977542251348,0.07295435971487313,0.02848448233678937
1772568151848784400,9.221784423828124,-0.3600397650837898,0.07417301478963345,0.07987623139992356
1772568151858856400,9.2318564453125,-0.21489479656815527,0.04100958085637539,0.09284852569773792
1772568151868927500,9.241927490234374,-0.0049503158837556835,-0.03302771525699645,0.06454378384202718
1772568151878999600,9.25199951171875,0.20426935765743254,-0.10516849356666207,0.0352288420304656
1772568151889070300,9.2620703125,0.28791034841835494,-0.18273626536112278,0.13037015484049916
1772568151899142100,9.27214208984375,0.19446867913305757,-0.2012819028118625,0.1647783281378448
1772568151909213200,9.282213134765625,0.09348609294891357,-0.195480815317668,0.2091702814415097
1772568151919285200,9.29228515625,0.030055531045794486,-0.15355583664942532,0.21028058077096937
1772568151929356300,9.302356201171875,0.04367021490037441,-0.10844506755191832,0.22172727293670177
1772568151939427300,9.31242724609375,0.1025298156261444,-0.06514858133476227,0.14520882753208278
1772568151949499400,9.32249951171875,0.22687223460972308,-0.03126004799734801,0.058051060821861025
1772568151959570400,9.3325703125,0.1815536679804325,-0.18347046138718723,-0.020738690515607595
1772568151969642500,9.342642578125,0.1524877324938774,-0.20396957099325955,-0.044525808816403147
1772568151979713500,9.352713623046874,0.09577683423459529,-0.1823542437735945,-0.06334069166257977
1772568151989785300,9.362785400390624,-0.015009937605261802,-0.18887422012686728,-0.12610972091704606
1772568151999856400,9.3728564453125,-0.04897942722439766,-0.1594067546347156,-0.11330591505393385
1772568152009928400,9.382928466796875,-0.0985346085101366,-0.05559486330877989,-0.03476531617194414
1772568152019999200,9.392999267578125,-0.3440419854849577,-0.012181728442013264,0.09958177947551011
1772568152030070300,9.4030703125,-0.24019115038812158,-0.020566256558150052,-0.03874561797976494
1772568152040142300,9.413142333984375,-0.15444529630243778,-0.017094927185773847,-0.12091142162159084
1772568152050213400,9.42321337890625,-0.1716366696000099,-0.07475939984284341,-0.1006618297971785
1772568152060285400,9.433285400390625,-0.15997078172564505,-0.07480024330988526,-0.10060922282710671
1772568152070356500,9.4433564453125,-0.1459095231473446,-0.1161740178361535,-0.134545248568058
1772568152080428300,9.45342822265625,-0.18209435072839258,-0.1343036218319088,-0.1515121654599905
1772568152090499300,9.463499267578126,-0.2384387537628412,-0.115922235032171,-0.13096753621175886
1772568152100571400,9.4735712890625,-0.3140338007122278,-0.09363942034710199,-0.10322539667487143
1772568152110642400,9.483642333984376,-0.3616746728092432,-0.057021425513178105,-0.057723728563636535
1772568152120713500,9.49371337890625,-0.13359773858487606,0.020445516255311668,-0.04073752244934439
1772568152130785500,9.50378564453125,-0.03762216690778732,0.09006371728479862,-0.04029679294452071
1772568152140856300,9.513856201171874,-0.01331248603761196,0.05334602493606507,-0.048937341648340224
1772568152150928400,9.523928466796875,-0.09221768044829368,0.052045938655547797,-0.022062340334802866
1772568152160999400,9.53399951171875,-0.12686638450324533,0.04014302715491503,0.005470832626521587
1772568152171071200,9.5440712890625,-0.12010989598035812,0.052230172648653386,0.04114084255322814
1772568152181142300,9.554142333984375,-0.06366437065899372,0.08129395271074026,0.06654898618459701
1772568152191214300,9.56421435546875,0.055174774733185765,0.04347673815488815,0.11157499960809945
1772568152201285400,9.574285400390625,0.27986089747548104,-0.03184712717030197,0.0656976300522685
1772568152211356400,9.5843564453125,0.2888724714487791,-0.08588226688168943,0.10447627351880073
1772568152221428500,9.594428466796876,0.23124679643213747,-0.12169541160613298,0.10818521103933453
1772568152231499500,9.60449951171875,0.13626432744562625,-0.1787812075924128,0.10226064329594373
1772568152241571300,9.6145712890625,0.05653671073615551,-0.1767646436056122,0.12309388022720813
1772568152251642400,9.624642333984376,-0.02110240926146507,-0.12994126190394162,0.14830533224269746
1772568152261714400,9.63471435546875,0.033200843334197996,-0.1319597255868837,0.11526830116808413
1772568152271785200,9.64478515625,0.04009177189171314,-0.14420600716508924,0.11349983019083737
1772568152281857300,9.654857177734375,0.13032500052452087,-0.2348843492168933,0.09900251828283071
1772568152291928300,9.66492822265625,0.009418401208519936,-0.24336758846715092,0.1486499078966677
1772568152301999400,9.674999267578125,-0.12376491135656834,-0.24314857542160898,0.19139877016842363
1772568152312071400,9.685071533203125,-0.22242869920432567,-0.20954773645177482,0.16366554459035396
1772568152322142500,9.695142578125,-0.3722697165817022,-0.18642697310522197,0.12223594822362065
1772568152332214300,9.70521435546875,-0.38239422023296354,-0.14513915982935577,0.07667509727105498
1772568152342285300,9.715285400390625,-0.27845804494023324,-0.12051562723703682,-0.014947101502120494
1772568152352357400,9.725357421875,-0.19774492432475088,-0.06827960936948657,-0.12266601020395755
1772568152362428400,9.735428466796876,-0.08859539829790591,-0.05557341866195201,-0.14699834129735825
1772568152372500500,9.74550048828125,0.047153965362906454,-0.0739093588847667,-0.11366188888475298
1772568152382571500,9.755571533203126,0.12655834146738051,-0.03924136560745537,-0.11303118976578115
1772568152392642000,9.76564208984375,0.16270166799426078,-0.07384575559664518,-0.09572042787224054
1772568152402714000,9.775714111328124,0.16921733349859713,-0.04139825138039887,-0.09943258026316762
1772568152412785200,9.78578515625,0.12596446722745894,-0.00020019874721765516,-0.12062325232997535
1772568152422857000,9.79585693359375,-0.016170213556289673,0.025613931869156656,-0.0036903789505362506
1772568152432928000,9.805927978515625,-0.024763854378461837,-0.005124138080701232,0.12759952108338474
1772568152443000000,9.816,0.0026285949379205704,-0.027330343865603207,0.412337815336883
1772568152453071000,9.826071044921875,-0.11881693356037139,-0.03812485573291778,0.41069063265174627
1772568152463143200,9.83614306640625,0.10260229634046554,-0.03495280156806111,0.12237360312864183
1772568152473214200,9.846214111328125,0.24797230578362942,-0.13068221646435557,0.01007934933528304
1772568152483285200,9.85628515625,0.27294775708615776,-0.020299422315508128,0.07375833304151892
1772568152493357000,9.866357177734375,0.1841062750726938,0.0025360212836414574,0.0797698484160006
1772568152503428000,9.876427978515625,-0.06214870539903641,0.04333360335715115,0.04271715195924043
1772568152513500200,9.886500244140626,-0.25045827738046644,-0.005761193875223398,-0.04407864957079291
1772568152523571000,9.896571044921876,-0.22126666968762873,0.003839797358587384,-0.12453691864237189
1772568152533643000,9.90664306640625,-0.09676818335950374,-0.0201486887332052,-0.1654182334765792
1772568152543714000,9.916714111328124,-0.09750760354995727,-0.008461648472957313,-0.15866583660691977
1772568152553785000,9.92678515625,-0.1549538303464651,0.00789860776271671,-0.14849880898818374
1772568152563857200,9.936857177734375,-0.26167583696544167,0.015246924698911606,-0.030877514953166246
1772568152573928200,9.94692822265625,-0.47198272122144697,0.04075564262792468,0.077988956348598
1772568152584000000,9.957,-0.25296879889667034,-0.11997278906460851,0.062461424610018725
1772568152594071000,9.967071044921875,-0.1615980906665325,-0.04441160785220563,0.06992445396706462
1772568152604143000,9.97714306640625,-0.22164076369702815,-0.11727942179478704,-0.05506649205312133
1772568152614214100,9.987214111328125,-0.26146657812893387,-0.10549078432358801,-0.03630567748174071
1772568152624286200,9.9972861328125,-0.24256781639158725,-0.02242631480898708,0.005433569356054067
1772568152634357200,10.007357177734375,-0.18620470865666866,-0.05403718553800135,-0.05166895856931805
1772568152644428000,10.017427978515625,-0.14870879847705362,-0.07371255767103284,-0.06648804977759719
1772568152654500000,10.0275,-0.03155950586795807,-0.11540898828040808,-0.09958747856393456
1772568152664571100,10.037571044921876,0.10263093791306019,-0.08131002706270664,-0.13669775042682886
1772568152674643000,10.047642822265624,0.11383271540701388,-0.12786156955305486,-0.10953545660451054
1772568152684714000,10.0577138671875,0.21697043379843234,-0.06350585562903434,-0.06616627047732472
1772568152694786000,10.0677861328125,0.02314940491914749,0.006539521303959191,-0.009964198523014783
1772568152704857000,10.077857177734375,-0.3653349488824606,-0.005722505832649767,0.10771554770097136
1772568152714929200,10.08792919921875,-0.24796938317418096,-0.018905556804314255,0.08717194136604667
1772568152725000200,10.098000244140625,-0.030385785913467404,-0.00835186795555055,0.005411503654718399
1772568152735071200,10.1080712890625,0.08034019564986228,-0.049057607027143235,0.04188274696171283
1772568152745143300,10.118143310546875,0.031495208460092544,-0.048005577223561705,0.0096868428863585
1772568152755214300,10.12821435546875,-0.035083003818988795,-0.03510050294306129,0.0069419280923902985
1772568152765286100,10.1382861328125,-0.10061316834986209,-0.04159395661558956,0.05529051006734371
1772568152775357000,10.14835693359375,-0.2419073066562414,-0.048632257754541934,0.11856105910316109
1772568152785429000,10.158428955078126,-0.07624912694394588,0.0076692194536328315,0.07998714442849159
1772568152795500000,10.1685,0.032708091381192204,-0.014670403452590106,-0.02412511808350682
1772568152805571000,10.178571044921876,0.08156418448686599,-0.07871427494846284,-0.04388502669483423
1772568152815643100,10.18864306640625,0.03948386912643909,-0.07469619841352104,-0.02126402956396341
1772568152825714200,10.198714111328124,-0.12026070262789726,-0.13410444599799812,-0.014398381578177213
1772568152835786000,10.208785888671875,-0.3275011850506067,-0.10239606971126049,0.11158113708794117
1772568152845857000,10.21885693359375,-0.34482875194847584,-0.038898726182244714,0.036169922272861005
1772568152855929000,10.22892919921875,-0.10524491980373858,-0.17034030964653937,-0.16069368917271493
1772568152866000100,10.239000244140625,0.07201543489694595,-0.17437193978279827,-0.09241612562984228
1772568152876071200,10.2490712890625,0.19854747287929056,-0.1743700766192749,-0.12622560238167643
1772568152886143200,10.259143310546875,0.2771668360859155,-0.18897680371850728,-0.12065189390257
1772568152896214000,10.269214111328125,0.15299159036278723,-0.09372578345630317,-0.005411503654718399
1772568152906286000,10.2792861328125,0.03706453302502632,-0.07118252773676068,0.017641309022158384
1772568152916357000,10.289357177734376,-0.07994272076487541,-0.05064644712116569,0.01865940002351999
1772568152926429000,10.299428955078126,-0.16108312688171864,-0.0328113325599581,0.03854235049262643
1772568152936500000,10.3095,-0.0935153190433979,-0.010062507798336446,0.028843963298946618
1772568152946572000,10.319572021484374,-0.06228665256500244,-0.006385974710062146,-0.06613397564291953
1772568152956643000,10.32964306640625,-0.06978080771267414,-0.03176222536582499,-0.10169555675908923
1772568152966714000,10.339714111328124,-0.1583516560912132,-0.08749284388348459,-0.051427843289822334
1772568152976786200,10.3497861328125,-0.20590660347044468,-0.1312845297390595,0.080104779458791
1772568152986857200,10.359857177734375,-0.28039924213588235,-0.1319596890542656,0.22326120450571177
1772568152996929300,10.36992919921875,-0.27707915780246256,-0.11954119271431117,0.2375638706244528
1772568153007000300,10.380000244140625,-0.15104805507957936,-0.10549356080256402,0.25852628689333795
1772568153017072000,10.390072021484375,-0.004217325434088707,-0.0627677506128326,0.25292978206053374
1772568153027143000,10.400142822265625,0.13878244774639606,-0.07186736819576471,0.16224281831085682
1772568153037214000,10.4102138671875,0.1901934860318899,-0.10349365568961948,0.04555369055941701
1772568153047286000,10.4202861328125,0.1596247447669506,-0.13374438051395118,-0.0688631083458662
1772568153057357000,10.430357177734376,0.04195873480737209,-0.145071318757534,-0.13765081336796284
1772568153067429000,10.44042919921875,-0.2223655708402395,-0.14218330569844692,-0.11584990044832229
1772568153077500200,10.450500244140626,-0.3084393417060375,-0.054322797546349465,-0.1001885131970048
1772568153087572200,10.460572265625,-0.11224515395462513,0.024524346534162758,-0.15992957293242216
1772568153097643300,10.470643310546874,-0.03375029391050339,0.07718319292366504,-0.1107834108389914
1772568153107714300,10.48071435546875,0.027886954835057258,0.12126326726656407,-0.1109710423655808
1772568153117786000,10.4907861328125,0.05788578725755214,0.0570794393107295,-0.10008519895300269
1772568153127857200,10.500857177734375,-0.06343114642500877,0.022311237061955033,-0.06237535376176238
1772568153137929200,10.51092919921875,-0.12158406018614769,-0.08884115321990102,-0.05912015135809779
1772568153148000000,10.521,-0.08792319812476634,-0.14886307572331278,-0.01812996932193637
1772568153158072000,10.531072021484375,0.015866262173652647,-0.11539375417865812,0.011370850450545549
1772568153168143000,10.54114306640625,-0.3255278391510248,-0.16439122851639984,0.06205518189668655
1772568153178214100,10.551214111328125,-0.38580490545928475,-0.08303155362568795,0.051368660448491574
1772568153188286000,10.561285888671875,-0.4683937568187713,-0.11555661659017205,0.018408786263316868
1772568153198357000,10.57135693359375,-0.3825269067019224,-0.09030917994584887,0.002800882764905691
1772568153208429000,10.581428955078126,-0.15721008484065532,-0.0727617962848395,0.0030468203499913215
1772568153218500000,10.5915,0.06281681391894817,-0.05313537786006927,0.040536008527874944
1772568153228572200,10.601572265625,0.2696335179716349,-0.06635846858117729,0.04419628460109234
1772568153238643200,10.611643310546874,0.3463508469492197,-0.09695778764747083,-0.031019261511415243
1772568153248714200,10.62171435546875,0.2424737083673477,-0.10253613576907664,-0.04741057047247886
1772568153258786300,10.631786376953125,0.033680735805630684,-0.10250829791408031,0.03062850862815976
1772568153268857000,10.641857177734375,-0.038386721539497376,-0.01168342353105545,-0.033993308886140584
1772568153278929000,10.651928955078125,0.07514905674755573,0.003734693016298115,-0.11884236026257276
1772568153289000000,10.662,0.12518880667984486,-0.005708806100860238,-0.11696677564904093
1772568153299072000,10.672072021484375,0.33410277527272697,-0.06121200907081365,-0.10325140789896249
1772568153309143000,10.68214306640625,0.6780886466562748,-0.06943765683081,-0.167318075748533
1772568153319214000,10.692214111328125,0.8826385748207568,-0.34398941504750397,-0.20393618018031118
1772568153329286100,10.7022861328125,0.8079980521172284,-0.19677217030245808,0.03931172742992639
1772568153339357200,10.712357177734376,-0.5239513933897018,0.12795531225111334,0.3607787468828261
1772568153349429200,10.72242919921875,-1.1471207013785838,0.09907324543148278,0.29318375877663494
1772568153359500300,10.732500244140626,-0.9939461556643246,0.2832861226838082,0.3010727584607899
1772568153369572000,10.742572021484374,-0.6114484750568866,0.24588724313788116,0.07018588138222694
1772568153379643100,10.75264306640625,-0.42361996459066864,0.16206136079672723,0.03197700062766671
1772568153389715200,10.762715087890625,-0.29683482863008975,0.07785645254272967,0.0129644032523036
1772568153399789300,10.772789306640625,0.01559913567006588,-0.024262919119000432,-0.1596579163841903
1772568153409860400,10.7828603515625,0.22987843068838118,-0.13619604798238724,-0.2465909344278276
1772568153419932400,10.792932373046876,0.4799859949350357,-0.09329166635535657,-0.1745313681282103
1772568153430003500,10.80300341796875,0.6634989802896976,-0.19854992056470364,-0.04407105078622699
