time,seconds_elapsed,z,y,x
1772363461895958000,0.1139580078125,-0.085956281965971,-0.14015081349015235,-0.07188523264601826
1772363461906028000,0.124028076171875,-0.04793254851996898,-0.06622340749204159,0.02927899371534586
1772363461916097000,0.134096923828125,0.03914776903986931,-0.021619126611948012,0.057343497074395414
1772363461926167000,0.1441669921875,-0.0946872854322195,0.010245499682426452,-0.003258271143585443
1772363461936236000,0.154236083984375,-0.2597252874195576,0.03131283763051033,0.006538754118978977
1772363461946306000,0.16430615234375,-0.29148469977378844,0.027149872732162475,0.015191870043426751
1772363461956374800,0.174374755859375,-0.2051344500541687,0.04374094204902649,0.04654313998818397
1772363461966445000,0.184445068359375,-0.1155056170552969,0.08087327961325645,0.11177841322571039
1772363461976513800,0.194513671875,-0.03140869922041893,0.10168225888609886,0.13289265905544162
1772363461986584000,0.204583984375,0.04386953686475754,0.08335808216631412,0.10691796758249401
1772363461996653000,0.214653076171875,0.08641571617126464,0.03041910366117954,0.07402969732880592
1772363462006722800,0.224722900390625,0.11768296109437942,-0.059684361112117765,0.04125409366935491
1772363462016792000,0.2347919921875,0.15137538733780384,-0.07119768877327441,0.0035989012748003004
1772363462026861800,0.24486181640625,0.1292518183350563,-0.042221769657731056,0.006962678619474172
1772363462036931000,0.25493115234375,0.049937458601593966,-0.02017009684741497,0.02295928917452693
1772363462047000800,0.265000732421875,0.018559154519438743,-0.012269698986411094,0.04392974261939525
1772363462057070000,0.275070068359375,0.03639233285188675,0.023670798444747922,0.06393719625100493
1772363462067139800,0.285139892578125,0.03705401163101196,0.018313070803880692,0.0241762637488544
1772363462077209000,0.295208984375,-0.0034919337689876553,-0.03352934463620186,-0.06643149728477
1772363462087279000,0.305279052734375,-0.011298808127641677,-0.040457098072767254,-0.0690244363874197
1772363462097348000,0.31534814453125,-0.0037526305317878723,-0.06382511417865752,-0.0499349743835628
1772363462107418000,0.325418212890625,-0.02122398981451988,-0.034031448939442634,-0.069964785977453
1772363462117486800,0.33548681640625,0.012739654585719108,-0.015936404800415038,-0.07837678662240505
1772363462127557000,0.34555712890625,0.009158873489499092,0.0004611877709627151,0.0013055296406149863
1772363462137625900,0.3556259765625,0.011847089660167693,0.03709960433840751,0.09581965046301484
1772363462147696000,0.365696044921875,0.11903554474711417,0.10805647009313106,0.051423313245177266
1772363462157764900,0.375764892578125,0.0945475847005844,0.14831424620151518,0.05972761573195457
1772363462167835000,0.3858349609375,0.000533083963394165,0.10115560466349124,0.0867576614767313
1772363462177903900,0.39590380859375,-0.05524783996939659,0.06063946987986564,0.05819456094577908
1772363462187974000,0.405973876953125,-0.11126841787695885,-0.03920096053183079,0.013100596852600574
1772363462198043000,0.41604296875,-0.12600713732540605,-0.1242015492081642,-0.008621405611932278
1772363462208113000,0.42611279296875,-0.05935059911310672,-0.12290040348172188,-0.021883038245141505
1772363462218182100,0.43618212890625,0.020278233397006986,-0.07801438305079937,-0.032868834900856014
1772363462228252000,0.446251953125,0.06785831521749495,0.002096095496416092,-0.004516600641608238
1772363462238321200,0.456321044921875,0.04238368222117424,0.03495616256892681,-0.04092909949868917
1772363462248391000,0.466390869140625,0.020499767193198203,0.057903907436132426,-0.05580065154656767
1772363462258460200,0.476460205078125,-0.009438859474658966,0.04169453091323375,-0.0816620919033885
1772363462268530000,0.486530029296875,-0.013902268624305724,0.023793548041582107,-0.1010014370150864
1772363462278599000,0.496598876953125,0.036384149545431135,-0.010226210460066795,-0.11706994376257061
1772363462288669000,0.5066689453125,0.09748246910870074,-0.07079086153805256,-0.13171440905630588
1772363462298738000,0.516738037109375,0.11109539939761161,-0.06816051303446292,-0.08166706033945083
1772363462308808200,0.52680810546875,0.0344815307945013,-0.028607670325040815,-0.03641556759700179
1772363462318877000,0.536876953125,-0.03117255237698555,0.021564181554317472,0.015071458534151315
1772363462328947000,0.546947021484375,-0.07708207063674927,0.03937339448928833,0.004205050474405289
1772363462339016000,0.557015869140625,-0.08484159872233867,0.0331570041924715,0.0010027473017573357
1772363462349086000,0.5670859375,-0.05828384666442871,0.033848493587970735,0.05123918884992599
1772363462359155000,0.577155029296875,-0.04524433234930038,0.010481062003970145,0.06504091970920563
1772363462369225000,0.587224853515625,-0.09031389265358447,0.0253840321034193,0.03761602942794561
1772363462379294000,0.5972939453125,-0.12594108635187148,0.0498053566545248,0.023513708186894654
1772363462389364000,0.607364013671875,-0.0991010102212429,0.032577742999792096,0.033587942955642935
1772363462399433000,0.617432861328125,-0.052176761960983274,0.002982230681180954,0.048815614964812994
1772363462409503000,0.6275029296875,-0.04421440477967262,-0.028508886125683783,0.054539253308624025
1772363462419572000,0.637572021484375,-0.054444122371077534,-0.08437982642948627,0.029276947888731954
1772363462429642000,0.64764208984375,-0.020510873109102247,-0.11730126830041408,0.05033785609602928
1772363462439711000,0.6577109375,0.013493103301525115,-0.1256780515015125,0.06710004419609904
1772363462449781000,0.667781005859375,0.04798340192437172,-0.07928980981409549,0.0801633777782321
1772363462459850000,0.67785009765625,0.08163549615740776,0.007636778488755226,0.12920125719159842
1772363462469920000,0.687919921875,0.05654664760828018,0.028967151287198064,0.08973404693901538
1772363462479989000,0.697989013671875,0.04314706780910492,0.05235211852788925,0.07139262682348489
1772363462490059000,0.70805908203125,0.026104163071513174,0.0635083033144474,0.07315306062474847
1772363462500128000,0.7181279296875,0.000879120922088623,0.04865794018507003,0.0744191350378096
1772363462510197800,0.72819775390625,0.011271335598826407,0.04806172785758972,0.0822919142395258
1772363462520267000,0.73826708984375,0.060360068416595455,0.04408931709527969,0.09994915148317814
1772363462530337000,0.7483369140625,0.05921148290336132,0.04006488388478756,0.10033610497415066
1772363462540406000,0.758406005859375,0.008728665378689765,0.00926350290775299,0.07388327459543943
1772363462550476000,0.76847607421875,-0.0033469723403453827,-0.04447627058625221,0.04534077846109867
1772363462560545000,0.778544921875,0.023823358657956123,-0.05278408020436764,0.036850451882928605
1772363462570615000,0.788614990234375,0.0153062902033329,0.005850479593873023,0.09101634183451533
1772363462580684000,0.79868408203125,-0.07100421202778816,0.02295592817366123,0.09623451487421988
1772363462590754000,0.808754150390625,-0.1181020632892847,0.004146013763546943,0.045524172203987835
1772363462600823000,0.818822998046875,-0.1058896474480629,0.004129647150635719,0.005025719207525253
1772363462610893000,0.82889306640625,-0.0688023180693388,0.03237959007918834,0.0015314473509788513
1772363462620961800,0.8389619140625,-0.04667933358848095,0.08427636605501175,0.026240795063227414
1772363462631032000,0.849031982421875,-0.0557049360871315,0.04983516727089882,-0.026907880669832226
1772363462641100800,0.859100830078125,-0.08069909209012985,0.023721651849150656,-0.09355039035677909
1772363462651171000,0.869171142578125,-0.04778291091620922,0.04538461760282516,-0.040786476157605646
1772363462661239800,0.87923974609375,0.015147884771227835,0.04911152917146683,-0.01692614649012685
1772363462671309800,0.889309814453125,0.028723990181088444,0.042841362860798836,-0.05492562227770686
1772363462681379000,0.899379150390625,0.0612947189182043,0.03183656924366951,-0.06213569978699088
1772363462691448800,0.90944873046875,0.11505085902512073,0.05208616106808185,-0.04994973356127739
1772363462701517800,0.919517822265625,0.1773053628861904,0.04662263496518135,-0.027238720059394834
1772363462711587800,0.929587890625,0.17497487411201,-0.02432838557064533,-0.0747464672960341
1772363462721656800,0.93965673828125,0.1401917300224304,-0.09075345311462879,-0.12249328398555516
1772363462731726800,0.949726806640625,0.09484218373298645,-0.11856617366969585,-0.14097089770138263
1772363462741795800,0.9597958984375,0.06337678588926791,-0.093968323507905,-0.15930618033707142
1772363462751865900,0.969865966796875,0.004602525359392166,-0.0690764588356018,-0.2006884304307401
1772363462761934800,0.979934814453125,-0.033895255339145655,-0.04261749097704887,-0.18120047062858938
1772363462772004900,0.9900048828125,-0.03194061414003372,0.0010877952367067335,-0.0875428205050528
1772363462782073900,1.000073974609375,-0.037083822247385975,-0.014937456890940665,-0.043051498480141163
1772363462792144000,1.010143798828125,-0.03960077350437641,-0.036519174101948736,-0.0365621364608407
1772363462802212600,1.020212646484375,0.008329436928033828,-0.011431494596600532,-0.00598155862763524
1772363462812283000,1.030282958984375,0.07046119119226932,0.03278758635818958,0.04185293634533882
1772363462822351600,1.0403515625,0.09847498727738857,0.059466334447264665,0.05370850157290697
1772363462832422000,1.050421875,0.08209726845026016,0.04716974745392799,0.04919570032358169
1772363462842491000,1.060490966796875,0.08313245671689509,0.04324994366168976,0.04984525027349591
1772363462852560600,1.070560546875,0.11076689809560775,0.05650806916356087,0.08175020857825875
1772363462862630000,1.0806298828125,0.059839843934774394,0.01496551394164562,0.0841100695773959
1772363462872699600,1.09069970703125,-0.048885319200158116,-0.043215456870198246,0.06661547554954886
1772363462882769000,1.100768798828125,-0.1270651219457388,-0.07219312955141068,0.08325506018325686
1772363462892838700,1.110838623046875,-0.15756664319336414,-0.08265840946435928,0.08916925266310573
1772363462902908000,1.120907958984375,-0.11592471925020217,-0.030622517278790472,0.12899097544178365
1772363462912976600,1.1309765625,-0.08711363530755042,0.021544892331957815,0.1454027426689863
1772363462923047000,1.141046875,-0.06453823088407516,0.07647299882769584,0.10919000416770577
1772363462933115600,1.15111572265625,-0.052585927283763885,0.09177753546535969,0.07963496998995542
1772363462943186000,1.16118603515625,-0.024130817171931267,0.06601999387443065,0.0605932926505804
1772363462953254700,1.171254638671875,0.025576339805126188,0.047933717563748354,0.06582549421563744
1772363462963324700,1.18132470703125,0.08406886078417301,-0.005857493856549263,0.03876256911456585
1772363462973394000,1.191393798828125,0.10436579888164997,-0.07095218957960606,0.003710398825258016
1772363462983463700,1.201463623046875,0.06079729079008102,-0.08465104458630085,-0.004218932869285345
1772363462993533000,1.211532958984375,0.005285831448435783,-0.07481646379232407,-0.02941781766414642
1772363463003602700,1.221602783203125,-0.04825228199362754,-0.034576807862520216,-0.024366087232530115
1772363463013672000,1.231671875,-0.06760930889248848,0.03930792803764343,0.018457447710633276
1772363463023741700,1.24174169921875,-0.07817980274558067,0.09345511328876017,0.07584609910100698
1772363463033811000,1.25181103515625,-0.0630289953649044,0.1454156021505594,0.13840908438935876
1772363463043880700,1.261880615234375,-0.05718669907748699,0.11864742221236228,0.10802344460636376
1772363463053950000,1.271949951171875,-0.07393558930456638,0.10078443326354027,0.0539173220179975
1772363463064020000,1.28202001953125,-0.0818605370849371,0.11930500933825969,0.070199763777107
1772363463074088700,1.292088623046875,-0.10786474691331385,0.08332476441860198,0.07398191266432404
1772363463084159000,1.302158935546875,-0.08859948995113372,0.034795419049263,0.056555999958515166
1772363463094227700,1.312227783203125,-0.0258896435379982,-0.08490764969587325,0.004949000709503889
1772363463104298000,1.322298095703125,0.09707271926403045,-0.03568564588725567,0.04611176283359527
1772363463114366700,1.33236669921875,0.12163199098110199,-0.03696750239133834,-0.0045180619463324545
1772363463124436700,1.342436767578125,0.05305003766417503,-0.03209785052835941,-0.06257672155275941
1772363463134505700,1.352505615234375,-0.013505378261208534,-0.000730067840218544,-0.03452800028473139
1772363463144575700,1.36257568359375,-0.02249357135891914,-0.009013327538967133,-0.05580021315515041
1772363463154644700,1.372644775390625,0.052768298113346095,-0.04286240564882755,-0.1233813188664615
1772363463164714800,1.38271484375,0.08157587492465973,-0.06344517495036125,-0.14170155006349086
1772363463174783700,1.39278369140625,0.1098328321158886,-0.05345277324616909,-0.14010478239133953
1772363463184853800,1.402853759765625,0.15778817698955536,-0.025116905599832533,-0.1226534429833293
1772363463194923000,1.412923095703125,0.17352058365046977,-0.03129705553948879,-0.1250087739378214
1772363463204992800,1.42299267578125,0.16107377453148364,-0.009438859474658966,-0.1203594868272543
1772363463215062000,1.43306201171875,0.1800900251686573,0.03532031970620155,-0.09877440861538052
1772363463225131800,1.4431318359375,0.21325755075514316,0.06367138492166996,-0.04727262330651283
1772363463235200800,1.45320068359375,0.1705997277677059,0.05367664512991905,-0.051248395069688556
1772363463245270800,1.463270751953125,0.11496844143867492,0.04771101472377777,-0.03731032447963953
1772363463255339800,1.47333984375,0.05421674335598945,0.026909634235501287,-0.03431757240444422
1772363463265409800,1.483409912109375,0.005548866298794746,0.009425415471196174,-0.045468350363522765
1772363463275478800,1.493478759765625,-0.03837035492658615,0.016647183418273925,-0.01581833137869835
1772363463285548800,1.503548828125,-0.0717775344878435,0.04608487482666969,0.01747851967588067
1772363463295617800,1.51361767578125,-0.12606851212382317,0.038111411729454994,0.010647796873003244
1772363463305687800,1.523687744140625,-0.17214169651269912,0.0274842192530632,0.00014028525352478027
1772363463315756800,1.5337568359375,-0.17803543072640896,0.045669864284992215,0.019338906720280647
1772363463325826800,1.543826904296875,-0.12390811921954155,0.06780512372553348,0.05527998867332935
1772363463335895800,1.553895751953125,-0.029213235002756115,0.060817164534330365,0.04448854554593563
1772363463345965800,1.5639658203125,0.013525252005457877,0.04238426674306393,0.0173747670404613
1772363463356034800,1.574034912109375,0.030913024657964704,0.028251111972332,0.02572042445093393
1772363463366104800,1.584104736328125,0.03361643839776516,0.0061859951585531234,0.02497720486819744
1772363463376173800,1.594173828125,0.012300094124674796,-0.0062754270076751705,0.02011398274600506
1772363463386243800,1.604243896484375,-0.017584756529331207,-0.027574820145964622,0.0013249649934470654
1772363463396312800,1.614312744140625,-0.026323358780145644,-0.03707330085337162,-0.010519055926799773
1772363463406382800,1.6243828125,-0.027148119166493415,-0.09434592464864254,-0.03308993030562997
1772363463416451800,1.634451904296875,0.006952303355932235,-0.10255787267684936,-0.026602614112943408
1772363463426521900,1.64452197265625,0.007720365118980407,-0.07359715113043784,-0.026370705053210257
1772363463436590800,1.6545908203125,-0.018040099081397056,-0.020804303097724915,0.004773498012125492
1772363463446659800,1.664659912109375,-0.08471241938471794,-0.0037280806124210357,0.04696034248694777
1772363463456729900,1.674729736328125,-0.08388122925758361,0.026803835773468017,0.0904652838230133
1772363463466798800,1.684798828125,-0.030711364606022834,0.03630816169977188,0.08348843054771422
1772363463476868900,1.694868896484375,0.016609189495444297,0.059225511428713795,0.06978811423629522
1772363463486937900,1.704937744140625,0.07072188795506953,0.12409867335557936,0.09817337398231028
1772363463497007900,1.7150078125,0.08182195864021778,0.1318441729158163,0.11824717084839939
1772363463507076900,1.725076904296875,0.05245850151181221,0.02769815426468849,0.0744170892111957
1772363463517147000,1.73514697265625,0.05802782607674598,-0.005649404063820839,0.06626037850156426
1772363463527215600,1.745215576171875,0.0745183576285839,-0.023026070800423622,0.097519293987751
1772363463537286000,1.755285888671875,0.05154021762311458,-0.03147182758450508,0.10255305037125945
1772363463547354600,1.765354736328125,-0.007296002227067947,-0.03806289641261101,0.07638751250132918
1772363463557425000,1.7754248046875,-0.0834369926214218,-0.025377017840743064,0.06612184681370854
1772363463567494000,1.785493896484375,-0.15616612874567506,0.012435703203082083,0.08847206417918205
1772363463577563600,1.795563720703125,-0.16683073062300682,0.022748422902822495,0.0826470112875104
1772363463587633000,1.8056328125,-0.11630991917550564,0.06262216812968253,0.07266688454300164
1772363463597702700,1.81570263671875,-0.043970074629783626,0.06353285323381423,0.052693479311466215
1772363463607772000,1.82577197265625,0.02032031897306442,0.06423077237010001,0.02559972068071365
1772363463617841700,1.835841552734375,0.05155950684547424,0.049768531775474543,0.017405308309197426
1772363463627911000,1.845910888671875,0.06193477038741112,-0.007940145349502563,-0.05910846092030406
1772363463637980700,1.855980712890625,0.05470657269954681,-0.058604749181866644,-0.12247823254689573
1772363463648050000,1.8660498046875,0.08992869272828101,-0.07120411851406097,-0.1635968632683158
1772363463658120000,1.876119873046875,0.12526654809117316,-0.01645136858522892,-0.15498597905039788
1772363463668189000,1.88618896484375,0.0609983663201332,0.014944471153616905,-0.08698299466520547
1772363463678259000,1.896259033203125,-0.036005379360914226,0.024819383957982062,-0.03252148276790976
1772363463688327700,1.90632763671875,-0.04641162256300449,0.08652443724274635,0.0458797076433897
1772363463698398000,1.91639794921875,-0.008140636357665062,0.1104208611369133,0.05827668627128005
1772363463708470300,1.92647021484375,-0.022770050212740898,0.10231938774585723,0.03171396577730775
1772363463718540500,1.93654052734375,-0.058818099671602245,0.08813245696127414,0.02823869088217616
1772363463728609300,1.946609375,-0.0916290669053793,0.09804536368846893,0.034032617983222005
1772363463738679300,1.95667919921875,-0.11114683732390403,0.12614099283814428,0.005456073448807001
1772363463748748300,1.966748291015625,-0.10971826582551002,0.12404781995117664,0.03075023531168699
1772363463758818300,1.976818359375,-0.0943997006624937,0.08944529312551021,0.04048953903764486
1772363463768887300,1.98688720703125,-0.0579530072748661,0.033414778345823286,0.03281359758228063
1772363463778957300,1.996957275390625,-0.026981530427932738,-0.06191840377449989,0.014195406351983547
1772363463789026300,2.0070263671875,0.02283785475194454,-0.09583470190167427,0.01945376527160406
1772363463799096300,2.017096435546875,0.07095160505771636,-0.108856680560112,0.038325639002025125
1772363463809165300,2.027165283203125,0.09205284527540207,-0.12294190453588962,0.0019100714050233362
1772363463819235300,2.0372353515625,0.06784662477970123,-0.09674071083068847,-0.024698534057289362
1772363463829304300,2.04730419921875,0.04401858994662761,-0.06497369969189166,-0.0313544848151505
1772363463839374300,2.057374267578125,0.044780806490778924,-0.03197100927829742,-0.009009089755266904
1772363463849443000,2.067443115234375,0.08285422429740429,-0.019482699105143546,-0.008228022380173205
1772363463859513300,2.077513427734375,0.13010229768455028,-0.047805707269906995,-0.03575447333976626
1772363463869582300,2.087582275390625,0.1438046598225832,-0.08267419155538082,-0.07328735452890396
1772363463879652400,2.09765234375,0.11244155330955982,-0.04006137675344944,-0.051503977265954015
1772363463889721300,2.107721435546875,0.028452187502384183,-0.0025590368330478666,-0.04603139107376337
1772363463899790300,2.117790283203125,-0.0460714308232069,0.03645370765030384,0.010263035339117049
1772363463909860400,2.1278603515625,-0.025272388422489165,0.03323708369135856,0.05850435754731297
1772363463919929300,2.137929443359375,0.036627310651540755,0.03911503581404686,0.043398412221670145
1772363463929999400,2.147999267578125,0.10232464844286442,0.04082183973193168,0.010467471870034932
1772363463940068400,2.158068359375,0.09386427861154079,0.013906944799423218,-0.021850158888846633
1772363463950138400,2.168138427734375,0.017515782946348188,0.008622282394766806,-0.017571604786813258
1772363463960207000,2.17820703125,-0.08349953646361827,0.023601824861764906,0.0018174246855080128
1772363463970277400,2.18827734375,-0.14817162286043167,0.03215454915165901,-0.027656068688631057
1772363463980346000,2.19834619140625,-0.1274514909148216,0.0409603714197874,-0.034735797816514966
1772363463990416400,2.20841650390625,-0.1205722527951002,0.046507484152913094,-0.046761020522564645
1772363464000485400,2.2184853515625,-0.10059738625884056,0.01791267330944538,-0.05949132275804877
1772363464010555400,2.228555419921875,-0.05046645091176033,-0.006829553759098053,-0.05738616717234254
1772363464020624400,2.238624267578125,-0.0038747956067323682,-0.014631167420744894,-0.06909165640473365
1772363464030694100,2.248694091796875,-0.024795418560504913,-0.048131285962462425,-0.08913608104586601
1772363464040763400,2.258763427734375,-0.0640004707455635,-0.04618775067925453,-0.10872969317957758
1772363464050833200,2.268833251953125,-0.0737730922192335,-0.004524199426174163,-0.08400514789819717
1772363464060902400,2.27890234375,-0.011451368340849876,0.019941548788547515,-0.02549026895686984
1772363464070972200,2.28897216796875,0.049395022287964815,0.028551556223630904,0.002877601262927055
1772363464081041400,2.29904150390625,0.026457214292883873,0.008595978909730911,-0.023951368951797485
1772363464091111400,2.309111328125,-0.0004962590843439102,0.005724807387590408,-0.038532413620501756
1772363464101180400,2.319180419921875,-0.0012929624199867248,0.027907413101196286,-0.04832023266330361
1772363464111250400,2.32925048828125,0.03787351132035255,0.04898059626817703,-0.04498422010838985
1772363464121319200,2.339319091796875,0.03409983800053596,0.047747839602828024,-0.0664841042548418
1772363464131389400,2.349389404296875,0.003573182311654091,0.01595803211033344,-0.08852204080075025
1772363464141458200,2.359458251953125,0.04827917000055313,0.01593114410340786,-0.051987084607779975
1772363464151528400,2.369528564453125,0.12784195153713226,0.018955460360646246,-0.02730857042521238
1772363464161597200,2.37959716796875,0.12182196059525012,-0.008045943811535835,-0.035666210534423586
1772363464171667500,2.38966748046875,0.08023556623160838,-0.022583587729930875,-0.022629911089688537
1772363464181736200,2.399736083984375,0.029491467422246932,-0.014179916521906852,0.01588788948357105
1772363464191806200,2.40980615234375,0.005201660296320915,0.0002402384966611862,0.05598053815811872
1772363464201875200,2.419875244140625,0.0375794968098402,0.022165070056915284,0.08990735767930745
1772363464211945200,2.4299453125,0.04065817360281944,-0.007904489514231682,0.10995777366980909
1772363464222014500,2.440014404296875,-0.04594283600747585,-0.04503624255657196,0.11689195684716104
1772363464232084200,2.450084228515625,-0.04128945724368095,-0.03847849147617817,0.1611301808938384
1772363464242153500,2.460153564453125,0.012663082218170165,-0.0851665928930044,0.10626637180596589
1772363464252223200,2.47022314453125,-0.22253917384147642,-0.1207639759749174,-0.022415537686645982
1772363464262292500,2.48029248046875,-0.26563480372428894,-0.035518472626805304,-0.0070211308084428305
1772363464272361200,2.490361328125,-0.050391632109880444,0.032734979388117785,0.024560586891323326
1772363464282431500,2.500431396484375,0.10698854860067367,0.1052659625917673,0.005772738182544708
1772363464292500200,2.510500244140625,0.08526596161425114,0.13447218333184718,-0.002743161228299141
1772363464302570200,2.5205703125,0.036217560806870455,0.05092822320461273,-0.05413870968371629
1772363464312639200,2.53063916015625,0.026139818906784056,-0.05971884790360927,-0.10707008940428495
1772363464322709200,2.540709228515625,0.09079495416879653,-0.14809271240532398,-0.1292991646081209
1772363464332778200,2.5507783203125,0.21737609198987481,-0.1834048488050699,-0.14269538340643048
1772363464342848300,2.56084814453125,0.24288521177768707,-0.15729191790521144,-0.1445047709159553
1772363464352917200,2.570917236328125,0.12152560799717903,-0.06646013885736465,-0.10957403504922986
1772363464362987300,2.5809873046875,-0.07126257070302963,0.050801966476440426,-0.009651771572977304
1772363464373056500,2.591056396484375,-0.18260288477241993,0.11436872197985648,0.0504939234405756
1772363464383126300,2.601126220703125,-0.20618191328048704,0.13105039218962192,0.09039309536963701
1772363464393195300,2.6111953125,-0.1283633450627327,0.10955693778395652,0.13372881761863828
1772363464403265300,2.621265380859375,-0.06137304485142231,0.0493915151566267,0.1951291888684034
1772363464413334300,2.631334228515625,-0.009226678028702735,0.0648024347782135,0.19869155752509832
1772363464423404300,2.641404296875,0.09628010758161544,0.1024602575212717,0.19331731714084743
1772363464433473300,2.651473388671875,0.09490648114085197,0.04642039039134979,0.1686689058355987
1772363464443543300,2.661543212890625,0.01149170035123825,-0.01989654060304165,0.14096607539579273
1772363464453612300,2.6716123046875,-0.11350362958312034,-0.08660276317596435,0.09766527832970022
1772363464463682300,2.681682373046875,-0.1155097087085247,-0.11015373463332652,0.09622370121926069
1772363464473751300,2.691751220703125,-0.050855742490291594,-0.1428629950582981,0.0891711523592472
1772363464483821300,2.7018212890625,0.06776654528081416,-0.09244155233204364,0.09390051896870136
1772363464493890300,2.711890380859375,0.10806932957470416,-0.1010878001242876,0.07191635843664407
1772363464503960300,2.721960205078125,0.1694762766957283,-0.05740238765478134,0.13112214225158095
1772363464514029300,2.732029296875,0.17466390846669672,-0.005983166062831878,0.13748203267231582
1772363464524099300,2.742099365234375,0.13158406067490577,0.009561609071493149,0.06785203160718083
1772363464534168300,2.752168212890625,0.09389525827169418,0.00812894591987133,-0.012668635176122187
1772363464544238300,2.76223828125,0.060469958531856535,-0.026335049217939374,-0.051305385953933
1772363464554307300,2.772307373046875,0.06899287220537662,-0.06118132167160511,-0.03777925716564059
1772363464564377300,2.78237744140625,0.07639759550392627,-0.09188041131794453,-0.03192176330909133
1772363464574446000,2.792446044921875,0.08423778761029244,-0.09851999546289443,-0.03232683697864413
1772363464584516400,2.802516357421875,0.09984510658681392,-0.05980652618706226,0.008069470817595719
1772363464594585300,2.81258544921875,0.09618307694792746,-0.006668810239434242,0.05901406063511967
1772363464604654300,2.822654296875,0.0018622867405414581,0.016071429356932638,0.021388678856939077
1772363464614724400,2.832724365234375,-0.059545244902372355,0.0906704510062933,0.019096768527477978
1772363464624793300,2.84279345703125,-0.07416063023209571,0.11926935350298881,0.025145108781009912
1772363464634863400,2.85286328125,-0.14790975705385206,0.09409516475796699,-0.03523044946566224
1772363464644932400,2.862932373046875,-0.18327742303311823,0.07173369534611701,-0.03771598267108202
1772363464655002400,2.87300244140625,-0.13123977728188038,0.05151800579130649,-0.016048048481345174
1772363464665071400,2.8830712890625,-0.10144552752077579,-0.021083120039105414,-0.0393920991897583
1772363464675141400,2.893141357421875,-0.08540566234588623,-0.056795653933286665,-0.07001227838099003
1772363464685210000,2.903210205078125,-0.08408815000653266,-0.056742462441325185,-0.0713191231958568
1772363464695280400,2.9132802734375,-0.051965749558806416,-0.03321078020632267,-0.038279607903212304
1772363464705349000,2.92334912109375,-0.014698387438058852,-0.010426116946339607,0.004685089076310396
1772363464715419100,2.933419189453125,-0.0220727155983448,0.0008680150061845779,-0.00878317204490304
1772363464725488000,2.943488037109375,-0.0017833762854337692,0.045911271825432774,0.014262480238825082
1772363464735558100,2.95355810546875,0.043216041392087935,0.058849079331755635,0.04353066029921174
1772363464745627100,2.963627197265625,0.08215981229245663,0.011671148571372032,0.018178192377835512
1772363464755697000,2.97369677734375,0.12862170373797416,-0.011945873859524727,0.02099135010242462
1772363464765766100,2.98376611328125,0.17243629554510115,-0.01620996104478836,0.030467180586606264
1772363464775836000,2.9938359375,0.13368950852155684,-0.02970014173686504,0.02498509591370821
1772363464785905200,3.0039052734375,0.05238076010048389,-0.04672317273020744,0.019086831655353305
1772363464795975200,3.01397509765625,0.019915245303511617,-0.04549859937131404,0.028305910899490118
1772363464806044200,3.024044189453125,-0.009831658184528351,-0.056446109843254086,0.045154315978288645
1772363464816114200,3.0341142578125,0.025239655196666717,-0.02276946569085121,0.07326645787134767
1772363464826183200,3.04418310546875,0.11358955430090427,0.02446399464905262,0.1172001460134983
1772363464836253200,3.054253173828125,0.13385609726011752,0.05083703778982162,0.1123617660716176
1772363464846322200,3.064322265625,0.06612228520512581,0.04268003481924534,0.08822101202756166
1772363464856392200,3.07439208984375,0.014968436551094054,0.02035480576455593,0.09519245847538113
1772363464866461000,3.0844609375,-0.007881108638644219,-0.005968553015589714,0.07671528315097093
1772363464876531200,3.09453125,-0.01425707341134548,0.024120880299806594,0.09585033786222338
1772363464886600000,3.104599853515625,-0.0246434428691864,0.03893675663769245,0.10036664624288677
1772363464896670200,3.114670166015625,-0.08138765887618064,0.0467816249191761,0.09822656547427176
1772363464906739000,3.124739013671875,-0.13929682700932025,0.025668109741806982,0.08204729182869196
1772363464916809000,3.13480908203125,-0.15418927571475505,0.021146832925081252,0.05837912373244762
1772363464926878200,3.144878173828125,-0.09106149615049362,0.05434592269361019,0.05223842902034521
1772363464936947200,3.154947265625,-0.04306289665699005,0.0613385580599308,0.029686989994347095
1772363464947017200,3.165017333984375,-0.03710194242596626,0.013088029631972312,-0.002812280941754579
1772363464957086200,3.175086181640625,-0.016876315999031066,0.005920622220635414,-0.028704554828256366
1772363464967156200,3.18515625,-0.000786181941628456,0.003240589356422424,-0.043309418763965365
1772363464977225000,3.195224853515625,0.008399579554796218,-0.030898996132612228,-0.09296528394520283
1772363464987295200,3.205295166015625,0.014461071550846099,-0.06964402959048747,-0.14348974865451455
1772363464997364000,3.215364013671875,0.07230769584178924,-0.08190729883611202,-0.19010332353040574
1772363465007434200,3.225434326171875,0.1537304260313511,-0.041185996869206425,-0.18807050252854823
1772363465017503000,3.2355029296875,0.18632804277539253,0.01122632741332054,-0.14363266425654292
1772363465027573000,3.245572998046875,0.13475275383889673,0.06269406432211398,-0.08184197851493955
1772363465037642000,3.25564208984375,0.04700315871536732,0.08197568789720534,-0.035803865439444776
1772363465047712000,3.2657119140625,-0.03392038978040218,0.07585340562462806,-0.02609568750411272
1772363465057781200,3.27578125,-0.07803951749205588,0.03150689889788628,-0.031196225513517854
1772363465067851000,3.28585107421875,-0.07101181081235408,0.022633856612443923,-0.01664879085347056
1772363465077920300,3.295920166015625,-0.014382745617628097,0.04922083476483822,-0.021473434530943632
1772363465087990000,3.305989990234375,-0.007981646403670311,0.05748772785067558,-0.06351546370759606
1772363465098059300,3.316059326171875,0.01023380924463272,0.04157528844773769,-0.06692614893391728
1772363465108129000,3.32612890625,0.03519055584669113,0.02562427060008049,-0.057287529103457926
1772363465118198300,3.3361982421875,0.03369593337476253,-0.020995441755652426,-0.05982011632099747
1772363465128268000,3.34626806640625,-0.011582885766029357,-0.07467384045124054,-0.05828136244639754
1772363465138337000,3.3563369140625,-0.030056700089573857,-0.08135083399713039,-0.047292497050762175
1772363465148407300,3.3664072265625,-0.006665887629985809,-0.05621171656548977,-0.04511807562112808
1772363465158476000,3.37647607421875,-0.014307926815748214,-0.027698738786578178,-0.04606237073391676
1772363465168546300,3.38654638671875,-0.039033202749490736,-0.004892448216676712,-0.03553907702341676
1772363465178615000,3.396614990234375,-0.03156009038984775,0.06868775177896022,-0.009439443996548651
1772363465188685000,3.40668505859375,0.0180599728256464,0.10185177023410796,-0.0035299276918172836
1772363465198754000,3.416754150390625,0.027588264149427413,0.10311550655961037,0.0041810850769281385
1772363465208824000,3.426823974609375,0.053102644634246826,0.06207096398770809,-0.0008754676602780819
1772363465218893000,3.43689306640625,0.0741828420639038,0.004822890111804009,-0.02065320418924093
1772363465228963000,3.446963134765625,0.10338438662886619,0.01170914249420166,0.026237872453778982
1772363465239032000,3.457031982421875,0.08463935414850711,-0.02448445291519165,0.011830430786311626
1772363465249102000,3.46710205078125,0.009662731358408927,-0.03753331958055496,-0.008197919502854346
1772363465259171000,3.477171142578125,-0.07659633294641971,-0.006454290705919265,0.03055062108635902
1772363465269241000,3.487240966796875,-0.06469020657539368,0.0492389549434185,0.08697247327119112
1772363465279310000,3.49731005859375,-0.0459580335766077,0.06107552320957183,0.08894538077935576
1772363465289379000,3.507379150390625,-0.05017009831368923,0.05250935491621494,0.09724676065668462
1772363465299449000,3.517448974609375,-0.05342763880491257,0.06988076095581054,0.11820113974958657
1772363465309518000,3.52751806640625,-0.05030512287020683,0.04807867899239063,0.10971358965039253
1772363465319588000,3.537588134765625,-0.09336626596152782,0.021279519394040106,0.06885960121452808
1772363465329657000,3.547656982421875,-0.10207914924919605,0.014829904863238335,0.045470688451081515
1772363465339727000,3.55772705078125,-0.1019984852284193,0.028926234754920004,0.018733634303510188
1772363465349796000,3.567796142578125,-0.07859364424347877,0.03615735505223274,0.026993805387616157
1772363465359866000,3.5778662109375,-0.024277532166242597,0.01329202777147293,0.03744637194946408
1772363465369935000,3.58793505859375,0.022544424763321875,0.008660860839486122,0.039132863731682295
1772363465380005000,3.598005126953125,0.058900517258048055,0.012901567149162291,0.03323679143041372
1772363465390074000,3.60807421875,0.06931377472281455,0.03476619295477867,0.04004062622636556
1772363465400144100,3.61814404296875,0.04785129997730255,0.047833179798722265,0.05555749044045805
1772363465410213000,3.628213134765625,0.060711366072297095,0.02681143455803394,0.04848536009714007
1772363465420283100,3.638283203125,0.08276303888261317,-0.011117606341838835,0.018120032449811696
1772363465430352100,3.64835205078125,0.07864683573544025,-0.022626842349767685,0.012165946350991726
1772363465440422100,3.658422119140625,0.071938862529397,-0.08583060975968837,-0.02828516037240624
1772363465450491100,3.6684912109375,0.039593174719810484,-0.10796236206889152,-0.07248743632286786
1772363465460561200,3.67856103515625,-0.061228083422780036,-0.0717693511813879,-0.07821428953707217
1772363465470630100,3.688630126953125,-0.10751228021383284,0.006461304968595504,-0.07729381369128822
1772363465480700000,3.698699951171875,-0.06822422592043877,0.06183364810049533,-0.05571385004594922
1772363465490769200,3.70876904296875,-0.01188859071433544,0.057928457355499265,-0.043226124394685025
1772363465500839000,3.7188388671875,0.05838613799512386,0.052094344374537464,-0.03546484274342656
1772363465510908200,3.728908203125,0.11398527562022208,0.04976560916602611,-0.033014088590443136
1772363465520978200,3.738978271484375,0.11627952403724193,0.030813655936717987,-0.044958647275716065
1772363465531047200,3.749047119140625,0.10652911439538001,0.03012158201932907,-0.03710881055817008
1772363465541117200,3.7591171875,0.06083937636613845,0.028450433936715123,-0.0595705254741013
1772363465551186200,3.769186279296875,0.03947685486376285,0.06596504881680011,-0.06755655579194426
1772363465561256200,3.779256103515625,0.01564355933368206,0.03007715835571289,-0.06199658357724547
1772363465571325200,3.7893251953125,0.0007902735948562622,0.015503858602046965,-0.036670126879960296
1772363465581395200,3.799395263671875,-0.029672669208049774,-0.00300853416621685,0.011120382820814846
1772363465591464000,3.8094638671875,-0.06676759737133979,-0.06022036768496036,0.0284003111846745
1772363465601534200,3.8195341796875,-0.059766778698563575,-0.05583236185908317,0.048070203424990174
1772363465611603000,3.82960302734375,-0.029932196927070616,-0.04370294812619686,0.05293357167765498
1772363465621673200,3.839673095703125,0.017947744622826577,-0.013567337581515312,0.03424903721287846
1772363465631742000,3.849741943359375,0.021465981876850126,0.019786065965890883,0.02101531549990177
1772363465641812000,3.85981201171875,0.022305939832329747,0.02911678889095783,-0.0037348026141524313
1772363465651881200,3.869881103515625,0.03636895197629928,0.03758592655062675,0.013891454969346522
1772363465661951000,3.879950927734375,0.048967736786603926,0.015907178705930707,0.008101619521528483
1772363465672020200,3.890020263671875,0.049964346608519554,-0.03290799786746502,-0.0289667128957808
1772363465682090000,3.900090087890625,0.04908814829587936,-0.07542553560137748,-0.03785597566366195
1772363465692159200,3.9101591796875,0.038436405900120735,-0.03687514793276787,-0.008274930261820555
1772363465702228000,3.92022802734375,0.03726210142374038,0.010096446600556372,0.018350626335293052
1772363465712294100,3.930294189453125,0.023879472759366034,0.0649807139545679,0.03669438453838229
1772363465722363000,3.94036279296875,0.0020107553005218504,0.12077099023759365,0.0492031529776752
1772363465732433200,3.95043310546875,-0.024174071791768073,0.08335515955686569,0.016813041504472492
1772363465742502000,3.960501953125,-0.06337620136737823,0.03636661388874054,0.017814327501505613
1772363465752572200,3.970572265625,-0.06255085645914077,-0.01577332319319248,0.00015241408273577688
1772363465762641000,3.980640869140625,-0.017456746235489845,-0.008819850793480872,-0.030295038890093565
1772363465772710100,3.990710205078125,0.006636077013611793,0.050232057633996005,-0.015561434008181094
1772363465782780200,4.0007802734375,0.010212181934714317,0.06841361101269722,-0.0033209611162543294
1772363465792849200,4.01084912109375,-0.0087619831264019,-0.006025836160778999,-0.021830577405542135
1772363465802919200,4.020919189453125,-0.028003274691104887,-0.0706324561059475,-0.020430062957853077
1772363465812988200,4.03098828125,-0.05406184505522251,-0.11847732634246348,-0.045171705504506825
1772363465823058200,4.04105810546875,-0.03796469673514366,-0.08738134633302688,-0.038454526078701014
1772363465833127000,4.051126953125,-0.01462707576751709,-0.05877542957365513,-0.03935688174590468
1772363465843197200,4.061197265625,0.012222937235236167,-0.03103577425479889,-0.040905280231684445
1772363465853266000,4.071265869140625,0.050129766303300856,-0.004285129973292351,-0.03764306356534362
1772363465863336200,4.081336181640625,0.09286942235529422,0.0444376921415329,-0.010200345366448163
1772363465873405000,4.091405029296875,0.10437456670999526,0.04501052359342575,0.006134703362733126
1772363465883475000,4.101474853515625,0.0699263536632061,0.033061727124452586,-0.012463614123314619
1772363465893544000,4.1115439453125,0.04944412212669849,0.027173838129639624,-0.011403583676367998
1772363465903614000,4.121614013671875,0.05726444048881531,0.03412614148557186,0.02667714065387845
1772363465913683200,4.13168310546875,0.05704816738963127,0.0311398191511631,0.05824380691498517
1772363465923753000,4.1417529296875,0.0377799878180027,0.01649871485829353,0.05532733494639396
1772363465933822200,4.151822265625,0.0026981530427932737,0.018512977290153502,0.06391688411533832
1772363465943892000,4.16189208984375,-0.026539047357439994,-0.005816577324271202,0.06818067903965712
1772363465953961200,4.171961181640625,-0.0051531449794769285,-0.019974282014369963,0.0883117590509355
1772363465964030000,4.182030029296875,0.00943476782143116,-0.0232318225055933,0.08188464861288666
1772363465974100200,4.192100341796875,-0.016513912427425382,-0.04822948563992977,0.0568377395093441
1772363465984169000,4.2021689453125,-0.043669045856595035,-0.025225042149424552,0.08248992102965712
1772363465994239000,4.212239013671875,-0.03133680302798748,0.01722819817662239,0.1217759294964373
1772363466004308000,4.222307861328125,-0.03933773865401745,0.028816344639658927,0.10879501350075006
1772363466014378000,4.2323779296875,-0.08799450979530811,0.03237783651351928,0.03493058973625302
1772363466024447000,4.242447021484375,-0.11052315246760845,0.0478489618897438,-0.002012216605246067
1772363466034517000,4.25251708984375,-0.08895078760683536,0.039511926177144045,-0.011213614062219858
1772363466044586200,4.262586181640625,-0.030585692399740218,0.059060676255822175,0.030085780053585767
1772363466054656000,4.272656005859375,0.04134557134509086,0.05524024118483066,0.02332870700880885
1772363466064725200,4.282725341796875,0.09049217182993888,0.021958733829855918,-0.022035160066932437
1772363466074795000,4.292794921875,0.09660627079606056,-0.0035901334464550016,-0.05294511598497629
1772363466084864300,4.3028642578125,0.10727379528284073,-0.0019078794479370116,-0.014075287103652953
1772363466094934000,4.31293408203125,0.0736076725244522,-0.06704232265949249,-0.05102934549152851
1772363466105003000,4.3230029296875,0.03679799104332924,-0.0756119980841875,-0.07580182156786322
1772363466115073000,4.333072998046875,0.045537177816033364,-0.059627077966928475,-0.04295446784645319
1772363466125142000,4.34314208984375,0.055819502377510065,-0.06817337251603603,-0.01652706416994333
1772363466135212000,4.3532119140625,0.033093291306495666,-0.053831543430685996,0.002494739425182342
1772363466145281000,4.363281005859375,-0.009714753806591033,-0.013381459620594978,0.0044387130998075
1772363466155351000,4.37335107421875,-0.06051672028303146,-0.0018277999490499495,-0.011299246519058942
1772363466165420000,4.383419921875,-0.09162731333971023,0.0011269582033157349,-0.04115428655669093
1772363466175490000,4.393489990234375,-0.07855272771120071,0.003481412374973297,-0.039565117669105525
1772363466185559000,4.40355908203125,-0.0223994633346796,0.009560440027713776,-0.07171104512289166
1772363466195629000,4.413629150390625,0.017138766327500343,0.03755260880291462,-0.054202130308747286
1772363466205698000,4.423697998046875,0.05117196883261203,0.08191782023012638,-0.0031616789013147353
1772363466215768000,4.43376806640625,0.10388999806344508,0.11713234147429466,0.05042597277089953
1772363466225837000,4.443837158203125,0.12266133402884005,0.08814823905229568,0.032371552903205154
1772363466235907000,4.453906982421875,0.06147182905077934,0.03283610167503357,-0.006390139428526163
1772363466245976000,4.46397607421875,0.06665887629985809,0.010655249527096749,0.01011135190874338
1772363466256046000,4.474046142578125,0.07917056734859942,-0.001443184545636177,0.0484450280867517
1772363466266115000,4.484114990234375,-0.012146364867687224,-0.050637715825438495,0.061636810354143375
1772363466276185000,4.49418505859375,-0.12449030302166939,-0.05177694898843765,0.08309095566272735
1772363466286254000,4.504254150390625,-0.16697569205164908,-0.02649170108437538,0.11531477065831422
1772363466296324000,4.514323974609375,-0.12451426841914653,0.032813889843225474,0.13423705940172076
1772363466306393000,4.52439306640625,-0.03712415425777435,0.09178396520614623,0.14041457899287343
1772363466316463000,4.534463134765625,-0.02922784804999828,0.08428571840524673,0.09634688920751214
1772363466326532000,4.544531982421875,-0.07890519441068172,0.02258826390504837,0.012235796716809272
1772363466336601900,4.554601806640625,-0.0965519102603197,-0.034978374400734896,-0.05314239212274551
1772363466346671000,4.564671142578125,-0.04698971471190452,-0.03175064452588558,-0.06061798870041966
1772363466356743200,4.5747431640625,0.022539748588204383,-0.014185177218914031,-0.04934256144836545
1772363466366812000,4.58481201171875,0.0463023169696331,-0.028879473003745076,-0.08315320724397897
1772363466376882200,4.594882080078125,0.02796177363693714,-0.022337504014372823,-0.09772226921394467
1772363466386951000,4.604950927734375,0.03506371459662914,0.053879474225640295,-0.026036066271364688
1772363466397021000,4.61502099609375,0.03795709795057774,0.08413315819203854,0.030598698011785743
1772363466407090000,4.62508984375,-0.0005155483067035675,0.10351590405404568,0.010061667548120021
1772363466417160000,4.635159912109375,-0.05108370602726936,0.0774982502222061,-0.009204027805477381
1772363466427229200,4.645229248046875,-0.03561141160726547,0.03686579558253288,-0.003487549854815006
1772363466437299000,4.655298828125,-0.026574703192710873,-0.010575754550099372,-0.01753697186484933
1772363466447368200,4.6653681640625,-0.01108604215979576,0.008380874854326247,-0.01990107064768672
1772363466457438000,4.67543798828125,-0.016356091517210007,0.04894844756424427,-0.0013252572543919086
1772363466467507200,4.685507080078125,-0.04417115015983581,0.05624035813808441,0.00979702526256442
1772363466477577000,4.695576904296875,-0.05178630133867263,0.03669394614696502,0.03682458678930998
1772363466487646200,4.705646240234375,-0.050123921084403986,-0.00468903459906578,0.06211582604274153
1772363466497716000,4.715716064453125,-0.0616653057962656,-0.05763794997632503,0.0327194895580411
1772363466507785000,4.725784912109375,-0.06228782160878181,-0.06156009185612201,0.017697276993095874
1772363466517855200,4.735855224609375,-0.012709259447455405,-0.052557870233058926,0.024325901352614164
1772363466527924000,4.745924072265625,0.052501171609759326,-0.01515256094634533,0.0390599446259439
1772363466537994200,4.755994140625,0.08091419614553451,0.033060558080673215,0.040460897465050216
1772363466548063000,4.76606298828125,0.08152092986702919,0.029628245544433593,-0.0066810851991176605
1772363466558133200,4.77613330078125,0.04347556911110878,0.02191021851301193,-0.020144085623323916
1772363466568202000,4.786201904296875,0.0557528668820858,0.0010287585258483885,-0.02814195250943303
1772363466578272000,4.79627197265625,0.08008008340895176,0.026275427985191342,-0.01946969349309802
1772363466588341000,4.806341064453125,0.08729249900579451,0.015403320837020873,-0.010119096823781728
1772363466598411000,4.816410888671875,0.06572890197336673,0.029230186137557027,0.028818244335800408
1772363466608480000,4.82647998046875,0.07140577856600284,0.07312544196546077,0.07628785151913761
1772363466618549000,4.836549072265625,0.07841127341389656,0.07636193966865538,0.08284472581669687
1772363466628619000,4.846618896484375,0.008124854266643524,0.024047230541706082,0.029161650945991276
1772363466638688000,4.85668798828125,-0.06444704546928405,-0.004799509236216545,0.020314473754167554
1772363466648758300,4.86675830078125,-0.08329086214900017,-0.023251111727952956,0.031712066081166265
1772363466658827000,4.876826904296875,-0.08457914839386939,-0.06102408528327941,0.003715221130847931
1772363466668897000,4.88689697265625,-0.04700491228103638,-0.07517302214503288,-0.009421908339858055
1772363466678966000,4.896966064453125,0.0018400749087333678,-0.06063771631419658,-0.0019411971956491468
1772363466689036000,4.9070361328125,0.04237082273960113,0.019633505752682686,0.04369330351501703
1772363466699105000,4.91710498046875,0.009603694647550582,0.04182429477274418,-0.0008579320035874843
1772363466709175300,4.92717529296875,-0.07630173391401768,0.07041969013810158,-0.05021159936785698
1772363466719244300,4.937244384765625,-0.12667407680153847,0.05036474410295486,-0.06274301803037524
1772363466729314300,4.947314208984375,-0.09544365675747395,0.049612464430928226,-0.08272241461127997
1772363466739383300,4.95738330078125,0.07233458384871483,0.04887479780614376,-0.11097352658361195
1772363466749453300,4.967453369140625,0.17438801413476465,0.0702092622578144,-0.13079948616847395
1772363466759522300,4.977522216796875,0.06750643303990364,0.04721826277077198,-0.12243600084036588
1772363466769592300,4.98759228515625,0.05044307003617286,0.015986089161038396,-0.13842325904518366
1772363466779661000,4.9976611328125,0.13613281002044678,0.011621464210748672,-0.1102500346146524
1772363466789731300,5.0077314453125,0.13050970944166182,-0.044562195304036135,-0.13965075501352547
1772363466799800000,5.017800048828125,0.06814297737777232,-0.08618599906861782,-0.1648256744109094
1772363466809870300,5.027870361328125,0.05454758274555206,-0.1102028344720602,-0.14700228682011365
1772363466819939000,5.03793896484375,0.07080079841017722,-0.1034971993535757,-0.1360230660356581
1772363466830009300,5.04800927734375,0.001974514943361282,-0.06268997266888618,-0.14343933364152908
1772363466840078000,5.058078125,-0.09299392551779746,-0.05010638542771339,-0.16006737396791576
1772363466850148000,5.068148193359375,-0.1372480777859688,-0.031468320453166956,-0.1202326455771923
1772363466860217300,5.07821728515625,-0.09113748399615287,0.014167641562223434,-0.032872926554083824
1772363466870287000,5.088287109375,-0.0033878888726234435,0.07308101830184459,0.031031974862515924
1772363466880356400,5.0983564453125,0.06209142225384712,0.11623451585173607,0.07579144630432129
1772363466890426000,5.108426025390625,0.055766895407438274,0.09208499397933483,0.07378551330938934
1772363466900495400,5.118495361328125,0.01935702689886093,0.06488602140843867,0.06999006654918194
1772363466910565000,5.128565185546875,-0.03629764030575752,0.03650514557659626,0.09306538331881165
1772363466920634400,5.13863427734375,0.00793897630572319,-0.008710545200109481,0.09520210308656096
1772363466930704100,5.1487041015625,0.04825169747173786,0.0016974515676498412,0.12397636215016244
1772363466940773400,5.1587734375,0.027716274443268775,0.011644260564446448,0.12115604403242468
1772363466950843400,5.168843505859375,-0.01940495769381523,0.04265782298743725,0.18212693782374262
1772363466960912100,5.178912109375,-0.08310849131941794,0.005085924962162971,0.208256819858402
1772363466970982400,5.188982421875,-0.1250391690760851,-0.04158171818852424,0.18595161067843435
1772363466981051100,5.199051025390625,-0.13630173684656618,-0.057552025258541105,0.1737144987873733
1772363466991121400,5.209121337890625,-0.08872107050418854,0.0070411506831645964,0.1772531943075359
1772363467001190100,5.219190185546875,-0.058609425356984136,0.07229775896966457,0.20027809606418012
1772363467011260200,5.22926025390625,-0.055500353425741195,0.07854454440474509,0.1673066775716841
1772363467021329200,5.2393291015625,-0.08343933070898056,0.02652618787586689,0.11103504751250147
1772363467031399200,5.249399169921875,-0.07662848165035248,-0.0215717803388834,0.06831687263995409
1772363467041468200,5.25946826171875,0.08676818287074566,-0.03714987322092056,0.023864129059761763
1772363467051538200,5.2695380859375,0.4042190985500812,-0.07074877596199512,-0.04502835151106119
1772363467061607200,5.279607177734375,-0.04472995308637619,-0.043318917244672774,-0.08025427093207836
1772363467071677200,5.28967724609375,-0.3341384311079979,0.0881605140119791,0.030805764891207215
1772363467081746400,5.299746337890625,-0.0880816035568714,0.08617430863082408,0.04226838527843356
1772363467091816200,5.309816162109375,0.12354922277927398,0.03060556614398956,-0.04288564039394259
1772363467101885400,5.319885498046875,0.09553308860659598,0.02505436175763607,-0.034859570326656104
1772363467111955200,5.329955078125,-0.01656067417860031,-0.007174421674013137,0.00847878227084875
1772363467122024200,5.340024169921875,-0.12643500734865665,-0.017553776869177817,0.03503288106694817
1772363467132094200,5.35009423828125,-0.1707610558092594,0.04357727591991424,0.05212196303382516
1772363467142163200,5.3601630859375,-0.10696867485642432,0.1021814405798912,0.025497867741435764
1772363467152233200,5.370233154296875,-0.04203472265303135,0.07544891647696494,0.013286182552576064
1772363467162302200,5.38030224609375,-0.007048749467730522,0.008304887008666991,-0.010937865860760211
1772363467172372200,5.390372314453125,0.013732757276296614,-0.07398118201196194,-0.03341054056212306
1772363467182441200,5.400441162109375,0.07472060220241546,-0.10645429559350013,-0.06774564862325787
1772363467192511200,5.41051123046875,0.11360358282625675,-0.05502279904186725,-0.054987435467541215
1772363467202580200,5.420580322265625,0.08369768938422202,-0.027366730353236196,-0.0822521667510271
1772363467212650200,5.430650146484375,0.05227613068222999,0.021390578553080557,-0.11646262551918625
1772363467222719200,5.44071923828125,0.029470424634218215,-0.001689268261194229,-0.17545476658344267
1772363467232789200,5.450789306640625,0.042758945274353026,0.017100187882781028,-0.15054799660295248
1772363467242858200,5.460858154296875,0.12654431294202803,0.06658756462931632,-0.09208221750035882
1772363467252928300,5.47092822265625,0.16304887399673462,0.08011515472233295,-0.09808817991688847
1772363467262997200,5.480997314453125,0.1610018783390522,0.10278232908248901,-0.09293941885158419
1772363467273067300,5.4910673828125,0.15132511845529079,0.10531097077727317,-0.08813800991922617
1772363467283136300,5.50113623046875,0.10565233156085013,0.0559141949236393,-0.13881766519024968
1772363467293206300,5.511206298828125,0.07094868244826794,0.045569326519966126,-0.1086953525185585
1772363467303275300,5.521275146484375,0.0932365021020174,0.009181085321307183,-0.04963029234856367
1772363467313345300,5.53134521484375,0.08500468032956122,-0.007205985856056213,-0.019200521162897347
1772363467323414300,5.541414306640625,0.006826046627759933,-0.017612813580036163,-0.008345219019055366
1772363467333484300,5.551484375,-0.018993454283475875,-0.015418518406152725,0.021835399711132047
1772363467343553300,5.56155322265625,0.12861702756285667,-0.0792594146758318,0.02420753566995263
1772363467353623000,5.571623046875,-0.18888123438954352,-0.174025610563159,-0.11600538327097892
1772363467363692300,5.5816923828125,-0.3843371709942818,0.016702128475904465,0.06526946776807308
1772363467373762000,5.591761962890625,-0.20135726960301398,0.1416682323157787,0.1619632707171142
1772363467383831300,5.601831298828125,-0.10135843375921248,0.12447744354009628,0.08065919847115874
1772363467393901300,5.6119013671875,-0.16850597035884857,0.08486147246658801,0.033781127440184355
1772363467403970300,5.62197021484375,-0.175415019094944,-0.015755203014612196,-0.0033757600434124466
1772363467414040300,5.632040283203125,-0.03580781096220016,-0.05248012882173061,-0.0017583879746496675
1772363467424109300,5.642109375,0.042159225815534586,-0.01487666661441326,0.045914778956770895
1772363467434179300,5.652179443359375,0.047266193565726276,0.04870879358947277,0.051566082716733214
1772363467444248300,5.662248291015625,0.060871525070071215,0.0711111795336008,0.03762523564770818
1772363467454318300,5.672318359375,0.083071081918478,0.08275134844481945,0.049435792689770455
1772363467464387000,5.682386962890625,0.10299977122545241,0.050692660883069035,0.0992751977443695
1772363467474457300,5.692457275390625,0.10796119302511215,-0.008349895194172858,0.07477101721540093
1772363467484526000,5.702526123046875,0.08248656002879143,-0.08302841182053089,0.019478315190970895
1772363467494596400,5.712596435546875,0.059063598865270614,-0.05691431187689304,0.07311082891821861
1772363467504665000,5.7226650390625,0.02080839475095272,-0.02439677463173866,0.053204351443052286
1772363467514735000,5.732735107421875,-0.04586392555236816,0.025357728618383406,0.03304316855445504
1772363467524804000,5.74280419921875,-0.07666296844184398,0.0835287625581026,0.023430267687141893
1772363467534874000,5.7528740234375,-0.04697627070844173,0.052339843568205834,0.001434124456346035
1772363467544943400,5.762943359375,-0.020469956576824187,-0.026907880669832226,-0.04759074934497475
1772363467555013000,5.77301318359375,0.013299042034149168,-0.018272738793492317,-0.04063859211951494
1772363467565082400,5.783082275390625,0.052046413579583166,0.03907119667232036,0.003653115680068731
1772363467575152000,5.793152099609375,0.05449380673170089,0.052613399812579155,0.011311083087325095
1772363467585221400,5.803221435546875,0.007525134807825088,0.028982933378219604,-0.00800824214965105
1772363467595291100,5.813291015625,-0.017441548666357994,0.02443944472968578,-0.019097645310312508
1772363467605360400,5.8233603515625,0.0007014262676239013,0.04326280314326286,-0.009954407781362532
1772363467615430100,5.83343017578125,0.013488427126407623,0.06387538306117058,0.038775866987556216
1772363467625499100,5.8434990234375,-0.022175006929039953,0.044882513299584384,0.02747530529424548
1772363467635569400,5.8535693359375,-0.09757891522049904,-0.010133856001496314,-0.006925999870896339
1772363467645638100,5.86363818359375,-0.10308861855268478,-0.0016050971090793608,0.015033903002738951
1772363467655708400,5.87370849609375,-0.060141457229852674,-0.025896657800674436,0.005914630871266127
1772363467665777200,5.883777099609375,-0.04024082497358322,-0.06301321327388286,-0.04521466786339879
1772363467675847200,5.89384716796875,-0.011660042655467986,-0.021640753921866415,-0.055731093441694975
1772363467685916200,5.903916259765625,0.019541151294112203,0.03950257382690906,-0.03440086677372455
1772363467695986200,5.913986083984375,0.013883563923835754,0.018197335469722745,-0.059790744096040724
1772363467706059300,5.924059326171875,-0.008205518287420272,0.027656653210520743,-0.05527502023726701
1772363467716129300,5.93412939453125,0.03681085052490234,0.07588438528478145,-0.014109920025616883
1772363467726198300,5.9441982421875,0.07485445771515369,0.05497019207179546,-0.04115414042621851
1772363467736268300,5.954268310546875,0.06946925754547119,-0.006745967128872871,-0.10871171913146972
1772363467746337300,5.964337158203125,0.10214695378839969,-0.003069324442744255,-0.0849450590968132
1772363467756407300,5.9744072265625,0.11444120269417762,-0.030316227808594703,-0.07381079388111829
1772363467766476000,5.98447607421875,0.10177052169144153,-0.008996960926055907,-0.05878901970759034
1772363467776546300,5.99454638671875,0.07530921574532985,0.032192543074488635,-0.04540756008699536
1772363467786615000,6.004614990234375,0.020968553748726842,0.017783493971824646,-0.057992608632892365
1772363467796685300,6.014685302734375,-0.037892216020822524,-0.027269699719548224,-0.046603491873294114
1772363467806754000,6.024754150390625,-0.043807577544450756,-0.020246669214963913,-0.032103257355839014
1772363467816824300,6.03482421875,0.033254619348049165,0.040402737537026404,-0.0037219431325793265
1772363467826893300,6.044893310546875,0.034626492223143575,0.052792263510823244,-0.009984072267264128
1772363467836963000,6.054963134765625,0.010113397735357283,0.06994915001690387,0.027656799340993164
1772363467847032300,6.0650322265625,-0.029584406402707097,0.06107552320957183,0.05523936440199613
1772363467857102000,6.07510205078125,-0.06901449951529502,-0.006341477981209755,0.024184008663892746
1772363467867171300,6.08517138671875,-0.06307458807229996,-0.04992050746679306,-0.004388298086822033
1772363467877241000,6.095240966796875,0.012239888370037078,-0.08101941008567809,-0.033527298809587956
1772363467887310300,6.105310302734375,0.08213760046064854,-0.07888999684154988,-0.024578122548013923
1772363467897380000,6.115380126953125,0.10047755927145481,-0.03634557110071182,0.019087416177242994
1772363467907449300,6.125449462890625,0.019251812958717345,-0.02148936275243759,0.0016430910319089889
1772363467917519400,6.135519287109375,-0.021716157245635984,0.001460135680437088,-0.005125526320189237
1772363467927588400,6.14558837890625,0.03213233731985092,0.041647184640169144,0.02799713721126318
1772363467937658400,6.155658447265625,0.07661328408122062,0.05447802464067936,0.0534163867585361
1772363467947727000,6.16572705078125,0.05734510450959205,0.09234802882969378,0.025039748710393904
1772363467957797400,6.17579736328125,0.026803251251578328,0.11281740088462829,0.04148308011963963
1772363467967866000,6.1858662109375,0.06908464214205741,0.09700783733427525,0.0975989350952208
1772363467977936400,6.195936279296875,0.048369186371564864,0.05404957009553909,0.107409404361248
1772363467988005000,6.206005126953125,-0.03833937526643276,-0.0013216039925813673,0.07031433006748557
1772363467998075100,6.2160751953125,-0.03753098149299621,-0.03565057457387447,0.046967210619151586
1772363468008144100,6.22614404296875,0.011293547430634498,-0.0587982259273529,0.04503068959861994
1772363468018214100,6.236214111328125,-0.0317278481721878,-0.029615386062860488,0.07042685053125024
1772363468028283100,6.246283203125,-0.13134908287525177,0.006643091276288032,0.04736541615650058
1772363468038353200,6.256353271484375,-0.16095687015354632,0.04182546381652355,0.019472323841601608
1772363468048422400,6.26642236328125,-0.14092705855965615,0.07917348995804786,-0.01154313827753067
1772363468058492200,6.2764921875,-0.08609773626327515,0.07605448115468025,-0.05692614844515919
1772363468068561400,6.2865615234375,-0.05299801521599293,0.0722574269592762,-0.06954466086924076
1772363468078631200,6.296631103515625,-0.001513327172398567,0.055474049940705296,-0.07205912790820002
1772363468088700400,6.306700439453125,0.06303659414947033,0.04462532366812229,-0.08775032577589154
1772363468098770200,6.316770263671875,0.11657353854775428,0.03714928869903088,-0.10247896222174167
1772363468108839200,6.326839111328125,0.10946341428160666,0.003103226712346077,-0.11235226759091019
1772363468118909200,6.3369091796875,0.0578267505466938,-0.024480361261963842,-0.13713102727755905
1772363468128978200,6.346978271484375,0.030828853505849838,-0.02850771708190441,-0.11894158285334705
1772363468139048400,6.35704833984375,0.0013549217402935027,-0.055142041507363314,-0.10875307405516504
1772363468149117200,6.3671171875,-0.005928221005201339,-0.04761106148064136,-0.07561272873654962
1772363468159187200,6.377187255859375,0.0015057283878326415,-0.05848375315070152,-0.0469787549264729
1772363468169256200,6.387256103515625,0.011849427747726439,-0.06865443403124809,-0.06074497608095407
1772363468179326200,6.397326171875,0.025381694015860556,-0.04617722928524017,-0.0425825657941401
1772363468189395200,6.407395263671875,0.04052957878708839,0.03174713739454746,-0.05318506222069263
1772363468199465200,6.41746533203125,0.024906477719545364,0.05470832626521587,-0.07895619394555688
1772363468209534200,6.4275341796875,-0.008992869272828101,0.026557752057909965,-0.0727374655611813
1772363468219604200,6.437604248046875,-0.04001286143660545,-0.03484101175665855,-0.05900660798102617
1772363468229673200,6.447673095703125,0.009181669843196868,-0.031493454894423484,-0.029755232924968
1772363468239743200,6.4577431640625,0.0823696556508541,0.021920155385136603,0.008185644543170929
1772363468249813200,6.467813232421875,0.10802899756431579,0.05311433507204055,0.053229778145253655
1772363468259882200,6.47788232421875,0.07933832513093948,0.09233633839190006,0.06698036333918571
1772363468269952300,6.4879521484375,0.0429039067029953,0.12804653419852255,0.0815736829675734
1772363468280021200,6.498021240234375,0.022713351589441298,0.07955985892713069,0.06322466406747698
1772363468290091300,6.50809130859375,-0.02616319978237152,0.00021276596784591673,0.06300386092364788
1772363468300160300,6.51816015625,-0.03730418699979782,-0.035031565892696376,0.11747238708361983
1772363468310230300,6.528230224609375,-0.04795476035177707,-0.04250760086178779,0.1641020363114774
1772363468320299300,6.53829931640625,-0.1072311251848936,-0.05799100119769573,0.15402721702083944
1772363468330369300,6.548369384765625,-0.1297825642108917,-0.04106792344748974,0.14600100082308054
1772363468340438000,6.55843798828125,-0.04409983848929405,0.030800211933255193,0.14899945198670028
1772363468350508300,6.56850830078125,0.008359832066297531,0.02708557532429695,0.10427549024969339
1772363468360577300,6.578577392578125,-0.015808979028463364,0.0033405425995588303,0.07819178544431925
1772363468370647300,6.588647216796875,-0.04586977077126503,-0.034462241572141644,0.04779430909305811
1772363468380716300,6.59871630859375,-0.008261047866940497,-0.03127016753256321,0.035533962456882
1772363468390786000,6.6087861328125,0.0648240620881319,-0.02484510292112827,0.03060088996887207
1772363468400855300,6.618855224609375,0.10589432362318038,-0.028114918372035023,-0.013766659545898436
1772363468410925000,6.628925048828125,0.12320435486435889,-0.010489829832315445,-0.04029562390074134
1772363468420994300,6.638994384765625,0.06825637462437152,0.003976502415537834,-0.029130232894420623
1772363468431064000,6.64906396484375,0.001343231302499771,0.027468437162041663,-0.005098346052318811
1772363468441133300,6.65913330078125,-0.012144611302018165,0.05913081888258457,0.024688889446109533
1772363468451203300,6.669203369140625,-0.008237082469463348,0.06670388448536396,0.030863486427813766
1772363468461272300,6.679272216796875,-0.02444996612370014,0.053935588327050206,0.037663229570537804
1772363468471342300,6.68934228515625,-0.05603635999858379,0.02404430793225765,0.03537716445997357
1772363468481411300,6.699411376953125,-0.09502221647500991,-0.01744037962257862,0.009509586623311042
1772363468491481300,6.7094814453125,-0.11156769308447838,-0.002236380749940872,0.0012798106774687765
1772363468501550000,6.719550048828125,-0.11386603315472602,0.02257774251103401,-0.0031235388480126856
1772363468511620400,6.729620361328125,-0.06736731683015823,0.0437011945605278,0.029467940416187045
1772363468521689000,6.739689208984375,-0.002738485053181648,0.0036988545179367062,0.05351254060938954
1772363468531759400,6.74975927734375,0.002864157259464264,-0.07604162167310714,-0.011495061352103948
1772363468541828000,6.759828125,0.015149638336896896,-0.10215455257296562,-0.026126374903321266
1772363468551898400,6.7698984375,0.08982230974435806,-0.11028349849283695,-0.01136558975353837
1772363468561967000,6.779967041015625,0.12660451869666575,-0.11049158828556536,0.012726648973673581
1772363468572037000,6.790037109375,0.10911094758212565,-0.05650748464167118,0.061393356987088914
1772363468582106000,6.800106201171875,0.08196575102508068,-0.017490648505091667,0.06985474973171948
1772363468592176000,6.810176025390625,0.04696048861742019,-0.011671733093261718,0.016769640754163265
1772363468602245400,6.820245361328125,0.03323825273513794,0.02604512636065483,-0.0021261983737349507
1772363468612315100,6.830315185546875,0.09475567449331283,0.06090484281778335,0.012879939839243888
1772363468622384400,6.84038427734375,0.1456909119606018,0.06704349170327187,0.0029649872854351994
1772363468632454100,6.8504541015625,0.1684475181698799,0.08075520619153977,0.0012093757897615432
1772363468642523400,6.8605234375,0.18374387150108812,0.05625029501020908,0.02989800239652395
1772363468652593200,6.87059326171875,0.12162146958708762,-0.02658931623995304,0.006592530132830143
1772363468662662100,6.880662109375,0.04595861809849739,-0.06729308255016804,0.0005311842672526836
1772363468672732200,6.890732177734375,0.03140519208908081,-0.0657131198823452,0.019312310974299907
1772363468682801200,6.90080126953125,0.024723522368073462,-0.06818155582249164,0.006156038411706686
1772363468692871400,6.910871337890625,0.0020645313143730164,-0.03676525781750679,0.005987842237949371
1772363468702940200,6.920940185546875,-0.03721183254122734,-0.016408113965392112,0.0010613456211984156
1772363468713007000,6.931007080078125,-0.0679834029018879,0.008471475747227668,0.014201543831825255
1772363468723076000,6.941076171875,-0.07959960641562938,0.029226094484329224,0.010692366667091845
1772363468733146000,6.95114599609375,-0.0888753842830658,0.025861001965403554,-0.04009104123935103
1772363468743215000,6.961215087890625,-0.10247487056851387,0.02848550525009632,-0.07012202236577868
1772363468753285000,6.97128515625,-0.0795902540653944,0.04603811307549476,-0.07072787930443883
1772363468763354400,6.981354248046875,-0.0743003309637308,0.052126493078470226,-0.08238543774187565
1772363468773424000,6.991424072265625,-0.038198505491018296,0.05033493348658084,-0.053812692599743604
1772363468783493400,7.001493408203125,-0.022746669337153434,0.010203414106369019,-0.06203223941251635
1772363468793563100,7.011563232421875,0.02576806298494339,0.004658054938912391,-0.05440817427486181
1772363468803632400,7.02163232421875,0.06610007337331772,0.001939443629980087,-0.03363251274973154
1772363468813702100,7.0317021484375,0.06497486873567104,0.018985855498909947,-0.003905044614523649
1772363468823771100,7.041771240234375,0.056475920459628105,-0.0005067804783582687,0.006227350082248449
1772363468833841200,7.051841064453125,0.053846740999817844,-0.026046879926323888,-0.028483167162537574
1772363468843910100,7.06191015625,0.07347557057738303,-0.052585342761874196,-0.021014000325649977
1772363468853980400,7.07198046875,0.11876900276541709,-0.06026712943613529,0.02330006543621421
1772363468864049200,7.082049072265625,0.10797639059424399,-0.09034428779184818,0.03235314046368003
1772363468874119200,7.092119140625,0.04023030357956886,-0.11835106961429119,-0.001120674593001604
1772363468884189200,7.102189208984375,0.005910685348510742,-0.08458265552520751,0.007229951253533363
1772363468894258200,7.112258056640625,-0.0018885902255773544,-0.03267126650214195,-0.004330430419743061
1772363468904328200,7.122328125,0.011911971589922904,0.02534311557114124,-0.024223902282863852
1772363468914397200,7.132397216796875,0.03338321416378021,0.035382279026508326,-0.01280365973263979
1772363468924467200,7.14246728515625,0.07460252878069877,0.05713876828253269,0.025716040536761284
1772363468934536200,7.1525361328125,0.11265081214606762,0.05341244123578071,0.031642069584876295
1772363468944606200,7.162606201171875,0.11059271057248114,0.034085224953293795,-0.002589285840839147
1772363468954675200,7.17267529296875,0.08465396719574927,0.01830430297553539,-0.002745937707275152
1772363468964745200,7.1827451171875,0.04992810625135898,-0.005080079743266105,0.01630582263469696
1772363468974814200,7.192814208984375,0.018230653217434882,0.007958850049972533,0.024294483301043508
1772363468984884200,7.20288427734375,-0.010088847815990447,0.012551438537240028,0.018244389481842517
1772363468994953200,7.212953125,-0.02075169612765312,0.007839023062586783,0.04230199528709054
1772363469005023200,7.223023193359375,-0.07393325121700764,-0.011525018098950386,0.07680573791339992
1772363469015092200,7.23309228515625,-0.1417260999828577,-0.02408230185508728,0.08643924317732453
1772363469025162200,7.243162353515625,-0.1488145969390869,-0.019171148937940596,0.11010185831561684
1772363469035231200,7.253231201171875,-0.09771861595213413,0.0004348842859268188,0.11158625165447592
1772363469045301200,7.26330126953125,-0.014259996020793914,0.01934709002673626,0.07855550419017672
1772363469055370000,7.273369873046875,0.02173252385854721,0.03156359752118587,0.05254062683731317
1772363469065440300,7.283440185546875,-0.007815057665109634,0.008163432711362838,0.01431830207929015
1772363469075509000,7.293509033203125,-0.0922387232363224,-0.0032797523230314253,-0.01692906909957528
1772363469085579300,7.303579345703125,-0.11934066517353058,-0.012442132943868636,-0.05083236161470413
1772363469095648300,7.313648193359375,-0.050372927409410476,0.0030465280890464783,-0.07001388581618666
1772363469105718000,7.323718017578125,0.06812544172108173,0.019707155510783194,-0.06966214976906776
1772363469115787300,7.333787353515625,0.16246727471649647,0.03924655323922634,-0.04793664017319679
1772363469125857000,7.34385693359375,0.18153963945508003,0.04546294353604317,-0.017718173650652168
1772363469135926300,7.35392626953125,0.08816694375276565,0.015469371810555457,-0.018107757490128277
1772363469145996000,7.36399609375,0.014615969851613043,-0.015351298388838768,-0.005651742151379585
1772363469156065300,7.374065185546875,0.0031108254969120022,0.007549100205302238,0.03626972938552499
1772363469166135000,7.384135009765625,-0.008618775263428687,0.025657588347792623,0.08022329127192497
1772363469176204300,7.394204345703125,-0.03681844930946827,0.03954933557808399,0.08923428072333335
1772363469186274300,7.4042744140625,-0.0724269383072853,0.04354045104086399,0.0820996065378189
1772363469196343300,7.41434326171875,-0.07445230665504932,0.04130757742226124,0.07623875168040395
1772363469206413300,7.424413330078125,-0.060952189090847965,0.05472703096568584,0.096765845271945
1772363469216482000,7.43448193359375,-0.0754161832511425,-0.02263444113433361,0.04662278109565377
1772363469226552300,7.44455224609375,-0.05392155980169773,-0.07407295194864273,0.003741378485411405
1772363469236621000,7.45462109375,-0.04632803593277931,-0.10526830067932605,-0.009677490536123514
1772363469246691300,7.46469140625,-0.0029547581523656843,-0.09361118063330649,-0.0007923194214701652
1772363469256760000,7.474760009765625,0.08702361893653869,-0.03261515240073204,0.023720482805371285
1772363469266830000,7.484830078125,0.14559329680502414,-0.02021276694536209,-0.013380582837760448
1772363469276899000,7.494899169921875,0.133909288752079,-0.007236965516209602,-0.015889204657822845
1772363469286969000,7.504968994140625,0.012241641935706139,0.010867430973052978,-0.009479629876464606
1772363469297038000,7.5150380859375,0.09865735810697078,0.028996377381682394,-0.02617474408969283
1772363469307108000,7.525108154296875,0.26572131296396256,0.04598258349597454,-0.11090060747787356
1772363469317177300,7.53517724609375,0.09816226806640624,-0.0036591070294380184,-0.15504866902306674
1772363469327247000,7.5452470703125,-0.02590484110713005,0.032871172988414764,-0.07078633149340749
1772363469337316400,7.55531640625,0.030445407146215436,0.08410451661944389,0.01563406085297465
1772363469347386000,7.56538623046875,0.0645756402850151,0.04794774608910084,0.026227351059764623
1772363469357455400,7.575455322265625,-0.01076104798913002,0.0024818799436092374,0.026198855617642403
1772363469367525000,7.585525146484375,-0.020655250015854835,-0.0032137013494968414,0.051649377086013554
1772363469377594000,7.595593994140625,0.0378320102661848,0.009784311911463736,0.08164733272567391
1772363469387664100,7.6056640625,0.016034019955992698,0.001928337714076042,0.06341960211768746
1772363469397733000,7.615733154296875,-0.05996843875050544,0.026422142979502676,0.07008388231247663
1772363469407803400,7.625803466796875,-0.12060907767415047,0.021707389417290685,0.04072422457635402
1772363469417872100,7.6358720703125,-0.11586977419257163,0.012162146958708762,-0.007073299387097358
1772363469427942400,7.6459423828125,-0.08556465229988097,-0.005466448712348937,-0.034583968255668875
1772363469438012200,7.65601220703125,-0.0534042579293251,-0.029488544812798497,-0.04884060327559709
1772363469448081200,7.6660810546875,-0.013570260190963744,-0.008784194958209991,-0.033988340450078244
1772363469458151200,7.676151123046875,-0.027023616003990173,0.011100655207037924,-0.033480390927940605
1772363469468220200,7.68622021484375,-0.010597381860017775,0.05288870962262153,-0.02250146240442991
1772363469478290200,7.696290283203125,-0.00851063871383667,0.08284662551283836,-0.016371727477759123
1772363469488359200,7.706359130859375,-0.01613631128668785,0.06703355483114719,-0.08289251048117875
1772363469498429200,7.71642919921875,-0.020667524975538254,0.04257365183532238,-0.09940759195238351
1772363469508498200,7.726498291015625,0.017898060262203214,0.012910334977507591,-0.08264291963428258
1772363469518568200,7.736568115234375,0.06991466322541237,0.003163432466983795,-0.08142711410373449
1772363469528637200,7.74663720703125,0.07146598432064057,0.00018120178580284117,-0.06015037118867039
1772363469538707200,7.756707275390625,0.06944178501665592,0.028905776488780975,-0.03575856499299407
1772363469548776200,7.766776123046875,0.04187397913336754,0.05086217223107815,0.00190685653463006
1772363469558846200,7.77684619140625,0.0069528878778219215,0.0484328992575407,0.0027143735252320765
1772363469568915200,7.786915283203125,-0.046938276785612104,-0.019016835159063338,-0.03343976665660739
1772363469578985200,7.796985107421875,-0.033406010517477984,-0.0639484482973814,-0.03329728944599628
1772363469589054200,7.80705419921875,0.01437690039873123,-0.08999123657047749,0.007919687083363533
1772363469599124200,7.817124267578125,0.025304537126421927,-0.13445990837216376,-0.0014706570744514465
1772363469609193000,7.82719287109375,-0.02921265048086643,-0.10305530080497265,-0.0230563198082149
1772363469619263200,7.83726318359375,-0.07659457938075065,0.0006242693781852722,0.002989683335274458
1772363469629332200,7.847332275390625,-0.10684650978147983,0.08413724984526634,-0.004754062659293413
1772363469639402200,7.85740234375,-0.13004969071447847,0.11896364855468272,0.015534399870783089
1772363469649471200,7.86747119140625,-0.1080021095573902,0.09180208538472652,0.019677637155354023
1772363469659541200,7.877541259765625,-0.011461889734864235,0.08864332909286021,0.029726299091428515
1772363469669610200,7.8876103515625,0.08463467797338962,0.08515490245521068,0.04903904845714569
1772363469679680000,7.897679931640625,0.13285831839442253,0.05856324812769889,0.055705666739493606
1772363469689749200,7.907749267578125,0.12008066988587379,0.04226502427756786,0.06032981940880418
1772363469699819000,7.917819091796875,0.05448679246902465,0.04232990620732307,0.05167933383285999
1772363469709887500,7.927887451171875,0.016359598648548124,0.007455576702952385,0.03897168182060122
1772363469719957500,7.93795751953125,-0.010837620356678962,-0.026882161706686017,0.046319560365378855
1772363469730026500,7.948026611328125,-0.03583352992534637,-0.03197510093152523,0.08453107146844267
1772363469740096500,7.958096435546875,-0.0562409426599741,0.002335164949297905,0.12635522011071443
1772363469750165500,7.96816552734375,-0.11843699433207511,-0.0058627545535564415,0.10182312866151333
1772363469760235500,7.978235595703125,-0.14201543831825256,-0.01554419061243534,0.058906654737889766
1772363469770302500,7.988302490234375,-0.08011340115666389,0.014635843595862388,0.016187310821563005
1772363469780372500,7.99837255859375,0.03204290547072887,0.03386602924466133,-0.018867343685775993
1772363469790441500,8.00844140625,0.05966799449920654,0.029196868389844893,-0.04784180149659514
1772363469800511500,8.018511474609374,0.012329904741048812,0.025520225703716277,-0.08370251168981194
1772363469810580500,8.02858056640625,-0.0036626141607761383,0.0290004690349102,-0.10625716558620334
1772363469820650500,8.038650390625,0.016285948890447616,0.031526188120245935,-0.10970014564692973
1772363469830719500,8.048719482421875,0.027669512692093848,0.04678513205051422,-0.11483984662294387
1772363469840789500,8.05878955078125,0.051266076856851577,0.0270440742701292,-0.12880991978645323
1772363469850858500,8.0688583984375,0.05438508566021919,-0.004629997888207435,-0.14009192290976644
1772363469860928500,8.078928466796874,0.03734276544451713,-0.027397125491499898,-0.13029533603861929
1772363469870997500,8.08899755859375,0.00393792397081852,-0.041104163804650304,-0.10306684511229396
1772363469881067500,8.099067626953126,-0.04857376903295517,-0.015583353579044341,-0.0660959817200899
1772363469891136500,8.109136474609375,-0.05578618462979793,0.019339491242170333,-0.03420475967973471
1772363469901206500,8.11920654296875,-0.07646656908690928,0.05158697937428951,0.013820143298804759
1772363469911275300,8.129275146484375,-0.05304828409850597,0.08215805872678757,0.06699643769115209
1772363469921345500,8.139345458984375,0.01851180824637413,0.099084059086442,0.08363777589052915
1772363469931414300,8.149414306640624,0.06823825444579124,0.1070703816652298,0.0332495047815144
1772363469941484500,8.159484619140626,0.04544073170423507,0.040433717197179794,0.004712707735598087
1772363469951554600,8.169554443359376,-0.03266659032702446,-0.027380758878588676,0.0054535892307758325
1772363469961623600,8.17962353515625,-0.08274725679159164,-0.03663198682665825,0.061132367963343856
1772363469971693600,8.189693603515625,-0.07845102090239524,-0.02450666474699974,0.07690934441834688
1772363469981762300,8.19976220703125,-0.04307049544155597,-0.010891980892419814,0.07845350512042641
1772363469991832600,8.20983251953125,-0.011684008052945137,-0.006620879444479942,0.04855930211618542
1772363470001901300,8.2199013671875,0.05929623857736587,0.049477439874410625,0.040270343329012394
1772363470011971600,8.2299716796875,0.05289221675395965,0.055718964612483976,0.03674626085609197
1772363470022040300,8.240040283203125,-0.009423661905527115,0.01936930185854435,-0.01639277026578784
1772363470032110300,8.2501103515625,-0.020567571732401847,0.018204349732398987,-0.046725218556821345
1772363470042179600,8.2601796875,0.016100070929527283,0.01698036089539528,-0.016665888118743897
1772363470052249300,8.270249267578125,0.08544365626871585,0.03344341991841793,-0.002735562443733215
1772363470062318600,8.280318603515624,0.145295190641284,0.050659927657246584,0.027204379398375746
1772363470072388400,8.290388427734374,0.14429156655669212,0.0719435387045145,0.05771700656190514
1772363470082457600,8.30045751953125,0.0653209056943655,-0.009224924463033676,0.008547755853831768
1772363470092527400,8.31052734375,-0.02333060670495033,-0.06029810909628868,-0.037874826494604344
1772363470102596600,8.3205966796875,-0.04465454976260662,-0.03927753289937973,-0.016773294015973807
1772363470112666400,8.330666259765625,-0.039084640675783155,-0.00037000235617160797,0.007136427751183509
1772363470122735600,8.340735595703125,-0.09154781836271285,-0.019283961662650107,0.01629500897973776
1772363470132805600,8.3508056640625,-0.1754617808461189,-0.04162672637403011,0.019820114365965126
1772363470142874400,8.360874267578126,-0.16908464702963827,-0.05245908603370189,0.02787818700671196
1772363470152944600,8.370944580078126,-0.06687865653038025,-0.033228900384902955,0.023094898252934214
1772363470163013400,8.381013427734375,0.05238192914426326,0.03717091600894928,0.036921909683942794
1772363470173083600,8.391083740234375,0.08548574184477328,0.06823065566122531,-0.0006878361336886882
1772363470183152400,8.40115234375,0.047666591060161585,0.10274550420343875,-0.04528685631677508
1772363470193222400,8.411222412109375,-0.003474398112297058,0.10680208611786365,-0.06929156289100646
1772363470203291400,8.42129150390625,0.03912263459861278,0.1202589490622282,-0.04221840865686535
1772363470213361400,8.431361328125,0.10142097760140895,0.14369769231677054,-0.029277970802038908
1772363470223430400,8.441430419921875,0.064406128937006,0.10906184774339199,-0.06171221367791295
1772363470233500400,8.45150048828125,0.0083481416285038,0.05821838021278381,-0.07778656564429402
1772363470243569400,8.4615693359375,0.0008989946663379669,0.0329611893594265,-0.07280044779479503
1772363470253639400,8.471639404296875,0.009454057043790817,-0.014677344650030136,-0.06000292554199695
1772363470263708700,8.481708740234374,-0.02072773073017597,-0.08034954800009728,-0.0768581987529993
1772363470273778400,8.4917783203125,-0.04154664687514305,-0.09679799397587775,-0.07008724331334233
1772363470283847700,8.50184765625,-0.001633154159784317,-0.07891688484847545,-0.024348843836784363
1772363470293917400,8.51191748046875,0.022348025408387182,-0.026307576689124104,0.009599749124795198
1772363470303987500,8.521987548828125,0.0057090252965688705,0.04876783030033111,0.04142492019161582
1772363470314056400,8.532056396484375,0.03740180215537548,0.0816553699016571,0.0733484370663762
1772363470324126500,8.54212646484375,0.019306173494458196,-0.039430677634477614,-0.01530365985482931
1772363470334195500,8.552195556640624,0.023604747471213338,-0.08868541466891765,-0.03179828305989504
1772363470344265500,8.562265380859374,0.0656301177740097,-0.10552432126700878,0.009843348622322083
1772363470354334700,8.572334716796876,0.04980360308885574,-0.10809738662540912,-0.013798515988886356
1772363470364406500,8.582406494140624,0.03144961575269699,-0.05559446144998073,-0.04073109270855784
1772363470374475500,8.5924755859375,0.030935821011662482,0.020663433322310448,-0.048926674123853445
1772363470384545500,8.602545654296875,0.0176589908093214,0.04703589194118976,-0.04319762895256281
1772363470394614500,8.612614501953125,0.08389233517348765,0.08432254328429699,0.00927329364940524
1772363470404684500,8.6226845703125,0.1878016224592924,0.10145604891479015,0.025130495733767747
1772363470414753500,8.63275341796875,0.20467384680509565,0.05927110413610935,-0.0008063479468226432
1772363470424823600,8.642823486328124,0.13105389932096004,0.032439795833826064,0.017090981663018465
1772363470434892500,8.652892578125,0.10217208822965622,0.03834580500721931,0.07809256285354495
1772363470444962600,8.662962646484376,0.11144611253142356,0.053981765556335444,0.10403598240539431
1772363470455031300,8.67303125,0.059660395714640616,0.01709317362010479,0.025831629740446803
1772363470465101600,8.6831015625,-0.030832360637187955,-0.027327567386627196,-0.027126199595630167
1772363470475170300,8.69317041015625,-0.11848200251758098,-0.05870411790311336,0.008836655797809363
1772363470485240600,8.703240478515625,-0.1604220326244831,-0.10709668515026569,0.060078474996238945
1772363470495309600,8.7133095703125,-0.16085107169151305,-0.09145604842603205,0.0967429027877748
1772363470505379300,8.72337939453125,-0.1263631111562252,-0.04441314222216606,0.12509279895946382
1772363470515448600,8.733448486328125,-0.06159457864761352,-0.0156330379396677,0.10604556866213678
1772363470525518300,8.743518310546875,0.0034931028127670287,-0.0060632455617189406,0.06209156838431954
1772363470535587600,8.753587646484375,0.052587096327543256,0.02580722595155239,0.041754736667871474
1772363470545657300,8.7636572265625,0.06463058534264564,0.03245031722784042,0.02270619119629264
1772363470555726600,8.7737265625,0.1039332526832819,0.04261456836760044,0.035407997989654535
1772363470565796400,8.78379638671875,0.1580862831532955,0.03423077090382576,0.022977701614052055
1772363470575865600,8.793865478515626,0.17320318826436995,0.005143208107352256,0.0004649871632456779
1772363470585935600,8.803935546875,0.1234434243172407,-0.04297755646109581,-0.04419847655817866
1772363470596005400,8.81400537109375,0.10511457142233847,-0.060334933975338935,-0.030963878062367438
1772363470606074600,8.82407470703125,0.07815057665109634,-0.05337444731295109,-0.01671601087078452
1772363470616144400,8.834144287109375,0.024914076504111288,-0.02888239561319351,-0.026066899801045654
1772363470626213600,8.844213623046874,-0.03467033136487007,0.017677110987901687,-0.02171732628941536
1772363470636283400,8.854283447265624,-0.11823182714879513,0.04549976841509342,-0.00980681600421667
1772363470646352600,8.8643525390625,-0.16743571077883243,0.0772854842543602,0.03823708393573761
1772363470656422400,8.87442236328125,-0.17997428983449934,0.06727554689347744,0.05032397370114922
1772363470666491400,8.884491455078125,-0.15557985329031943,0.08190496074855327,0.0194378370501101
1772363470676561700,8.894561767578125,-0.088343469363451,0.1396434484899044,0.02612403681576252
1772363470686630400,8.90463037109375,-0.04982172326743602,0.09527823706269263,-0.0022324352271854875
1772363470696700700,8.91470068359375,-0.0381546663492918,0.022369652718305585,-0.026057401320338246
1772363470706769700,8.924769775390626,-0.01778057136237621,-0.06166647484004497,-0.03712839204147458
1772363470716839700,8.934839599609376,-0.0008148235142230987,-0.11760288159549236,-0.06533624939396977
1772363470726909000,8.944908935546875,0.028088030365109443,-0.13797288492918014,-0.05564765294194221
1772363470736978700,8.954978759765625,0.07099427515566349,-0.1314747550815344,-0.06493833611756562
1772363470747048000,8.9650478515625,0.09086275870800017,-0.12654489746391773,-0.07161445288062095
1772363470757117700,8.97511767578125,0.08346621871590613,-0.08949965366125107,-0.04772255903109908
1772363470767187000,8.98518701171875,0.050043841585516925,-0.06638239744603633,-0.02584098209068179
1772363470777256700,8.995256591796876,0.030322657549381255,-0.03336509398519993,-0.029412703097611664
1772363470787326000,9.005325927734376,0.08108253844976425,0.03648118017911911,0.011019406664371489
1772363470797395700,9.015395751953125,0.1115752918690443,0.0822831464111805,0.047061757034808395
1772363470807465000,9.02546484375,0.1407160461574793,0.13774199878275395,0.10339359284862876
1772363470817535000,9.035534912109375,0.13663432980179785,0.1283621760189533,0.10969313138425349
1772363470827603700,9.045603759765624,0.09314005599021911,0.03213292184174061,0.05171601258143782
1772363470837674000,9.055674072265624,0.05856967786848545,-0.02845452558994293,0.061532473196834324
1772363470847742700,9.06574267578125,0.06904372560977935,-0.042163901990652085,0.0716147451415658
1772363470857813000,9.07581298828125,0.07621054849922657,-0.06008125147521495,0.05391016162484884
1772363470867881700,9.0858818359375,0.029853870993852612,-0.05635141729712486,0.04038067183569073
1772363470877951700,9.09595166015625,-0.0662403586268425,-0.06904197204411029,0.023685849883407353
1772363470888021800,9.106021728515625,-0.08146130863428115,-0.026579963889718054,0.04226721623465419
1772363470898090800,9.1160908203125,-0.05580547385215759,0.018217793735861777,0.060577510559558866
1772363470908161000,9.1261611328125,-0.04821604163646698,0.05210545029044151,0.047775896653532976
1772363470918229800,9.136229736328126,-0.06825812819004058,0.03864741830229759,0.010007891534268856
1772363470928299800,9.1462998046875,-0.09017419192194938,-0.008930909952521323,-0.05785422307550907
1772363470938368800,9.15636865234375,-0.08444237027168273,0.01004559319615364,-0.04182254120707512
1772363470948438800,9.166438720703125,-0.06845102041363715,0.008824526968598366,-0.015426555582135916
1772363470958507800,9.1765078125,-0.037947161078453064,0.05993804361224174,-0.01953004537820816
1772363470968577800,9.186577880859375,-0.018584873482584953,0.10887655430436134,-0.02437953123599291
1772363470978646800,9.196646728515624,-0.059199207943677896,0.11324468638598918,-0.06193506264835596
1772363470988716800,9.206716796875,-0.06194704534709453,0.08849486053287982,-0.05319952913746238
1772363470998785800,9.216785888671875,-0.01149170035123825,0.03221124777495861,-0.047124739268422124
1772363471008855800,9.226855712890625,0.04863631287515163,-0.03420622098445892,-0.07708426259383559
1772363471018924800,9.2369248046875,-0.01667056429386139,-0.10197042817771435,-0.10084054736495017
1772363471028994800,9.246994873046875,0.1577694722890854,-0.10257949998676777,-0.10716112868860363
1772363471039063800,9.257063720703124,0.24710136816799638,-0.06201952606141567,-0.07402735924124718
1772363471049133800,9.2671337890625,0.03637304362952709,-0.076849430924654,0.005524754770845175
1772363471059202800,9.277202880859376,0.005338438418507576,-0.04768938741385936,0.06590265110507607
1772363471069272800,9.28727294921875,0.09681669867634772,-0.042677112209796905,0.04096431694254279
1772363471079341800,9.297341796875,0.09676642979383468,-0.1089344219714403,-0.0051284489296376705
1772363471089411800,9.307411865234375,0.06413198817074299,-0.1530371830701828,-0.053726767881959674
1772363471099480800,9.317480712890625,0.06910100875496863,-0.07621288658678531,-0.053803194119036196
1772363471109550600,9.327550537109374,0.017222352957725524,0.02581190212666988,-0.04283244890198111
1772363471119619800,9.337619873046876,0.01329378133714199,0.10677519811093807,-0.0029943595103919503
1772363471129689600,9.347689697265626,0.0333750308573246,0.04536240577101707,-0.03955035849139094
1772363471139758800,9.3577587890625,0.06966565690040588,0.024825813698768615,-0.050502399007976054
1772363471149828900,9.367828857421875,0.06350713427066802,0.02917641012370586,-0.0068473816767334935
1772363471159899000,9.37789892578125,0.045266544181108474,0.031759996876120564,-0.0051680502876639365
1772363471169967900,9.3879677734375,0.03879121068716049,0.05904606320858001,-0.005655541543662547
1772363471180037600,9.39803759765625,0.016917232531309126,0.058598903962969774,-0.0009516016364097595
1772363471190107000,9.40810693359375,-0.007229951253533363,0.04233341333866119,-0.03914806130081415
1772363471200176600,9.4181767578125,-0.001585223364830017,0.04689677573144436,0.010020604885369539
1772363471210246000,9.428245849609375,0.01255786827802658,0.024261165553331375,0.07936784348636865
1772363471220315600,9.438315673828125,-0.016574118182063103,-0.019732874473929404,0.09719605338275432
1772363471230385000,9.448385009765625,-0.12416998502612113,-0.06064706866443157,0.07790142419561744
1772363471240455000,9.458454833984375,-0.15089432582259177,-0.0635690935909748,0.12637626289874315
1772363471250524000,9.46852392578125,-0.13464812442064283,-0.02655307588279247,0.17907997134327888
1772363471260594000,9.478593994140626,-0.09519523495435714,0.031334464940428734,0.17516878924891352
1772363471270663000,9.488662841796875,-0.06490764871835708,0.07180909866988658,0.1237511750921607
1772363471280733000,9.49873291015625,-0.03648936348557472,0.07084639111757278,0.09567205868586898
1772363471290801700,9.5088017578125,-0.01520692148208618,0.05618775116801262,0.09538973461315035
1772363471300872000,9.518871826171875,-0.034762685823440546,-0.008210194462537766,0.043414340443164105
1772363471310940700,9.528940673828124,-0.13039631219506262,0.004939209967851638,0.042947745844721795
1772363471321011000,9.539010986328124,0.0964952116370201,0.052986324778199194,0.10674991753920912
1772363471331079700,9.54907958984375,0.2710474764227867,0.03909633111357689,0.029966537588089703
1772363471341149700,9.559149658203125,0.12667933749854565,-0.008143558967113494,-0.057118310016393656
1772363471351218700,9.56921875,-0.007023615026473999,-0.04203939882814884,-0.06185089149624109
1772363471361288700,9.579288818359375,0.017778233274817465,-0.06237783797979354,-0.040232495536655186
1772363471371358000,9.58935791015625,0.08290215509235858,-0.04376256935894489,-0.024753771375864743
1772363471381427700,9.599427734375,0.10711246724128723,0.022532149803638456,0.003044190001487732
1772363471391497000,9.6094970703125,0.05929097788035869,0.07107844630777835,0.0420573728762567
1772363471401566700,9.619566650390626,-0.12891747181415558,0.13166472469568252,0.07593640773296356
1772363471411636000,9.629635986328125,-0.1735749441862106,0.18142974933981895,0.07634937244802713
1772363471421705700,9.639705810546875,-0.013362170398235321,0.08896306256651877,-0.00404094595387578
1772363471431775700,9.649775634765625,0.04500701646208763,0.012916764718294144,-0.03118877285942435
1772363471441844700,9.6598447265625,0.007009586501121521,0.020615502527356146,0.06949278455153107
1772363471451914800,9.669914794921874,-0.15787059457600117,-0.03482873679697513,0.04331073393821716
1772363471461984000,9.67998388671875,-0.09220306740105151,-0.0699392131447792,-0.0273775440081954
1772363471472053800,9.6900537109375,0.17744623266160486,-0.12354162399470806,-0.0896795402728021
1772363471482123000,9.700123046875,0.15959785676002503,-0.11526187142729759,-0.1037355381540954
1772363471492192800,9.71019287109375,-0.002591185536980629,-0.07678279542922974,-0.07454100785180925
1772363471502261800,9.72026171875,-0.0882516994267702,-0.08231938676834107,-0.11173968865051864
1772363471512331800,9.730331787109375,-0.03448386888206005,-0.04811842648088932,-0.1226150106690824
1772363471522400800,9.74040087890625,0.02961655510663986,-0.0015577508360147476,-0.13465674611851572
1772363471532470800,9.750470703125,0.09620002808272839,-0.00042027123868465424,-0.14243337146937846
1772363471542539800,9.760539794921876,0.14880115293562413,-0.029528876823186872,-0.17399828416481614
1772363471552610000,9.770610107421875,0.17582067728638648,0.0021884499549865723,-0.14200199431478977
1772363471562678800,9.7806787109375,0.15623744041621684,0.04900573070943355,-0.07368921332806348
1772363471572748800,9.790748779296875,0.12902151671051978,0.08599310684502125,-0.021960925786942243
1772363471582817800,9.80081787109375,0.14722995809614658,0.14128303239047527,0.04296703506708145
1772363471592887800,9.8108876953125,0.08870470389127731,0.07719780597090721,-0.023120763346552848
1772363471602956800,9.820956787109376,-0.06996727019548415,-0.021885668593645095,-0.09701982003301382
1772363471613026800,9.83102685546875,-0.14576689980626106,-0.0765226831883192,-0.08088818492144345
1772363471623095800,9.841095703125,-0.14108897112309932,-0.06906886005103588,0.0023658523485064506
1772363471633165800,9.851165771484375,-0.18631927494704723,-0.04984335057735443,0.02749137964621186
1772363471643234800,9.86123486328125,-0.20660861425995825,0.017064532047510145,0.05712883141040802
1772363471653304800,9.871304931640625,-0.03098082919716835,-0.02205576446354389,-0.06668284169733524
1772363471663373800,9.881373779296876,-0.01706687013506889,-0.009442366605997085,-0.016609920147806406
1772363471673443800,9.89144384765625,-0.10903846686780452,0.027225276055932043,0.11823226554021239
1772363471683513900,9.901513916015626,-0.055578679358959195,0.11795885542631149,0.1819540654748678
1772363471693582800,9.911582763671875,0.008329436928033828,0.09055822280347346,0.1200017594307661
1772363471703652900,9.92165283203125,0.012271452552080155,0.0372007266253233,0.02593070620074868
1772363471713721600,9.9317216796875,0.05050035318136215,0.004575052830576897,-0.006748597477376461
1772363471723791600,9.94179150390625,0.15908347749710083,0.021406945165991783,0.046102995005249975
1772363471733860600,9.951860595703126,0.11730828256309032,-0.005446574968099594,0.05510258627980947
1772363471743930600,9.9619306640625,0.015167173993587493,-0.036408114942908285,0.042300095590949056
1772363471753999400,9.971999267578125,-0.0027829087167978283,-0.07870294983685017,-0.0029461364544928073
1772363471764069600,9.982069580078125,0.10039631072878837,-0.046994390887022015,0.048532267978787416
1772363471774138400,9.992138427734375,0.19386428349912166,-0.0014841010779142378,0.1530710853397846
1772363471784208600,10.002208740234375,0.1549240197300911,0.009100421300530433,0.17827523083165286
1772363471794277600,10.012277587890624,0.032335166415572165,-0.0031710312515497207,0.14287731584459543
1772363471804347400,10.022347412109376,-0.05130231721401214,-0.010588029509782791,0.14095336204469203
1772363471814416600,10.032416748046876,-0.07137012273073196,0.015150222858786581,0.15155425103604792
1772363471824486400,10.042486328125,-0.018379706299304962,0.03267068198025226,0.1500168123356998
1772363471834555600,10.0525556640625,0.04434416863918304,0.04779050970077514,0.1579505279444158
1772363471844625400,10.06262548828125,0.12194880184531211,0.09563479541540146,0.1819486586473882
1772363471854694700,10.072694580078124,0.023010873231291768,0.055118660631775854,0.11403569063320755
1772363471864764400,10.082764404296874,-0.10432312878370284,0.059089902350306506,0.08497194710373877
1772363471874833700,10.092833740234376,0.27759762871861454,0.1797936725705862,-0.03408654012754559
1772363471884903700,10.102903564453126,0.6720271546602249,0.2944002949595451,-0.1730050353437662
1772363471894972700,10.11297265625,0.2836532754957676,0.06456219628155231,-0.22453122444152832
1772363471905042700,10.123042724609375,-0.12311492301523684,-0.20042904884219168,-0.3002564736418426
1772363471915111400,10.133111328125,-0.4285498222082853,-0.3225596369951963,-0.2438952656030655
1772363471925181700,10.143181640625,-0.5902952123910188,-0.14259469951093195,0.004867752166837454
1772363471935251500,10.15325146484375,-0.4577461060762405,-0.04223521366119384,0.10767930734381079
1772363471945320700,10.16332080078125,-0.2445475920319557,-0.07890227180123328,-0.01003770215064287
1772363471955390500,10.173390380859376,-0.1847691228955984,-0.011781623208522796,-0.02298164713680744
1772363471965459700,10.183459716796875,-0.2998953852444887,0.09975859734714031,0.045373511686921116
1772363471975529700,10.19352978515625,-0.28250761259198187,0.03589198211431503,-0.006150777714699507
1772363471985598500,10.203598388671875,-0.1351601655960083,-0.00978548095524311,-0.004124532584100961
1772363471995668700,10.213668701171875,0.11797756012678146,0.21230244198739529,0.13006401150077582
1772363472005737500,10.223737548828124,0.338250542601943,0.1826689357459545,0.10577288920059799
1772363472015807700,10.233807861328126,0.49162090314924717,0.03922551045119762,-0.06014657179638743
