time,seconds_elapsed,z,y,x
1772568116674298000,0.115298095703125,0.10665968805551529,-0.47559654712677,-0.0240727998316288
1772568116684369200,0.125369140625,0.10317379981279373,-0.4657577872276306,0.08057721704244614
1772568116694441000,0.13544091796875,0.10378872603178024,-0.4289478361606598,0.2128542959690094
1772568116704513000,0.145512939453125,0.09219414740800858,-0.3649514317512512,0.3512011468410492
1772568116714584000,0.155583984375,0.07137515395879745,-0.2751035690307617,0.4739116132259369
1772568116724656000,0.16565625,0.05093805864453316,-0.19067153334617615,0.5353467464447021
1772568116734728200,0.175728271484375,0.03806113824248314,-0.13406124711036682,0.5401532053947449
1772568116744800000,0.185800048828125,0.030361197888851166,-0.0830901488661766,0.49488040804862976
1772568116754871000,0.19587109375,0.03678394481539726,-0.0422002375125885,0.40535905957221985
1772568116764943000,0.205943115234375,0.03931961953639984,-0.01702604815363884,0.2902684211730957
1772568116775015200,0.21601513671875,0.02102423831820488,-0.046530675143003464,0.1661217212677002
1772568116785086200,0.226086181640625,-0.0032815388403832912,-0.13642022013664246,0.047715336084365845
1772568116795158300,0.236158203125,0.04582928121089935,-0.25071457028388977,-0.015641529113054276
1772568116805230000,0.24622998046875,0.10983706265687943,-0.2850648760795593,-0.02996271476149559
1772568116815301000,0.256301025390625,0.162816122174263,-0.2715245485305786,-0.01671908050775528
1772568116825373200,0.266373291015625,0.22766141593456268,-0.2400534301996231,0.004700878635048866
1772568116835445200,0.2764453125,0.31780943274497986,-0.1914006620645523,0.02529856562614441
1772568116845516300,0.286516357421875,0.42700424790382385,-0.1472148448228836,0.0442681647837162
1772568116855588000,0.296588134765625,0.5251824855804443,-0.14740818738937378,0.0648309588432312
1772568116865660200,0.30666015625,0.6020760536193848,-0.14786216616630554,0.0961780846118927
1772568116875732200,0.316732177734375,0.6424152255058289,-0.13667982816696167,0.1475728303194046
1772568116885803300,0.32680322265625,0.6382471323013306,-0.16626155376434326,0.20507068932056427
1772568116895875300,0.336875244140625,0.6138086318969727,-0.1833297461271286,0.2550728917121887
1772568116905947100,0.346947021484375,0.587563157081604,-0.12889991700649261,0.29081907868385315
1772568116916018200,0.35701806640625,0.5940796136856079,0.0015150774270296097,0.3281789720058441
1772568116926090200,0.36709033203125,0.6331636905670166,0.12152813374996185,0.34582018852233887
1772568116936162300,0.377162353515625,0.7055180072784424,0.20749817788600922,0.32620707154273987
1772568116946233000,0.387233154296875,0.7980626821517944,0.255736768245697,0.2785957157611847
1772568116956305200,0.39730517578125,0.884628176689148,0.28150153160095215,0.20123061537742615
1772568116966377000,0.407376953125,0.9629685878753662,0.2959631383419037,0.11983083188533783
1772568116976448000,0.417447998046875,1.0194021463394165,0.3048519492149353,0.03981563448905945
1772568116986520000,0.42752001953125,1.0539315938949585,0.35425207018852234,-0.0313626304268837
1772568116996592000,0.437592041015625,1.094481348991394,0.46083229780197144,-0.0909375473856926
1772568117006664000,0.447663818359375,1.140565276145935,0.6367200016975403,-0.13628838956356049
1772568117016735000,0.45773486328125,1.1825132369995117,0.840499758720398,-0.16261667013168335
1772568117026807000,0.46780712890625,1.2148703336715698,0.9880119562149048,-0.17676712572574615
1772568117036879000,0.477879150390625,1.2406619787216187,1.1424022912979126,-0.1887846291065216
1772568117046950100,0.4879501953125,1.222677230834961,1.2655516862869263,-0.1907043308019638
1772568117057022200,0.498022216796875,1.213430643081665,1.2623801231384277,-0.19795505702495575
1772568117067094000,0.508093994140625,1.2364470958709717,1.189576506614685,-0.21014747023582458
1772568117077165000,0.5181650390625,1.2877086400985718,1.0984503030776978,-0.2558872699737549
1772568117087237000,0.528237060546875,1.3186700344085693,1.0567333698272705,-0.3330109715461731
1772568117097309200,0.53830908203125,1.260566234588623,1.0982613563537598,-0.3764101266860962
1772568117107380200,0.548380126953125,1.1619436740875244,1.1506587266921997,-0.3713398277759552
1772568117117452000,0.5584521484375,1.0857837200164795,1.074650764465332,-0.37313613295555115
1772568117127524000,0.568524169921875,1.0392382144927979,0.8233370184898376,-0.40442803502082825
1772568117137596200,0.57859619140625,0.9192681312561035,0.4789535403251648,-0.48670265078544617
1772568117147667200,0.588667236328125,0.7078578472137451,0.20389807224273682,-0.5877141356468201
1772568117157739300,0.5987392578125,0.48184147477149963,0.032429128885269165,-0.6873824000358582
1772568117167811000,0.60881103515625,0.2681189477443695,-0.028756029903888702,-0.7782851457595825
1772568117177882000,0.618882080078125,0.09268029034137726,-0.04123986139893532,-0.8317936658859253
1772568117187954200,0.6289541015625,-0.06875275075435638,-0.03733854368329048,-0.846498429775238
1772568117198026200,0.639026123046875,-0.2223290055990219,-0.10737435519695282,-0.8815504312515259
1772568117208097300,0.64909716796875,-0.3098052442073822,-0.20744137465953827,-0.979525625705719
1772568117218169000,0.659169189453125,-0.3282705545425415,-0.2293970137834549,-1.0116769075393677
1772568117228241200,0.6692412109375,-0.3260991871356964,-0.17383922636508942,-0.9759000539779663
1772568117238312200,0.679312255859375,-0.30671003460884094,-0.07597764581441879,-0.8700575232505798
1772568117248384300,0.68938427734375,-0.27767860889434814,-0.014970709569752216,-0.735803484916687
1772568117258456300,0.699456298828125,-0.24794575572013855,0.06470946967601776,-0.59099942445755
1772568117268527000,0.709527099609375,-0.21691930294036865,0.11020267754793167,-0.4486718773841858
1772568117278599000,0.719598876953125,-0.1862087994813919,0.10361934453248978,-0.28702598810195923
1772568117288671000,0.7296708984375,-0.1494985967874527,0.048619575798511505,-0.12263436615467072
1772568117298743300,0.739743408203125,-0.07294896990060806,0.03130556643009186,0.03511504828929901
1772568117308814000,0.74981396484375,0.02758953347802162,0.10348842293024063,0.1602363884449005
1772568117318886100,0.75988623046875,0.09783759713172913,0.1419828236103058,0.241252139210701
1772568117328958000,0.7699580078125,0.1225903332233429,0.0914086252450943,0.2852439880371094
1772568117339029000,0.780029052734375,0.11100984364748001,0.026358511298894882,0.3032437860965729
1772568117349101000,0.79010107421875,0.09954699873924255,0.0084994463250041,0.30961039662361145
1772568117359171600,0.800171630859375,0.1192362830042839,0.03799635171890259,0.34420111775398254
1772568117369242600,0.81024267578125,0.1764393299818039,0.07748659700155258,0.3939796984195709
1772568117379314700,0.820314697265625,0.26074326038360596,0.1277066320180893,0.4516432583332062
1772568117389386800,0.83038671875,0.343536376953125,0.1646614968776703,0.4979652464389801
1772568117399457800,0.840457763671875,0.3834078907966614,0.1457463949918747,0.4827024042606354
1772568117409529600,0.850529541015625,0.37834280729293823,0.06429366022348404,0.3939637839794159
1772568117419601700,0.8606015625,0.33215054869651794,-0.03721991926431656,0.2843547463417053
1772568117429673700,0.870673828125,0.25216296315193176,-0.13458536565303802,0.199661985039711
1772568117439744800,0.880744873046875,0.18417219817638397,-0.21929652988910675,0.16585315763950348
1772568117449816600,0.890816650390625,0.2493187040090561,-0.2983577847480774,0.18718162178993225
1772568117459888600,0.900888671875,0.4066827595233917,-0.3772736191749573,0.2458483874797821
1772568117469959700,0.910959716796875,0.5287490487098694,-0.4551156759262085,0.2900008261203766
1772568117480031700,0.92103173828125,0.599542498588562,-0.4738004207611084,0.27890607714653015
1772568117490103800,0.931103759765625,0.6953072547912598,-0.3689742982387543,0.13074588775634766
1772568117500174600,0.941174560546875,0.7592657208442688,-0.4422575533390045,-0.06791181117296219
1772568117510246400,0.951246337890625,0.8077069520950317,-0.4201941192150116,-0.2036765217781067
1772568117520318700,0.961318603515625,0.8797845840454102,-0.3233528137207031,-0.2377210408449173
1772568117530389500,0.971389404296875,0.9678223133087158,-0.22428271174430847,-0.18923050165176392
1772568117540461600,0.981461669921875,1.028266429901123,-0.08911770582199097,-0.0678313821554184
1772568117550533600,0.99153369140625,1.063431978225708,0.019256845116615295,0.06099348142743111
1772568117560604700,1.001604736328125,1.0911555290222168,0.04347323626279831,0.14696617424488068
1772568117570676500,1.011676513671875,1.1436522006988525,0.08959139138460159,0.18170328438282013
1772568117580748500,1.02174853515625,1.2120099067687988,0.12644875049591064,0.15925604104995728
1772568117590819600,1.031819580078125,1.2767584323883057,0.19094251096248627,0.0971054881811142
1772568117600891600,1.0418916015625,1.3154267072677612,0.24525849521160126,0.025310125201940536
1772568117610963500,1.05196337890625,1.3784937858581543,0.10341496020555496,0.03831594064831734
1772568117621035500,1.062035400390625,1.4372366666793823,-0.025181366130709648,0.10001871734857559
1772568117631106600,1.0721064453125,1.4822617769241333,-0.09346858412027359,0.10768228769302368
1772568117641178600,1.0821787109375,1.5659047365188599,-0.07223439961671829,0.04417841136455536
1772568117651250700,1.092250732421875,1.6650841236114502,-0.1769946962594986,-0.10168181359767914
1772568117661321700,1.10232177734375,1.7538082599639893,-0.2815658450126648,-0.25886425375938416
1772568117671393500,1.1123935546875,1.8062145709991455,-0.36092865467071533,-0.3763831555843353
1772568117681465600,1.122465576171875,1.8699288368225098,-0.32496052980422974,-0.42267102003097534
1772568117691536600,1.13253662109375,1.9906200170516968,-0.2630596160888672,-0.4578764736652374
1772568117701608700,1.142608642578125,2.1220779418945312,-0.2032141238451004,-0.48581117391586304
1772568117711680800,1.1526806640625,2.20137619972229,-0.16789159178733826,-0.4882757365703583
1772568117721751800,1.162751708984375,2.186807870864868,-0.1840314120054245,-0.4852147102355957
1772568117731823600,1.17282373046875,2.1090261936187744,-0.2183949053287506,-0.4582603871822357
1772568117741895700,1.182895751953125,1.9861148595809937,-0.23881016671657562,-0.39025604724884033
1772568117751966700,1.192966796875,1.7864534854888916,-0.2750576436519623,-0.25571689009666443
1772568117762038800,1.203038818359375,1.47031569480896,-0.2161026895046234,-0.14043156802654266
1772568117772110600,1.213110595703125,1.1102149486541748,-0.05450303480029106,-0.13339322805404663
1772568117782181600,1.223181640625,0.7493683099746704,0.1329837590456009,-0.2527576982975006
1772568117792253700,1.233253662109375,0.3561350107192993,0.3450942635536194,-0.4694764018058777
1772568117802325800,1.24332568359375,0.033386800438165665,0.388838529586792,-0.6078537702560425
1772568117812397800,1.253397705078125,-0.18419109284877777,0.29982084035873413,-0.6149424910545349
1772568117822468600,1.263468505859375,-0.3498769998550415,0.27357617020606995,-0.5744725465774536
1772568117832540400,1.27354052734375,-0.5077289938926697,0.35295847058296204,-0.5360589027404785
1772568117842612700,1.28361279296875,-0.5757676959037781,0.5473513603210449,-0.5231164693832397
1772568117852683500,1.29368359375,-0.5311986804008484,0.8135578632354736,-0.5857051610946655
1772568117862755600,1.303755615234375,-0.4123080372810364,0.6819849014282227,-0.6218434572219849
1772568117872827600,1.31382763671875,-0.26673054695129395,0.4587762653827667,-0.5659640431404114
1772568117882898700,1.323898681640625,-0.14739561080932617,0.31235194206237793,-0.48570942878723145
1772568117892970500,1.333970458984375,-0.09239787608385086,0.2392023354768753,-0.4667213559150696
1772568117903042600,1.34404248046875,-0.0300492774695158,0.20628991723060608,-0.4659130871295929
1772568117913113600,1.354113525390625,0.012616111896932125,0.3840658366680145,-0.4717329740524292
1772568117923185700,1.364185546875,0.009164389222860336,0.6323044300079346,-0.46945545077323914
1772568117933257500,1.374257568359375,0.02010715752840042,0.8241236209869385,-0.44641783833503723
1772568117943328500,1.38432861328125,0.04217863455414772,1.003464937210083,-0.4020426571369171
1772568117953400600,1.394400634765625,0.11511943489313126,0.7708532214164734,-0.4004038870334625
1772568117963472600,1.40447265625,0.19223979115486145,0.7118220925331116,-0.298530250787735
1772568117973543700,1.414543701171875,0.21904155611991882,0.834477961063385,-0.19890844821929932
1772568117983615700,1.42461572265625,0.24062222242355347,0.9618668556213379,-0.12410876154899597
1772568117993687600,1.4346875,0.27128130197525024,1.1236310005187988,-0.12743671238422394
1772568118003758600,1.444758544921875,0.2955986261367798,1.170912742614746,-0.16843581199645996
1772568118013830700,1.45483056640625,0.26548370718955994,1.064858317375183,-0.195505291223526
1772568118023902700,1.46490283203125,0.2692614197731018,0.9608097076416016,-0.1274077445268631
1772568118033974500,1.474974609375,0.22165504097938538,1.0644930601119995,-0.017805714160203934
1772568118044045600,1.485045654296875,0.20605239272117615,1.0346616506576538,-0.007490759715437889
1772568118054117600,1.49511767578125,0.2191275656223297,1.0549601316452026,-0.031315289437770844
1772568118064189700,1.505189697265625,0.17378218472003937,1.1305489540100098,-0.10969504714012146
1772568118074260700,1.5152607421875,0.2352321445941925,0.7656888365745544,-0.2214183658361435
1772568118084332800,1.525332763671875,0.25763171911239624,0.7216241359710693,-0.22630898654460907
1772568118094404600,1.535404541015625,0.2282642424106598,0.45609527826309204,-0.22886094450950623
1772568118104475600,1.5454755859375,0.21660226583480835,0.2444285899400711,-0.14578096568584442
1772568118114547700,1.555547607421875,0.1450139731168747,0.17851221561431885,-0.026908431202173233
1772568118124619800,1.565619873046875,0.10026329010725021,0.058228958398103714,0.021204236894845963
1772568118134690600,1.575690673828125,0.07776114344596863,-0.036183785647153854,0.04433543235063553
1772568118144762600,1.5857626953125,0.08074521273374557,-0.12950360774993896,0.06580609828233719
1772568118154834700,1.595834716796875,0.09415584057569504,-0.24560335278511047,0.10135328769683838
1772568118164905500,1.605905517578125,0.08571841567754745,-0.09651932865381241,0.15985442698001862
1772568118174977500,1.6159775390625,0.09316037595272064,0.0544593520462513,0.08918414264917374
1772568118185049600,1.626049560546875,0.22756239771842957,-0.12836451828479767,-0.0921076163649559
1772568118195120600,1.63612060546875,0.31231656670570374,0.1582174003124237,-0.15059137344360352
1772568118205192400,1.6461923828125,0.32081788778305054,0.16738319396972656,-0.18226967751979828
1772568118215264500,1.656264404296875,0.3523874282836914,-0.19403207302093506,-0.2054804563522339
1772568118225335600,1.66633544921875,0.2976224422454834,-0.13248376548290253,-0.06484797596931458
1772568118235407600,1.67640771484375,0.2185569852590561,0.07831107079982758,0.06026000529527664
1772568118245479700,1.686479736328125,0.1951129138469696,0.13278868794441223,0.037646837532520294
1772568118255550700,1.69655078125,0.16801463067531586,0.14021609723567963,-0.036195460706949234
1772568118265622500,1.70662255859375,0.0740085020661354,0.18060000240802765,-0.0047738878056406975
1772568118275694600,1.716694580078125,-0.05341394618153572,0.12422442436218262,0.09724721312522888
1772568118285765600,1.726765625,-0.16825078427791595,0.1007571816444397,0.19446031749248505
1772568118295837700,1.736837646484375,-0.23033864796161652,0.08884669840335846,0.27636539936065674
1772568118305909800,1.74690966796875,-0.22154514491558075,0.17363882064819336,0.3121446967124939
1772568118315980800,1.756980712890625,-0.14289632439613342,0.3563705384731293,0.32462677359580994
1772568118326052600,1.767052490234375,-0.0027189739048480988,0.7239344716072083,0.36546021699905396
1772568118336124700,1.777124755859375,0.14278484880924225,0.726090669631958,0.3223830759525299
1772568118346196700,1.78719677734375,0.25489726662635803,0.9899668097496033,0.3653491735458374
1772568118356272600,1.797272705078125,0.310956746339798,1.0440762042999268,0.38279616832733154
1772568118366344700,1.8073447265625,0.37599432468414307,1.0170326232910156,0.31929975748062134
1772568118376416800,1.817416748046875,0.4228403866291046,1.2080737352371216,0.3149457573890686
1772568118386487800,1.82748779296875,0.511160135269165,1.1059774160385132,0.2246914803981781
1772568118396559600,1.8375595703125,0.5524115562438965,1.32152259349823,0.20258578658103943
1772568118406631700,1.847631591796875,0.5253362655639648,1.3794386386871338,0.08866401016712189
1772568118416702700,1.85770263671875,0.47442013025283813,1.3810087442398071,-0.12689515948295593
1772568118426774800,1.86777490234375,0.36401158571243286,1.3563848733901978,-0.3033202588558197
1772568118436846800,1.877846923828125,0.2333703339099884,1.143237829208374,-0.49946367740631104
1772568118446918000,1.88791796875,0.1346442848443985,1.0787298679351807,-0.56753009557724
1772568118456989700,1.89798974609375,0.10344593971967697,1.0254820585250854,-0.541572630405426
1772568118467061800,1.908061767578125,0.13748006522655487,1.0022081136703491,-0.45661941170692444
1772568118477132800,1.9181328125,0.18663634359836578,1.0348269939422607,-0.35876116156578064
1772568118487204900,1.928204833984375,0.21526478230953217,1.0426803827285767,-0.309859961271286
1772568118497276700,1.938276611328125,0.21060210466384888,1.0273250341415405,-0.29374685883522034
1772568118507347700,1.94834765625,0.18442696332931519,1.0349386930465698,-0.2756789028644562
1772568118517419800,1.958419677734375,0.13024994730949402,0.8419301509857178,-0.2836501896381378
1772568118527491800,1.968491943359375,0.12298537790775299,0.7368255257606506,-0.32869890332221985
1772568118537563000,1.97856298828125,0.08256888389587402,0.6734414100646973,-0.3813369572162628
1772568118547635000,1.988635009765625,0.037741754204034805,0.47772303223609924,-0.4079805612564087
1772568118557706800,1.998706787109375,-0.0012628217227756977,0.32120922207832336,-0.37204036116600037
1772568118567777800,2.00877783203125,-0.015351476147770882,0.13700713217258453,-0.2609522044658661
1772568118577849900,2.018849853515625,-0.013263099826872349,0.014142710715532303,-0.08230946213006973
1772568118587922000,2.028921875,-0.03959830105304718,-0.24086667597293854,0.08721858263015747
1772568118597992700,2.03899267578125,-0.04106181114912033,-0.4449326992034912,0.17812564969062805
1772568118608064800,2.049064697265625,-0.07668878138065338,-0.6765304803848267,0.2747661769390106
1772568118618136600,2.059136474609375,-0.15637363493442535,-0.948331356048584,0.37849852442741394
1772568118628207600,2.06920751953125,-0.2264762818813324,-1.1781152486801147,0.43973180651664734
1772568118638279700,2.07927978515625,-0.2557290196418762,-1.4092459678649902,0.4910386800765991
1772568118648351700,2.089351806640625,-0.20834046602249146,-1.6869819164276123,0.5563905239105225
1772568118658422800,2.0994228515625,-0.027727879583835602,-1.9751933813095093,0.5628286600112915
1772568118668494600,2.10949462890625,0.13546158373355865,-2.166468381881714,0.4773558974266052
1772568118678566700,2.119566650390625,0.12685632705688477,-2.1755943298339844,0.5675453543663025
1772568118688638700,2.129638671875,0.17605343461036682,-2.256054639816284,0.6408488750457764
1772568118698709800,2.139709716796875,0.25460711121559143,-2.357490301132202,0.6793339252471924
1772568118708781800,2.14978173828125,0.2536955177783966,-2.3935718536376953,0.6882810592651367
1772568118718853600,2.159853515625,0.16405680775642395,-2.158201217651367,0.637559175491333
1772568118728924700,2.169924560546875,0.12061213701963425,-1.8584604263305664,0.5427908301353455
1772568118738996700,2.179996826171875,0.10848544538021088,-1.4152566194534302,0.36224696040153503
1772568118749068800,2.19006884765625,0.15936006605625153,-0.9606567621231079,0.16903942823410034
1772568118759139800,2.200139892578125,0.2749943435192108,-0.5250092148780823,0.03197246044874191
1772568118769211600,2.210211669921875,0.3866923749446869,-0.3958887457847595,-0.13741496205329895
1772568118779283700,2.22028369140625,0.4427868723869324,-0.35994961857795715,-0.30827993154525757
1772568118789354800,2.230354736328125,0.35408124327659607,-0.37132638692855835,-0.42788970470428467
1772568118799426800,2.2404267578125,0.1583525389432907,-0.36963003873825073,-0.5241687297821045
1772568118809499000,2.250498779296875,-0.04390228912234306,-0.265076220035553,-0.5999907851219177
1772568118819570000,2.26056982421875,-0.16713719069957733,-0.033324118703603745,-0.6371926069259644
1772568118829641700,2.270641845703125,-0.2324373573064804,0.2430747151374817,-0.6366490125656128
1772568118839713800,2.2807138671875,-0.23526287078857422,0.46015653014183044,-0.591338574886322
1772568118849784800,2.290784912109375,-0.20601576566696167,0.5646030306816101,-0.5183711647987366
1772568118859857000,2.30085693359375,-0.2445322871208191,0.5717001557350159,-0.4656064212322235
1772568118869929000,2.310928955078125,-0.35122278332710266,0.49359577894210815,-0.4644623398780823
1772568118879999700,2.320999755859375,-0.41613316535949707,0.32403242588043213,-0.47448062896728516
1772568118890071800,2.33107177734375,-0.4353502690792084,0.20416699349880219,-0.441244900226593
1772568118900143900,2.341143798828125,-0.4056313633918762,0.16188251972198486,-0.3853919208049774
1772568118910216000,2.3512158203125,-0.3251136243343353,0.2521860599517822,-0.309962660074234
1772568118920286700,2.36128662109375,-0.22016699612140656,0.3353145718574524,-0.24482394754886627
1772568118930358500,2.371358642578125,-0.12984243035316467,0.3107439875602722,-0.19212132692337036
1772568118940430600,2.3814306640625,-0.09156695753335953,0.19491221010684967,-0.1498142033815384
1772568118950501600,2.391501708984375,-0.06732393801212311,-0.030459925532341003,-0.12296901643276215
1772568118960573700,2.40157373046875,-0.017732853069901466,-0.24709197878837585,-0.07591266930103302
1772568118970645800,2.411645751953125,0.04367751255631447,-0.3713337481021881,-0.007516301237046719
1772568118980716800,2.421716796875,0.08794735372066498,-0.47419533133506775,0.019717976450920105
1772568118990788600,2.43178857421875,0.10978048294782639,-0.5854536890983582,0.010346577502787113
1772568119000860700,2.441860595703125,0.08336114883422852,-0.7180984616279602,0.022818321362137794
1772568119010931700,2.451931640625,0.04307098314166069,-0.8259820342063904,0.07011845707893372
1772568119021003800,2.462003662109375,0.024702997878193855,-0.9543221592903137,0.11802253127098083
1772568119031075800,2.472075927734375,0.03419823199510574,-1.0849124193191528,0.14454735815525055
1772568119041147600,2.482147705078125,0.06398995220661163,-1.1868544816970825,0.16394981741905212
1772568119051218700,2.49221875,0.10848551243543625,-1.2839107513427734,0.16380546987056732
1772568119061290800,2.502290771484375,0.14058643579483032,-1.348015308380127,0.15113131701946259
1772568119071362800,2.51236279296875,0.16678102314472198,-1.290625810623169,0.1727316826581955
1772568119081433900,2.522433837890625,0.2213587760925293,-1.1007628440856934,0.19285427033901215
1772568119091505700,2.532505615234375,0.24315382540225983,-1.0049364566802979,0.1327400654554367
1772568119101577700,2.54257763671875,0.24457761645317078,-0.9060219526290894,0.03315826505422592
1772568119111648800,2.552648681640625,0.2238137423992157,-0.8164790272712708,-0.0669984295964241
1772568119121720800,2.562720947265625,0.18812702596187592,-0.7877769470214844,-0.12944065034389496
1772568119131793000,2.57279296875,0.19366240501403809,-0.7746795415878296,-0.15296009182929993
1772568119141864000,2.582864013671875,0.177550807595253,-0.7007664442062378,-0.10753775388002396
1772568119151935700,2.592935791015625,0.1810866892337799,-0.5018498301506042,-0.05411767214536667
1772568119162007800,2.6030078125,0.1985800415277481,-0.3326248824596405,-0.060553789138793945
1772568119172079900,2.613079833984375,0.19367636740207672,-0.20898710191249847,-0.08147425204515457
1772568119182151000,2.62315087890625,0.1796168088912964,-0.11942112445831299,-0.08747858554124832
1772568119192222700,2.63322265625,0.1718803197145462,-0.059603866189718246,-0.07655935734510422
1772568119202294800,2.643294677734375,0.16013062000274658,-0.025231756269931793,-0.06101842597126961
1772568119212365800,2.65336572265625,0.1474374681711197,-0.006555275060236454,-0.05067630857229233
1772568119222438000,2.66343798828125,0.12746794521808624,0.03192046284675598,-0.05290985852479935
1772568119232510000,2.673510009765625,0.10238362848758698,0.08403559774160385,-0.06726615875959396
1772568119242581800,2.683581787109375,0.06518774479627609,0.15178434550762177,-0.07728265970945358
1772568119252652500,2.693652587890625,0.02672610431909561,0.21806590259075165,-0.10253022611141205
1772568119262724600,2.703724609375,0.0013071601279079914,0.26121824979782104,-0.12084600329399109
1772568119272797000,2.713796875,-0.009376376867294312,0.2493208348751068,-0.11864116787910461
1772568119282867700,2.72386767578125,-0.025994891300797462,0.16659311950206757,-0.0968627780675888
1772568119292939800,2.733939697265625,-0.024140531197190285,0.05370091646909714,-0.05315711349248886
1772568119303011600,2.744011474609375,-0.01812669076025486,-0.062020327895879745,0.0106411287561059
1772568119313082600,2.75408251953125,-0.01174788735806942,-0.14904870092868805,0.04523053020238876
1772568119323154700,2.76415478515625,0.0007955520413815975,-0.17946965992450714,0.049876078963279724
1772568119333226800,2.774226806640625,0.003070690669119358,-0.170327290892601,0.04334814101457596
1772568119343298600,2.784298583984375,-0.007554925046861172,-0.13981829583644867,0.031475331634283066
1772568119353369600,2.79436962890625,-0.018753785640001297,-0.13345813751220703,0.022004596889019012
1772568119363437000,2.80443701171875,-0.031553711742162704,-0.1647520512342453,0.00857152696698904
1772568119373508900,2.8145087890625,-0.04709325730800629,-0.2146865874528885,0.018668632954359055
1772568119383580000,2.824579833984375,-0.055226266384124756,-0.25317755341529846,0.059844668954610825
1772568119393652000,2.83465185546875,-0.0515068955719471,-0.2987455725669861,0.0983119085431099
1772568119403724000,2.84472412109375,-0.0426224060356617,-0.315371036529541,0.1243373453617096
1772568119413795800,2.8547958984375,-0.042576864361763,-0.30697914958000183,0.12396050989627838
1772568119423867000,2.864866943359375,-0.05608987808227539,-0.2719927132129669,0.09641507267951965
1772568119433939000,2.87493896484375,-0.06431398540735245,-0.2234845906496048,0.06588991731405258
1772568119444011000,2.885010986328125,-0.06301102042198181,-0.2079543024301529,0.059005074203014374
1772568119454082000,2.89508203125,-0.048947930335998535,-0.23158054053783417,0.08419777452945709
1772568119464154000,2.905154052734375,-0.039976686239242554,-0.30683138966560364,0.1277088224887848
1772568119474226000,2.915225830078125,-0.029761064797639847,-0.41551658511161804,0.17586249113082886
1772568119484297000,2.925296875,-0.01329149678349495,-0.5037844777107239,0.22501465678215027
1772568119494369000,2.935369140625,0.016085566952824593,-0.5185990929603577,0.27009105682373047
1772568119504441000,2.945441162109375,0.03356693685054779,-0.42594364285469055,0.29493167996406555
1772568119514513000,2.955512939453125,0.024511123076081276,-0.29429906606674194,0.26810112595558167
1772568119524584000,2.965583984375,-0.021433692425489426,-0.17373131215572357,0.19095337390899658
1772568119534656000,2.975656005859375,-0.06376384198665619,-0.08284055441617966,0.09044753760099411
1772568119544728000,2.98572802734375,-0.12006496638059616,-0.03540387004613876,0.010185971856117249
1772568119554799000,2.995799072265625,-0.2067657858133316,-0.05031304433941841,-0.025624755769968033
1772568119564871200,3.00587109375,-0.22265978157520294,0.013763658702373505,-0.03715239092707634
1772568119574943000,3.01594287109375,-0.18334485590457916,-0.022580767050385475,-0.07192981243133545
1772568119585015000,3.02601513671875,-0.17448675632476807,0.05163823068141937,-0.0833585187792778
1772568119595086000,3.036086181640625,-0.20945565402507782,0.12240321189165115,-0.0574725903570652
1772568119605158100,3.046158203125,-0.20576655864715576,0.1594347208738327,-0.09090915322303772
1772568119615230200,3.056230224609375,-0.19289550185203552,0.24965916574001312,-0.15698404610157013
1772568119625301200,3.06630126953125,-0.21642711758613586,0.2645309269428253,-0.18089984357357025
1772568119635373000,3.076373046875,-0.2052764594554901,0.21450959146022797,-0.23080696165561676
1772568119645445000,3.086445068359375,-0.1360447108745575,0.1529521495103836,-0.27749404311180115
1772568119655517200,3.09651708984375,-0.222604900598526,0.12694478034973145,-0.2871461510658264
1772568119665588000,3.106587890625,-0.3194178342819214,0.12449043989181519,-0.2584795653820038
1772568119675659800,3.11665966796875,-0.3099345564842224,0.11753985285758972,-0.21206997334957123
1772568119685731800,3.12673193359375,-0.28115808963775635,0.09094077348709106,-0.14679984748363495
1772568119695803000,3.136802978515625,-0.24887338280677795,0.07372716069221497,-0.041381292045116425
1772568119705875000,3.146875,-0.19085943698883057,0.06595952808856964,0.0636206790804863
1772568119715947000,3.156947021484375,-0.14686402678489685,0.04679595306515694,0.11017460376024246
1772568119726018800,3.167018798828125,-0.14393413066864014,0.044003814458847046,0.10132984817028046
1772568119736089900,3.17708984375,-0.13292542099952698,0.001473933458328247,0.11592210829257965
1772568119746162000,3.187161865234375,-0.16271857917308807,-0.14381013810634613,0.20844845473766327
1772568119756234000,3.19723388671875,-0.10582386702299118,-0.2316715568304062,0.36849936842918396
1772568119766305000,3.207304931640625,-0.16990527510643005,-0.3757304847240448,0.48699480295181274
1772568119776377000,3.217377197265625,-0.21630153059959412,-0.26740241050720215,0.560260534286499
1772568119786449000,3.227448974609375,-0.19954216480255127,-0.1872083842754364,0.5339523553848267
1772568119796520000,3.23752001953125,-0.18768924474716187,-0.19529719650745392,0.4362491965293884
1772568119806592000,3.247592041015625,-0.1781345009803772,-0.19321836531162262,0.38061198592185974
1772568119816664000,3.2576640625,-0.15696316957473755,-0.2235885113477707,0.38329726457595825
1772568119826735900,3.26773583984375,-0.10722878575325012,-0.2658662497997284,0.4314728081226349
1772568119836807000,3.277806884765625,-0.0034728320315480232,-0.23924076557159424,0.4756067097187042
1772568119846879000,3.28787890625,0.1750440001487732,-0.11013883352279663,0.4654606282711029
1772568119856951000,3.297950927734375,0.2405519038438797,-0.12440991401672363,0.35556450486183167
1772568119867022000,3.30802197265625,0.1768767088651657,-0.026904556900262833,0.19587558507919312
1772568119877094100,3.31809423828125,0.11281678080558777,0.03237074986100197,0.036591120064258575
1772568119887166000,3.328166015625,0.08583035320043564,-0.007116625085473061,-0.06052136421203613
1772568119897238000,3.338238037109375,0.05816596746444702,0.0668092668056488,-0.050779785960912704
1772568119907309000,3.34830908203125,-0.02766762673854828,0.07825127243995667,-0.0006661806255578995
1772568119917381000,3.358381103515625,-0.0678161159157753,0.12953896820545197,0.018787942826747894
1772568119927453000,3.368452880859375,-0.046672992408275604,0.21102367341518402,0.008093592710793018
1772568119937524000,3.37852392578125,0.005462646950036287,0.24365192651748657,-0.062188826501369476
1772568119947596000,3.388595947265625,0.08096978068351746,0.272966206073761,-0.12564493715763092
1772568119957668000,3.398668212890625,0.18856362998485565,0.2511535882949829,-0.16411642730236053
1772568119967740200,3.408740234375,0.21335157752037048,0.1759873628616333,-0.12867382168769836
1772568119977811200,3.418811279296875,0.19769485294818878,0.16092239320278168,0.002819223329424858
1772568119987883000,3.428883056640625,0.19459383189678192,0.14221976697444916,0.09229622781276703
1772568119997955000,3.438955078125,0.17736025154590607,0.10862691700458527,0.07883688062429428
1772568120008026000,3.449026123046875,0.15243825316429138,0.08385412395000458,0.010095009580254555
1772568120018098200,3.45909814453125,0.12651850283145905,0.05434869974851608,-0.056827299296855927
1772568120028170000,3.469169921875,0.12069426476955414,-0.024723220616579056,-0.0829743966460228
1772568120038242000,3.479241943359375,0.12504027783870697,-0.09935777634382248,-0.0370471253991127
1772568120048312800,3.489312744140625,0.1769198775291443,-0.114094078540802,0.029508283361792564
1772568120058385000,3.499385009765625,0.20933081209659576,-0.12386122345924377,0.07008606940507889
1772568120068457000,3.50945703125,0.19538921117782593,-0.0929437130689621,0.06103000417351723
1772568120078528000,3.519528076171875,0.17173607647418976,-0.049252696335315704,0.004331308417022228
1772568120088599800,3.529599853515625,0.13954275846481323,-0.034388989210128784,-0.027617821469902992
1772568120098671900,3.539671875,0.09150705486536026,-0.04909123480319977,-0.042911022901535034
1772568120108744000,3.549743896484375,0.06071961298584938,-0.04754677787423134,-0.03711050748825073
1772568120118815000,3.55981494140625,0.04790501296520233,-0.05030021816492081,-0.0154044134542346
1772568120128887000,3.569886962890625,0.028497789055109024,-0.04135391116142273,-0.010483993217349052
1772568120138958800,3.579958740234375,0.006764264777302742,-0.031986773014068604,-0.010938062332570553
1772568120149030000,3.59002978515625,-0.018449150025844574,-0.02949601411819458,-0.007210773881524801
1772568120159102000,3.60010205078125,-0.046246957033872604,0.003817467950284481,-0.0233956016600132
1772568120169174000,3.610174072265625,-0.031011804938316345,0.0323387086391449,-0.06765995174646378
1772568120179245800,3.620245849609375,0.005582958459854126,0.0845036432147026,-0.10099207609891891
1772568120189316900,3.63031689453125,0.0015707719139754772,0.09807571768760681,-0.1489374041557312
1772568120199389000,3.640388916015625,-0.013955988921225071,0.12076692283153534,-0.18678785860538483
1772568120209461000,3.6504609375,0.000964924693107605,0.09923562407493591,-0.18197479844093323
1772568120219532000,3.660531982421875,0.01495584100484848,0.02117224782705307,-0.1223042830824852
1772568120229604000,3.67060400390625,0.0029231375083327293,-0.020239228382706642,-0.0413154736161232
1772568120239676000,3.680676025390625,0.006463011261075735,-0.03983902931213379,0.018164897337555885
1772568120249748000,3.690748046875,0.02920411340892315,-0.04045237600803375,0.0505605973303318
1772568120259819000,3.700819091796875,0.056566763669252396,-0.03490874171257019,0.06123880669474602
1772568120269891000,3.71089111328125,0.0703476071357727,-0.018818262964487076,0.06391641497612
1772568120279963100,3.720963134765625,0.09337835758924484,0.0008278759196400642,0.045201316475868225
1772568120290034200,3.7310341796875,0.11341393738985062,-0.009417572990059853,0.011018923483788967
1772568120300106000,3.74110595703125,0.12202873080968857,-0.03106960467994213,-0.007293238304555416
1772568120310178000,3.751177978515625,0.11677011102437973,-0.034990791231393814,-0.0036719953641295433
1772568120320250000,3.76125,0.09465975314378738,-0.005021174903959036,-0.0044499048963189125
1772568120330321200,3.771321044921875,0.09538742899894714,0.03530438616871834,-0.016901304945349693
1772568120340393000,3.78139306640625,0.09406916052103043,0.05769437924027443,-0.035439036786556244
1772568120350465000,3.791465087890625,0.09546958655118942,0.07161825150251389,-0.050972361117601395
1772568120360537000,3.801537109375,0.10501169413328171,0.0704917386174202,-0.062409039586782455
1772568120370609200,3.811609130859375,0.11692481487989426,0.05012373626232147,-0.08373798429965973
1772568120380681000,3.821680908203125,0.12123114615678787,0.01569093018770218,-0.09824501723051071
1772568120390753000,3.8317529296875,0.12689337134361267,-0.024232495576143265,-0.10533224791288376
1772568120400824000,3.841823974609375,0.13844697177410126,-0.07622778415679932,-0.0962282344698906
1772568120410896100,3.851896240234375,0.15419402718544006,-0.11995260417461395,-0.06467671692371368
1772568120420968000,3.861968017578125,0.15885642170906067,-0.13478560745716095,-0.024428628385066986
1772568120431040000,3.8720400390625,0.1514035016298294,-0.11190148442983627,-0.00388236902654171
1772568120441111000,3.882111083984375,0.13061966001987457,-0.07068480551242828,-0.005602238699793816
1772568120451183000,3.89218310546875,0.11610962450504303,-0.028852570801973343,-0.02554551512002945
1772568120461255200,3.902255126953125,0.10122228413820267,-0.007709468714892864,-0.05574469640851021
1772568120471326200,3.912326171875,0.07931957393884659,-0.00966851506382227,-0.07968675345182419
1772568120481398000,3.92239794921875,0.05812374874949455,-0.03185237944126129,-0.09010877460241318
1772568120491470000,3.932469970703125,0.04652204364538193,-0.05195711553096771,-0.09200726449489594
1772568120501542100,3.942542236328125,0.04393132030963898,-0.06288912892341614,-0.08643459528684616
1772568120511613200,3.95261328125,0.042162470519542694,-0.07122232764959335,-0.08476807177066803
1772568120521685200,3.962685302734375,0.04476011544466019,-0.0844089686870575,-0.0843355804681778
1772568120531757000,3.972757080078125,0.03229992091655731,-0.08209005743265152,-0.08085422217845917
1772568120541829000,3.9828291015625,0.01575610041618347,-0.08474069833755493,-0.07708478718996048
1772568120551900200,3.992900146484375,-0.0046415431424975395,-0.08917026221752167,-0.0670984536409378
1772568120561972200,4.00297216796875,-0.017691832035779953,-0.08249984681606293,-0.04624217003583908
1772568120572044000,4.0130439453125,-0.026162823662161827,-0.08147944509983063,-0.024735596030950546
1772568120582114800,4.02311474609375,-0.03947223722934723,-0.08683133125305176,-0.01989183947443962
1772568120592187000,4.033186767578125,-0.05053890869021416,-0.0759149119257927,-0.01642397977411747
1772568120602259200,4.04325927734375,-0.05956222862005234,-0.06173011660575867,-0.006369214970618486
1772568120612331300,4.053331298828125,-0.06285164505243301,-0.02744542807340622,0.008588206022977829
1772568120622399000,4.06339892578125,-0.053411539644002914,-0.0018945294432342052,0.011382393538951874
1772568120632471000,4.073470947265625,-0.06766901910305023,0.019746024161577225,-0.005739499349147081
1772568120642543000,4.083543212890625,-0.08939402550458908,0.03727814927697182,-0.018992986530065536
1772568120652615200,4.093615234375,-0.10640183091163635,0.048028215765953064,-0.01924317330121994
1772568120662686200,4.103686279296875,-0.11029670387506485,0.06619150936603546,0.0002959081903100014
1772568120672758000,4.113758056640625,-0.09859495609998703,0.05063746124505997,0.022849712520837784
1772568120682830000,4.123830078125,-0.09238499402999878,0.029818199574947357,0.042655907571315765
1772568120692901000,4.133901123046875,-0.09187755733728409,0.02069604955613613,0.04583965986967087
1772568120702973200,4.14397314453125,-0.0882018655538559,0.023381581529974937,0.041728802025318146
1772568120713045200,4.154045166015625,-0.08845170587301254,0.04416041076183319,0.04420584812760353
1772568120723117000,4.164116943359375,-0.08502314984798431,0.0620185062289238,0.04311741515994072
1772568120733188000,4.17418798828125,-0.07521051168441772,0.06918792426586151,0.028053760528564453
1772568120743260200,4.18426025390625,-0.06977260112762451,0.0682627409696579,0.012043369933962822
1772568120753332200,4.194332275390625,-0.07153313606977463,0.05841253697872162,0.002989398315548897
1772568120763403000,4.204403076171875,-0.07028011977672577,0.03640177845954895,0.001519600860774517
1772568120773474800,4.214474853515625,-0.06703436374664307,0.012185408733785152,0.0007076598703861237
1772568120783547100,4.224547119140625,-0.0585830882191658,-0.011319383978843689,0.006256356835365295
1772568120793619200,4.234619140625,-0.04060970991849899,-0.028086205944418907,0.01474796049296856
1772568120803690000,4.24468994140625,-0.027950109913945198,-0.03942647576332092,0.02330549620091915
1772568120813762000,4.254761962890625,-0.013563346117734909,-0.03129972517490387,0.02879280224442482
1772568120823833900,4.264833740234375,-0.008893227204680443,-0.01619134657084942,0.022195354104042053
1772568120833905000,4.27490478515625,0.0014646374620497227,-0.0016342890448868275,0.006671220064163208
1772568120843977000,4.28497705078125,0.01467205211520195,0.018553003668785095,0.0038738343864679337
1772568120854049000,4.295049072265625,0.018474020063877106,0.04147064685821533,-0.005929778795689344
1772568120864121000,4.30512109375,0.018336337059736252,0.052615441381931305,-0.022143369540572166
1772568120874192000,4.31519189453125,0.005709716118872166,0.048778288066387177,-0.032158732414245605
1772568120884264000,4.325263916015625,0.0010465211234986782,0.0276652779430151,-0.029864154756069183
1772568120894336000,4.3353359375,0.011743228882551193,0.00012441305443644524,-0.01078762300312519
1772568120904408000,4.345407958984375,0.03295743465423584,-0.039219263941049576,0.008204709738492966
1772568120914479000,4.35547900390625,0.048977263271808624,-0.07896018773317337,0.003953232429921627
1772568120924551000,4.365551025390625,0.05410651117563248,-0.11533896625041962,0.0003574332222342491
1772568120934623000,4.375623046875,0.059763628989458084,-0.14327743649482727,0.005752962082624435
1772568120944694000,4.385694091796875,0.06252586096525192,-0.1557663381099701,0.015463380143046379
1772568120954766000,4.39576611328125,0.06202279031276703,-0.15901033580303192,0.01342206634581089
1772568120964838100,4.405838134765625,0.059481602162122726,-0.14800135791301727,0.010106964036822319
1772568120974910000,4.415909912109375,0.05554448813199997,-0.1362547129392624,0.0058000413700938225
1772568120984981000,4.42598095703125,0.04322736710309982,-0.1287352740764618,0.005952107720077038
1772568120995053000,4.436052978515625,0.03464179486036301,-0.1308804750442505,0.009550859220325947
1772568121005125000,4.446125,0.028619591146707535,-0.12953850626945496,0.01719413325190544
1772568121015196200,4.456196044921875,0.02698519080877304,-0.1357974410057068,0.02168145403265953
1772568121025268000,4.46626806640625,0.030074724927544594,-0.13855859637260437,0.01345787849277258
1772568121035340000,4.476340087890625,0.023291373625397682,-0.13411056995391846,0.011218033730983734
1772568121045412000,4.486412109375,0.013880027458071709,-0.11068274825811386,0.006249906495213509
1772568121055483100,4.496483154296875,0.01220395602285862,-0.07783776521682739,0.002371322363615036
1772568121065555200,4.50655517578125,0.006117567420005798,-0.041194263845682144,-0.007971063256263733
1772568121075627000,4.516626953125,0.011886665597558022,-0.004200262948870659,-0.007487350143492222
1772568121085698000,4.526697998046875,0.00833107903599739,0.018566301092505455,-0.005005815997719765
1772568121095770000,4.53677001953125,0.010443435050547123,0.03908684849739075,-0.00007276888936758041
1772568121105842200,4.54684228515625,0.018860623240470886,0.042497292160987854,-0.005833718925714493
1772568121115914000,4.5569140625,0.02572992630302906,0.04776018112897873,-0.011085881851613522
1772568121125985000,4.566985107421875,0.025563478469848633,0.04446132108569145,-0.018463104963302612
1772568121136057000,4.57705712890625,0.018969956785440445,0.04334503039717674,-0.02198690176010132
1772568121146129200,4.587129150390625,0.01412513293325901,0.040359094738960266,-0.020083006471395493
1772568121156200000,4.597199951171875,0.007191990502178669,0.02834031730890274,-0.011959204450249672
1772568121166272300,4.607272216796875,0.00897630862891674,0.013763769529759884,0.005325510166585445
1772568121176344000,4.617343994140625,0.015535114333033562,-0.0035170407500118017,0.02299755997955799
1772568121186416000,4.627416015625,0.027523066848516464,-0.010580543428659439,0.030830981209874153
1772568121196487000,4.63748681640625,0.033276233822107315,-0.01395600475370884,0.029285090044140816
1772568121206560300,4.647560302734375,0.036281075328588486,-0.008173749782145023,0.02269536443054676
1772568121216632000,4.657632080078125,0.04959433153271675,-0.019824983552098274,0.010523646138608456
1772568121226702800,4.667702880859375,0.052757635712623596,-0.028971875086426735,0.005194126628339291
1772568121236775200,4.677775146484375,0.061234135180711746,-0.02635933831334114,0.007280469872057438
1772568121246847200,4.68784716796875,0.07216987013816833,-0.0373305007815361,0.019027139991521835
1772568121256919000,4.6979189453125,0.08130940049886703,-0.03484737128019333,0.023151924833655357
1772568121266989800,4.70798974609375,0.08427296578884125,-0.041255734860897064,0.014214357361197472
1772568121277062000,4.718061767578125,0.08998404443264008,-0.046612441539764404,0.004202490672469139
1772568121287134000,4.728134033203125,0.0892878919839859,-0.05379738658666611,0.005724221467971802
1772568121297205000,4.738205078125,0.08705732971429825,-0.05933690071105957,0.003850312903523445
1772568121307277000,4.748277099609375,0.08971835672855377,-0.06811254471540451,-0.000959356315433979
1772568121317348900,4.758348876953125,0.09030922502279282,-0.06492355465888977,-0.00010025128722190857
1772568121327421000,4.7684208984375,0.09668190777301788,-0.05927152931690216,0.009865297935903072
1772568121337492000,4.778491943359375,0.10020044445991516,-0.05007757991552353,0.018233440816402435
1772568121347564000,4.78856396484375,0.10673131048679352,-0.03239285945892334,0.020994871854782104
1772568121357636000,4.798635986328125,0.11993834376335144,-0.019999807700514793,0.012356195598840714
1772568121367705900,4.808705810546875,0.1268380731344223,-0.006289854645729065,0.001461203210055828
1772568121377778000,4.81877783203125,0.13456055521965027,-0.00007222266867756844,-0.013927562162280083
1772568121387849700,4.828849609375,0.1382056325674057,-0.006139169912785292,-0.03262241929769516
1772568121397921800,4.838921875,0.13771909475326538,-0.032826200127601624,-0.03050244227051735
1772568121407992800,4.848992919921875,0.14419269561767578,-0.06348637491464615,-0.015627356246113777
1772568121418065000,4.85906494140625,0.1552625596523285,-0.0705912783741951,0.007666090503334999
1772568121428136700,4.86913671875,0.16572505235671997,-0.061725616455078125,0.020412245765328407
1772568121438207700,4.879207763671875,0.16503247618675232,-0.05915394425392151,0.0069860778748989105
1772568121448279800,4.88927978515625,0.1507001370191574,-0.07528071850538254,-0.009647227823734283
1772568121458351900,4.899351806640625,0.14043603837490082,-0.11272115260362625,-0.011048899963498116
1772568121468424000,4.909423828125,0.12983877956867218,-0.15915389358997345,-0.004625621251761913
1772568121478495000,4.919494873046875,0.1255054473876953,-0.18086887896060944,0.0025966130197048187
1772568121488566800,4.92956689453125,0.1262737661600113,-0.19442889094352722,0.012339521199464798
1772568121498638800,4.939638916015625,0.1278018206357956,-0.18907131254673004,0.024197585880756378
1772568121508711000,4.9497109375,0.13646401464939117,-0.16996367275714874,0.027189910411834717
1772568121518782000,4.959781982421875,0.1380709707736969,-0.143526092171669,0.02637317031621933
1772568121528854000,4.96985400390625,0.13485494256019592,-0.1038375273346901,0.027612339705228806
1772568121538925800,4.97992578125,0.12809042632579803,-0.046624306589365005,0.02582234889268875
1772568121548996900,4.989996826171875,0.11093887686729431,0.004296931903809309,0.007555993273854256
1772568121559069000,5.00006884765625,0.09145329892635345,0.033341534435749054,-0.009190144017338753
1772568121569141000,5.01014111328125,0.1007663756608963,0.03103576973080635,-0.006828985642641783
1772568121579212800,5.020212890625,0.09738211333751678,0.0165974460542202,0.013246297836303711
1772568121589283800,5.030283935546875,0.06288138777017593,0.02243349701166153,-0.0027686217799782753
1772568121599356000,5.04035595703125,0.054562587291002274,0.017593706026673317,-0.031425654888153076
1772568121609428000,5.050427978515625,0.05519721657037735,0.022586066275835037,-0.034672580659389496
1772568121619499000,5.0604990234375,0.05504126846790314,0.028481071814894676,-0.02345615066587925
1772568121629571000,5.070571044921875,0.05072801187634468,0.02488953247666359,-0.013492465950548649
1772568121639643000,5.080642822265625,0.03546156361699104,0.02032216265797615,-0.009197011590003967
1772568121649715000,5.09071484375,0.02660202607512474,0.016662180423736572,-0.004925034008920193
1772568121659786000,5.100785888671875,0.026678316295146942,-0.0016162085812538862,-0.0011361138895154
1772568121669858000,5.110858154296875,0.030242688953876495,-0.01072741486132145,0.002240775153040886
1772568121679929900,5.120929931640625,0.037485167384147644,0.00030923495069146156,-0.004248151555657387
1772568121690002000,5.131001953125,0.03226910158991814,0.005488284397870302,-0.020196225494146347
1772568121700072700,5.14107275390625,0.028554275631904602,0.010173823684453964,-0.03060828521847725
1772568121710145000,5.15114501953125,0.028626449406147003,0.0035766405053436756,-0.029131565243005753
1772568121720217000,5.161217041015625,0.023231295868754387,-0.0034058517776429653,-0.005684869363903999
1772568121730289000,5.171288818359375,0.02409495785832405,-0.010220881551504135,0.013281630352139473
1772568121740359700,5.181359619140625,0.024229086935520172,-0.02553711086511612,0.011943230405449867
1772568121750431700,5.191431640625,0.027546588331460953,-0.03347066789865494,0.005684003233909607
1772568121760503800,5.20150390625,0.03532624617218971,-0.02638111263513565,0.0008295588195323944
1772568121770574800,5.211574951171875,0.039424847811460495,-0.017017705366015434,-0.0017585009336471558
1772568121780647000,5.22164697265625,0.04034416377544403,-0.006983034312725067,-0.005762613378465176
1772568121790718700,5.23171875,0.04408324137330055,0.004478944465517998,-0.014921756461262703
1772568121800790800,5.241790771484375,0.0514228492975235,0.007109977304935455,-0.029340572655200958
1772568121810861800,5.25186181640625,0.05731642618775368,0.007768843322992325,-0.039250727742910385
1772568121820934000,5.261933837890625,0.058795083314180374,0.007404280826449394,-0.032439179718494415
1772568121831005700,5.272005615234375,0.05197739228606224,0.005521958693861961,-0.015572583302855492
1772568121841077800,5.282077880859375,0.045907292515039444,-0.0023774374276399612,0.0017350474372506142
1772568121851148800,5.292148681640625,0.04324200004339218,-0.006799083668738604,0.009615341201424599
1772568121861220900,5.302220947265625,0.04008620232343674,-0.012019751593470573,-0.005453028250485659
1772568121871293000,5.31229296875,0.024375949054956436,-0.020556248724460602,-0.020745698362588882
1772568121881364700,5.32236474609375,0.009013661183416843,-0.02710653282701969,-0.028347333893179893
1772568121891435800,5.332435791015625,-0.008586904034018517,-0.038681160658597946,-0.021663065999746323
1772568121901507800,5.3425078125,-0.027310587465763092,-0.0409357026219368,-0.00023040734231472015
1772568121911580000,5.352579833984375,-0.030235804617404938,-0.046153098344802856,0.022614188492298126
1772568121921652000,5.36265185546875,-0.02681349590420723,-0.04918532446026802,0.02903236635029316
1772568121931722800,5.37272265625,-0.03311986103653908,-0.04775387421250343,0.027203572914004326
1772568121941794800,5.382794921875,-0.03296199068427086,-0.03806294873356819,0.022489096969366074
1772568121951867000,5.392866943359375,-0.03403950482606888,-0.02976240962743759,0.01782936416566372
1772568121961938000,5.40293798828125,-0.031681276857852936,-0.020106052979826927,0.021411314606666565
1772568121972010000,5.413010009765625,-0.03142667934298515,0.0005664685741066933,0.030386965721845627
1772568121982081800,5.423081787109375,-0.03794530779123306,0.026409927755594254,0.035076744854450226
1772568121992153900,5.43315380859375,-0.04713001474738121,0.056575287133455276,0.021949758753180504
1772568122002225000,5.443224853515625,-0.06613034754991531,0.08035799860954285,0.0011259187012910843
1772568122012297000,5.453296875,-0.07935001701116562,0.08485767245292664,-0.01349270436912775
1772568122022369000,5.463369140625,-0.08350323885679245,0.07888597249984741,-0.014795439317822456
1772568122032440800,5.47344091796875,-0.0759236142039299,0.0753740593791008,-0.012522165663540363
1772568122042512000,5.483511962890625,-0.06284806877374649,0.07434561848640442,-0.008933351375162601
1772568122052584000,5.493583984375,-0.04824063554406166,0.0751243308186531,0.005752383731305599
1772568122062656000,5.503656005859375,-0.029743099585175514,0.08066527545452118,0.012732626870274544
1772568122072727800,5.513727783203125,-0.019386330619454384,0.07547131180763245,0.020324233919382095
1772568122082798800,5.523798828125,-0.019302265718579292,0.0670919418334961,0.01631263829767704
1772568122092871000,5.533870849609375,-0.021605901420116425,0.052591562271118164,0.0028450321406126022
1772568122102943000,5.54394287109375,-0.021495850756764412,0.021569902077317238,-0.007502750493586063
1772568122113015000,5.55401513671875,-0.014179348945617676,-0.014428844675421715,-0.002890688367187977
1772568122123086000,5.564086181640625,-0.0067310091108083725,-0.047945406287908554,0.007064257748425007
1772568122133158000,5.574157958984375,-0.008586167357861996,-0.057584986090660095,0.006206984631717205
1772568122143230000,5.58422998046875,-0.00285261869430542,-0.06531311571598053,-0.0020734360441565514
1772568122153302000,5.594302001953125,0.005911311134696007,-0.0647975280880928,-0.011310343630611897
1772568122163373000,5.604373046875,0.0092348363250494,-0.060530997812747955,-0.021009966731071472
1772568122173444900,5.61444482421875,0.004378029145300388,-0.06323383748531342,-0.03146474063396454
1772568122183517000,5.624516845703125,-0.0006221686489880085,-0.0690058022737503,-0.031239161267876625
1772568122193587700,5.634587646484375,0.0024868054315447807,-0.07022260129451752,-0.018404588103294373
1772568122203659800,5.64465966796875,0.0019248067401349545,-0.06537780165672302,-0.005582780577242374
1772568122213731800,5.65473193359375,0.0018624886870384216,-0.05784478783607483,-0.009104544296860695
1772568122223804000,5.664803955078125,0.011334892362356186,-0.06285230070352554,-0.02086668089032173
1772568122233874700,5.674874755859375,0.013350105844438076,-0.06885187327861786,-0.027926720678806305
1772568122243946800,5.68494677734375,0.024535013362765312,-0.06761374324560165,-0.025076285004615784
1772568122254018800,5.695018798828125,0.029794489964842796,-0.06710508465766907,-0.027531452476978302
1772568122264091000,5.7050908203125,0.03829555585980415,-0.06294321268796921,-0.02222169190645218
1772568122274162000,5.715161865234375,0.04025537893176079,-0.0564163401722908,-0.020203813910484314
1772568122284233700,5.725233642578125,0.04217910021543503,-0.049931325018405914,-0.016790399327874184
1772568122294305800,5.735305908203125,0.04295248165726662,-0.04273013770580292,-0.016623418778181076
1772568122304377900,5.7453779296875,0.03725067526102066,-0.03527558594942093,-0.023622822016477585
1772568122314449000,5.755448974609375,0.03160610795021057,-0.027729518711566925,-0.028207987546920776
1772568122324520700,5.765520751953125,0.037402424961328506,-0.019425708800554276,-0.03868545964360237
1772568122334592800,5.7755927734375,0.043292272835969925,-0.019110124558210373,-0.03836667910218239
1772568122344663800,5.785663818359375,0.042687058448791504,-0.007014628499746323,-0.027780836448073387
1772568122354735900,5.79573583984375,0.04065719619393349,-0.003714173100888729,-0.018968703225255013
1772568122364808400,5.805808349609375,0.03834495693445206,0.005865604151040316,-0.012154500931501389
1772568122374880300,5.81588037109375,0.034491632133722305,0.0069966488517820835,-0.010025570169091225
1772568122384951300,5.825951416015625,0.026592090725898743,0.006804344244301319,-0.01361256092786789
1772568122395023400,5.8360234375,0.021309444680809975,-0.006483498029410839,-0.019226238131523132
1772568122405095400,5.846095458984375,0.02186221443116665,-0.009991390630602837,-0.012919816188514233
1772568122415167200,5.856167236328125,0.016437888145446777,-0.005567879881709814,-0.009854784235358238
1772568122425238300,5.86623828125,0.012558911927044392,0.006374122574925423,-0.007020143326371908
1772568122435310300,5.876310302734375,0.0017174496315419674,0.021659335121512413,-0.007380735129117966
1772568122445382400,5.88638232421875,-0.002927009481936693,0.03890741989016533,-0.007836508564651012
1772568122455454500,5.896454345703125,-0.01432587206363678,0.048000518232584,-0.015178843401372433
1772568122465525500,5.906525390625,-0.01337970420718193,0.03849244862794876,-0.017857598140835762
1772568122475597300,5.916597412109375,-0.008779890835285187,0.020449798554182053,-0.01128864474594593
1772568122485669400,5.92666943359375,-0.0029885289259254932,0.015188775956630707,0.0018752412870526314
1772568122495741400,5.936741455078125,-0.0022729369811713696,0.018842900171875954,-0.0015013813972473145
1772568122505812500,5.9468125,0.0022746766917407513,0.020965171977877617,-0.019378382712602615
1772568122515884300,5.95688427734375,0.011952603235840797,0.016325147822499275,-0.019147751852869987
1772568122525956400,5.966956298828125,0.02151094377040863,0.01610758900642395,-0.011541363783180714
1772568122536027400,5.97702734375,0.0318533293902874,0.02903004363179207,-0.006014772225171328
1772568122546099500,5.987099365234375,0.03769994154572487,0.05571412295103073,-0.006762665696442127
1772568122556171500,5.997171630859375,0.03525729104876518,0.0761895701289177,-0.015991583466529846
1772568122566243300,6.007243408203125,0.028155479580163956,0.08572749048471451,-0.016861889511346817
1772568122576314400,6.017314453125,0.022790808230638504,0.08939572423696518,-0.008339508436620235
1772568122586386400,6.027386474609375,0.023656263947486877,0.09088067710399628,-0.004735697992146015
1772568122596458500,6.03745849609375,0.035127829760313034,0.09200559556484222,-0.004844355396926403
1772568122606529500,6.047529541015625,0.05122385546565056,0.08598184585571289,-0.013592882081866264
1772568122616601300,6.057601318359375,0.05885380879044533,0.06933735311031342,-0.026395495980978012
1772568122626673400,6.06767333984375,0.061207834631204605,0.05910633131861687,-0.0191342756152153
1772568122636745500,6.077745361328125,0.058744411915540695,0.028597690165042877,-0.011706719174981117
1772568122646816500,6.08781640625,0.0538514144718647,-0.00885278731584549,-0.0012474237009882927
1772568122656888600,6.097888671875,0.05191822350025177,-0.03967887908220291,0.009981261566281319
1772568122666960400,6.10796044921875,0.056521929800510406,-0.057822972536087036,0.02289339154958725
1772568122677032400,6.118032470703125,0.055733900517225266,-0.048792991787195206,0.03943561390042305
1772568122687103200,6.128103271484375,0.0531810000538826,-0.041874244809150696,0.04269910231232643
1772568122697175300,6.13817529296875,0.050395868718624115,-0.029461782425642014,0.02596752718091011
1772568122707247600,6.14824755859375,0.045171696692705154,-0.02793295867741108,0.008161906152963638
1772568122717319400,6.1583193359375,0.038375839591026306,-0.04494389891624451,-0.0058524468913674355
1772568122727390200,6.16839013671875,0.04495064541697502,-0.06175575777888298,0.0030896002426743507
1772568122737462300,6.178462158203125,0.053573161363601685,-0.060517121106386185,0.018896792083978653
1772568122747534300,6.188534423828125,0.055092424154281616,-0.04244466871023178,0.027149684727191925
1772568122757605400,6.19860546875,0.05042150616645813,-0.021993720903992653,0.017526350915431976
1772568122767677200,6.20867724609375,0.04292774200439453,0.004846125841140747,0.0051303431391716
1772568122777749200,6.218749267578125,0.031146980822086334,0.017846079543232918,0.0046142227947711945
1772568122787821300,6.2288212890625,0.023928675800561905,0.029863569885492325,0.003982276655733585
1772568122797892400,6.238892333984375,0.011989458464086056,0.03428308293223381,-0.004798431880772114
1772568122807964400,6.24896435546875,0.005295449867844582,0.02869853377342224,-0.016287583857774734
1772568122818036200,6.2590361328125,-0.0006500575691461563,0.008938943035900593,-0.01096392422914505
1772568122828107300,6.269107177734375,-0.0005510598421096802,-0.0016559348441660404,0.004023036919534206
1772568122838179300,6.279179443359375,-0.00036836694926023483,-0.0028791248332709074,0.015640810132026672
1772568122848251400,6.28925146484375,-0.00006716325879096985,0.004165469203144312,0.015017365105450153
1772568122858323500,6.299323486328125,-0.0051551321521401405,0.016925739124417305,0.01054565142840147
1772568122868394500,6.30939453125,-0.010214307345449924,0.012170884758234024,0.004200899973511696
1772568122878466300,6.31946630859375,-0.010986891575157642,0.0015984009951353073,0.0029750484973192215
1772568122888538400,6.329538330078125,-0.014717134647071362,-0.016805440187454224,0.00794059969484806
1772568122898610400,6.3396103515625,-0.015713956207036972,-0.03686623275279999,0.009658871218562126
1772568122908681500,6.349681396484375,-0.010825758799910545,-0.053836241364479065,0.017266951501369476
1772568122918753300,6.359753173828125,-0.00584644777700305,-0.06041664630174637,0.02102520503103733
1772568122928825300,6.369825439453125,-0.0045645469799637794,-0.06114773452281952,0.017378048971295357
1772568122938896400,6.379896484375,-0.0012182854115962982,-0.05333828181028366,0.01714315637946129
1772568122948968400,6.389968505859375,0.005253385752439499,-0.03680752217769623,0.01318335346877575
1772568122959040500,6.40004052734375,0.008606571704149246,-0.026271261274814606,0.009737487882375717
1772568122969112300,6.4101123046875,0.014383772388100624,-0.017844228073954582,0.0052260663360357285
1772568122979183400,6.420183349609375,0.009417509660124779,-0.016292404383420944,0.0006334446370601654
1772568122989255400,6.43025537109375,0.008434978313744068,-0.015798652544617653,0.0007588015869259834
1772568122999327500,6.440327392578125,0.0017531071789562702,-0.0228714756667614,-0.0005826326087117195
1772568123009398500,6.4503984375,-0.009296867065131664,-0.034996598958969116,0.0027104923501610756
1772568123019470300,6.46047021484375,-0.023411888629198074,-0.03888668119907379,0.007472490891814232
1772568123029542400,6.47054248046875,-0.03439218923449516,-0.03300641477108002,0.0065152691677212715
1772568123039614500,6.480614501953125,-0.03948894888162613,-0.020503409206867218,0.012507381848990917
1772568123049685500,6.490685546875,-0.04595809802412987,0.003724134061485529,0.0055466750636696815
1772568123059757600,6.500757568359375,-0.03851163387298584,0.01886979676783085,0.006249749101698399
1772568123069829400,6.510829345703125,-0.03517782688140869,0.037150170654058456,0.008587400428950787
1772568123079900200,6.520900146484375,-0.03048587031662464,0.04595564678311348,0.0007704896852374077
1772568123089972500,6.530972412109375,-0.03024718165397644,0.04813333600759506,-0.007626478560268879
1772568123100044500,6.54104443359375,-0.027384281158447266,0.05457712709903717,-0.013047343119978905
1772568123110116600,6.55111669921875,-0.021778173744678497,0.05836377292871475,-0.011779137887060642
1772568123120187400,6.5611875,-0.01222674548625946,0.07063162326812744,-0.0018740436062216759
1772568123130259200,6.57125927734375,-0.0021524764597415924,0.09320049732923508,0.009273610077798367
1772568123140331300,6.581331298828125,0.011297818273305893,0.10952300578355789,0.014244399033486843
1772568123150403300,6.5914033203125,0.011978165246546268,0.10564970970153809,0.00581221841275692
1772568123160474400,6.601474365234375,0.009830059483647346,0.07510804384946823,-0.0037746289744973183
1772568123170546200,6.611546142578125,0.013420863077044487,0.023202940821647644,-0.00971195474267006
1772568123180618200,6.6216181640625,0.020314455032348633,-0.02881072647869587,-0.006311364471912384
1772568123190689300,6.631689208984375,0.021834485232830048,-0.06941086053848267,-0.011247475631535053
1772568123200761300,6.64176123046875,0.022433962672948837,-0.10615555942058563,-0.014409179799258709
1772568123210833400,6.65183349609375,0.0204633679240942,-0.13641487061977386,-0.008605929091572762
1772568123220904400,6.661904541015625,0.022669795900583267,-0.15367907285690308,0.020508814603090286
1772568123230976300,6.671976318359375,0.017876720055937767,-0.14722636342048645,0.046748969703912735
1772568123241048300,6.68204833984375,0.004969176836311817,-0.11646765470504761,0.05664873868227005
1772568123251120400,6.692120361328125,-0.015165110118687153,-0.08790779858827591,0.04812054708600044
1772568123261191400,6.70219140625,-0.033751312643289566,-0.07018792629241943,0.017269425094127655
1772568123271263500,6.712263427734375,-0.047225311398506165,-0.0682254359126091,0.0048212772235274315
1772568123281335300,6.722335205078125,-0.05531945452094078,-0.07732812315225601,0.0009035011753439903
1772568123291406300,6.73240625,-0.0535341277718544,-0.09487707912921906,0.0008082855492830276
1772568123301478400,6.742478515625,-0.05800797417759895,-0.10368921607732773,0.0023300154134631157
1772568123311550500,6.752550537109375,-0.05856332182884216,-0.08547119051218033,0.008258203975856304
1772568123321622300,6.762622314453125,-0.06785562634468079,-0.043282728642225266,0.006713836453855038
1772568123331693300,6.772693359375,-0.07660903036594391,0.008738849312067032,0.003289426676928997
1772568123341765400,6.782765380859375,-0.0800493061542511,0.04254315420985222,-0.006445491686463356
1772568123351837400,6.79283740234375,-0.08003565669059753,0.06749261170625687,-0.015369019471108913
1772568123361909000,6.802908935546875,-0.08257924020290375,0.0734650194644928,-0.02132837474346161
1772568123371980800,6.812980712890625,-0.08133500814437866,0.07290548831224442,-0.018661485984921455
1772568123382052900,6.823052978515625,-0.08688690513372421,0.07537849992513657,-0.01567954383790493
1772568123392125000,6.833125,-0.09049532562494278,0.09412877261638641,-0.016215046867728233
1772568123402195700,6.84319580078125,-0.09794338792562485,0.12166427075862885,-0.025005342438817024
1772568123412267800,6.853267822265625,-0.11152578890323639,0.14652089774608612,-0.036343324929475784
1772568123422339600,6.863339599609375,-0.1145133227109909,0.16616277396678925,-0.03807597607374191
1772568123432410600,6.87341064453125,-0.1178131103515625,0.15276221930980682,-0.030506856739521027
1772568123442482700,6.883482666015625,-0.11534595489501953,0.11984100937843323,-0.018162306398153305
1772568123452554800,6.8935546875,-0.10879018157720566,0.07277634739875793,-0.0056939623318612576
1772568123462626800,6.903626708984375,-0.09363945573568344,0.022786950692534447,0.006730216555297375
1772568123472697900,6.91369775390625,-0.07668227702379227,-0.0075070858001708984,0.020915508270263672
1772568123482769700,6.923769775390625,-0.07111254334449768,-0.01727289706468582,0.023463353514671326
1772568123492841700,6.933841796875,-0.06802638620138168,0.00391375832259655,0.018100043758749962
1772568123502912800,6.943912841796875,-0.07314205169677734,0.029274508357048035,0.009310813620686531
1772568123512984800,6.95398486328125,-0.06874780356884003,0.04407298192381859,-0.0025620609521865845
1772568123523056600,6.964056640625,-0.06723485887050629,0.04828903079032898,-0.008337658829987049
1772568123533127700,6.974127685546875,-0.06105886027216911,0.03704283386468887,-0.01188808586448431
1772568123543199700,6.98419970703125,-0.05134977027773857,0.017877928912639618,-0.006185459438711405
1772568123553271800,6.994271728515625,-0.046521227806806564,0.006085231434553862,0.00920711737126112
1772568123563344000,7.00434375,-0.03956398740410805,0.01927746646106243,0.017589151859283447
1772568123573415000,7.014414794921875,-0.0372852124273777,0.033911678940057755,0.015291488729417324
1772568123583486700,7.02448681640625,-0.057212311774492264,0.06311403959989548,0.0029594535008072853
1772568123593558800,7.034558837890625,-0.07204678654670715,0.10245498269796371,-0.018550727516412735
1772568123603629800,7.0446298828125,-0.08142510801553726,0.1290130913257599,-0.03512357920408249
1772568123613702000,7.054701904296875,-0.10521082580089569,0.13494828343391418,-0.045715756714344025
1772568123623773700,7.064773681640625,-0.1278381049633026,0.14044904708862305,-0.04827319085597992
1772568123633844700,7.0748447265625,-0.13353988528251648,0.15604884922504425,-0.04831631854176521
1772568123643916800,7.084916748046875,-0.11047611385583878,0.17840634286403656,-0.03705860301852226
1772568123653988900,7.09498876953125,-0.08837935328483582,0.19548416137695312,-0.026883568614721298
1772568123664061000,7.10506103515625,-0.06855025887489319,0.22049736976623535,-0.0169646255671978
1772568123674132000,7.115132080078125,-0.05302296206355095,0.23313993215560913,-0.021970834583044052
1772568123684203800,7.125203857421875,-0.03799154981970787,0.225699320435524,-0.038906943053007126
1772568123694275800,7.13527587890625,-0.022488297894597054,0.18760810792446136,-0.06770554184913635
1772568123704347000,7.145346923828125,-0.02210959605872631,0.16638430953025818,-0.08770295232534409
1772568123714419000,7.1554189453125,-0.022786417976021767,0.16833630204200745,-0.07193623483181
1772568123724491000,7.165490966796875,-0.02117760106921196,0.17725443840026855,-0.037675999104976654
1772568123734561800,7.175561767578125,-0.027456115931272507,0.1766098588705063,-0.005557469092309475
1772568123744633900,7.1856337890625,-0.02165042608976364,0.17781759798526764,0.00002931058406829834
1772568123754706000,7.195705810546875,-0.02548164129257202,0.15991833806037903,-0.010415023192763329
1772568123764778000,7.205778076171875,-0.03960225358605385,0.12826934456825256,-0.013860886916518211
1772568123774848800,7.215848876953125,-0.04505431652069092,0.08085967600345612,-0.000716070644557476
1772568123784920600,7.225920654296875,-0.02484492026269436,0.03550604358315468,0.0273967906832695
1772568123794992600,7.23599267578125,-0.003553141374140978,-0.014501439407467842,0.04370862990617752
1772568123805063700,7.246063720703125,0.021564729511737823,-0.025634784251451492,0.0591118186712265
1772568123815135700,7.2561357421875,0.043891336768865585,-0.010714957490563393,0.07629186660051346
1772568123825207800,7.266207763671875,0.05287870764732361,0.002286861650645733,0.08245069533586502
1772568123835278800,7.27627880859375,0.04277887940406799,-0.016422152519226074,0.08177972584962845
1772568123845350700,7.2863505859375,0.02602759748697281,-0.054995641112327576,0.07483420521020889
1772568123855422700,7.296422607421875,0.018858108669519424,-0.08445727825164795,0.0732872262597084
1772568123865494800,7.306494873046875,0.01992150954902172,-0.09619968384504318,0.08883582800626755
1772568123875565800,7.31656591796875,0.018296407535672188,-0.08126208931207657,0.09489796310663223
1772568123885638000,7.326637939453125,0.029645469039678574,-0.10894804447889328,0.05891146510839462
1772568123895709700,7.336709716796875,0.025432420894503593,-0.27500247955322266,-0.0428553968667984
1772568123905780700,7.34678076171875,0.021644873544573784,-0.26946258544921875,-0.03883296251296997
1772568123915852800,7.356852783203125,0.019761301577091217,-0.21267959475517273,0.007033362053334713
1772568123925924900,7.3669248046875,0.07403998076915741,-0.20354442298412323,-0.05350508168339729
1772568123935996000,7.376995849609375,0.17834514379501343,-0.2765025794506073,-0.17011603713035583
1772568123946067700,7.387067626953125,0.2817234694957733,-0.2649146318435669,-0.2383211851119995
1772568123956139800,7.397139892578125,0.4500281810760498,-0.24847008287906647,-0.28403452038764954
1772568123966210800,7.4072109375,0.34746161103248596,-0.11366299539804459,-0.1560070514678955
1772568123976283000,7.417282958984375,0.31690359115600586,-0.30280056595802307,-0.04956996440887451
1772568123986355000,7.42735498046875,0.5476276278495789,-0.3621869385242462,-0.08050312101840973
1772568123996426800,7.4374267578125,0.5732806324958801,-0.3493053615093231,-0.08698978275060654
1772568124006497800,7.447497802734375,0.6020771265029907,-0.39753443002700806,-0.06976073235273361
1772568124016569900,7.45756982421875,0.4682275652885437,-0.343492716550827,-0.047436293214559555
1772568124026642000,7.467641845703125,0.30894070863723755,-0.22994937002658844,0.0030332719907164574
1772568124036713000,7.477712890625,0.11157030612230301,-0.03187477961182594,0.025192338973283768
1772568124046784800,7.48778466796875,-0.032617758959531784,0.14812268316745758,0.007280449382960796
1772568124056856800,7.49785693359375,-0.010687993839383125,0.21949250996112823,-0.0764402374625206
1772568124066927900,7.507927978515625,0.004098144359886646,0.19379061460494995,-0.15372678637504578
1772568124077000000,7.518,-0.03817689046263695,0.16035065054893494,-0.15324166417121887
1772568124087072000,7.528072021484375,-0.07030340284109116,0.09300544857978821,-0.1012953668832779
1772568124097143800,7.538143798828125,-0.07975757867097855,0.05515838786959648,-0.043905772268772125
1772568124107214600,7.548214599609375,-0.07058831304311752,0.05103901028633118,-0.006788231898099184
1772568124117286700,7.55828662109375,-0.058564137667417526,0.05991533026099205,-0.0045559704303741455
1772568124127359000,7.56835888671875,-0.06887750327587128,0.08611230552196503,-0.02371874451637268
1772568124137429800,7.5784296875,-0.07369185239076614,0.10883917659521103,-0.03670091927051544
1772568124147501800,7.588501708984375,-0.07705356180667877,0.11100459098815918,-0.01488057617098093
1772568124157573600,7.59857373046875,-0.07240409404039383,0.09948396682739258,0.004615406505763531
1772568124167644700,7.608644775390625,-0.0819597840309143,0.09178316593170166,-0.0023109419271349907
1772568124177716700,7.618716796875,-0.11115327477455139,0.10317391902208328,-0.015492759644985199
1772568124187788800,7.628788818359375,-0.15800252556800842,0.10576917231082916,-0.04449591785669327
1772568124197859800,7.63885986328125,-0.2029787302017212,0.10215345025062561,-0.049676697701215744
1772568124207931600,7.648931640625,-0.23146018385887146,0.07959621399641037,-0.05897938460111618
1772568124218003700,7.659003662109375,-0.24919894337654114,0.10279922932386398,-0.046229805797338486
1772568124228074800,7.66907470703125,-0.26529961824417114,0.08734410256147385,-0.04224278777837753
1772568124238146800,7.679146728515625,-0.263743132352829,0.05560604855418205,-0.0329241119325161
1772568124248219000,7.689218994140625,-0.24300985038280487,0.05860530212521553,-0.0437525250017643
1772568124258290000,7.6992900390625,-0.2385677993297577,0.10854410380125046,-0.10012108832597733
1772568124268361700,7.70936181640625,-0.2786121666431427,0.21326333284378052,-0.17479558289051056
1772568124278433800,7.719433837890625,-0.34254103899002075,0.40605294704437256,-0.29277339577674866
1772568124288505900,7.729505859375,-0.46585285663604736,0.5487557649612427,-0.4404661953449249
1772568124298577000,7.739576904296875,-0.6849733591079712,0.4348542094230652,-0.5990825295448303
1772568124308648700,7.749648681640625,-0.8480871915817261,0.21176335215568542,-0.6427607536315918
1772568124318720800,7.759720703125,-0.8548720479011536,0.007655886467546225,-0.5283892750740051
1772568124328791800,7.769791748046875,-0.7371182441711426,-0.16785894334316254,-0.3414066433906555
1772568124338863900,7.77986376953125,-0.5405030250549316,-0.26989346742630005,-0.18456639349460602
1772568124348936000,7.78993603515625,-0.33403849601745605,-0.2637881636619568,-0.11927687376737595
1772568124359007000,7.800007080078125,-0.1900012344121933,-0.16797898709774017,-0.13403202593326569
1772568124369082000,7.81008203125,-0.12342220544815063,-0.06063175946474075,-0.17731718719005585
1772568124379154200,7.820154296875,-0.09070952236652374,-0.03278280049562454,-0.20389367640018463
1772568124389225200,7.83022509765625,-0.0823778361082077,-0.12652553617954254,-0.1834014505147934
1772568124399297300,7.84029736328125,-0.06202402710914612,-0.22582773864269257,-0.05575994402170181
1772568124409369300,7.850369384765625,0.0007434827275574207,-0.2963559627532959,0.12026620656251907
1772568124419440000,7.860440185546875,0.09879991412162781,-0.3229259252548218,0.26202186942100525
1772568124429512000,7.870511962890625,0.1762438416481018,-0.24376718699932098,0.33832621574401855
1772568124439584000,7.880583984375,0.18516768515110016,-0.13898274302482605,0.3313509225845337
1772568124449656300,7.89065625,0.18163500726222992,-0.07564877718687057,0.2553884983062744
1772568124459727000,7.90072705078125,0.19651076197624207,-0.0641176700592041,0.13285647332668304
1772568124469799200,7.910799072265625,0.20704224705696106,-0.08920837938785553,-0.0015042535960674286
1772568124479871000,7.92087109375,0.2073402851819992,-0.1032818928360939,-0.10372466593980789
1772568124489942000,7.93094189453125,0.25523242354393005,-0.12497653812170029,-0.169513538479805
1772568124500014000,7.94101416015625,0.29977285861968994,-0.10632111877202988,-0.18189303576946259
1772568124510086100,7.951086181640625,0.3233194649219513,-0.11741717904806137,-0.16611087322235107
1772568124520157200,7.9611572265625,0.31130117177963257,-0.11653944849967957,-0.156219944357872
1772568124530229000,7.97122900390625,0.19267597794532776,-0.17163492739200592,-0.10311996936798096
1772568124540301000,7.981301025390625,0.01041710190474987,0.04235639423131943,0.12362412363290787
1772568124550372000,7.9913720703125,0.045224618166685104,-0.08180204033851624,0.14403778314590454
1772568124560444200,8.001444091796875,0.09720107913017273,-0.10893897712230682,0.0889790952205658
1772568124570516200,8.01151611328125,0.03855214640498161,-0.029604472219944,0.06247531250119209
1772568124580587300,8.021587158203126,-0.030239861458539963,-0.00813648384064436,-0.008193065412342548
1772568124590659000,8.0316591796875,0.008775715716183186,0.012237763963639736,-0.11431629955768585
1772568124600731100,8.041731201171874,0.35236796736717224,-0.1782837212085724,-0.2937813997268677
1772568124610802200,8.05180224609375,0.8115301728248596,-0.31828370690345764,-0.47427260875701904
1772568124620874200,8.061874267578125,0.7740742564201355,-0.5019417405128479,-0.537574291229248
1772568124630945300,8.0719453125,0.46630018949508667,-0.41821837425231934,-0.4509302079677582
1772568124641017000,8.08201708984375,0.06993618607521057,-0.14465773105621338,-0.27613186836242676
1772568124651088100,8.092088134765625,-0.25893330574035645,0.16330274939537048,-0.03605242446064949
1772568124661160200,8.10216015625,-0.2581788897514343,0.22419992089271545,0.07728667557239532
1772568124671232300,8.112232177734375,-0.1436251550912857,0.22136124968528748,0.02905256487429142
1772568124681303000,8.122302978515625,-0.12399812787771225,0.24047012627124786,-0.04635172337293625
1772568124691375000,8.132375,-0.13564760982990265,0.22638466954231262,-0.098812535405159
1772568124701447200,8.142447265625,-0.11444466561079025,0.16532211005687714,-0.11783665418624878
1772568124711518000,8.15251806640625,0.057102855294942856,0.08473166823387146,-0.1319303661584854
1772568124721590000,8.162590087890624,0.13148388266563416,0.007394916377961636,-0.12814036011695862
1772568124731662000,8.172662109375,0.2720090448856354,-0.1715063899755478,-0.09944293648004532
1772568124741733000,8.182733154296875,0.22818472981452942,-0.21488052606582642,-0.031376756727695465
1772568124751805200,8.19280517578125,0.03336276859045029,-0.17162786424160004,0.07509083300828934
1772568124761877000,8.202876953125,-0.1735776662826538,-0.007614796981215477,0.17112745344638824
1772568124771948000,8.212947998046875,-0.32649102807044983,0.15957766771316528,0.183664008975029
1772568124782020000,8.22302001953125,-0.27383169531822205,0.15399481356143951,0.09173573553562164
1772568124792092200,8.233092041015626,-0.193531796336174,0.16634602844715118,0.0011096978560090065
1772568124802163200,8.2431630859375,-0.11113038659095764,0.17656217515468597,-0.01387819740921259
1772568124812235000,8.253235107421874,0.0720871090888977,0.10289087146520615,-0.020618924871087074
1772568124822307000,8.26330712890625,0.3248233497142792,-0.04836926609277725,-0.03700237348675728
1772568124832378000,8.273378173828124,0.30855807662010193,-0.07692208141088486,0.011080465279519558
1772568124842450200,8.2834501953125,0.1241467073559761,0.023371614515781403,0.10516654700040817
1772568124852522200,8.293522216796875,-0.15166649222373962,0.29884767532348633,0.18537616729736328
1772568124862593300,8.30359326171875,-0.3456069827079773,0.484707236289978,0.18781894445419312
1772568124872665000,8.3136650390625,-0.3099469840526581,0.5286965370178223,0.0785134956240654
1772568124882737200,8.323737060546875,-0.24095506966114044,0.5586075782775879,-0.03277458995580673
1772568124892808200,8.33380810546875,-0.12981842458248138,0.5963075160980225,-0.0951458215713501
1772568124902880300,8.34388037109375,-0.04459533467888832,0.5940479636192322,-0.1424447000026703
1772568124912952000,8.3539521484375,-0.06861971318721771,0.5845183730125427,-0.1574537456035614
1772568124923023000,8.364023193359374,-0.08337293565273285,0.5022118091583252,-0.16291795670986176
1772568124933095200,8.37409521484375,-0.08581425249576569,0.3535670042037964,-0.1571948230266571
1772568124943167200,8.384167236328125,-0.030634606257081032,0.25682389736175537,-0.09674388915300369
1772568124953238300,8.39423828125,-0.05190899968147278,0.28979915380477905,0.04281054437160492
1772568124963310300,8.404310302734375,-0.04449526220560074,0.27619674801826477,0.11183378100395203
1772568124973382100,8.414382080078125,-0.03523651883006096,0.22570428252220154,0.07959115505218506
1772568124983453000,8.424452880859375,-0.06936921179294586,0.20234805345535278,0.02771274745464325
1772568124993525000,8.43452490234375,-0.13466353714466095,0.1352289319038391,-0.0012989286333322525
1772568125003597000,8.44459716796875,-0.16846013069152832,0.07196752727031708,0.04101146385073662
1772568125013668000,8.454668212890626,-0.18422284722328186,-0.02128012478351593,0.10845521837472916
1772568125023740200,8.464740234375,-0.15646961331367493,-0.06583600491285324,0.18281611800193787
1772568125033812000,8.47481201171875,-0.11713898181915283,-0.08450396358966827,0.22755803167819977
1772568125043884000,8.484884033203125,-0.10415323078632355,-0.11847725510597229,0.22881102561950684
1772568125053955000,8.494955078125,-0.11517471820116043,-0.16000844538211823,0.20905037224292755
1772568125064027100,8.505027099609375,-0.12283684313297272,-0.20906715095043182,0.19439800083637238
1772568125074099000,8.515098876953125,-0.10377553850412369,-0.22220346331596375,0.2098078429698944
1772568125084170000,8.525169921875,-0.023478299379348755,-0.26214155554771423,0.23044119775295258
1772568125094242000,8.535241943359376,0.18125726282596588,-0.4592346251010895,0.16308054327964783
1772568125104314000,8.545314208984376,0.24657811224460602,-0.5130813121795654,0.1379861831665039
1772568125114385200,8.55538525390625,0.18926848471164703,-0.49447304010391235,0.1502191424369812
1772568125124457200,8.565457275390624,-0.019347650930285454,-0.27860894799232483,0.20910406112670898
1772568125134529000,8.575529052734375,-0.0860675573348999,-0.17570997774600983,0.22071170806884766
1772568125144600000,8.58560009765625,-0.043921783566474915,-0.17272605001926422,0.16044805943965912
1772568125154672000,8.595672119140625,-0.004257461987435818,-0.04237576946616173,0.1508825272321701
1772568125164744200,8.605744140625,0.06527198851108551,0.12730193138122559,0.14373505115509033
1772568125174815200,8.615815185546875,0.143689826130867,0.18465256690979004,0.025252077728509903
1772568125184887300,8.62588720703125,0.1699015498161316,0.14061962068080902,-0.15063205361366272
1772568125194959000,8.635958984375,0.15636523067951202,0.0904959887266159,-0.2769913375377655
1772568125205030100,8.646030029296876,0.15401655435562134,0.046503812074661255,-0.31826627254486084
1772568125215105000,8.65610498046875,0.14063364267349243,-0.00981458742171526,-0.29192203283309937
1772568125225176000,8.666176025390625,0.108086496591568,-0.028145305812358856,-0.2170034795999527
1772568125235248000,8.676248046875,0.08549755811691284,0.004480548668652773,-0.13332456350326538
1772568125245320200,8.6863203125,0.059288185089826584,0.020596198737621307,-0.08694097399711609
1772568125255391200,8.69639111328125,0.03687874972820282,0.004351448733359575,-0.059539176523685455
1772568125265463000,8.706463134765626,0.03278158977627754,-0.0175393708050251,-0.01310217846184969
1772568125275535000,8.71653515625,0.04318789020180702,-0.05164647474884987,0.04046330973505974
1772568125285607200,8.726607177734374,0.06075548008084297,-0.09208452701568604,0.07080717384815216
1772568125295678200,8.73667822265625,0.06819608807563782,-0.13193021714687347,0.06916960328817368
1772568125305750000,8.74675,0.06785371899604797,-0.13168083131313324,0.06120514124631882
1772568125315821000,8.756821044921875,0.06142884120345116,-0.1214204803109169,0.02277972362935543
1772568125325893000,8.76689306640625,0.045018818229436874,-0.10408027470111847,-0.04390690475702286
1772568125335965200,8.776965087890625,0.011860867962241173,-0.12250082194805145,-0.09852434694766998
1772568125346037200,8.787037353515625,-0.01341923512518406,-0.18294678628444672,-0.10213353484869003
1772568125356108300,8.7971083984375,-0.008955243974924088,-0.24114564061164856,-0.035479407757520676
1772568125366176500,8.807176513671875,0.021485839039087296,-0.27989330887794495,0.03831687942147255
1772568125376248600,8.81724853515625,0.052719660103321075,-0.26201656460762024,0.06361637264490128
1772568125386319600,8.827319580078125,0.07757503539323807,-0.18061505258083344,0.04059428721666336
1772568125396391700,8.8373916015625,0.0861315056681633,-0.08851655572652817,-0.03295556455850601
1772568125406463700,8.847463623046876,0.08255458623170853,-0.010626772418618202,-0.11296860128641129
1772568125416534800,8.85753466796875,0.07333871722221375,0.05827586352825165,-0.15399911999702454
1772568125426606600,8.867606689453124,0.05861414596438408,0.0858893021941185,-0.18160457909107208
1772568125436678700,8.8776787109375,0.05199086293578148,0.1137707307934761,-0.18717750906944275
1772568125446749700,8.887749755859375,0.06537332385778427,0.16082946956157684,-0.1760217547416687
1772568125456821800,8.89782177734375,0.08058903366327286,0.20556098222732544,-0.18247859179973602
1772568125466893600,8.9078935546875,0.1045207530260086,0.2778797447681427,-0.1654094159603119
1772568125476964600,8.917964599609375,0.1319151073694229,0.3603093922138214,-0.14419788122177124
1772568125487036700,8.92803662109375,0.10881070047616959,0.35979828238487244,-0.14879657328128815
1772568125497108700,8.938108642578126,0.06122853234410286,0.3204825818538666,-0.1311105191707611
1772568125507179800,8.9481796875,0.046214569360017776,0.2668323218822479,-0.05472850799560547
1772568125517251800,8.958251953125,0.05770797282457352,0.20109698176383972,0.03985445201396942
1772568125527323600,8.96832373046875,0.05214370787143707,0.16669750213623047,0.0861571803689003
1772568125537394700,8.978394775390624,0.048077329993247986,0.17660686373710632,0.07983430474996567
1772568125547466800,8.988466796875,0.04538644477725029,0.19070526957511902,0.028386935591697693
1772568125557538800,8.998538818359375,0.0440727062523365,0.2165006548166275,-0.034297484904527664
1772568125567609900,9.00860986328125,0.02591785229742527,0.22433967888355255,-0.09472230821847916
1772568125577681700,9.018681640625,-0.0013891365379095078,0.19292156398296356,-0.1256818175315857
1772568125587753700,9.028753662109375,-0.025727691128849983,0.14393940567970276,-0.11756560206413269
1772568125597824500,9.038824462890625,-0.03149823099374771,0.09255077689886093,-0.06444698572158813
1772568125607896600,9.048896484375,-0.031384024769067764,0.043197423219680786,0.022073175758123398
1772568125617968600,9.05896875,-0.020128441974520683,0.0023437337949872017,0.07441680133342743
1772568125628039700,9.069039794921874,-0.0143032968044281,-0.010158510878682137,0.0787712037563324
1772568125638111500,9.079111572265624,-0.013328580185770988,-0.00038684066385030746,0.05825154110789299
1772568125648183600,9.08918359375,-0.022320585325360298,0.00044408533722162247,0.03158511593937874
1772568125658254600,9.099254638671875,-0.03964844346046448,-0.005644966382533312,0.02419085055589676
1772568125668326700,9.10932666015625,-0.04609239101409912,-0.012788231484591961,0.03835820034146309
1772568125678398700,9.119398681640625,-0.045392248779535294,-0.011327754706144333,0.04997437819838524
1772568125688469800,9.1294697265625,-0.04260615259408951,0.0023497268557548523,0.03377923369407654
1772568125698541600,9.13954150390625,-0.060894615948200226,0.013742463663220406,-0.0021950136870145798
1772568125708612600,9.149612548828125,-0.07457912713289261,0.020085517317056656,-0.009655705653131008
1772568125718684700,9.1596845703125,-0.07147973775863647,0.02948807366192341,0.013380637392401695
1772568125728756700,9.1697568359375,-0.06982794404029846,0.027097847312688828,0.03899487107992172
1772568125738828500,9.17982861328125,-0.05922031030058861,0.03355814144015312,0.059534765779972076
1772568125748899600,9.189899658203124,-0.05067754536867142,0.05365201085805893,0.0638359859585762
1772568125758971600,9.1999716796875,-0.04829002171754837,0.07885962724685669,0.06710740923881531
1772568125769043700,9.210043701171875,-0.054672081023454666,0.06765011698007584,0.05728434398770332
1772568125779114800,9.22011474609375,-0.06013662368059158,0.041886162012815475,0.055871542543172836
1772568125789186800,9.230186767578125,-0.057328615337610245,0.036028165370225906,0.078633151948452
1772568125799257900,9.2402578125,-0.0585736446082592,0.015497059561312199,0.09242113679647446
1772568125809329700,9.25032958984375,-0.050129521638154984,-0.0010079257190227509,0.09197607636451721
1772568125819401700,9.260401611328126,-0.045507073402404785,-0.013046745210886002,0.08575786650180817
1772568125829472800,9.27047265625,-0.04851206764578819,-0.01803702861070633,0.08578001707792282
1772568125839544800,9.280544921875,-0.0701446607708931,-0.04290349781513214,0.07448901236057281
1772568125849616600,9.29061669921875,-0.07730806618928909,-0.05862021446228027,0.0753135085105896
1772568125859687700,9.300687744140625,-0.06613210588693619,-0.07547935098409653,0.08579890429973602
1772568125869759500,9.310759521484375,-0.07303468883037567,-0.0990896075963974,0.09805583953857422
1772568125879831600,9.32083154296875,-0.06725270301103592,-0.10109896212816238,0.1200556829571724
1772568125889902600,9.330902587890625,-0.04434334114193916,-0.07669194787740707,0.1336469054222107
1772568125899974700,9.340974609375,-0.041630376130342484,-0.07190491259098053,0.1110268235206604
1772568125910046500,9.35104638671875,-0.05350111797451973,-0.07440672814846039,0.08669321238994598
1772568125920117500,9.361117431640626,-0.06591890752315521,-0.10496091097593307,0.06566835194826126
1772568125930189600,9.371189453125,-0.06286288797855377,-0.1511410027742386,0.06084491312503815
1772568125940261600,9.38126171875,-0.055287521332502365,-0.17865891754627228,0.05519475042819977
1772568125950332700,9.391332763671874,-0.05570532754063606,-0.20107348263263702,0.05858184024691582
1772568125960404700,9.40140478515625,-0.051022958010435104,-0.195451021194458,0.06708663702011108
1772568125970476500,9.4114765625,-0.040572457015514374,-0.18937870860099792,0.0772443488240242
1772568125980547600,9.421547607421875,-0.02153538353741169,-0.1822877824306488,0.06947804242372513
1772568125990619600,9.43161962890625,-0.00964980199933052,-0.15140442550182343,0.049516383558511734
1772568126000691700,9.441691650390625,-0.01548665203154087,-0.14548900723457336,0.021301522850990295
1772568126010762800,9.4517626953125,-0.01844637654721737,-0.13587728142738342,0.01203904114663601
1772568126020834600,9.46183447265625,-0.008664852008223534,-0.1450236439704895,0.01144222728908062
1772568126030906600,9.47190673828125,0.010146526619791985,-0.13841986656188965,0.023951247334480286
1772568126040977700,9.481977783203124,0.02029050700366497,-0.1230640858411789,0.03443824127316475
1772568126051049700,9.4920498046875,0.013511959463357925,-0.09804939478635788,0.03958846628665924
1772568126061121800,9.502121826171875,-0.004534152802079916,-0.07405724376440048,0.03643181920051575
1772568126071192800,9.51219287109375,-0.02659326046705246,-0.051666922867298126,0.023000016808509827
1772568126081264600,9.5222646484375,-0.047376833856105804,-0.014934207312762737,0.004781334660947323
1772568126091336700,9.532336669921875,-0.055054839700460434,0.028381742537021637,-0.02317625656723976
1772568126101407700,9.54240771484375,-0.052478231489658356,0.07238461822271347,-0.04409032687544823
1772568126111479800,9.552479736328126,-0.04225847125053406,0.09783197939395905,-0.0570107027888298
1772568126121552000,9.5625517578125,-0.03597314655780792,0.1013777107000351,-0.07347596436738968
1772568126131622700,9.57262255859375,-0.046518877148628235,0.08241967856884003,-0.08038734644651413
1772568126141694700,9.58269482421875,-0.047540463507175446,0.07829736918210983,-0.04579900950193405
1772568126151766800,9.592766845703125,-0.04700947925448418,0.08591824024915695,0.008234522305428982
1772568126161837600,9.602837646484375,-0.03221721947193146,0.11235437542200089,0.04959847405552864
1772568126171909600,9.61290966796875,-0.013829275965690613,0.14497974514961243,0.049180034548044205
1772568126181981400,9.6229814453125,0.0009877532720565796,0.17522606253623962,0.01121827308088541
1772568126192052500,9.633052490234375,0.01132639218121767,0.18221884965896606,-0.048433106392621994
1772568126202124500,9.64312451171875,0.011337577365338802,0.1403568983078003,-0.10166569799184799
1772568126212196600,9.653196533203126,-0.006180558353662491,0.07245063036680222,-0.12373390048742294
1772568126222267600,9.663267578125,-0.025279149413108826,0.010675415396690369,-0.08326929807662964
1772568126232339700,9.673339599609376,-0.021641042083501816,-0.028949180617928505,0.005614547990262508
1772568126242410800,9.68341064453125,-0.005487105809152126,-0.04352892190217972,0.06452926248311996
1772568126252482600,9.693482666015624,0.0022765067405998707,-0.02429659478366375,0.0646480917930603
1772568126262554600,9.7035546875,0.008103236556053162,0.022245075553655624,0.03700580447912216
1772568126272625700,9.713625732421875,-0.005291732959449291,0.0496368445456028,-0.0022424422204494476
1772568126282697700,9.72369775390625,-0.023463545367121696,0.05758291482925415,-0.02493230812251568
1772568126292769800,9.733769775390625,-0.04237035661935806,0.05896318703889847,-0.009266041219234467
1772568126302840800,9.7438408203125,-0.0361526757478714,0.049187518656253815,0.022092945873737335
1772568126312912600,9.75391259765625,-0.032354243099689484,0.052919723093509674,0.0398581400513649
1772568126322984700,9.763984619140626,-0.01145455427467823,0.08054788410663605,0.05154089629650116
1772568126333055700,9.7740556640625,0.007458016742020845,0.11874344944953918,0.04937257245182991
1772568126343127800,9.7841279296875,0.02468627318739891,0.15981552004814148,0.03584238141775131
1772568126353199600,9.79419970703125,0.022973263636231422,0.20173600316047668,0.01827632635831833
1772568126363274000,9.80427392578125,0.02096896804869175,0.23497571051120758,0.0012965444475412369
1772568126373345800,9.814345703125,0.010090097784996033,0.24068787693977356,0.04273441433906555
1772568126383417900,9.82441796875,-0.0256069153547287,0.18922175467014313,0.05997039005160332
1772568126393489000,9.834489013671876,-0.05483034998178482,0.1325320452451706,0.09743599593639374
1772568126403561000,9.84456103515625,-0.08649294078350067,0.0361596941947937,0.1424063891172409
1772568126413632800,9.8546328125,-0.09862475097179413,-0.05227688327431679,0.17367102205753326
1772568126423703800,9.864703857421874,-0.0899183452129364,-0.07105030864477158,0.18783263862133026
1772568126433775900,9.87477587890625,-0.07558439671993256,-0.03786948323249817,0.15693558752536774
1772568126443848000,9.884847900390625,-0.061187081038951874,0.02266816236078739,0.11835649609565735
1772568126453918700,9.894918701171875,-0.04410047456622124,0.07133845239877701,0.08980444073677063
1772568126463990800,9.90499072265625,-0.019640406593680382,0.09227222949266434,0.05610772594809532
1772568126474061800,9.915061767578125,-0.020795419812202454,0.098939448595047,0.009808138012886047
1772568126484133600,9.925133544921875,-0.025457017123699188,0.08298046141862869,-0.013438061811029911
1772568126494205700,9.935205810546876,-0.028205489739775658,0.034976281225681305,-0.0034908978268504143
