time,seconds_elapsed,z,y,x
1772568129485229600,0.1102294921875,0.16717249155044556,-0.35976067185401917,0.11785658448934555
1772568129495300600,0.120300537109375,0.151269793510437,-0.316520631313324,0.09676403552293777
1772568129505372400,0.130372314453125,0.11392801254987717,-0.25629299879074097,0.0892091765999794
1772568129515443500,0.140443359375,0.08197762072086334,-0.20174191892147064,0.0829988420009613
1772568129525515500,0.150515625,0.06616323441267014,-0.150907501578331,0.08165155351161957
1772568129535587600,0.160587646484375,0.06048141419887543,-0.10539086908102036,0.07531873136758804
1772568129545658600,0.17065869140625,0.05729387700557709,-0.05455538257956505,0.05840499326586723
1772568129555730700,0.180730712890625,0.04958954453468323,0.017230184748768806,0.02718447893857956
1772568129565801700,0.1908017578125,0.0384623259305954,0.06739960610866547,-0.015128889121115208
1772568129575873500,0.20087353515625,0.038118280470371246,0.09705351293087006,-0.046086013317108154
1772568129585945600,0.210945556640625,0.04432424530386925,0.11146707832813263,-0.04972656071186066
1772568129596016400,0.221016357421875,0.05028299242258072,0.11028929054737091,-0.033929262310266495
1772568129606088400,0.23108837890625,0.05083906278014183,0.09409913420677185,-0.011973896995186806
1772568129616159500,0.241159423828125,0.05742650106549263,0.06378339976072311,0.015362641774117947
1772568129626231600,0.2512314453125,0.08128576725721359,0.034979447722435,0.044504281133413315
1772568129636303400,0.261303466796875,0.10553324222564697,0.009754957631230354,0.06104230880737305
1772568129646374400,0.27137451171875,0.12454954534769058,-0.02565416507422924,0.06709913909435272
1772568129656446500,0.281446533203125,0.1362694352865219,-0.04140133783221245,0.06947866082191467
1772568129666517500,0.291517578125,0.13460975885391235,-0.053124308586120605,0.07104966044425964
1772568129676589600,0.301589599609375,0.12237628549337387,-0.069005087018013,0.059936121106147766
1772568129686661400,0.311661376953125,0.11278650909662247,-0.07029272615909576,0.05016418546438217
1772568129696732400,0.321732421875,0.11331560462713242,-0.043293628841638565,0.04356304183602333
1772568129706804500,0.331804443359375,0.12444894760847092,-0.025176944211125374,0.03190479055047035
1772568129716875500,0.34187548828125,0.128822922706604,-0.02140248939394951,0.014506245963275433
1772568129726947600,0.351947509765625,0.1288471519947052,-0.036905549466609955,-0.00828881561756134
1772568129737019600,0.36201953125,0.12669909000396729,-0.08976621180772781,-0.020351890474557877
1772568129747090700,0.372090576171875,0.124748595058918,-0.16394589841365814,-0.009379401803016663
1772568129757162500,0.38216259765625,0.11925902217626572,-0.25209107995033264,0.024027369916439056
1772568129767233500,0.392233642578125,0.11475774645805359,-0.30162137746810913,0.05978216975927353
1772568129777305600,0.4023056640625,0.10687543451786041,-0.2938264310359955,0.07998303323984146
1772568129787377700,0.412377685546875,0.10160557180643082,-0.2645500600337982,0.0634610503911972
1772568129797448400,0.422448486328125,0.09214252233505249,-0.22073766589164734,0.025550931692123413
1772568129807520500,0.4325205078125,0.07533425092697144,-0.1929345428943634,-0.0005714837461709976
1772568129817591600,0.442591552734375,0.05911761149764061,-0.18561039865016937,-0.011708013713359833
1772568129827663400,0.452663330078125,0.05057179555296898,-0.18963231146335602,0.0004879320040345192
1772568129837734400,0.462734375,0.053324248641729355,-0.1818302869796753,0.01710708998143673
1772568129847806500,0.472806396484375,0.05716399475932121,-0.16262197494506836,0.024310410022735596
1772568129857878500,0.48287841796875,0.06510493159294128,-0.13172011077404022,0.021762249991297722
1772568129867949600,0.492949462890625,0.07819836586713791,-0.0846271738409996,0.013879824429750443
1772568129878021400,0.503021484375,0.0826861709356308,-0.046233881264925,-0.00478255283087492
1772568129888092400,0.513092529296875,0.08726520836353302,-0.02359834499657154,-0.021891765296459198
1772568129898164500,0.52316455078125,0.08718733489513397,-0.014355677179992199,-0.03151988238096237
1772568129908236500,0.533236572265625,0.08915381133556366,-0.009834961034357548,-0.025234553962945938
1772568129918307600,0.5433076171875,0.104997418820858,0.0023847040720283985,-0.005953128915280104
1772568129928379600,0.553379638671875,0.1147906556725502,0.01970270834863186,0.003494434989988804
1772568129938450700,0.56345068359375,0.12091360241174698,0.040516048669815063,0.0019775182008743286
1772568129948522500,0.5735224609375,0.117213673889637,0.0552811473608017,-0.007478834129869938
1772568129958594600,0.583594482421875,0.09381598234176636,0.0653134360909462,-0.01264859363436699
1772568129968665600,0.59366552734375,0.06116349995136261,0.06196290999650955,-0.02547917142510414
1772568129978737700,0.603737548828125,0.03677312284708023,0.04320261999964714,-0.03413858637213707
1772568129988808700,0.61380859375,0.02250390499830246,0.0007190764881670475,-0.03691413626074791
1772568129998880500,0.623880615234375,0.010561034083366394,-0.05716858431696892,-0.041580215096473694
1772568130008952600,0.63395263671875,0.005359082017093897,-0.10916680842638016,-0.035445887595415115
1772568130019023400,0.6440234375,0.006097043864428997,-0.14202781021595,-0.012170127592980862
1772568130029095400,0.654095458984375,0.010695258155465126,-0.15282666683197021,0.011596986092627048
1772568130039166500,0.66416650390625,0.0028227646835148335,-0.144778311252594,0.014787952415645123
1772568130049238500,0.674238525390625,-0.005045277997851372,-0.12864699959754944,0.006112704984843731
1772568130059310300,0.684310302734375,-0.021664047613739967,-0.12598058581352234,-0.01391779724508524
1772568130069381400,0.69438134765625,-0.04163588955998421,-0.14194144308567047,-0.025124114006757736
1772568130079453400,0.704453369140625,-0.06025858223438263,-0.15949182212352753,-0.019134316593408585
1772568130089524500,0.7145244140625,-0.07417785376310349,-0.18506962060928345,0.007616337388753891
1772568130099596500,0.724596435546875,-0.07358119636774063,-0.19901639223098755,0.028803981840610504
1772568130109668600,0.734668701171875,-0.07337985932826996,-0.21467019617557526,0.036884013563394547
1772568130119739600,0.74473974609375,-0.07419752329587936,-0.21776342391967773,0.03724554553627968
1772568130129811500,0.7548115234375,-0.08837433159351349,-0.199472576379776,0.04403633996844292
1772568130139882500,0.764882568359375,-0.10285424441099167,-0.1485106647014618,0.06272664666175842
1772568130149954600,0.77495458984375,-0.09882354736328125,-0.06506690382957458,0.07803236693143845
1772568130160025600,0.785025634765625,-0.09575128555297852,0.011551402509212494,0.06326188147068024
1772568130170097700,0.79509765625,-0.09210781753063202,0.07332848012447357,0.006551731377840042
1772568130180169500,0.80516943359375,-0.09620478004217148,0.12937743961811066,-0.04406055435538292
1772568130190240500,0.815240478515625,-0.09949564933776855,0.1497434377670288,-0.06853633373975754
1772568130200312600,0.8253125,-0.09385359287261963,0.1348690390586853,-0.05789486691355705
1772568130210383400,0.83538330078125,-0.08570245653390884,0.14042040705680847,-0.017178596928715706
1772568130220455400,0.845455322265625,-0.06505394726991653,0.15788306295871735,0.007105229422450066
1772568130230527500,0.855527587890625,-0.05235812067985535,0.17191818356513977,0.0076754130423069
1772568130240598500,0.8655986328125,-0.04475095123052597,0.2021935135126114,0.005943998694419861
1772568130250670300,0.87567041015625,-0.03952715918421745,0.2310536652803421,-0.001547473482787609
1772568130260741400,0.885741455078125,-0.0373961441218853,0.2344268262386322,-0.015039095655083656
1772568130270813400,0.8958134765625,-0.03065328672528267,0.208607479929924,-0.022325504571199417
1772568130280885500,0.905885498046875,-0.02583550661802292,0.14917731285095215,-0.012826711870729923
1772568130290956500,0.91595654296875,-0.012628360651433468,0.09231802076101303,0.005570671521127224
1772568130301028600,0.926028564453125,-0.0039929491467773914,0.03972666338086128,0.019318513572216034
1772568130311099600,0.936099609375,-0.0023082331754267216,0.00083918496966362,0.021539054811000824
1772568130321171500,0.94617138671875,0.00013122474774718285,-0.01767921634018421,0.014344441704452038
1772568130331242500,0.956242431640625,0.005053012631833553,-0.03314365819096565,0.011757447384297848
1772568130341314600,0.966314453125,0.01847614347934723,-0.05214983969926834,0.018328797072172165
1772568130351386600,0.97638671875,0.0326409637928009,-0.055312346667051315,0.04182320460677147
1772568130361457700,0.986457763671875,0.04478779807686806,-0.055281657725572586,0.049314338713884354
1772568130371529500,0.996529541015625,0.054932575672864914,-0.05676450580358505,0.03207489848136902
1772568130381600500,1.0066005859375,0.0577654130756855,-0.0684371143579483,0.009182551875710487
1772568130391672600,1.016672607421875,0.05639068782329559,-0.07784552872180939,-0.0035116709768772125
1772568130401744600,1.02674462890625,0.054940640926361084,-0.09830089658498764,-0.008939065039157867
1772568130411815400,1.0368154296875,0.0679033100605011,-0.11871296167373657,0.002725047990679741
1772568130421887500,1.046887451171875,0.07983993738889694,-0.13193674385547638,0.0101206935942173
1772568130431958500,1.05695849609375,0.09295786917209625,-0.1288786381483078,0.01763986237347126
1772568130442030300,1.0670302734375,0.09716997295618057,-0.13826893270015717,0.019172552973031998
1772568130452102400,1.077102294921875,0.09712150692939758,-0.14910772442817688,0.015010563656687737
1772568130462173400,1.08717333984375,0.09784173220396042,-0.1428748220205307,0.01836736500263214
1772568130472245500,1.09724560546875,0.09202033281326294,-0.13912615180015564,0.014023483730852604
1772568130482316500,1.107316650390625,0.08930253237485886,-0.1389319747686386,0.009480190463364124
1772568130492388600,1.117388671875,0.08093275129795074,-0.12671364843845367,0.0018997695297002792
1772568130502460400,1.12746044921875,0.06640437245368958,-0.09332551807165146,-0.0076110172085464
1772568130512531500,1.137531494140625,0.05176790431141853,-0.04844379425048828,-0.01199058536440134
1772568130522603500,1.147603515625,0.03217068687081337,-0.01099514402449131,-0.006018328946083784
1772568130532674600,1.157674560546875,0.012458502314984798,0.004047720693051815,-0.008427424356341362
1772568130542746600,1.16774658203125,0.000306649599224329,0.0023546507582068443,-0.024066027253866196
1772568130552817700,1.177817626953125,-0.007713194005191326,-0.002867808099836111,-0.03854403644800186
1772568130562889500,1.187889404296875,-0.009197715669870377,-0.0022220199462026358,-0.04742724075913429
1772568130572961500,1.19796142578125,-0.005374482367187738,-0.00023876363411545753,-0.05389579385519028
1772568130583032600,1.208032470703125,-0.002307130955159664,0.0030507436022162437,-0.059226877987384796
1772568130593104600,1.218104736328125,-0.0005885926075279713,0.01370365358889103,-0.04800857603549957
1772568130603175400,1.228175537109375,0.0027942368760704994,0.04561106115579605,-0.03522453457117081
1772568130613247700,1.238247802734375,0.004583614878356457,0.08148783445358276,-0.038215797394514084
1772568130623319600,1.248319580078125,0.005897656083106995,0.11259975284337997,-0.042083218693733215
1772568130633390300,1.258390380859375,0.0119443628937006,0.1356787085533142,-0.04579939320683479
1772568130643462400,1.26846240234375,0.01670648157596588,0.1412723958492279,-0.0460977628827095
1772568130653533400,1.278533447265625,0.024944968521595,0.14565543830394745,-0.057486504316329956
1772568130663605500,1.28860546875,0.02984410524368286,0.13696342706680298,-0.06457702815532684
1772568130673676500,1.298676513671875,0.03406015783548355,0.129470095038414,-0.07292710244655609
1772568130683748600,1.30874853515625,0.032936159521341324,0.11368492245674133,-0.07763484120368958
1772568130693820400,1.3188203125,0.03021707385778427,0.10379926860332489,-0.06345564126968384
1772568130703891500,1.328891357421875,0.026898816227912903,0.0907026007771492,-0.044332340359687805
1772568130713963500,1.338963623046875,0.026639424264431,0.07818228006362915,-0.02072048746049404
1772568130724034600,1.34903466796875,0.03774038329720497,0.058769598603248596,-0.014427201822400093
1772568130734106600,1.359106689453125,0.04033217206597328,0.03062957152724266,-0.024491287767887115
1772568130744178400,1.369178466796875,0.03973836824297905,0.011356992647051811,-0.03746259957551956
1772568130754249500,1.37924951171875,0.03890826180577278,-0.005441961344331503,-0.04037342965602875
1772568130764321500,1.389321533203125,0.04119100421667099,-0.018324991688132286,-0.03238785266876221
1772568130774392600,1.399392578125,0.04451889172196388,-0.02833368442952633,-0.02801201120018959
1772568130784464600,1.409464599609375,0.049248628318309784,-0.02421155571937561,-0.02711915783584118
1772568130794535400,1.419535400390625,0.05961684510111809,-0.030420981347560883,-0.03481303155422211
1772568130804607700,1.429607666015625,0.07103252410888672,-0.04357399791479111,-0.04103761166334152
1772568130814679600,1.439679443359375,0.09513812512159348,-0.05516008287668228,-0.02723711170256138
1772568130824750300,1.449750244140625,0.11833377182483673,-0.07695596665143967,-0.013336269184947014
1772568130834822400,1.459822509765625,0.14093761146068573,-0.0859324187040329,0.0031987642869353294
1772568130844893400,1.4698935546875,0.1521458625793457,-0.09283614158630371,0.005982165224850178
1772568130854965500,1.479965576171875,0.14416809380054474,-0.10263204574584961,-0.00572535814717412
1772568130865037600,1.49003759765625,0.12813884019851685,-0.10522212833166122,-0.020703116431832314
1772568130875108600,1.500108642578125,0.09359471499919891,-0.09351034462451935,-0.028186332434415817
1772568130885180400,1.510180419921875,0.06197511404752731,-0.069999098777771,-0.024085447192192078
1772568130895251500,1.52025146484375,0.04052787646651268,-0.04758168011903763,-0.02265666052699089
1772568130905323500,1.530323486328125,0.01869688183069229,-0.03524389863014221,-0.015437444671988487
1772568130915395600,1.5403955078125,-0.002919462975114584,-0.028104495257139206,-0.001632682979106903
1772568130925466600,1.550466552734375,-0.016566641628742218,-0.0389595665037632,0.004264923743903637
1772568130935538400,1.560538330078125,-0.02482723444700241,-0.07141631096601486,-0.000019837170839309692
1772568130945609500,1.570609375,-0.03167776018381119,-0.10110856592655182,-0.002985048107802868
1772568130955681500,1.580681640625,-0.017507879063487053,-0.11644331365823746,0.006459852680563927
1772568130965752600,1.590752685546875,0.006518129259347916,-0.12483369559049606,0.015226551331579685
1772568130975824600,1.60082470703125,0.027140051126480103,-0.10467196255922318,0.014388720504939556
1772568130985896700,1.610896728515625,0.0399465411901474,-0.07604669779539108,-0.006850162986665964
1772568130995967700,1.6209677734375,0.052786439657211304,-0.037966690957546234,-0.025421451777219772
1772568131006039600,1.63103955078125,0.06368859112262726,0.012768901884555817,-0.03511287644505501
1772568131016110300,1.6411103515625,0.07732557505369186,0.044772107154130936,-0.04403819516301155
1772568131026182400,1.651182373046875,0.09249212592840195,0.08810503035783768,-0.048724040389060974
1772568131036254500,1.66125439453125,0.09605143964290619,0.13040108978748322,-0.05195498839020729
1772568131046325500,1.671325439453125,0.08697131276130676,0.17432190477848053,-0.05930554121732712
1772568131056397300,1.681397216796875,0.0785815566778183,0.19569271802902222,-0.06275380402803421
1772568131066468400,1.69146826171875,0.06644077599048615,0.1911558210849762,-0.06722895801067352
1772568131076540400,1.70154052734375,0.056336212903261185,0.1675892472267151,-0.053138166666030884
1772568131086611500,1.711611572265625,0.060692157596349716,0.13855618238449097,-0.03536808118224144
1772568131096683500,1.72168359375,0.06729253381490707,0.094190314412117,-0.02247624844312668
1772568131106755600,1.731755615234375,0.06995698064565659,0.036724623292684555,-0.024376992136240005
1772568131116826600,1.74182666015625,0.057693127542734146,-0.025012245401740074,-0.03155234828591347
1772568131126898400,1.7518984375,0.0463661327958107,-0.0801360234618187,-0.035741522908210754
1772568131136969500,1.761969482421875,0.03564397990703583,-0.11233310401439667,-0.036474160850048065
1772568131147041500,1.77204150390625,0.03153358772397041,-0.12487535178661346,-0.035188060253858566
1772568131157113600,1.782113525390625,0.03734300658106804,-0.13831259310245514,-0.0322420708835125
1772568131167184600,1.7921845703125,0.04697326943278313,-0.15293613076210022,-0.025476397946476936
1772568131177256700,1.802256591796875,0.05245565250515938,-0.14878319203853607,-0.015737485140562057
1772568131187327700,1.81232763671875,0.06012451648712158,-0.14272862672805786,-0.00971926562488079
1772568131197399600,1.822399658203125,0.07103842496871948,-0.12929564714431763,-0.017393697053194046
1772568131207471600,1.8324716796875,0.07787624001502991,-0.12166590243577957,-0.0332864485681057
1772568131217542400,1.84254248046875,0.07233020663261414,-0.13665629923343658,-0.04822278395295143
1772568131227614500,1.852614501953125,0.07484841346740723,-0.16016602516174316,-0.042766280472278595
1772568131237685500,1.862685546875,0.0716472938656807,-0.19064617156982422,-0.02590128220617771
1772568131247757300,1.87275732421875,0.06942949444055557,-0.2149653285741806,0.0038722893223166466
1772568131257828400,1.882828369140625,0.07399361580610275,-0.21022863686084747,0.03499132767319679
1772568131267900400,1.892900390625,0.07366087287664413,-0.18240562081336975,0.0474591962993145
1772568131277972500,1.902972412109375,0.06797689199447632,-0.13497446477413177,0.04783576726913452
1772568131288043500,1.91304345703125,0.06501632928848267,-0.09172884374856949,0.0363655760884285
1772568131298115600,1.923115478515625,0.0540747307240963,-0.049400292336940765,0.011363553814589977
1772568131308186600,1.9331865234375,0.05797538906335831,-0.021630745381116867,-0.013475446030497551
1772568131318258400,1.943258544921875,0.05069936439394951,-0.023554347455501556,-0.03240998834371567
1772568131328330500,1.95333056640625,0.045745402574539185,-0.042365580797195435,-0.031876519322395325
1772568131338401500,1.963401611328125,0.040555961430072784,-0.06651005893945694,-0.009927010163664818
1772568131348473600,1.9734736328125,0.04325263574719429,-0.08618150651454926,0.018571967259049416
1772568131358544600,1.983544677734375,0.05996370315551758,-0.10479940474033356,0.031329840421676636
1772568131368616700,1.99361669921875,0.06670789420604706,-0.13132700324058533,0.0425800196826458
1772568131378687700,2.003687744140625,0.06179862469434738,-0.15973787009716034,0.06088658794760704
1772568131388759800,2.013759765625,0.0651157796382904,-0.17189174890518188,0.07240638881921768
1772568131398831900,2.023831787109375,0.06254316866397858,-0.16707542538642883,0.06935227662324905
1772568131408903000,2.03390283203125,0.05329287052154541,-0.1543366014957428,0.06570156663656235
1772568131418975000,2.04397509765625,0.039477985352277756,-0.12916281819343567,0.06310631334781647
1772568131429046000,2.0540458984375,0.03343169391155243,-0.10100492835044861,0.05724372714757919
1772568131439117800,2.064117919921875,0.027757031843066216,-0.059461481869220734,0.044741518795490265
1772568131449190000,2.07418994140625,0.021660100668668747,-0.028189368546009064,0.03873775899410248
1772568131459261000,2.084260986328125,0.016415804624557495,0.0020577493123710155,0.028262481093406677
1772568131469333000,2.0943330078125,0.0081780469045043,0.008114750497043133,0.020750824362039566
1772568131479404000,2.104404052734375,-0.01285133883357048,0.009036736562848091,0.027400203049182892
1772568131489475800,2.114475830078125,-0.02731725014746189,0.01285991258919239,0.020441170781850815
1772568131499547000,2.124546875,-0.03213997185230255,0.004154305439442396,0.00834322813898325
1772568131509619000,2.134618896484375,-0.0363476537168026,-0.007694156840443611,0.004976265132427216
1772568131519691000,2.14469091796875,-0.03712822496891022,-0.02362678572535515,0.013022206723690033
1772568131529761800,2.15476171875,-0.04666176810860634,-0.027566438540816307,0.029138799756765366
1772568131539833900,2.164833740234375,-0.04786764830350876,-0.012488152831792831,0.043460216373205185
1772568131549905000,2.17490478515625,-0.05276821181178093,0.006082682870328426,0.04733283445239067
1772568131559976700,2.184976806640625,-0.06378490477800369,0.038059789687395096,0.036346230655908585
1772568131570048800,2.195048828125,-0.07318681478500366,0.07731572538614273,0.02810969576239586
1772568131580119800,2.205119873046875,-0.0760052353143692,0.10221149027347565,0.015639711171388626
1772568131590191900,2.21519189453125,-0.08587902784347534,0.12911072373390198,0.012056149542331696
1772568131600263000,2.225262939453125,-0.09056752175092697,0.17085523903369904,0.0020165657624602318
1772568131610335000,2.2353349609375,-0.08643266558647156,0.1921149045228958,-0.016379650682210922
1772568131620406800,2.24540673828125,-0.07509292662143707,0.20490047335624695,-0.040223199874162674
1772568131630477800,2.255477783203125,-0.06211012601852417,0.19565565884113312,-0.05732038617134094
1772568131640550000,2.2655498046875,-0.04899005964398384,0.16673825681209564,-0.056976038962602615
1772568131650621000,2.275620849609375,-0.05075451359152794,0.11494996398687363,-0.04781270772218704
1772568131660693000,2.28569287109375,-0.05792773887515068,0.0676274523139,-0.027322079986333847
1772568131670764800,2.295764892578125,-0.07635806500911713,0.027608586475253105,0.009941549971699715
1772568131680835800,2.3058359375,-0.08955802023410797,-0.00858563743531704,0.03895988687872887
1772568131690908000,2.315907958984375,-0.09250915795564651,-0.031631797552108765,0.06145801767706871
1772568131700979000,2.32597900390625,-0.0895485207438469,-0.0012861436698585749,0.0659925788640976
1772568131711051000,2.336051025390625,-0.09316965937614441,0.014584582298994064,0.03343956917524338
1772568131721121800,2.346121826171875,-0.10536906868219376,0.0004376056604087353,-0.0024222899228334427
1772568131731193900,2.35619384765625,-0.12787090241909027,-0.02844977006316185,-0.014690380543470383
1772568131741265700,2.366265625,-0.1441851705312729,-0.06991332024335861,-0.01750108040869236
1772568131751336700,2.376336669921875,-0.1477583348751068,-0.10602902621030807,-0.029521897435188293
1772568131761408800,2.38640869140625,-0.15079407393932343,-0.10674941539764404,-0.03743388503789902
1772568131771479800,2.396479736328125,-0.15768979489803314,-0.09735868126153946,-0.03164584934711456
1772568131781551900,2.4065517578125,-0.1568053662776947,-0.07904678583145142,-0.02313385158777237
1772568131791624000,2.4166240234375,-0.1493813693523407,-0.06377061456441879,-0.02019709348678589
1772568131801695000,2.426695068359375,-0.14376743137836456,-0.05113285034894943,-0.018684951588511467
1772568131811766800,2.436766845703125,-0.13739672303199768,-0.04280579835176468,-0.02077433094382286
1772568131821837800,2.446837890625,-0.11876018345355988,-0.056497909128665924,-0.017955375835299492
1772568131831910000,2.456909912109375,-0.09938817471265793,-0.08069812506437302,-0.004168788902461529
1772568131841982000,2.46698193359375,-0.08036760985851288,-0.09831227362155914,0.006890519522130489
1772568131852053000,2.477052978515625,-0.05626566708087921,-0.08088430017232895,0.0036136293783783913
1772568131862124800,2.487124755859375,-0.037740983068943024,-0.04418088123202324,-0.006464038975536823
1772568131872195800,2.49719580078125,-0.03277692571282387,-0.0011609592474997044,-0.022592803463339806
1772568131882268000,2.507267822265625,-0.03298624977469444,0.025681573897600174,-0.029458165168762207
1772568131892339000,2.5173388671875,-0.03810472786426544,0.03878457844257355,-0.03042392060160637
1772568131902411000,2.527410888671875,-0.03970741853117943,0.04392421245574951,-0.02422647923231125
1772568131912483000,2.537483154296875,-0.0401105135679245,0.04199464991688728,-0.019883695989847183
1772568131922553900,2.547553955078125,-0.034678466618061066,0.017891980707645416,-0.011273697018623352
1772568131932626000,2.5576259765625,-0.030101396143436432,0.0015938030555844307,0.0040648141875863075
1772568131942696700,2.56769677734375,-0.022824041545391083,0.014023307710886002,0.009728292934596539
1772568131952768800,2.577768798828125,-0.01946268230676651,0.07128024101257324,-0.00928427092730999
1772568131962840800,2.5878408203125,-0.019731394946575165,0.12631261348724365,-0.04050344228744507
1772568131972911900,2.597911865234375,-0.0313139334321022,0.1508149802684784,-0.057706672698259354
1772568131982984000,2.60798388671875,-0.03808395564556122,0.14592088758945465,-0.06179516017436981
1772568131993055000,2.618054931640625,-0.05381666123867035,0.11402174085378647,-0.045570455491542816
1772568132003126800,2.628126708984375,-0.05484543740749359,0.09395615011453629,-0.03510449454188347
1772568132013197800,2.63819775390625,-0.057460591197013855,0.07145002484321594,-0.02554388903081417
1772568132023270000,2.648269775390625,-0.06286467611789703,0.047090623527765274,-0.018701430410146713
1772568132033342000,2.658342041015625,-0.07733947783708572,0.01880938559770584,-0.011437897570431232
1772568132043413000,2.6684130859375,-0.08115099370479584,-0.01152428612112999,-0.01597645692527294
1772568132053484800,2.67848486328125,-0.09044220298528671,-0.050934094935655594,-0.019960707053542137
1772568132063555800,2.688555908203125,-0.08675532042980194,-0.07323114573955536,-0.026858292520046234
1772568132073628000,2.6986279296875,-0.07717471569776535,-0.09052006155252457,-0.03615891933441162
1772568132083700000,2.708699951171875,-0.06132544204592705,-0.08111350983381271,-0.03376553952693939
1772568132093771000,2.71877099609375,-0.04426040127873421,-0.07129143923521042,-0.028903380036354065
1772568132103843000,2.728843017578125,-0.03403705731034279,-0.05710185319185257,-0.021851064637303352
1772568132113913900,2.738913818359375,-0.032192401587963104,-0.04689767211675644,-0.011792214587330818
1772568132123986000,2.74898583984375,-0.03486195206642151,-0.04149385169148445,0.004227497614920139
1772568132134058000,2.75905810546875,-0.035093918442726135,-0.04038810729980469,0.019693538546562195
1772568132144128800,2.769128662109375,-0.03306325525045395,-0.035196807235479355,0.030163489282131195
1772568132154200800,2.779200927734375,-0.0296783410012722,-0.028004713356494904,0.031225770711898804
1772568132164271900,2.78927197265625,-0.01852395571768284,-0.006028574891388416,0.028538640588521957
1772568132174344000,2.799343994140625,-0.0035892538726329803,0.026023143902420998,0.018918294459581375
1772568132184415700,2.809415771484375,0.017864905297756195,0.07541891932487488,0.006023534573614597
1772568132194486800,2.81948681640625,0.02765822410583496,0.12928937375545502,-0.014992835931479931
1772568132204558800,2.829558837890625,0.028716031461954117,0.16813930869102478,-0.03481234610080719
1772568132214630000,2.8396298828125,0.029953831806778908,0.17879480123519897,-0.05010556802153587
1772568132224702000,2.849701904296875,0.024339355528354645,0.17027108371257782,-0.05218949168920517
1772568132234773800,2.859773681640625,0.019623354077339172,0.15383721888065338,-0.039854496717453
1772568132244844800,2.8698447265625,0.016803864389657974,0.14128680527210236,-0.014566452242434025
1772568132254916900,2.879916748046875,0.020784834399819374,0.1431254893541336,0.006711374036967754
1772568132264988000,2.88998779296875,0.01595359481871128,0.14188338816165924,0.012676854617893696
1772568132275060000,2.90006005859375,0.013278338126838207,0.14811179041862488,0.016748756170272827
1772568132285131000,2.910131103515625,0.0171700157225132,0.12276727706193924,0.017992451786994934
1772568132295203000,2.920203125,0.024956222623586655,0.08143499493598938,0.010842167772352695
1772568132305275000,2.93027490234375,0.02588167041540146,0.04310490936040878,0.002294485457241535
1772568132315346000,2.940345947265625,0.022313226014375687,0.011954043060541153,-0.005098764318972826
1772568132325418000,2.95041796875,0.012082426808774471,-0.012206420302391052,-0.0009056171402335167
1772568132335488800,2.96048876953125,0.007037904113531113,-0.027979187667369843,0.00220577884465456
1772568132345560800,2.970560791015625,0.0080493725836277,-0.042871054261922836,0.006849799305200577
1772568132355633000,2.9806328125,0.01037856936454773,-0.06756739318370819,0.01916947215795517
1772568132365704000,2.990703857421875,0.017144596204161644,-0.07341250032186508,0.02435651421546936
1772568132375776300,3.0007763671875,0.024871988222002983,-0.07299855351448059,0.03006862848997116
1772568132385847300,3.010847412109375,0.029646236449480057,-0.07346966862678528,0.023427505046129227
1772568132395919400,3.02091943359375,0.03239103779196739,-0.0803808644413948,0.00925254076719284
1772568132405991400,3.030991455078125,0.03545527160167694,-0.08197183907032013,-0.003182291053235531
1772568132416062500,3.0410625,0.03659244626760483,-0.08532083034515381,-0.006442234385758638
1772568132426134300,3.05113427734375,0.037111230194568634,-0.10798726230859756,0.0008897138759493828
1772568132436205000,3.061205078125,0.037018705159425735,-0.12667220830917358,0.02702377550303936
1772568132446277400,3.07127734375,0.03389455005526543,-0.12187905609607697,0.05289238691329956
1772568132456349400,3.081349365234375,0.028495067730545998,-0.09567607194185257,0.058947671204805374
1772568132466420200,3.091420166015625,0.02207125723361969,-0.06683377176523209,0.05188949033617973
1772568132476492300,3.1014921875,0.014977242797613144,-0.04344658926129341,0.04536127299070358
1772568132486563300,3.111563232421875,0.014863526448607445,-0.013909471221268177,0.04437324032187462
1772568132496635100,3.12163525390625,0.01905054971575737,0.013525240123271942,0.03863990679383278
1772568132506706200,3.1317060546875,0.017860116437077522,0.04011131078004837,0.030305542051792145
1772568132516778200,3.1417783203125,0.02207723632454872,0.04367131367325783,0.02008238434791565
1772568132526850300,3.151850341796875,0.02266313135623932,0.03279949352145195,0.017188861966133118
1772568132536921300,3.16192138671875,0.024666965007781982,0.023977220058441162,0.027837106958031654
1772568132546993200,3.1719931640625,0.020580077543854713,0.018944911658763885,0.022947808727622032
1772568132557064200,3.182064208984375,0.013201838359236717,0.009852886199951172,0.01057932898402214
1772568132567136300,3.19213623046875,0.0039955563843250275,-0.008594032377004623,0.006649568676948547
1772568132577208300,3.202208251953125,0.002493445761501789,-0.03675905615091324,0.023100998252630234
1772568132587279400,3.212279296875,0.010586259886622429,-0.0552603043615818,0.051679644733667374
1772568132597351400,3.222351318359375,0.027725867927074432,-0.03592941164970398,0.07391120493412018
1772568132607422500,3.23242236328125,0.03745972365140915,-0.0011690347455441952,0.05798763036727905
1772568132617494300,3.242494384765625,0.03637901321053505,0.02919328585267067,0.02004389651119709
1772568132627566300,3.25256640625,0.036288999021053314,0.04305743798613548,-0.006162672303617001
1772568132637637400,3.262637451171875,0.03929780051112175,0.038362592458724976,-0.014218942262232304
1772568132647709400,3.27270947265625,0.04053803160786629,0.023533843457698822,-0.014684995636343956
1772568132657780200,3.2827802734375,0.034035734832286835,-0.0008361805230379105,-0.01326716411858797
1772568132667852300,3.292852294921875,0.031454067677259445,-0.02363124117255211,0.00310355331748724
1772568132677924000,3.302924072265625,0.03064100816845894,-0.03969447314739227,0.029980890452861786
1772568132687995100,3.3129951171875,0.03647865727543831,-0.046139590442180634,0.04570019990205765
1772568132698067200,3.323067138671875,0.03899545222520828,-0.03118056245148182,0.044558119028806686
1772568132708138200,3.33313818359375,0.03165418654680252,-0.015498004853725433,0.04014579579234123
1772568132718210300,3.343210205078125,0.024449151009321213,-0.0084677804261446,0.024767998605966568
1772568132728281300,3.35328125,0.011883292347192764,-0.014835664071142673,0.010188254527747631
1772568132738353200,3.363353271484375,0.003528616623952985,-0.036854665726423264,0.005407755263149738
1772568132748425200,3.37342529296875,0.0026404522359371185,-0.05661052465438843,0.014887277968227863
1772568132758496300,3.383496337890625,0.003057805821299553,-0.08315327763557434,0.031239986419677734
1772568132768568300,3.393568359375,0.015244431793689728,-0.1013336107134819,0.05054444074630737
1772568132778639400,3.403639404296875,0.011706499382853508,-0.10481790453195572,0.07115878909826279
1772568132788711400,3.41371142578125,0.02230428345501423,-0.08913774788379669,0.07955840229988098
1772568132798783200,3.423783203125,0.0328928604722023,-0.077299103140831,0.0700402557849884
1772568132808854300,3.433854248046875,0.04250314459204674,-0.08140543103218079,0.05352146551012993
1772568132818926300,3.44392626953125,0.04708564281463623,-0.10131004452705383,0.04733075946569443
1772568132828997400,3.453997314453125,0.049514174461364746,-0.11830393970012665,0.056822799146175385
1772568132839069400,3.4640693359375,0.05357393994927406,-0.10883112251758575,0.06346093863248825
1772568132849141200,3.474141357421875,0.05104180797934532,-0.07601005584001541,0.05704831704497337
1772568132859212300,3.48421240234375,0.0535813644528389,-0.05124363675713539,0.04833408072590828
1772568132869284000,3.4942841796875,0.05363808944821358,-0.02999640442430973,0.04501604661345482
1772568132879355100,3.504355224609375,0.06258895993232727,-0.01472113560885191,0.04213322699069977
1772568132889427200,3.51442724609375,0.06718850880861282,-0.013383695855736732,0.035564541816711426
1772568132899499300,3.524499267578125,0.0617687925696373,-0.028020622208714485,0.02854692004621029
1772568132909570300,3.5345703125,0.060119230300188065,-0.036926768720149994,0.027895508334040642
1772568132919642000,3.54464208984375,0.06124281883239746,-0.04078659787774086,0.02282104082405567
1772568132929713200,3.554713134765625,0.0658562108874321,-0.03698386996984482,0.02715693600475788
1772568132939785200,3.56478515625,0.06319483369588852,-0.02487998455762863,0.029852699488401413
1772568132949857300,3.574857177734375,0.06033513695001602,-0.01926657371222973,0.02681829407811165
1772568132959928300,3.58492822265625,0.05175987631082535,-0.014233321882784367,0.029867708683013916
1772568132970000400,3.59500048828125,0.037128470838069916,-0.006647840607911348,0.02646578475832939
1772568132980071400,3.605071533203125,0.0249711312353611,-0.010822923853993416,0.017703082412481308
1772568132990143200,3.615143310546875,0.015596806071698666,-0.017418507486581802,0.005028565414249897
1772568133000215300,3.62521533203125,0.009427974000573158,-0.02473730966448784,0.0017778994515538216
1772568133010286300,3.635286376953125,0.004344265908002853,-0.02612881176173687,0.011416679248213768
1772568133020358400,3.6453583984375,0.008683506399393082,-0.010976055637001991,0.013830048032104969
1772568133030429400,3.655429443359375,0.01134746614843607,0.006977645214647055,0.011173543520271778
1772568133040501200,3.665501220703125,0.011242920532822609,0.024818148463964462,0.004711825400590897
1772568133050572000,3.675572021484375,0.012980366125702858,0.039162199944257736,-0.012910312041640282
1772568133060644000,3.68564404296875,0.009990968741476536,0.033863842487335205,-0.029734566807746887
1772568133070716400,3.69571630859375,0.008335547521710396,0.03575069084763527,-0.026456480845808983
1772568133080787200,3.705787109375,0.008853987790644169,0.03521217033267021,-0.014539865776896477
1772568133090859300,3.715859375,0.012188531458377838,0.03569100797176361,-0.0016288617625832558
1772568133100930300,3.725930419921875,0.01412320975214243,0.03465365245938301,0.002970798872411251
1772568133111002000,3.736002197265625,0.018388794735074043,0.02206622250378132,0.0056733740493655205
1772568133121074200,3.74607421875,0.02411249652504921,0.00733954505994916,-0.0008191224187612534
1772568133131145200,3.756145263671875,0.028184469789266586,-0.005551486276090145,-0.008485830388963223
1772568133141217300,3.76621728515625,0.03116689994931221,-0.008129166439175606,-0.017127301543951035
1772568133151288300,3.776288330078125,0.035893745720386505,-0.019014304503798485,-0.024349793791770935
1772568133161360400,3.7863603515625,0.040565162897109985,-0.039041563868522644,-0.014384164474904537
1772568133171432200,3.79643212890625,0.0524015836417675,-0.05026785284280777,-0.0022473400458693504
1772568133181503200,3.806503173828125,0.060595668852329254,-0.058583058416843414,0.0017523225396871567
1772568133191575300,3.8165751953125,0.06638164818286896,-0.06633765250444412,0.005812045186758041
1772568133201646300,3.826646240234375,0.060540687292814255,-0.0772857815027237,0.012678909115493298
1772568133211718400,3.836718505859375,0.05310381203889847,-0.08138252049684525,0.021535519510507584
1772568133221790200,3.846790283203125,0.04785043001174927,-0.07750483602285385,0.0275271013379097
1772568133231861200,3.856861328125,0.041812777519226074,-0.07248876988887787,0.02332223951816559
1772568133241933300,3.866933349609375,0.029549837112426758,-0.07374578714370728,0.014894834719598293
1772568133252004000,3.877004150390625,0.02752263844013214,-0.08019064366817474,0.00362566951662302
1772568133262076400,3.887076416015625,0.0337124764919281,-0.09227154403924942,-0.0037061087787151337
1772568133272148500,3.8971484375,0.03362991660833359,-0.10945425927639008,-0.016056250780820847
1772568133282219300,3.90721923828125,0.03963731229305267,-0.12241388857364655,-0.003011159598827362
1772568133292291000,3.917291015625,0.03515041619539261,-0.12558437883853912,0.0175311341881752
1772568133302362000,3.927362060546875,0.026967670768499374,-0.10339725017547607,0.03601168096065521
1772568133312434200,3.93743408203125,0.011628927662968636,-0.08953443169593811,0.03315197676420212
1772568133322505200,3.947505126953125,-0.0047807516530156136,-0.06534644961357117,0.030647385865449905
1772568133332577300,3.957577392578125,-0.02188703417778015,-0.036277782171964645,0.023026220500469208
1772568133342649300,3.9676494140625,-0.03328551724553108,-0.012561168521642685,0.01760001853108406
1772568133352720400,3.977720458984375,-0.03920785337686539,0.025894612073898315,0.01831268146634102
1772568133362792200,3.987792236328125,-0.04048209264874458,0.05479744076728821,0.00407122727483511
1772568133372860700,3.997860595703125,-0.044645946472883224,0.05516175925731659,-0.01737627387046814
1772568133382931700,4.007931640625,-0.04507117345929146,0.031388282775878906,-0.02371463179588318
1772568133393003800,4.018003662109375,-0.04411483556032181,-0.01356481108814478,-0.005270109511911869
1772568133403074800,4.02807470703125,-0.05058541148900986,-0.04563618823885918,0.018539395183324814
1772568133413146600,4.038146728515625,-0.05444859340786934,-0.07102569937705994,0.03367067873477936
1772568133423218700,4.04821875,-0.060647137463092804,-0.0815592110157013,0.037481553852558136
1772568133433289500,4.05828955078125,-0.06919055432081223,-0.0697116106748581,0.03310544788837433
1772568133443361500,4.068361572265625,-0.07350383698940277,-0.051452845335006714,0.023589441552758217
1772568133453432600,4.0784326171875,-0.07190833985805511,-0.02795630879700184,0.010236883535981178
1772568133463504600,4.088504638671875,-0.07195822149515152,0.004332893993705511,0.00046365149319171906
1772568133473576400,4.098576416015625,-0.06534665822982788,0.03720508888363838,-0.005370802246034145
1772568133483647500,4.1086474609375,-0.061418354511260986,0.0761958584189415,-0.008436376228928566
1772568133493719600,4.118719482421875,-0.05322699993848801,0.10597985237836838,-0.013025002554059029
1772568133503790600,4.12879052734375,-0.046221211552619934,0.11940137296915054,-0.011792100965976715
1772568133513862700,4.138862548828125,-0.04280703887343407,0.13093659281730652,-0.012588919140398502
1772568133523933700,4.14893359375,-0.038355302065610886,0.12335606664419174,-0.012876353226602077
1772568133534005800,4.159005859375,-0.03404391184449196,0.11966279149055481,-0.0004124930128455162
1772568133544077600,4.16907763671875,-0.031179824844002724,0.10780787467956543,0.005959213711321354
1772568133554148600,4.179148681640625,-0.026316093280911446,0.0907367467880249,0.009327045641839504
1772568133564220700,4.189220703125,-0.021961059421300888,0.07706804573535919,0.010714363306760788
1772568133574291700,4.199291748046875,-0.01993545889854431,0.06338818371295929,0.010655773803591728
1772568133584363800,4.20936376953125,-0.012576008215546608,0.04535696655511856,-0.0028915945440530777
1772568133594435600,4.219435546875,-0.014941960573196411,0.017059283331036568,-0.0049105361104011536
1772568133604506600,4.229506591796875,-0.016662823036313057,-0.003293143119663,-0.00411971565335989
1772568133614578700,4.23957861328125,-0.024308491498231888,-0.023072440177202225,-0.009917950257658958
1772568133624649500,4.2496494140625,-0.027181154116988182,-0.049097951501607895,-0.008879601955413818
1772568133634721800,4.2597216796875,-0.03182224929332733,-0.06453869491815567,0.0022699888795614243
1772568133644792600,4.26979248046875,-0.02714480087161064,-0.07397046685218811,0.01118872407823801
1772568133654864600,4.27986474609375,-0.01990818977355957,-0.09025463461875916,0.012281685136258602
1772568133664936400,4.2899365234375,-0.01291365921497345,-0.09936366230249405,0.013432808220386505
1772568133675007500,4.300007568359375,-0.0013206531293690205,-0.10000815242528915,0.014159850776195526
1772568133685079600,4.31007958984375,0.009203175082802773,-0.09601588547229767,0.01177806593477726
1772568133695150600,4.320150634765625,0.020836129784584045,-0.07116939127445221,0.010137559846043587
1772568133705222700,4.33022265625,0.027226418256759644,-0.03725225478410721,0.004999629221856594
1772568133715294700,4.340294677734375,0.028914062306284904,-0.010814790613949299,-0.007682609837502241
1772568133725365800,4.35036572265625,0.01900976337492466,-0.0005782884545624256,-0.025519847869873047
1772568133735437600,4.3604375,0.01256810873746872,0.005882540252059698,-0.028753191232681274
1772568133745508600,4.370508544921875,0.01271333172917366,0.005762617569416761,-0.023271990939974785
1772568133755580700,4.38058056640625,0.009386245161294937,0.006905645597726107,-0.01752861775457859
1772568133765652700,4.39065283203125,0.0013339519500732422,0.0025920839980244637,-0.012400760315358639
1772568133775723800,4.400723876953125,-0.010059583932161331,0.00583581393584609,-0.002830691635608673
1772568133785795600,4.410795654296875,-0.014467954635620117,0.010496119037270546,-0.006190476007759571
1772568133795866600,4.42086669921875,-0.014153968542814255,0.02393842488527298,-0.01054767332971096
1772568133805938700,4.430938720703125,-0.00953619834035635,0.03362976759672165,-0.021184884011745453
1772568133816009500,4.441009521484375,-0.005118813365697861,0.030722128227353096,-0.026829984039068222
1772568133826081800,4.451081787109375,-0.00373582961037755,0.015721764415502548,-0.022303760051727295
1772568133836153900,4.46115380859375,-0.006963314954191446,-0.009325265884399414,-0.007471019402146339
1772568133846224600,4.471224609375,-0.005563786718994379,-0.021606631577014923,0.010782843455672264
1772568133856296400,4.48129638671875,-0.0059819030575454235,-0.013789987191557884,0.01580956019461155
1772568133866367500,4.491367431640625,-0.006969853769987822,0.003050432540476322,0.0157492496073246
1772568133876439600,4.501439453125,-0.012109754607081413,0.03850829228758812,0.017889365553855896
1772568133886511600,4.51151171875,-0.006990859284996986,0.06595021486282349,0.0157922375947237
1772568133896582700,4.521582763671875,0.0006148624233901501,0.07513066381216049,-0.004176942631602287
1772568133906654700,4.53165478515625,-0.0009459466673433781,0.06275013834238052,-0.026234177872538567
1772568133916725800,4.541725830078125,-0.006335918325930834,0.03095945529639721,-0.037056464701890945
1772568133926797600,4.551797607421875,-0.014100732281804085,-0.02201656997203827,-0.03146806359291077
1772568133936869600,4.56186962890625,-0.016813961789011955,-0.05615776404738426,-0.007191751152276993
1772568133946940700,4.571940673828125,-0.011822972446680069,-0.07627710700035095,0.016039330512285233
1772568133957012700,4.5820126953125,-0.011118832975625992,-0.09272612631320953,0.02921372279524803
1772568133967084500,4.59208447265625,-0.003729445394128561,-0.09423753619194031,0.035753846168518066
1772568133977156600,4.602156494140625,-0.0002377745695412159,-0.08478811383247375,0.03614107146859169
1772568133987227600,4.6122275390625,0.0028077499009668827,-0.06673436611890793,0.014241685159504414
1772568133997299700,4.6222998046875,0.004176348447799683,-0.03553090989589691,-0.010733438655734062
1772568134007371800,4.632371826171875,0.012453407980501652,-0.003531548660248518,-0.027898700907826424
1772568134017442800,4.64244287109375,0.01428033597767353,0.002072807401418686,-0.03281649574637413
1772568134027514600,4.6525146484375,0.023005155846476555,0.018107770010828972,-0.01595493219792843
1772568134037585700,4.662585693359375,0.03121701255440712,0.026718301698565483,0.004918125458061695
1772568134047657700,4.67265771484375,0.0400690957903862,0.03714180365204811,0.010710683651268482
1772568134057728500,4.682728515625,0.04476185142993927,0.04783199727535248,0.004781688563525677
1772568134067800600,4.692800537109375,0.04975923150777817,0.057762276381254196,-0.004112862050533295
1772568134077872600,4.70287255859375,0.058823566883802414,0.05760914459824562,-0.010006171651184559
1772568134087943700,4.712943603515625,0.061509519815444946,0.05224389210343361,-0.0120191415771842
1772568134098015500,4.723015380859375,0.05595044046640396,0.029930060729384422,-0.00937036145478487
1772568134108086500,4.73308642578125,0.04725167900323868,0.017323272302746773,0.007155736908316612
1772568134118158600,4.74315869140625,0.0418047159910202,0.017334457486867905,0.017466964200139046
1772568134128230700,4.753230712890625,0.036580733954906464,0.012251577340066433,0.009163723327219486
1772568134138301700,4.7633017578125,0.027632778510451317,0.004600848071277142,0.003147377632558346
1772568134148373500,4.77337353515625,0.024564936757087708,-0.011208485811948776,0.0007307305932044983
1772568134158444500,4.783444580078125,0.01946897804737091,-0.0244103092700243,-0.0022743800655007362
1772568134168516600,4.7935166015625,0.023031748831272125,-0.04056466743350029,0.0049489950761199
1772568134178588700,4.803588623046875,0.024226710200309753,-0.048557348549366,0.012937678955495358
1772568134188659700,4.81365966796875,0.027231477200984955,-0.057880036532878876,0.013747581280767918
1772568134198731800,4.823731689453125,0.029508214443922043,-0.06367214769124985,0.008953890763223171
1772568134208802800,4.833802734375,0.028707589954137802,-0.08340752869844437,-0.0016036434099078178
1772568134218874600,4.84387451171875,0.025174906477332115,-0.12005981802940369,-0.014070166274905205
1772568134228945700,4.853945556640625,0.01964174211025238,-0.16795776784420013,-0.014558259397745132
1772568134239017700,4.864017822265625,0.013487709686160088,-0.204900860786438,-0.005088058765977621
1772568134249089800,4.87408984375,0.014898605644702911,-0.20289577543735504,0.01687632128596306
1772568134259160800,4.884160888671875,0.01844194158911705,-0.17808017134666443,0.023529965430498123
1772568134269232600,4.894232666015625,0.012899289838969707,-0.1528937667608261,0.01831481233239174
1772568134279303400,4.904303466796875,0.010044647380709648,-0.11756189167499542,0.019020017236471176
1772568134289375500,4.91437548828125,-0.006382672116160393,-0.09247833490371704,0.027703261002898216
1772568134299447600,4.924447509765625,-0.02170676738023758,-0.08234074711799622,0.033482857048511505
1772568134309518600,4.9345185546875,-0.03211097791790962,-0.05595996603369713,0.015561436302959919
1772568134319590700,4.944590576171875,-0.03488785773515701,0.0005397936329245567,-0.012097355909645557
1772568134329661700,4.95466162109375,-0.036350879818201065,0.043945420533418655,-0.04206778109073639
1772568134339733500,4.9647333984375,-0.04100768640637398,0.06665739417076111,-0.054804351180791855
1772568134349804500,4.974804443359375,-0.052148450165987015,0.06527847796678543,-0.045657698065042496
1772568134359876600,4.984876708984375,-0.058231912553310394,0.06346379965543747,-0.025372669100761414
1772568134369948700,4.99494873046875,-0.06273508816957474,0.07387211173772812,-0.011531280353665352
1772568134380019700,5.005019775390625,-0.06868432462215424,0.0970996767282486,-0.01136909332126379
1772568134390091800,5.015091796875,-0.08127784729003906,0.11579768359661102,-0.01506029348820448
1772568134400162800,5.025162841796875,-0.09037120640277863,0.12367425858974457,-0.023322217166423798
1772568134410234600,5.035234619140625,-0.09399542212486267,0.13310879468917847,-0.02271505445241928
1772568134420306700,5.045306640625,-0.10070525854825974,0.12352274358272552,-0.024491913616657257
1772568134430377700,5.055377685546875,-0.09868936240673065,0.10595857352018356,-0.020014597102999687
1772568134440449800,5.06544970703125,-0.08871209621429443,0.09192930907011032,-0.009685792960226536
1772568134450520800,5.075520751953125,-0.08350386470556259,0.0692506805062294,-0.0019174227491021156
1772568134460592600,5.085592529296875,-0.0779770091176033,0.04584256187081337,0.0025191372260451317
1772568134470663400,5.095663330078125,-0.07257987558841705,0.029191451147198677,0.011065547354519367
1772568134480735500,5.105735595703125,-0.06654755026102066,0.024566341191530228,0.014670400880277157
1772568134490807600,5.1158076171875,-0.06217970699071884,0.022226642817258835,0.007672064937651157
1772568134500878600,5.125878662109375,-0.06203456223011017,0.025718048214912415,-0.006496218033134937
1772568134510950700,5.13595068359375,-0.05753188207745552,0.018299685791134834,-0.018920617178082466
1772568134521021700,5.146021728515625,-0.04983401298522949,0.0043314057402312756,-0.016945883631706238
1772568134531093500,5.156093505859375,-0.04687570035457611,-0.00383146689273417,-0.0005910145118832588
1772568134541165600,5.16616552734375,-0.041666559875011444,0.005484537221491337,0.014971434138715267
1772568134551236600,5.176236572265625,-0.03490425646305084,0.01766386069357395,0.0146009037271142
1772568134561308700,5.18630859375,-0.03273511305451393,0.028218768537044525,0.005085962824523449
1772568134571379700,5.196379638671875,-0.03263254091143608,0.030005816370248795,-0.0016217166557908058
1772568134581451800,5.20645166015625,-0.0292588509619236,0.03516941890120506,-0.0015482129529118538
1772568134591523600,5.216523681640625,-0.022662540897727013,0.05413897708058357,-0.006450873799622059
1772568134601594600,5.2265947265625,-0.007530194241553545,0.06730911135673523,-0.0180518701672554
1772568134611666700,5.236666748046875,0.0031667330767959356,0.06373874843120575,-0.029675988480448723
1772568134621737700,5.24673779296875,0.008613429963588715,0.04093356430530548,-0.025647956877946854
1772568134631809800,5.256809814453125,0.009517543017864227,0.02078646421432495,-0.01141434907913208
1772568134641880800,5.266880859375,0.0035187730100005865,0.02630399912595749,-0.007383654359728098
1772568134651952600,5.27695263671875,-0.002284834161400795,0.04237004742026329,-0.005304302088916302
1772568134662024700,5.287024658203125,-0.011993122287094593,0.04548834264278412,-0.018107183277606964
1772568134672095500,5.297095458984375,-0.01707877404987812,0.04122736677527428,-0.024158835411071777
1772568134682167600,5.30716748046875,-0.024872513487935066,0.046388838440179825,-0.027323201298713684
1772568134692238600,5.317238525390625,-0.030941961333155632,0.062254615128040314,-0.03426451236009598
1772568134702310700,5.327310546875,-0.04232777655124664,0.09032885730266571,-0.0578601211309433
1772568134712382500,5.337382568359375,-0.05095634236931801,0.09456449002027512,-0.07489871233701706
1772568134722453500,5.34745361328125,-0.04827587306499481,0.08173470944166183,-0.07344009727239609
1772568134732525600,5.357525634765625,-0.06003422290086746,0.061539921909570694,-0.0747043639421463
1772568134742596600,5.3675966796875,-0.0618361160159111,0.037244170904159546,-0.060522228479385376
1772568134752668700,5.377668701171875,-0.04232995584607124,0.01288648322224617,-0.03693049028515816
1772568134762740700,5.38774072265625,-0.029284995049238205,0.0004322095774114132,-0.007951302453875542
1772568134772811800,5.397811767578125,-0.03018646501004696,0.01707812212407589,0.008246785961091518
1772568134782883600,5.407883544921875,-0.05228191241621971,0.03900499269366264,0.0031766602769494057
1772568134792954600,5.41795458984375,-0.06580091267824173,0.08083180338144302,-0.027839045971632004
1772568134803026700,5.428026611328125,-0.07484713941812515,0.12428819388151169,-0.063456691801548
1772568134813097700,5.43809765625,-0.07735002040863037,0.14903804659843445,-0.09514745324850082
1772568134823169800,5.448169677734375,-0.07171530276536942,0.13105559349060059,-0.11059218645095825
1772568134833241600,5.45824169921875,-0.07515382021665573,0.06489884853363037,-0.08975853025913239
1772568134843312600,5.468312744140625,-0.07334686815738678,0.004690370988100767,-0.03264997527003288
1772568134853384700,5.478384765625,-0.06290361285209656,-0.03331382945179939,0.014742626808583736
1772568134863455500,5.48845556640625,-0.04872841387987137,-0.039717935025691986,0.026569459587335587
1772568134873527600,5.498527587890625,-0.043129537254571915,-0.007187478244304657,0.01859389618039131
1772568134883600000,5.508599853515625,-0.028983356431126595,0.03099852241575718,0.007254954427480698
1772568134893670700,5.518670654296875,-0.02981974184513092,0.05923345312476158,0.0018234262242913246
1772568134903742500,5.528742431640625,-0.03325788304209709,0.06759019196033478,-0.0015374831855297089
1772568134913813500,5.5388134765625,-0.03929249569773674,0.05594812333583832,-0.004521749913692474
1772568134923885600,5.548885498046875,-0.03749353066086769,0.008801648393273354,-0.0013754917308688164
1772568134933956600,5.55895654296875,-0.04014809802174568,-0.05436626076698303,0.016060270369052887
1772568134944028700,5.569028564453125,-0.028679190203547478,-0.10348321497440338,0.02937740460038185
1772568134954100700,5.579100830078125,-0.019010167568922043,-0.1419324278831482,0.033348992466926575
1772568134964171800,5.589171875,-0.011798061430454254,-0.15392783284187317,0.033585213124752045
1772568134974243600,5.59924365234375,-0.0037372391670942307,-0.1317308247089386,0.031629014760255814
1772568134984314600,5.609314697265625,0.009188679046928883,-0.10135801881551743,0.022515680640935898
1772568134994386700,5.61938671875,0.008288576267659664,-0.08944132179021835,0.011296167969703674
1772568135004458800,5.629458740234375,0.006937554571777582,-0.09335429966449738,0.0038217399269342422
1772568135014529800,5.63952978515625,0.00818409863859415,-0.10321936756372452,-0.003144434653222561
1772568135024601600,5.6496015625,0.006833876017481089,-0.1205003559589386,-0.008313363417983055
1772568135034672600,5.659672607421875,0.0065151359885931015,-0.13918380439281464,0.0015879422426223755
1772568135044744700,5.66974462890625,0.0041025783866643906,-0.1268637478351593,0.014301872812211514
1772568135054816800,5.679816650390625,0.003728363895788789,-0.09277764707803726,0.012952510267496109
1772568135064887600,5.689887451171875,0.01700288988649845,-0.04675716161727905,0.0057382732629776
1772568135074960000,5.6999599609375,0.025654058903455734,-0.009925583377480507,-0.009204265661537647
1772568135085030700,5.71003076171875,0.03539270535111427,0.006160175893455744,-0.00895286351442337
1772568135095102500,5.7201025390625,0.04272715002298355,0.020245641469955444,-0.0014283126220107079
1772568135105173500,5.730173583984375,0.051719047129154205,0.028171207755804062,0.002129671163856983
1772568135115245600,5.74024560546875,0.060884784907102585,0.04313131421804428,0.0009967312216758728
1772568135125317600,5.750317626953125,0.06280545890331268,0.059329453855752945,-0.01448076218366623
1772568135135388700,5.760388671875,0.05981716886162758,0.08128707110881805,-0.0231577530503273
1772568135145460500,5.77046044921875,0.05734389275312424,0.10363365709781647,-0.03170730173587799
1772568135155531500,5.780531494140625,0.05002068728208542,0.1380077600479126,-0.03213485702872276
1772568135165603600,5.790603515625,0.05678431689739227,0.1614169329404831,-0.04120158776640892
1772568135175674600,5.800674560546875,0.06789712607860565,0.17386597394943237,-0.04821832850575447
1772568135185746700,5.81074658203125,0.06347014755010605,0.17368435859680176,-0.04448111355304718
1772568135195818800,5.82081884765625,0.056874290108680725,0.16611292958259583,-0.04024998098611832
1772568135205889800,5.830889892578125,0.04613029956817627,0.15549704432487488,-0.037472039461135864
1772568135215961600,5.840961669921875,0.04723896458745003,0.1647738218307495,-0.03661549463868141
1772568135226032600,5.85103271484375,0.04845736175775528,0.1812305599451065,-0.05401605740189552
1772568135236104700,5.861104736328125,0.048151858150959015,0.20070207118988037,-0.0793263241648674
1772568135246176800,5.8711767578125,0.03523978963494301,0.17148053646087646,-0.09738095849752426
1772568135256247800,5.881247802734375,0.021789131686091423,0.1389158070087433,-0.08298458158969879
1772568135266320000,5.89131982421875,0.02351113222539425,0.08178861439228058,-0.05296169966459274
1772568135276390700,5.901390625,0.04031700640916824,0.030594246461987495,-0.010278861969709396
1772568135286462500,5.91146240234375,0.057417962700128555,-0.01252499595284462,0.018204977735877037
1772568135296533500,5.921533447265625,0.052575454115867615,-0.020767133682966232,0.02369466982781887
1772568135306605600,5.93160546875,0.036340292543172836,-0.0073301540687680244,0.0065497737377882
1772568135316677600,5.941677734375,0.0294431671500206,0.017363760620355606,-0.0004520770162343979
1772568135326748700,5.951748779296875,0.028762197121977806,0.02177741751074791,-0.007353126537054777
1772568135336820500,5.961820556640625,0.023772122338414192,0.0003323708660900593,-0.023563062772154808
1772568135346891500,5.9718916015625,0.024275725707411766,-0.039478156715631485,-0.025390256196260452
1772568135356963600,5.981963623046875,0.031551480293273926,-0.07312240451574326,-0.011380698531866074
1772568135367035600,5.99203564453125,0.0451652929186821,-0.08577747642993927,0.008147994987666607
1772568135377110500,6.002110595703125,0.060903020203113556,-0.08332501351833344,0.023655254393815994
1772568135387182600,6.0121826171875,0.06243593618273735,-0.07338716089725494,0.024148203432559967
1772568135397253600,6.022253662109375,0.05636921525001526,-0.06139384210109711,0.015295919962227345
1772568135407325400,6.032325439453125,0.05196461081504822,-0.04620689898729324,0.007859841920435429
1772568135417396500,6.042396484375,0.049761295318603516,-0.038867682218551636,0.005710792727768421
1772568135427468500,6.052468505859375,0.043075162917375565,-0.033999957144260406,0.00600134301930666
1772568135437540600,6.06254052734375,0.03803665563464165,-0.034265611320734024,0.00513043999671936
1772568135447611600,6.072611572265625,0.038929615169763565,-0.035957254469394684,0.008090278133749962
1772568135457683500,6.082683349609375,0.04429531842470169,-0.042293090373277664,0.007949551567435265
1772568135467754500,6.09275439453125,0.05122672766447067,-0.054216861724853516,0.005494384095072746
1772568135477826600,6.10282666015625,0.0561973974108696,-0.06010563299059868,0.005379966460168362
1772568135487897600,6.112897705078125,0.05672203749418259,-0.05679852142930031,0.0054026031866669655
1772568135497969700,6.1229697265625,0.05512847751379013,-0.04936443641781807,0.008199506439268589
1772568135508041700,6.133041748046875,0.05194466933608055,-0.040424469858407974,0.013868843205273151
1772568135518112800,6.14311279296875,0.045152999460697174,-0.036530688405036926,0.0072115082293748856
1772568135528184600,6.1531845703125,0.04013587161898613,-0.04526319354772568,-0.003510911948978901
1772568135538255400,6.16325537109375,0.04404139146208763,-0.07378287613391876,-0.007406497374176979
1772568135548327400,6.173327392578125,0.05116774141788483,-0.1060478687286377,-0.0009595174342393875
1772568135558398500,6.1833984375,0.06434488296508789,-0.12952718138694763,0.02129426971077919
1772568135568470500,6.193470458984375,0.07085391879081726,-0.1270831972360611,0.026032567024230957
1772568135578542600,6.20354248046875,0.07230304926633835,-0.09868837147951126,0.034368064254522324
1772568135588613600,6.213613525390625,0.06804598867893219,-0.04511328786611557,0.032325953245162964
1772568135598685400,6.223685546875,0.06487230211496353,0.009397937916219234,0.019695740193128586
1772568135608756500,6.233756591796875,0.05351871997117996,0.05144792050123215,-0.00137279462069273
1772568135618828500,6.24382861328125,0.04257247969508171,0.05820053443312645,-0.01544492319226265
1772568135628900600,6.253900634765625,0.02884148433804512,0.03868808597326279,-0.0037794793024659157
1772568135638971600,6.2639716796875,0.00773193035274744,0.018289821222424507,0.01454590167850256
1772568135649043500,6.27404345703125,-0.009950127452611923,0.004136451054364443,0.015012488700449467
1772568135659114500,6.284114501953125,-0.019688578322529793,0.006150085479021072,0.010517471469938755
1772568135669186600,6.2941865234375,-0.027882324531674385,0.027752049267292023,0.004694203846156597
1772568135679257600,6.304257568359375,-0.031544119119644165,0.05062808096408844,-0.0008323602378368378
1772568135689329700,6.31432958984375,-0.04313792288303375,0.05313411355018616,-0.0005386136472225189
1772568135699401700,6.324401611328125,-0.05016358569264412,0.04791807010769844,0.0130144152790308
1772568135709472800,6.33447265625,-0.055856090039014816,0.05093836039304733,0.02944079041481018
1772568135719544600,6.344544677734375,-0.06012186035513878,0.061743784695863724,0.029228679835796356
1772568135729615400,6.354615478515625,-0.06495682895183563,0.08498945832252502,0.011766064912080765
1772568135739687400,6.3646875,-0.07006721198558807,0.10881397873163223,-0.00870763510465622
1772568135749758500,6.374758544921875,-0.07236339151859283,0.1158686950802803,-0.03307183086872101
1772568135759830500,6.38483056640625,-0.07426134496927261,0.1070355474948883,-0.032777320593595505
1772568135769902600,6.394902587890625,-0.06829053908586502,0.09221452474594116,-0.031690485775470734
1772568135779973600,6.4049736328125,-0.06536388397216797,0.08296040445566177,-0.03394113481044769
1772568135790045400,6.41504541015625,-0.06325092911720276,0.0531415231525898,-0.03860193118453026
1772568135800116500,6.425116455078125,-0.053428005427122116,0.010269412770867348,-0.023012688383460045
1772568135810188500,6.4351884765625,-0.038666367530822754,-0.033306825906038284,-0.0006360094994306564
1772568135820259600,6.445259521484375,-0.018149539828300476,-0.05309155583381653,0.016773587092757225
1772568135830331600,6.45533154296875,0.0016755620017647743,-0.06953044980764389,0.008084757253527641
1772568135840403500,6.465403564453125,0.019999276846647263,-0.05297211930155754,-0.005355537869036198
1772568135850474500,6.475474609375,0.026311233639717102,-0.03285113722085953,-0.020170968025922775
1772568135860546600,6.485546630859375,0.028834789991378784,-0.026052897796034813,-0.025058161467313766
1772568135870617600,6.49561767578125,0.02537960559129715,-0.02249251864850521,-0.026978299021720886
1772568135880689700,6.505689697265625,0.022341785952448845,-0.04223281517624855,-0.031131917610764503
1772568135890760700,6.5157607421875,0.022341785952448845,-0.06339216232299805,-0.024648984894156456
1772568135900832800,6.525832763671875,0.022066444158554077,-0.07592561841011047,-0.012012437917292118
1772568135910904600,6.535904541015625,0.028957108035683632,-0.0665409043431282,-0.002348626032471657
1772568135920975400,6.545975341796875,0.042082078754901886,-0.055916927754879,-0.010334659367799759
1772568135931047400,6.55604736328125,0.05207452550530434,-0.048681117594242096,-0.02129356563091278
1772568135941118500,6.566118408203125,0.07051589339971542,-0.05019303038716316,-0.03178941458463669
1772568135951190500,6.5761904296875,0.07583103328943253,-0.04987158998847008,-0.02776910550892353
1772568135961261600,6.586261474609375,0.07230227440595627,-0.02345849573612213,-0.025688694790005684
1772568135971333400,6.59633349609375,0.07269934564828873,0.0011009098961949348,-0.02843095175921917
1772568135981405400,6.606405517578125,0.07593225687742233,0.046437282115221024,-0.041229940950870514
1772568135991476500,6.6164765625,0.07782869786024094,0.08688084781169891,-0.05968485027551651
1772568136001548500,6.626548583984375,0.06823962926864624,0.11033061891794205,-0.08898147195577621
1772568136011619600,6.63661962890625,0.07497555762529373,0.11408887803554535,-0.10916956514120102
1772568136021691600,6.646691650390625,0.07262930274009705,0.11201581358909607,-0.11010362207889557
1772568136031762700,6.6567626953125,0.06279397755861282,0.10551530867815018,-0.0982046127319336
1772568136041834500,6.66683447265625,0.04016432538628578,0.06435883045196533,-0.08659836649894714
1772568136051906600,6.676906494140625,0.0014065462164580822,0.01008627749979496,-0.07257841527462006
1772568136061977600,6.6869775390625,-0.011748000979423523,-0.04157671704888344,-0.03242550417780876
1772568136072049700,6.697049560546875,-0.004728707484900951,-0.0750553235411644,0.005782335065305233
1772568136082120700,6.70712060546875,-0.005792482290416956,-0.08252622187137604,0.007728760130703449
1772568136092192800,6.71719287109375,-0.012747859582304955,-0.0405457504093647,-0.008374309167265892
1772568136102263600,6.727263671875,-0.021444128826260567,0.0034015942364931107,-0.029401268810033798
1772568136112335400,6.73733544921875,-0.02759949490427971,0.030446263030171394,-0.04038281366229057
1772568136122407700,6.74740771484375,-0.042167969048023224,0.0350213348865509,-0.04275519400835037
1772568136132478500,6.757478515625,-0.055059000849723816,0.029964260756969452,-0.03679770603775978
1772568136142550500,6.767550537109375,-0.057597070932388306,0.03504341095685959,-0.025632895529270172
1772568136152621600,6.77762158203125,-0.06081417202949524,0.04238627851009369,-0.014741899445652962
1772568136162693400,6.787693359375,-0.06900057196617126,0.05834852531552315,0.004523064941167831
1772568136172764400,6.797764404296875,-0.06726285815238953,0.08756180852651596,0.010501595214009285
1772568136182836500,6.80783642578125,-0.0784764289855957,0.1126386821269989,0.000815538689494133
1772568136192907500,6.817907470703125,-0.09312887489795685,0.11696045845746994,-0.006918547209352255
1772568136202979600,6.8279794921875,-0.11367864161729813,0.1338283270597458,-0.004600619897246361
1772568136213051600,6.8380517578125,-0.1156187579035759,0.14256510138511658,0.003840002231299877
1772568136223122700,6.848122802734375,-0.11514417082071304,0.15179045498371124,0.025192609056830406
1772568136233194500,6.858194580078125,-0.09793562442064285,0.15864330530166626,0.04719378054141998
1772568136243265500,6.868265625,-0.06743641197681427,0.1143491342663765,0.10025212913751602
1772568136253337600,6.878337646484375,-0.06564570218324661,0.03269181773066521,0.17442914843559265
1772568136263408600,6.88840869140625,-0.08735126256942749,-0.024653762578964233,0.23747417330741882
1772568136273480700,6.898480712890625,-0.09596259891986847,-0.06433779001235962,0.2516946494579315
1772568136283552800,6.908552734375,-0.09141287207603455,-0.05525562912225723,0.22650785744190216
1772568136293623600,6.91862353515625,-0.09538817405700684,-0.03753255680203438,0.1639222353696823
1772568136303695400,6.9286953125,-0.11235131323337555,-0.013248034752905369,0.10085488110780716
1772568136313766400,6.938766357421875,-0.13965937495231628,0.005522190593183041,0.04436284303665161
1772568136323838500,6.94883837890625,-0.1613382250070572,0.014968984760344028,0.012148672714829445
1772568136333909500,6.958909423828125,-0.1574087291955948,0.0011972468346357346,0.009930258616805077
1772568136343981600,6.968981689453125,-0.13947664201259613,-0.0295393206179142,0.019091863185167313
1772568136354053400,6.979053466796875,-0.11764058470726013,-0.05390218645334244,0.029923204332590103
1772568136364124400,6.98912451171875,-0.09053068608045578,-0.07329853624105453,0.039000652730464935
1772568136374191900,6.99919189453125,-0.05920233204960823,-0.08935500681400299,0.05308477580547333
1772568136384263000,7.009262939453125,-0.03915467858314514,-0.0779237300157547,0.06991244852542877
1772568136394335000,7.0193349609375,-0.03493542969226837,-0.04651973396539688,0.07798289507627487
1772568136404405800,7.02940576171875,-0.04412590712308884,-0.0034486164804548025,0.07360736280679703
1772568136414477800,7.039477783203125,-0.05888647958636284,0.03177941218018532,0.05549360811710358
1772568136424548900,7.049548828125,-0.06974773108959198,0.0648074820637703,0.044309258460998535
1772568136434621000,7.059620849609375,-0.08442654460668564,0.09187931567430496,0.0358305498957634
1772568136444692700,7.069692626953125,-0.09447818249464035,0.10750074684619904,0.029308686032891273
1772568136454763800,7.079763671875,-0.09699380397796631,0.119729183614254,0.03393059968948364
1772568136464835800,7.0898359375,-0.09128335118293762,0.13956008851528168,0.05883123725652695
1772568136474907000,7.099906982421875,-0.08586861193180084,0.13049441576004028,0.0739622563123703
1772568136484979000,7.10997900390625,-0.08940905332565308,0.17158718407154083,0.06944391131401062
1772568136495050000,7.120050048828125,-0.10408306866884232,0.2180204689502716,0.016367638483643532
1772568136505122000,7.1301220703125,-0.11302728950977325,0.2739351987838745,-0.03396096080541611
1772568136515193900,7.14019384765625,-0.1088666319847107,0.3523213565349579,-0.06245332211256027
1772568136525265000,7.150264892578125,-0.088461734354496,0.4344211220741272,-0.0840456634759903
1772568136535337000,7.1603369140625,-0.07208090275526047,0.46596306562423706,-0.10832357406616211
1772568136545408000,7.170407958984375,-0.06046449393033981,0.4504077434539795,-0.12367965281009674
1772568136555480000,7.18047998046875,-0.05117112770676613,0.39879700541496277,-0.12354676425457001
1772568136565551000,7.190551025390625,-0.06126350164413452,0.3218792676925659,-0.11776154488325119
1772568136575623000,7.200622802734375,-0.07744087278842926,0.23622265458106995,-0.0874079018831253
1772568136585694000,7.21069384765625,-0.09235049784183502,0.15489321947097778,-0.040936313569545746
1772568136595765800,7.220765869140625,-0.09861958026885986,0.07192562520503998,0.011121561750769615
1772568136605837800,7.230837890625,-0.09569545090198517,0.012270079925656319,0.039419785141944885
1772568136615908900,7.240908935546875,-0.10182338207960129,-0.029052859172225,0.03999689221382141
1772568136625981000,7.25098095703125,-0.10409665107727051,-0.0719832330942154,0.021393466740846634
1772568136636052000,7.261052001953125,-0.10679815709590912,-0.116655632853508,0.012840191833674908
1772568136646123800,7.271123779296875,-0.11688943207263947,-0.16065256297588348,0.013287216424942017
1772568136656194800,7.28119482421875,-0.1309589147567749,-0.18230299651622772,0.017145870253443718
1772568136666267000,7.291266845703125,-0.14702573418617249,-0.16670435667037964,0.027443185448646545
1772568136676338000,7.301337890625,-0.14171111583709717,-0.11664838343858719,0.03508885204792023
1772568136686410000,7.311409912109375,-0.13816480338573456,-0.07093621045351028,0.021392986178398132
1772568136696482000,7.32148193359375,-0.14394891262054443,-0.04567452520132065,-0.00846770778298378
1772568136706553000,7.331552978515625,-0.14300662279129028,-0.0355672687292099,-0.026219047605991364
1772568136716625000,7.341625,-0.12290773540735245,-0.0460880845785141,-0.02661026641726494
1772568136726696000,7.351696044921875,-0.09911173582077026,-0.05560863018035889,-0.0109621686860919
1772568136736768000,7.36176806640625,-0.061803776770830154,-0.03415100648999214,-0.00031857844442129135
1772568136746839000,7.371839111328125,-0.02168090082705021,-0.007529210299253464,-0.0021715406328439713
1772568136756911000,7.3819111328125,0.009212566539645195,0.01879427209496498,-0.009025451727211475
1772568136766983000,7.39198291015625,0.027608821168541908,0.046678658574819565,-0.009745984338223934
1772568136777054000,7.402053955078125,0.030977454036474228,0.06867477297782898,-0.0005034841597080231
1772568136787125800,7.412125732421875,0.04844511300325394,0.08651363104581833,0.014700156636536121
1772568136797196800,7.42219677734375,0.06000589579343796,0.07227291166782379,0.02074233815073967
1772568136807268900,7.432268798828125,0.06802617758512497,0.08316348493099213,0.018173716962337494
1772568136817340000,7.44233984375,0.08313961327075958,0.10328100621700287,0.006595357321202755
1772568136827412000,7.452411865234375,0.07327073812484741,0.10821299254894257,-0.008593497797846794
1772568136837483000,7.46248291015625,0.048447683453559875,0.10484249144792557,-0.005144170951098204
1772568136847554800,7.472554931640625,0.013658339157700539,0.08365535736083984,0.01575171947479248
1772568136857627000,7.482626953125,0.015352376736700535,0.06930758059024811,0.03947249427437782
1772568136867698000,7.492697998046875,0.01161210983991623,0.0450187548995018,0.04034239053726196
1772568136877770000,7.50277001953125,0.010428601875901222,0.05077890679240227,0.02468566596508026
1772568136887841000,7.512841064453125,0.011505324393510818,0.05913446098566055,0.0027432572096586227
1772568136897913000,7.5229130859375,0.012592161074280739,0.04981100559234619,-0.011069759726524353
1772568136907984100,7.532984130859375,0.017459958791732788,0.023235458880662918,-0.01669856533408165
1772568136918056000,7.543055908203125,0.02596130222082138,-0.014017904177308083,-0.004004874266684055
1772568136928127000,7.553126953125,0.02904491126537323,-0.04115549474954605,0.018458742648363113
1772568136938199000,7.563198974609375,0.047421522438526154,-0.04371585696935654,0.036460116505622864
1772568136948271000,7.57327099609375,0.07527832686901093,-0.0199827142059803,0.03405121713876724
1772568136958342000,7.583341796875,0.09453697502613068,0.012797602452337742,0.013615983538329601
1772568136968414000,7.5934140625,0.09149040281772614,0.04472563415765762,-0.023561345413327217
1772568136978485000,7.603485107421875,0.08437683433294296,0.05174199491739273,-0.038231365382671356
1772568136988556800,7.613556884765625,0.07312513142824173,0.013545241206884384,-0.028925737366080284
1772568136998627800,7.6236279296875,0.06098484247922897,-0.04425414279103279,0.007232533767819405
1772568137008700000,7.633699951171875,0.053034789860248566,-0.09763769060373306,0.04008403420448303
1772568137018771000,7.64377099609375,0.06330820173025131,-0.11647050082683563,0.04475788027048111
1772568137028843000,7.653843017578125,0.07337603718042374,-0.12454305589199066,0.026145530864596367
1772568137038914800,7.663914794921875,0.08736827969551086,-0.10005608201026917,0.006125485524535179
1772568137048985900,7.67398583984375,0.09446516633033752,-0.0703485980629921,-0.0135737843811512
1772568137059058000,7.684057861328125,0.08333048969507217,-0.05322527512907982,-0.022757962346076965
1772568137069129000,7.69412890625,0.06501827389001846,-0.04478073865175247,-0.007548098918050528
1772568137079201000,7.704200927734375,0.04978073015809059,-0.036268480122089386,0.01662088744342327
1772568137089272000,7.71427197265625,0.06212065368890762,-0.023830002173781395,0.0378425195813179
1772568137099344100,7.72434423828125,0.07554804533720016,-0.008375678211450577,0.05644389986991882
1772568137109415000,7.734414794921875,0.07926524430513382,0.004995825234800577,0.05556592717766762
1772568137119487000,7.744487060546875,0.0624641589820385,-0.003123886650428176,0.026853319257497787
1772568137129557800,7.754557861328125,0.032975055277347565,-0.02850804105401039,0.00022113602608442307
1772568137139629800,7.7646298828125,0.02360472083091736,-0.05162161588668823,0.009330745786428452
1772568137149702000,7.774701904296875,0.03882252424955368,-0.06834127753973007,0.030059166252613068
1772568137159773000,7.78477294921875,0.06161252409219742,-0.059385064989328384,0.03796582296490669
1772568137169845000,7.794844970703125,0.07961676269769669,-0.04161270335316658,0.02128469944000244
1772568137179916000,7.804916015625,0.08677960187196732,-0.020777197554707527,0.0023930324241518974
1772568137189987800,7.81498779296875,0.06470374763011932,-0.014167633838951588,-0.012092816643416882
1772568137200059000,7.825058837890625,0.02574249729514122,-0.017918162047863007,-0.010505306534469128
1772568137210131000,7.835130859375,0.0053025418892502785,-0.02758743055164814,0.003192182630300522
1772568137220202000,7.845201904296875,-0.01045085396617651,-0.05483290180563927,0.02237573079764843
1772568137230274000,7.855274169921875,-0.01617233082652092,-0.07233304530382156,0.03327207267284393
1772568137240345900,7.865345947265625,-0.025032933801412582,-0.08076461404561996,0.04036593437194824
1772568137250417000,7.8754169921875,-0.025599079206585884,-0.07684927433729172,0.04417258873581886
1772568137260489000,7.885489013671875,-0.02791363187134266,-0.06747841089963913,0.034256573766469955
1772568137270560000,7.89556005859375,-0.022194810211658478,-0.03774057328701019,0.026829566806554794
1772568137280632000,7.905632080078125,-0.0135746905580163,-0.009877251461148262,0.011383766308426857
1772568137290702800,7.915702880859375,-0.012365520000457764,0.02166314236819744,-0.003345996141433716
1772568137300775000,7.92577490234375,-0.01023632287979126,0.054296720772981644,-0.012439892627298832
1772568137310846000,7.935845947265625,-0.0096841249614954,0.06716936826705933,-0.018894441425800323
1772568137320917800,7.945917724609375,-0.001444836612790823,0.07093348354101181,-0.010974733158946037
1772568137330989800,7.95598974609375,0.001166533213108778,0.07276227325201035,-0.01242844108492136
1772568137341060900,7.966060791015625,-0.0034418003633618355,0.05894659832119942,-0.018385132774710655
1772568137351133000,7.9761328125,-0.024153098464012146,0.03648623451590538,-0.027910912409424782
1772568137361204000,7.986203857421875,-0.03568058833479881,0.02861739508807659,-0.02086898311972618
1772568137371275800,7.99627587890625,-0.03276462107896805,0.028462573885917664,-0.015278571285307407
1772568137381346800,8.006346923828126,-0.03570501506328583,0.03210524469614029,-0.014336611144244671
1772568137391419100,8.016419189453124,-0.043250203132629395,0.04248400405049324,-0.02028236910700798
1772568137401490000,8.026489990234374,-0.057440318167209625,0.043286148458719254,-0.02160169929265976
1772568137411562000,8.03656201171875,-0.0731484442949295,0.011370822787284851,-0.02274126559495926
1772568137421634000,8.046634033203125,-0.08712417632341385,-0.031008059158921242,-0.007574563845992088
1772568137431705000,8.056705078125,-0.09063488245010376,-0.07128915935754776,0.016829952597618103
1772568137441777000,8.06677685546875,-0.08857280015945435,-0.10036236047744751,0.0493205189704895
1772568137451848000,8.076847900390625,-0.07872742414474487,-0.0870853066444397,0.07522263377904892
1772568137461920000,8.086919921875,-0.06647395342588425,-0.05532870441675186,0.08521295338869095
1772568137471991000,8.096990966796875,-0.04660200700163841,-0.04057576507329941,0.07645049691200256
1772568137482063000,8.10706298828125,-0.03215355798602104,-0.019136521965265274,0.05528635531663895
1772568137492134100,8.117134033203126,-0.027397455647587776,-0.007552107330411673,0.02503068558871746
1772568137502206200,8.127206298828124,-0.034252166748046875,-0.018001819029450417,-0.0048041753470897675
1772568137512277200,8.13727734375,-0.03224901854991913,-0.01616640016436577,-0.005921062547713518
1772568137522349000,8.14734912109375,-0.018970496952533722,-0.033780813217163086,-0.002202756702899933
1772568137532421000,8.157421142578125,-0.006710847839713097,-0.05800563842058182,0.0007698405534029007
1772568137542492200,8.1674921875,-0.004781654104590416,-0.0702226310968399,0.009376643225550652
1772568137552564200,8.177564208984375,0.008442983031272888,-0.06896337121725082,0.014757823199033737
1772568137562635000,8.187635009765625,-0.0014155064709484577,-0.055612944066524506,0.009819788858294487
1772568137572706800,8.197706787109375,-0.028559280559420586,-0.05508890002965927,-0.014809951186180115
1772568137582777900,8.20777783203125,-0.06035928428173065,-0.08013512939214706,-0.02187824621796608
1772568137592850000,8.217849853515625,-0.07829757034778595,-0.11421764642000198,-0.016085200011730194
1772568137602921000,8.2279208984375,-0.07832206785678864,-0.1364467740058899,-0.005678897723555565
1772568137612993000,8.237992919921876,-0.07444779574871063,-0.14273299276828766,0.0010876338928937912
1772568137623065000,8.248065185546874,-0.06503219157457352,-0.13247688114643097,-0.00114436075091362
1772568137633136000,8.25813623046875,-0.06919104605913162,-0.12471695244312286,-0.006344602908939123
1772568137643208000,8.2682080078125,-0.059161048382520676,-0.10786926001310349,-0.015644626691937447
1772568137653279000,8.278279052734375,-0.06308561563491821,-0.09402018040418625,-0.022043729200959206
1772568137663351000,8.28835107421875,-0.08119324594736099,-0.0877353847026825,-0.02616363950073719
1772568137673422000,8.298422119140625,-0.0972898006439209,-0.08194168657064438,-0.0183098204433918
1772568137683494100,8.308494140625,-0.10210799425840378,-0.07282541692256927,0.0013333884999155998
1772568137693565200,8.318565185546875,-0.07725729048252106,-0.06127244234085083,0.021992072463035583
1772568137703637200,8.32863720703125,-0.05069252476096153,-0.04117622599005699,0.02407333254814148
1772568137713708300,8.338708251953125,-0.024929674342274666,-0.011519106104969978,-0.0012534689158201218
1772568137723780000,8.348780029296876,-0.00015082582831382751,0.023593874648213387,-0.04060087352991104
1772568137733851000,8.358850830078126,0.01290958747267723,0.05053471773862839,-0.06595458835363388
1772568137743923000,8.3689228515625,0.024261578917503357,0.0667019709944725,-0.06941137462854385
1772568137753995000,8.3789951171875,0.038995761424303055,0.0691182017326355,-0.05049127712845802
1772568137764066000,8.389066162109375,0.07186289876699448,0.06284778565168381,-0.029379600659012794
1772568137774137900,8.399137939453125,0.09088879078626633,0.037497423589229584,-0.031910136342048645
1772568137784209000,8.409208984375,0.08943017572164536,0.018126919865608215,-0.04323629289865494
1772568137794281000,8.419281005859375,0.07973316311836243,-0.003425849601626396,-0.05014574155211449
1772568137804352000,8.42935205078125,0.06544770300388336,-0.037413910031318665,-0.03928084298968315
1772568137814424000,8.439424072265625,0.0491027869284153,-0.05910370871424675,-0.02157079242169857
1772568137824495000,8.4494951171875,0.04963381960988045,-0.05855349823832512,-0.0013885591179132462
1772568137834567200,8.459567138671876,0.05266937240958214,-0.048101093620061874,0.0001586945727467537
1772568137844639000,8.469638916015626,0.05479830130934715,-0.03734298795461655,-0.009601257741451263
1772568137854710000,8.4797099609375,0.04486578702926636,-0.029100079089403152,-0.018594317138195038
1772568137864782000,8.489781982421874,0.03899138420820236,-0.01262336689978838,-0.014355363324284554
1772568137874853000,8.49985302734375,0.03128186985850334,-0.0066854460164904594,-0.012321983464062214
1772568137884925200,8.50992529296875,0.03191303834319115,-0.008564306423068047,-0.003955396823585033
1772568137894996200,8.519996337890625,0.035725805908441544,0.004016316961497068,0.007378200069069862
1772568137905068000,8.530068115234375,0.032714035362005234,0.013054020702838898,0.010124186053872108
1772568137915139000,8.54013916015625,0.033459536731243134,0.02480456978082657,0.00434088334441185
1772568137925211000,8.5502109375,0.024063371121883392,0.02354835718870163,-0.004006795585155487
1772568137935282000,8.560281982421875,0.009940815158188343,0.009837040677666664,-0.004695715382695198
1772568137945354000,8.57035400390625,-0.01604710891842842,-0.014545530080795288,-0.0015079118311405182
1772568137955425000,8.580425048828126,-0.03876713663339615,-0.029111826792359352,0.021540362387895584
1772568137965497900,8.590497802734374,-0.06091984361410141,-0.04313310235738754,0.04686116427183151
1772568137975570000,8.60056982421875,-0.07190264761447906,-0.04113639518618584,0.0662093460559845
1772568137985641000,8.610640869140624,-0.08971200883388519,-0.04405921325087547,0.07181263715028763
1772568137995713000,8.620713134765625,-0.10412469506263733,-0.006525389850139618,0.06864184141159058
1772568138005784000,8.6307841796875,-0.08998623490333557,0.04593382030725479,0.06192135065793991
1772568138015856000,8.640856201171875,-0.08869211375713348,0.07713869214057922,0.054755643010139465
1772568138025927200,8.65092724609375,-0.09209883213043213,0.12439515441656113,0.04956700652837753
1772568138035999000,8.6609990234375,-0.09417823702096939,0.15792271494865417,0.05042897164821625
1772568138046070000,8.671070068359375,-0.09880947321653366,0.16751009225845337,0.01910167746245861
1772568138056142000,8.68114208984375,-0.09340941160917282,0.1830729991197586,-0.011523371562361717
1772568138066213000,8.691213134765626,-0.08645829558372498,0.18463334441184998,-0.02940836176276207
1772568138076285200,8.70128515625,-0.0657329335808754,0.21277400851249695,-0.037304382771253586
1772568138086356200,8.711356201171874,-0.04042571038007736,0.23604470491409302,-0.044694386422634125
1772568138096428000,8.721427978515624,-0.019885363057255745,0.26221609115600586,-0.060956671833992004
1772568138106500000,8.7315,-0.017551902681589127,0.27772608399391174,-0.07034804672002792
1772568138116571000,8.74157080078125,-0.020468922331929207,0.2626488506793976,-0.06390547752380371
1772568138126643000,8.751642822265625,-0.0214455034583807,0.23229549825191498,-0.040222786366939545
1772568138136714000,8.7617138671875,-0.018052123486995697,0.17621485888957977,-0.018143121153116226
1772568138146786000,8.7717861328125,-0.007368852850049734,0.0986098200082779,-0.003974038176238537
1772568138156857000,8.781857177734375,-0.0032305214554071426,0.022893447428941727,-0.014324218034744263
1772568138166929000,8.791928955078125,-0.009074029512703419,-0.04802386835217476,-0.024872200563549995
1772568138177000000,8.802,-0.008145594969391823,-0.11014410853385925,-0.026198890060186386
1772568138187072000,8.812072021484376,0.005358495749533176,-0.16310426592826843,-0.00005676876753568649
1772568138197143000,8.82214306640625,0.006609278731048107,-0.20684102177619934,0.04072173312306404
1772568138207215000,8.832215087890624,0.0022989525459706783,-0.21250130236148834,0.0742698386311531
1772568138217287200,8.842287109375,0.006342811975628138,-0.1771533489227295,0.07509886473417282
1772568138227358200,8.852358154296875,0.0028948173858225346,-0.13969704508781433,0.04193452000617981
1772568138237430000,8.862429931640625,-0.006128351669758558,-0.09866916388273239,-0.00045307353138923645
1772568138247501000,8.8725009765625,-0.014909327030181885,-0.09752880036830902,-0.014034928753972054
1772568138257573000,8.882572998046875,-0.020420461893081665,-0.09367743879556656,0.005100050941109657
1772568138267644200,8.89264404296875,-0.01805078238248825,-0.08671753853559494,0.020328806713223457
1772568138277716200,8.90271630859375,-0.004770177416503429,-0.06885632872581482,0.035128265619277954
1772568138287787000,8.912787109375,0.018571630120277405,-0.024536266922950745,0.05885356664657593
1772568138297859000,8.922859130859376,0.03751650080084801,-0.013049913570284843,0.047233305871486664
1772568138307930000,8.93293017578125,0.027634309604763985,-0.02289322204887867,-0.014541911892592907
1772568138318002000,8.943001953125,-0.0005468991585075855,-0.016130879521369934,-0.04686851054430008
1772568138328073000,8.953072998046874,-0.01331968605518341,-0.01791972480714321,-0.04123086482286453
1772568138338145000,8.96314501953125,-0.011684310622513294,-0.030135367065668106,-0.03391794115304947
1772568138348217000,8.973217041015625,-0.011949027888476849,-0.03479749336838722,-0.018622342497110367
1772568138358288100,8.9832880859375,-0.015539294108748436,-0.02644381672143936,-0.0019214870408177376
1772568138368360000,8.99335986328125,-0.015794958919286728,-0.01000119373202324,-0.00792425125837326
1772568138378433800,9.003433837890626,-0.01697324588894844,0.004616160411387682,-0.026684442535042763
1772568138388505600,9.013505615234376,-0.01703396439552307,0.009950205683708191,-0.05420927703380585
1772568138398576600,9.02357666015625,-0.02752929925918579,-0.004711858928203583,-0.07431396842002869
1772568138408648700,9.033648681640624,-0.027022231370210648,-0.030470751225948334,-0.06990005075931549
1772568138418719700,9.0437197265625,-0.020726287737488747,-0.045203160494565964,-0.050724782049655914
1772568138428791800,9.053791748046875,-0.024005170911550522,-0.057314153760671616,-0.02487880550324917
1772568138438862800,9.06386279296875,-0.026235323399305344,-0.0732811912894249,-0.0029895519837737083
1772568138448935000,9.073934814453125,-0.02151726931333542,-0.06747816503047943,0.016841411590576172
1772568138459006000,9.084005859375,-0.010034644976258278,-0.053013578057289124,0.023476198315620422
1772568138469077800,9.094077880859375,-0.011417359113693237,-0.02735029347240925,0.009971839375793934
1772568138479149800,9.10414990234375,-0.0066567687317729,-0.008502749726176262,-0.011161841452121735
1772568138489220900,9.114220947265625,-0.0013959603384137154,-0.0021007764153182507,-0.028910212218761444
1772568138499293000,9.12429296875,0.01363312266767025,0.01207311637699604,-0.027218572795391083
1772568138509364000,9.134364013671876,0.024317458271980286,0.025825412943959236,-0.026445455849170685
1772568138519435800,9.144435791015624,0.039282456040382385,0.03799372538924217,-0.03217240422964096
1772568138529506800,9.1545068359375,0.05042911693453789,0.043414853513240814,-0.044889532029628754
1772568138539579000,9.164578857421875,0.058271683752536774,0.03238476812839508,-0.03429162874817848
1772568138549649700,9.174649658203125,0.05348651856184006,0.010329533368349075,-0.018479377031326294
1772568138559721700,9.1847216796875,0.05260182544589043,-0.008397004567086697,0.0159323588013649
1772568138569792800,9.194792724609375,0.061985474079847336,-0.027421029284596443,0.042214032262563705
1772568138579864800,9.20486474609375,0.06369049847126007,-0.036287471652030945,0.04125528037548065
1772568138589935900,9.214935791015625,0.054461583495140076,-0.03332870081067085,0.026115212589502335
1772568138600007700,9.225007568359375,0.045581281185150146,-0.03219658136367798,0.0019352752715349197
1772568138610079700,9.235079833984376,0.039546556770801544,-0.04025344178080559,-0.016372624784708023
1772568138620150800,9.24515087890625,0.028195148333907127,-0.06793916970491409,-0.021633774042129517
1772568138630222800,9.255222900390624,0.017545433714985847,-0.09814421087503433,0.000604686327278614
1772568138640294000,9.2652939453125,0.017988596111536026,-0.101688452064991,0.026748303323984146
1772568138650366000,9.275365966796874,0.02680499106645584,-0.08928557485342026,0.046175796538591385
1772568138660437000,9.28543701171875,0.04222579300403595,-0.05784262716770172,0.046850141137838364
1772568138670508800,9.2955087890625,0.04132005199790001,-0.03179877623915672,0.02714754268527031
1772568138680579800,9.305579833984375,0.03382435813546181,-0.0009639454074203968,0.003068254329264164
1772568138690652000,9.31565185546875,0.029111895710229874,0.02611587569117546,-0.005192871205508709
1772568138700722700,9.32572265625,0.025535043329000473,0.06432364881038666,0.0013854745775461197
1772568138710795000,9.335794921875,0.016516515985131264,0.09105192869901657,0.003805754706263542
1772568138720865800,9.34586572265625,0.00413067452609539,0.10340232402086258,-0.0011998852714896202
1772568138730937600,9.3559375,-0.0071302358992397785,0.1127481609582901,-0.010516954585909843
1772568138741008600,9.366008544921876,-0.010466884821653366,0.11655519902706146,-0.024934716522693634
1772568138751080700,9.376080810546876,-0.012863731011748314,0.10471691936254501,-0.036744505167007446
1772568138761152800,9.38615283203125,-0.01187864039093256,0.07353738695383072,-0.03970497101545334
1772568138771223800,9.396223876953124,-0.004156803712248802,0.038963958621025085,-0.024586204439401627
1772568138781295900,9.4062958984375,0.004654727876186371,0.021289637312293053,-0.0090345349162817
1772568138791367000,9.416366943359375,-0.0015246043913066387,-0.0021310008596628904,-0.02202543430030346
1772568138801438700,9.426438720703125,-0.008359852246940136,-0.026724588125944138,-0.016193510964512825
1772568138811509800,9.436509765625,-0.017994636669754982,-0.02131837233901024,0.009570973925292492
1772568138821581800,9.446581787109375,-0.032308802008628845,-0.019280927255749702,0.031556788831949234
1772568138831652900,9.45665283203125,-0.05392887443304062,-0.016278745606541634,0.037462614476680756
1772568138841725000,9.466724853515625,-0.05963008105754852,-0.025556625798344612,0.03824630752205849
1772568138851796000,9.4767958984375,-0.05557595193386078,-0.030514897778630257,0.03862101584672928
1772568138861868000,9.486867919921876,-0.04474141076207161,-0.03556664660573006,0.04203811660408974
1772568138871938800,9.496938720703126,-0.02777281403541565,-0.03536185249686241,0.04837670549750328
1772568138882010600,9.5070107421875,-0.023356296122074127,-0.04009655490517616,0.05023207515478134
1772568138892081700,9.51708154296875,-0.012542798183858395,-0.03020530939102173,0.05544387549161911
1772568138902153700,9.52715380859375,-0.01153524313122034,-0.018810410052537918,0.056379932910203934
1772568138912224800,9.537224853515625,-0.00941989291459322,-0.006993697956204414,0.05474981293082237
1772568138922296800,9.547296875,-0.009203748777508736,0.007282506208866835,0.0658351331949234
1772568138932368600,9.55736865234375,0.005992249120026827,0.03496819734573364,0.0655650869011879
1772568138942439700,9.567439697265625,0.012323347851634026,0.03741078078746796,0.0352548249065876
1772568138952511700,9.57751171875,0.0009686942212283611,0.05013403296470642,0.002248138189315796
1772568138962582800,9.587582763671875,-0.019306670874357224,-0.002051528077572584,-0.0074510653503239155
1772568138972654800,9.59765478515625,-0.027561137452721596,-0.037151724100112915,0.0012944890186190605
1772568138982726000,9.607725830078126,-0.04265006631612778,-0.08411800861358643,0.02664128877222538
1772568138992798000,9.6177978515625,-0.04248867928981781,-0.10838419944047928,0.05834861844778061
1772568139002869000,9.627868896484374,-0.0405082106590271,-0.10163000226020813,0.0866125226020813
1772568139012940800,9.63794091796875,-0.04001738876104355,-0.08600283414125443,0.12008579075336456
1772568139023011800,9.64801171875,-0.02521013654768467,-0.07384376227855682,0.10334412753582001
1772568139033084000,9.658083984375,-0.025230107828974724,-0.06834539771080017,0.0692700520157814
1772568139043154700,9.66815478515625,-0.0274103581905365,-0.018546918407082558,0.0510164350271225
1772568139053226800,9.678226806640625,-0.020590534433722496,-0.026784608140587807,0.02058422565460205
1772568139063297800,9.6882978515625,-0.023980379104614258,-0.021287916228175163,-0.01921233721077442
1772568139073369900,9.698369873046875,-0.03171925991773605,-0.029427602887153625,-0.03480168431997299
1772568139083441700,9.708441650390625,-0.02562525123357773,-0.04386373609304428,-0.025484971702098846
1772568139093512700,9.7185126953125,-0.014612546190619469,-0.03291468322277069,-0.01943213865160942
1772568139103584800,9.728584716796876,-0.006819492671638727,-0.011072410270571709,-0.029921259731054306
1772568139113655800,9.73865576171875,-0.009814748540520668,0.010442735627293587,-0.04753967002034187
1772568139123728000,9.748727783203124,-0.004694619681686163,0.02302764169871807,-0.051721978932619095
1772568139133799000,9.758798828125,-0.00034248223528265953,0.030686628073453903,-0.044070981442928314
1772568139143870700,9.76887060546875,0.00765581987798214,0.04548386484384537,-0.027581114321947098
1772568139153941800,9.778941650390625,0.01300744153559208,0.0670810416340828,-0.016844315454363823
1772568139164013800,9.789013916015625,0.015532156452536583,0.06886317580938339,-0.01808645948767662
1772568139174084900,9.7990849609375,0.012119581922888756,0.06765037029981613,-0.035151995718479156
1772568139184157000,9.809156982421875,-0.007090727332979441,0.035186976194381714,-0.053860049694776535
1772568139194227700,9.819227783203125,-0.016604870557785034,0.0013091717846691608,-0.05714931711554527
1772568139204299800,9.8292998046875,-0.00875718891620636,-0.026451461017131805,-0.03411772847175598
1772568139214370800,9.839370849609375,0.012720405124127865,-0.04767072945833206,-0.0058432151563465595
1772568139224442600,9.849442626953126,0.031579162925481796,-0.05573494732379913,-0.00343147199600935
1772568139234513700,9.859513671875,0.04504384100437164,-0.061769936233758926,-0.0061857127584517
1772568139244585700,9.869585693359374,0.055316321551799774,-0.06912399083375931,-0.001954893581569195
1772568139254656800,9.87965673828125,0.06336279958486557,-0.07375842332839966,-0.0015924368053674698
1772568139264728800,9.889728759765624,0.06439998000860214,-0.07124023139476776,0.005380266346037388
1772568139274801000,9.89980078125,0.06065051630139351,-0.06487741321325302,0.018553592264652252
1772568139284872000,9.909871826171875,0.06159467250108719,-0.05615675449371338,0.02566775493323803
1772568139294943700,9.91994384765625,0.05431758612394333,-0.03756096586585045,0.002474285662174225
1772568139305014800,9.930014892578125,0.04884973540902138,-0.014205940067768097,-0.02501857653260231
1772568139315086800,9.9400869140625,0.04043520987033844,0.006847680080682039,-0.039434533566236496
1772568139325158000,9.950157958984375,0.026705332100391388,0.02076079696416855,-0.0532260537147522
1772568139335230000,9.96022998046875,0.011921859346330166,0.01799244061112404,-0.06142140179872513
1772568139345301000,9.970301025390626,-0.01087641716003418,-0.001847216160967946,-0.04328913986682892
1772568139355372800,9.980372802734376,-0.010051636025309563,-0.01908212900161743,0.001009083352982998
1772568139365443600,9.990443603515626,0.006179435178637505,-0.03212728351354599,0.043215278536081314
1772568139375515600,10.000515625,0.015645908191800117,-0.021440550684928894,0.05191290006041527
1772568139385583400,10.010583251953125,0.0076675075106322765,-0.0049725668504834175,0.029927343130111694
1772568139395655700,10.02065576171875,0.00008788472041487694,0.01105140708386898,0.0038099903613328934
1772568139405726500,10.0307265625,-0.012772833928465843,0.01435829047113657,-0.003888332284986973
1772568139415798500,10.040798583984374,-0.02941732481122017,0.02274911105632782,-0.005133892875164747
1772568139425869600,10.05086962890625,-0.040114875882864,0.028503339737653732,-0.00806913897395134
1772568139435941400,10.06094140625,-0.04113806039094925,0.023871570825576782,-0.014035951346158981
1772568139446012400,10.071012451171875,-0.03658435866236687,0.0016255863010883331,-0.024708066135644913
1772568139456084500,10.08108447265625,-0.03672150894999504,-0.028949633240699768,-0.016295406967401505
1772568139466155500,10.091155517578125,-0.027460189536213875,-0.04337814822793007,0.003412586636841297
1772568139476227600,10.1012275390625,-0.01672551780939102,-0.04890820011496544,0.013609030283987522
1772568139486299400,10.11129931640625,-0.008616553619503975,-0.04549635574221611,0.015076584182679653
1772568139496370400,10.121370361328125,-0.0077896430157125,-0.048173628747463226,0.014609466306865215
1772568139506442500,10.1314423828125,-0.001474618911743164,-0.04778027534484863,0.01611134223639965
1772568139516513500,10.141513427734376,-0.005476817488670349,-0.05822013318538666,0.00871174968779087
1772568139526585600,10.151585693359374,-0.00754663348197937,-0.05719242990016937,-0.0007941126823425293
1772568139536656600,10.16165673828125,-0.003268531523644924,-0.04979763180017471,-0.0018292833119630814
1772568139546728700,10.171728759765625,0.01170339249074459,-0.03150937333703041,-0.002035238780081272
1772568139556799500,10.181799560546875,0.023703861981630325,-0.00662106741219759,-0.011063886806368828
1772568139566871300,10.191871337890625,0.029219945892691612,0.020571153610944748,-0.022258654236793518
1772568139576942300,10.2019423828125,0.03670768812298775,0.023543771356344223,-0.025482144206762314
1772568139587014400,10.212014404296875,0.038045503199100494,0.010554028674960136,-0.007599006872624159
1772568139597085400,10.22208544921875,0.04374226927757263,0.006720674689859152,0.023332810029387474
1772568139607157500,10.232157470703125,0.0434102900326252,0.003487695474177599,0.03751093149185181
1772568139617228500,10.242228515625,0.04090878367424011,0.019557209685444832,0.03676684573292732
1772568139627300600,10.252300537109376,0.03728656843304634,0.03544939309358597,0.022215142846107483
1772568139637371600,10.26237158203125,0.03632942959666252,0.03972350060939789,0.0066103506833314896
1772568139647443500,10.272443359375,0.043070703744888306,0.05411858111619949,-0.007575350347906351
1772568139657514500,10.282514404296874,0.04504171013832092,0.06567137688398361,-0.032312922179698944
1772568139667586600,10.292586669921874,0.044961266219615936,0.06265651434659958,-0.049799397587776184
1772568139677657600,10.30265771484375,0.04641082510352135,0.0674307644367218,-0.04278329759836197
1772568139687729700,10.312729736328125,0.041187796741724014,0.058656368404626846,-0.034490227699279785
1772568139697800400,10.322800537109375,0.03413281589746475,0.024131949990987778,-0.018050266429781914
1772568139707872500,10.33287255859375,0.02771679498255253,0.008077483624219894,0.00989620853215456
1772568139717944600,10.342944580078125,0.023555340245366096,-0.013861371204257011,0.02231213077902794
1772568139728015400,10.353015380859375,0.01330383587628603,-0.02946416288614273,0.012987402267754078
1772568139738087400,10.36308740234375,0.0007326505146920681,-0.05213991552591324,-0.002156929112970829
1772568139748158500,10.373158447265626,-0.012198075652122498,-0.07524485886096954,0.0023353975266218185
1772568139758230500,10.38323046875,-0.02214871160686016,-0.09000757336616516,0.019647810608148575
1772568139768301600,10.393301513671876,-0.026810724288225174,-0.08867082744836807,0.016236018389463425
1772568139778373400,10.403373291015624,-0.022732626646757126,-0.07299546152353287,0.0011276397854089737
1772568139788444400,10.4134443359375,-0.02416980266571045,-0.058786168694496155,-0.013621336780488491
1772568139798516500,10.4235166015625,-0.019400347024202347,-0.04847067967057228,-0.009260943159461021
1772568139808587500,10.43358740234375,-0.009541943669319153,-0.03922369331121445,0.0004878854379057884
1772568139818659600,10.44365966796875,0.004382127895951271,-0.03864072635769844,0.007275218144059181
1772568139828730600,10.453730712890625,0.016167137771844864,-0.018823765218257904,0.016983864828944206
1772568139838802700,10.463802734375,0.020010344684123993,-0.000023713335394859314,0.010533690452575684
1772568139848873700,10.473873779296875,0.019138474017381668,0.035470861941576004,0.0005475571379065514
1772568139858945500,10.483945556640625,0.018377607688307762,0.058405742049217224,-0.006507955025881529
1772568139869016300,10.494016357421875,0.018208682537078857,0.07713012397289276,-0.012999365106225014
1772568139879088400,10.50408837890625,0.017788168042898178,0.07252978533506393,-0.017202099785208702
1772568139889159400,10.514159423828126,0.0016705822199583054,0.06597787141799927,-0.005555154290050268
1772568139899231500,10.5242314453125,-0.012073726393282413,0.05401468276977539,-0.0011926302686333656
1772568139909302500,10.534302490234374,-0.022056302055716515,0.04480323940515518,-0.009062914177775383
1772568139919374600,10.54437451171875,-0.02047385275363922,0.03472850099205971,-0.02355343848466873
1772568139929445600,10.554445556640625,-0.01790962740778923,0.030572107061743736,-0.03358597308397293
1772568139939517400,10.564517333984375,-0.012389693409204483,0.01016297284513712,-0.02895606867969036
1772568139949588500,10.57458837890625,-0.01316655334085226,-0.012024796567857265,-0.013009727001190186
1772568139959660500,10.58466064453125,-0.01939968392252922,-0.02947196364402771,0.004977262578904629
1772568139969731600,10.594731689453125,-0.02098737470805645,-0.02503535896539688,0.015989631414413452
1772568139979803600,10.6048037109375,-0.029759293422102928,-0.02341242879629135,0.01203723344951868
1772568139989874700,10.614874755859375,-0.02998775988817215,-0.007099967449903488,0.020580682903528214
1772568139999946500,10.624946533203126,-0.02379218116402626,0.02110663801431656,0.02501245215535164
1772568140010017500,10.635017578125,-0.01985643059015274,0.0592537522315979,0.005702810361981392
1772568140020089600,10.645089599609374,-0.008794991299510002,0.08635114878416061,-0.022444671019911766
1772568140030161700,10.65516162109375,0.005099335685372353,0.11796743422746658,-0.048666201531887054
1772568140040232400,10.665232421875,0.05600805580615997,0.14530451595783234,-0.06591496616601944
1772568140050304500,10.675304443359375,0.12222932279109955,0.18192197382450104,-0.022928709164261818
1772568140060375600,10.68537548828125,0.09482219815254211,0.10768822580575943,0.09247644990682602
1772568140070447400,10.695447265625,0.0006448826752603054,-0.04208052158355713,0.07622228562831879
1772568140080518400,10.705518310546875,-0.018491260707378387,-0.182858407497406,0.12477171421051025
1772568140090590500,10.715590576171875,0.0005735415033996105,-0.24984298646450043,0.22161786258220673
1772568140100661500,10.72566162109375,0.02364450693130493,-0.1571466028690338,0.20003853738307953
1772568140110733600,10.735733642578126,0.01934017241001129,-0.039564572274684906,0.12422727048397064
1772568140120804600,10.7458046875,0.007848099805414677,0.0511445589363575,0.05805197358131409
1772568140130876400,10.75587646484375,0.03503214940428734,0.1100940927863121,-0.024498723447322845
1772568140140947500,10.765947509765626,0.06171143054962158,0.14120326936244965,-0.11739058047533035
1772568140151019500,10.77601953125,0.09139344096183777,0.16422459483146667,-0.18282324075698853
1772568140161090600,10.786090576171874,0.11147554218769073,0.17380371689796448,-0.18062984943389893
1772568140171162600,10.79616259765625,0.0904187262058258,0.10702256113290787,-0.1595269739627838
1772568140181233400,10.8062333984375,0.033251844346523285,0.01107260026037693,-0.16506607830524445
