time,seconds_elapsed,z,y,x
1772363485635038200,0.1130380859375,-0.000626544002443552,-0.022810786962509155,-0.0025461269542574883
1772363485645108200,0.123108154296875,-0.000096841249614954,-0.020354021340608597,-0.00628653634339571
1772363485655178000,0.133177978515625,-0.0007240772247314453,-0.020241543650627136,-0.011807172559201717
1772363485665247200,0.143247314453125,-0.003894837573170662,-0.019618630409240723,-0.020844075828790665
1772363485675317000,0.15331689453125,-0.0015192050486803055,-0.01311839185655117,-0.0247592031955719
1772363485685387000,0.163386962890625,-0.0008355714380741119,-0.0007306975312530994,-0.03511596843600273
1772363485695456000,0.1734560546875,0.001267098356038332,0.010443076491355896,-0.03462647274136543
1772363485705526000,0.183526123046875,0.0022319615818560123,0.013069751672446728,-0.030369676649570465
1772363485715596300,0.19359619140625,-0.0000720042735338211,0.0162354689091444,-0.0174931138753891
1772363485725665000,0.2036650390625,-0.0010328730568289757,0.012154441326856613,-0.00734433950856328
1772363485735735600,0.213735595703125,0.0007122033275663853,-0.00041727209463715553,0.0019437121227383614
1772363485745804500,0.223804443359375,-0.003116090316325426,0.004249917343258858,0.008905747905373573
1772363485755874600,0.23387451171875,-0.010706692934036255,0.004011922981590033,0.021425895392894745
1772363485765944800,0.24394482421875,-0.007474948186427355,0.007632757071405649,0.023251492530107498
1772363485776013600,0.254013671875,-0.00830602366477251,0.0011485610157251358,0.020627383142709732
1772363485786083600,0.26408349609375,-0.0012896601110696793,-0.019491469487547874,0.022693198174238205
1772363485796153600,0.274153564453125,0.003286889288574457,-0.030151300132274628,0.01179768331348896
1772363485806222600,0.28422265625,0.0011536972597241402,-0.014596839435398579,-0.0053991470485925674
1772363485816292600,0.294292724609375,0.0010706731118261814,0.001889440231025219,-0.012978947721421719
1772363485826362600,0.304362548828125,-0.0001269504427909851,0.005392296239733696,-0.019429922103881836
1772363485836431600,0.314431640625,-0.008545168675482273,-0.004945135209709406,-0.02100517973303795
1772363485846501600,0.324501708984375,-0.011203003115952015,-0.018088635057210922,-0.03298088163137436
1772363485856571600,0.334571533203125,-0.018551429733633995,-0.02260572835803032,-0.045776307582855225
1772363485866640600,0.344640625,-0.022563215345144272,-0.02891794964671135,-0.05328189581632614
1772363485876710700,0.354710693359375,-0.023756148293614388,-0.025036344304680824,-0.05327364429831505
1772363485886780400,0.364780517578125,-0.01734352298080921,-0.021063175052404404,-0.051873087882995605
1772363485896849700,0.374849609375,-0.006464984267950058,-0.01947290077805519,-0.03928832709789276
1772363485906919700,0.384919677734375,-0.0014808783307671547,-0.02017943747341633,-0.02099773846566677
1772363485916989400,0.394989501953125,-0.000615410041064024,-0.008557502180337906,0.0004111584275960922
1772363485927058700,0.40505859375,0.004219825379550457,0.004427005536854267,0.013013769872486591
1772363485937128400,0.41512841796875,0.003850480541586876,0.011016094125807285,0.021983832120895386
1772363485947198700,0.42519873046875,-0.0009866193868219852,0.012200134806334972,0.0271301232278347
1772363485957267500,0.435267333984375,-0.006140141282230616,0.01151280291378498,0.03230232745409012
1772363485967337700,0.445337646484375,-0.002682026010006666,0.011841438710689545,0.03086875006556511
1772363485977407700,0.45540771484375,0.0006600134074687958,0.015744268894195557,0.035926543176174164
1772363485987476500,0.4654765625,0.0066063194535672665,0.015985019505023956,0.029316846281290054
1772363485997546800,0.475546630859375,0.010189775377511978,0.016795160248875618,0.016449786722660065
1772363486007616500,0.485616455078125,0.012090207077562809,0.014608705416321754,0.0006055776029825211
1772363486017685800,0.495685791015625,0.013714824803173542,0.02226840704679489,-0.010862448252737522
1772363486027755500,0.505755615234375,0.012148086912930012,0.028528433293104172,-0.022941481322050095
1772363486037825500,0.515825439453125,0.01572967879474163,0.031225690618157387,-0.03734305128455162
1772363486047894800,0.525894775390625,0.01613980531692505,0.026941461488604546,-0.041886668652296066
1772363486057964500,0.535964599609375,0.018579991534352303,0.02304227277636528,-0.04180464893579483
1772363486068034600,0.54603466796875,0.017222579568624496,0.032697830349206924,-0.03535260632634163
1772363486078103600,0.556103515625,0.018383024260401726,0.03466326743364334,-0.03343840688467026
1772363486088173600,0.566173583984375,0.017130007967352867,0.03260277956724167,-0.028083056211471558
1772363486098243800,0.576243896484375,0.009975345805287361,0.03154948353767395,-0.01826399751007557
1772363486108312600,0.5863125,0.014126149006187916,0.025459636002779007,-0.0031689340248703957
1772363486118382600,0.596382568359375,0.015776848420500755,0.018248990178108215,0.014406781643629074
1772363486128452600,0.60645263671875,0.015469785779714584,0.0008721314370632172,0.025360895320773125
1772363486138521600,0.616521484375,0.0170205757021904,-0.015342704020440578,0.04066803306341171
1772363486148591600,0.626591552734375,0.010785849764943123,-0.02789844386279583,0.04414079338312149
1772363486158661600,0.63666162109375,0.0008452064357697964,-0.03675520792603493,0.046366140246391296
1772363486168730600,0.646730712890625,-0.005344246048480272,-0.04367223381996155,0.030712079256772995
1772363486178800600,0.656800537109375,-0.007019401993602514,-0.049582600593566895,0.006892327219247818
1772363486188870700,0.66687060546875,0.0004387805238366127,-0.055545415729284286,-0.01566438004374504
1772363486198939600,0.676939697265625,-0.005035887006670237,-0.06371588259935379,-0.0423048734664917
1772363486209009700,0.687009765625,0.0008465033024549484,-0.055843573063611984,-0.06488022953271866
1772363486219078700,0.69707861328125,0.009876950643956661,-0.02894429676234722,-0.06816984713077545
1772363486229148700,0.707148681640625,0.016423001885414124,-0.001359274610877037,-0.052370376884937286
1772363486239218700,0.71721875,0.00043971091508865356,0.0021982695907354355,-0.03555561974644661
1772363486249287700,0.72728759765625,-0.005922047886997461,-0.019532058387994766,-0.020194241777062416
1772363486259357700,0.737357666015625,-0.008775867521762848,-0.04252718761563301,-0.009263839572668076
1772363486269427500,0.747427490234375,-0.017289195209741592,-0.056390270590782166,0.007036036811769009
1772363486279497700,0.757497802734375,-0.01791544258594513,-0.05880427360534668,0.022839758545160294
1772363486289566500,0.76756640625,-0.031861353665590286,-0.06134865805506706,0.02944546565413475
1772363486299636500,0.777636474609375,-0.030611049383878708,-0.07113998383283615,0.030284466221928596
1772363486309705700,0.787705810546875,-0.024581652134656906,-0.07121402025222778,0.03055504523217678
1772363486319775500,0.797775390625,-0.017436426132917404,-0.06411073356866837,0.029506556689739227
1772363486329845800,0.807845703125,-0.012009968981146812,-0.05166897922754288,0.03079792484641075
1772363486339914500,0.81791455078125,-0.01174318790435791,-0.03408071771264076,0.023754656314849854
1772363486349984800,0.82798486328125,-0.006213667802512646,-0.015923816710710526,0.01705361157655716
1772363486360054800,0.8380546875,-0.004212302155792713,-0.00433693639934063,0.008222569711506367
1772363486370124500,0.84812451171875,-0.010146090760827065,-0.0008551198989152908,0.0019172700121998787
1772363486380193800,0.85819384765625,-0.007942726835608482,0.00510100182145834,-0.011435642838478088
1772363486390263600,0.868263671875,-0.012065300717949867,-0.001472212141379714,-0.030668459832668304
1772363486400333600,0.87833349609375,-0.014941604807972908,-0.006951847579330206,-0.04776123911142349
1772363486410402600,0.888402587890625,-0.011433688923716545,-0.013712547719478607,-0.06789713352918625
1772363486420472600,0.89847265625,-0.008349917829036713,-0.01172682922333479,-0.07845558971166611
1772363486430542600,0.90854248046875,-0.0008153016678988934,-0.014058958739042282,-0.07988996803760529
1772363486440611600,0.918611572265625,0.0008118585683405399,-0.018139541149139404,-0.06596545875072479
1772363486450681600,0.928681640625,-0.002575415652245283,-0.019719326868653297,-0.038356997072696686
1772363486460751600,0.938751708984375,0.002332754898816347,-0.019867293536663055,-0.018597673624753952
1772363486470820600,0.948820556640625,0.0028637894429266453,-0.02977238968014717,-0.012256687507033348
1772363486480890600,0.958890625,0.004529258236289024,-0.02690509520471096,-0.007643477991223335
1772363486490960600,0.968960693359375,0.005653644446283579,-0.02467310056090355,-0.008385967463254929
1772363486501029600,0.979029541015625,0.005334598012268543,-0.012333610095083714,-0.009976939298212528
1772363486511099600,0.989099609375,0.0057604373432695866,-0.0013382171746343374,-0.0027350056916475296
1772363486521169700,0.999169677734375,0.0048800366930663586,0.007004980463534594,0.0003410428762435913
1772363486531238700,1.00923876953125,0.0009537385776638985,-0.0029256807174533606,-0.0072343191131949425
1772363486541308700,1.01930859375,0.00117490254342556,-0.023578492924571037,-0.014558644965291023
1772363486551378700,1.029378662109375,-0.002786017023026943,-0.03549161180853844,-0.022525224834680557
1772363486561447700,1.03944775390625,-0.002269050106406212,-0.03437395021319389,-0.03253026306629181
1772363486571517700,1.049517578125,0.003181641921401024,-0.028435101732611656,-0.03904275596141815
1772363486581587500,1.05958740234375,0.0016778521239757538,-0.018980281427502632,-0.045361198484897614
1772363486591656700,1.06965673828125,-0.006518025882542133,-0.01033193152397871,-0.053670793771743774
1772363486601726500,1.0797265625,-0.002709650434553623,0.0007513663731515408,-0.053908538073301315
1772363486611796700,1.089796630859375,-0.001740526407957077,0.012692980468273163,-0.051914628595113754
1772363486621865500,1.099865478515625,0.00451771542429924,0.01704007387161255,-0.029158703982830048
1772363486631935500,1.109935546875,0.008793952874839306,0.013905801810324192,-0.015025573782622814
1772363486642005800,1.120005859375,0.01362638734281063,0.014756301417946815,-0.004208615981042385
1772363486652074500,1.130074462890625,0.010798109695315361,0.019864242523908615,0.0004742862656712532
1772363486662144800,1.140144775390625,0.0149553082883358,0.02303507924079895,0.0015692925080657005
1772363486672214500,1.150214599609375,0.012808533385396004,0.021372999995946884,-0.0013340860605239868
1772363486682283500,1.160283447265625,0.006575612351298332,0.010501351207494736,-0.0038726069033145905
1772363486692353800,1.170353759765625,0.005946573801338673,0.003271400462836027,-0.0049075111746788025
1772363486702423600,1.180423583984375,0.004092768765985966,-0.00035570189356803894,-0.0012929877266287804
1772363486712492800,1.190492919921875,0.010123230516910553,0.0020235665142536163,0.00761208962649107
1772363486722562600,1.2005625,0.0041637783870100975,0.010658001527190208,0.01126870047301054
1772363486732636700,1.21063671875,0.002983998041599989,0.013066297397017479,0.012683105655014515
1772363486742706000,1.220705810546875,0.00419620331376791,0.010245760902762413,0.012117095291614532
1772363486752775700,1.230775634765625,0.0015570111572742462,0.0018578697927296162,0.01547054760158062
1772363486762845700,1.240845703125,0.001845192164182663,-0.002438863506540656,0.010238674469292164
1772363486772915000,1.2509150390625,0.00435229204595089,-0.0007895678281784058,-0.00007175374776124954
1772363486782984700,1.260984619140625,0.00992546509951353,0.004993285983800888,-0.017758596688508987
1772363486793054700,1.2710546875,0.016538627445697784,0.016159653663635254,-0.03360547125339508
1772363486803123700,1.281123779296875,0.019260235130786896,0.03961924836039543,-0.048463430255651474
1772363486813193700,1.29119384765625,0.0249311700463295,0.04952594265341759,-0.050997428596019745
1772363486823264000,1.301263916015625,0.02724822796881199,0.04574134945869446,-0.04185141623020172
1772363486833332700,1.311332763671875,0.018269114196300507,0.028331203386187553,-0.025429032742977142
1772363486843402800,1.32140283203125,0.013064197264611721,0.011734753847122192,-0.00004671327769756317
1772363486853472800,1.33147265625,0.011208506301045418,0.008090751245617867,0.018369844183325768
1772363486863542800,1.341542724609375,0.013336241245269775,0.013844282366335392,0.027239324524998665
1772363486873611800,1.35161181640625,0.015365302562713623,0.014079173095524311,0.029586100950837135
1772363486883681800,1.361681884765625,0.015944477170705795,0.015212444588541985,0.02978326752781868
1772363486893751800,1.371751708984375,0.01692958176136017,0.01999148540198803,0.01811515912413597
1772363486903820800,1.38182080078125,0.024801481515169144,0.03141127526760101,0.0074167074635624886
1772363486913890800,1.391890869140625,0.029202355071902275,0.044949717819690704,-0.0023999717086553574
1772363486923960600,1.401960693359375,0.03251989185810089,0.05453654006123543,-0.01180474366992712
1772363486934029800,1.41202978515625,0.04025424271821976,0.0537775382399559,-0.02392452210187912
1772363486944099600,1.422099609375,0.03659626096487045,0.037198785692453384,-0.0277627594769001
1772363486954169900,1.432169921875,0.02146124839782715,0.017844798043370247,-0.02973776124417782
1772363486964238800,1.44223876953125,0.011980663985013962,0.010368049144744873,-0.024524709209799767
1772363486974308600,1.45230859375,0.002589026466012001,0.008467884734272957,-0.025844572111964226
1772363486984379000,1.46237890625,-0.004737166687846184,0.009425337426364422,-0.02010812610387802
1772363486994447600,1.472447509765625,-0.011965518817305565,0.008690038695931435,-0.014071805402636528
1772363487004518000,1.482517822265625,-0.015382615849375725,0.006159390322864056,-0.0038616843521595
1772363487014588000,1.492587890625,-0.015692606568336487,-0.0004556351341307163,0.013363641686737537
1772363487024657000,1.502656982421875,-0.015525629743933678,-0.01576249673962593,0.033151812851428986
1772363487034727000,1.512726806640625,-0.02065940387547016,-0.02537517622113228,0.04341137409210205
1772363487044796700,1.522796630859375,-0.02023223228752613,-0.04106005281209946,0.05096401646733284
1772363487054866000,1.532865966796875,-0.017023654654622078,-0.038710080087184906,0.05198959633708
1772363487064935700,1.542935791015625,-0.015317069366574287,-0.02878226339817047,0.04816751554608345
1772363487075005700,1.553005615234375,-0.015671003609895706,-0.009333198890089989,0.0425754077732563
1772363487085076000,1.563075927734375,-0.010497640818357468,0.009746233001351357,0.03449884429574013
1772363487095144700,1.573144775390625,-0.006371605210006237,0.03137402981519699,0.02458842471241951
1772363487105214700,1.583214599609375,0.0012601464986801147,0.04867386817932129,0.015517962165176868
1772363487115284700,1.59328466796875,0.004840500187128782,0.0531836599111557,-0.00102213304489851
1772363487125353700,1.603353759765625,0.011410212144255638,0.045444197952747345,-0.01663500815629959
1772363487135424000,1.613424072265625,0.008281529881060123,0.04319116473197937,-0.027952909469604492
1772363487145493800,1.62349365234375,0.007030947133898735,0.05040298029780388,-0.023483678698539734
1772363487155562800,1.633562744140625,0.006154767237603664,0.057063013315200806,-0.012066441588103771
1772363487165632800,1.6436328125,0.00787333957850933,0.05359760299324989,0.006030004471540451
1772363487175702800,1.653702880859375,0.005172894336283207,0.03310990333557129,0.029336659237742424
1772363487185771800,1.663771728515625,0.006645889021456242,0.026303399354219437,0.04705174267292023
1772363487195841800,1.673841796875,0.017125960439443588,0.03421298414468765,0.05338846147060394
1772363487205911800,1.683911865234375,0.022656144574284554,0.04072970524430275,0.05411462113261223
1772363487215981800,1.69398193359375,0.02588682621717453,0.04871279373764992,0.05838313326239586
1772363487226050800,1.70405078125,0.022163329645991325,0.04956291243433952,0.05191466957330704
1772363487236120600,1.71412060546875,0.017887357622385025,0.0403829962015152,0.041480936110019684
1772363487246190800,1.72419091796875,0.017133980989456177,0.03277096897363663,0.02459045872092247
1772363487256259600,1.734259521484375,0.00747869024053216,0.025344479829072952,0.014248340390622616
1772363487266329900,1.744329833984375,0.0050291866064071655,0.01176435686647892,0.004677121527493
1772363487276399900,1.75439990234375,0.0028653680346906185,-0.0038031507283449173,-0.006139040924608707
1772363487286468900,1.76446875,0.010651320219039917,-0.026244258508086205,-0.017582200467586517
1772363487296539000,1.774538818359375,0.007775106001645327,-0.03674483299255371,-0.01945493556559086
1772363487306608600,1.784608642578125,0.0016530025750398636,-0.03592219203710556,-0.02284478396177292
1772363487316678000,1.794677978515625,-0.004472267348319292,-0.040759291499853134,-0.019408773630857468
1772363487326748000,1.804747802734375,-0.0090563353151083,-0.048249345272779465,-0.014281034469604492
1772363487336817700,1.814817626953125,-0.005644825752824545,-0.04419707879424095,0.003803427331149578
1772363487346887000,1.824886962890625,-0.0035556480288505554,-0.02998046576976776,0.016981899738311768
1772363487356956700,1.834956787109375,0.009143102914094925,-0.028189489617943764,0.0032900581136345863
1772363487367026700,1.845026611328125,0.009497801773250103,-0.05319220572710037,-0.00610850565135479
1772363487377097000,1.855096923828125,-0.007463337853550911,-0.04435157775878906,0.01770681142807007
1772363487387165700,1.865165771484375,-0.009490132331848145,-0.020488206297159195,0.018795516341924667
1772363487397236000,1.875236083984375,-0.0044511654414236546,-0.004613369237631559,0.009065921418368816
1772363487407305700,1.8853056640625,-0.00015555834397673607,-0.004871565382927656,0.017532464116811752
1772363487417375000,1.895375,0.004053833894431591,-0.007595180533826351,0.022465171292424202
1772363487427444700,1.90544482421875,0.00824641715735197,-0.014160223305225372,0.020286884158849716
1772363487437514800,1.9155146484375,0.004098011180758476,-0.010325005277991295,0.01862400770187378
1772363487447583700,1.925583740234375,-0.0024104914627969265,0.0004093209281563759,0.01992398127913475
1772363487457653800,1.93565380859375,-0.016131097450852394,0.00804673507809639,0.014521759934723377
1772363487467723800,1.945723876953125,-0.02004973217844963,0.012556705623865128,0.004569263197481632
1772363487477792800,1.955792724609375,-0.019974632188677788,0.0033914363011717796,-0.007351578213274479
1772363487487862800,1.96586279296875,-0.013875428587198257,-0.00011293217539787292,-0.021868648007512093
1772363487497932800,1.975932861328125,-0.0044939108192920685,0.005093281157314777,-0.030011262744665146
1772363487508002800,1.9860029296875,-0.008847079239785671,0.014969510026276112,-0.025500133633613586
1772363487518071800,1.99607177734375,-0.011266295798122883,0.02227642387151718,-0.030415527522563934
1772363487528141800,2.006141845703125,-0.012236114591360092,0.021054521203041077,-0.02413446456193924
1772363487538211800,2.0162119140625,-0.0123455710709095,0.01679958775639534,-0.010779776610434055
1772363487548280800,2.02628076171875,-0.008771747350692749,0.013883843086659908,0.0002145497128367424
1772363487558350800,2.036350830078125,-0.004691517911851406,0.003344383090734482,0.013549529947340488
1772363487568420900,2.0464208984375,0.001816251315176487,-0.0033286409452557564,0.02093474380671978
1772363487578489900,2.05648974609375,0.009166575968265533,0.003186782356351614,0.02514333464205265
1772363487588560000,2.066559814453125,0.009258188307285309,0.014239167794585228,0.021941417828202248
1772363487598629600,2.076629638671875,0.01383882574737072,0.013039946556091309,0.017943480983376503
1772363487608699000,2.086698974609375,0.02244376577436924,0.015599776059389114,0.01534130610525608
1772363487618768600,2.0967685546875,0.026868075132369995,0.019407831132411957,0.015475794672966003
1772363487628838700,2.106838623046875,0.02485508844256401,0.02307906374335289,0.0060262782499194145
1772363487638909000,2.116908935546875,0.028959818184375763,0.021903544664382935,-0.0004651760682463646
1772363487648977700,2.126977783203125,0.02611463889479637,0.020400384441018105,-0.0015443768352270126
1772363487659048000,2.1370478515625,0.01708758808672428,0.016686340793967247,-0.0027638375759124756
1772363487669117700,2.14711767578125,0.019928084686398506,0.008736986666917801,-0.004810300190001726
1772363487679187000,2.15718701171875,0.02524029091000557,0.008507156744599342,-0.0021159807220101357
1772363487689256700,2.167256591796875,0.02212165668606758,0.004854493774473667,0.003178738057613373
1772363487699326700,2.17732666015625,0.01755220629274845,-0.0028750651981681585,0.01050243154168129
1772363487709396700,2.187396728515625,0.013669189065694809,-0.012032760307192802,0.024538887664675713
1772363487719465700,2.1974658203125,0.015459631569683552,-0.01826375722885132,0.03493693470954895
1772363487729535500,2.207535400390625,0.013493655249476433,-0.01420891284942627,0.039859700947999954
1772363487739605800,2.217605712890625,0.016404489055275917,-0.01095958985388279,0.03737577050924301
1772363487749674500,2.227674560546875,0.01920001208782196,-0.007730428129434586,0.02697603777050972
1772363487759744800,2.237744873046875,0.022194471210241318,-0.0011761225759983063,0.012721466831862926
1772363487769814800,2.247814697265625,0.026532819494605064,0.0030306950211524963,0.004611873999238014
1772363487779883500,2.257883544921875,0.02535676769912243,0.00790028553456068,-0.004053252749145031
1772363487789953800,2.267953857421875,0.023799322545528412,0.0059015778824687,-0.00924499612301588
1772363487800023600,2.2780234375,0.02330770343542099,0.0045420341193675995,-0.017985491082072258
1772363487810093600,2.288093505859375,0.025461368262767792,0.007084657438099384,-0.027949973940849304
1772363487820162600,2.29816259765625,0.024775603786110878,0.006141366437077522,-0.035057682543992996
1772363487830232600,2.308232666015625,0.019825758412480354,0.005599960219115019,-0.03716664016246796
1772363487840302600,2.318302490234375,0.02209077775478363,0.012200338765978813,-0.036732546985149384
1772363487850371600,2.32837158203125,0.022631997242569923,-0.0007303929887712002,-0.027928315103054047
1772363487860441600,2.338441650390625,0.020777104422450066,-0.018350666388869286,-0.013633531518280506
1772363487870511600,2.34851171875,0.023801319301128387,-0.030981644988059998,-0.006028518546372652
1772363487880580600,2.35858056640625,0.02599523216485977,-0.03628959134221077,0.0025710947811603546
1772363487890650600,2.368650634765625,0.025724388659000397,-0.021026749163866043,0.0069978004321455956
1772363487900720600,2.378720703125,0.027814703062176704,-0.0009696832858026028,0.00949797686189413
1772363487910790700,2.388790771484375,0.02900763601064682,0.019511844962835312,0.006710979156196117
1772363487920859600,2.398859619140625,0.027125580236315727,0.01607370376586914,0.0018174201250076294
1772363487930929700,2.4089296875,0.020192939788103104,0.006756778806447983,-0.002058989368379116
1772363487940999400,2.41899951171875,0.015108698979020119,-0.0028090295381844044,-0.010707338340580463
1772363487951068700,2.429068603515625,0.003507568035274744,-0.008912235498428345,-0.019628750160336494
1772363487961138700,2.439138671875,-0.0030403458513319492,-0.012531206011772156,-0.033723264932632446
1772363487971208400,2.44920849609375,-0.003950048238039017,-0.01786082610487938,-0.046879012137651443
1772363487981278700,2.45927880859375,-0.005602273158729076,-0.02375679835677147,-0.056581441313028336
1772363487991347500,2.469347412109375,-0.0022584078833460808,-0.029205095022916794,-0.06388329714536667
1772363488001417700,2.479417724609375,-0.007235589437186718,-0.026749394834041595,-0.06276822835206985
1772363488011487700,2.48948779296875,-0.012264670804142952,-0.01837127096951008,-0.05618960037827492
1772363488021556700,2.499556640625,-0.017410164698958397,-0.009860074147582054,-0.045648012310266495
1772363488031626800,2.509626708984375,-0.022681759670376778,-0.010444145649671555,-0.034014612436294556
1772363488041696500,2.519696533203125,-0.02456674538552761,-0.01156240701675415,-0.020700938999652863
1772363488051766500,2.5297666015625,-0.028007643297314644,-0.018124686554074287,-0.004978168290108442
1772363488061835500,2.53983544921875,-0.024152187630534172,-0.015187486074864864,0.0003841063007712364
1772363488071905500,2.549905517578125,-0.025860801339149475,-0.013354373164474964,0.0005644019693136215
1772363488081975800,2.559975830078125,-0.02299470826983452,-0.016285981982946396,0.0020256787538528442
1772363488092044500,2.57004443359375,-0.01986147090792656,-0.010204914025962353,0.0034791436046361923
1772363488102114600,2.580114501953125,-0.01901964470744133,-0.0016955819446593523,0.000654861330986023
1772363488112184600,2.5901845703125,-0.019062023609876633,0.00064517417922616,0.005424050614237785
1772363488122254600,2.600254638671875,-0.020448997616767883,-0.005626836325973272,0.009825190529227257
1772363488132323600,2.610323486328125,-0.028025217354297638,-0.023794744163751602,0.007440327666699886
1772363488142393600,2.6203935546875,-0.027997788041830063,-0.031743213534355164,0.0008537983521819115
1772363488152463600,2.630463623046875,-0.03063095547258854,-0.03681401535868645,-0.001644868403673172
1772363488162532600,2.64053271484375,-0.030307115986943245,-0.04217149689793587,-0.007299558725208044
1772363488172602600,2.6506025390625,-0.025597747415304184,-0.030300313606858253,-0.016201084479689598
1772363488182672400,2.66067236328125,-0.012967173010110855,-0.014839064329862595,-0.030189070850610733
1772363488192742700,2.67074267578125,-0.00428359629586339,-0.00012354832142591476,-0.042992401868104935
1772363488202811600,2.680811767578125,0.005102448631078005,0.004546038340777159,-0.057181987911462784
1772363488212881700,2.690881591796875,0.009139996021986008,0.002155178226530552,-0.06639057397842407
1772363488222951700,2.70095166015625,0.010012446902692318,-0.009868195280432701,-0.06376203894615173
1772363488233020700,2.711020751953125,0.00880866963416338,-0.012420572340488434,-0.04871908575296402
1772363488243090700,2.721090576171875,0.013540307059884071,-0.0027056264225393534,-0.02994726225733757
1772363488253160700,2.73116064453125,0.024893997237086296,0.010786358267068863,-0.014965027570724487
1772363488263230500,2.74123046875,0.03261343389749527,0.023859282955527306,0.0036398163065314293
1772363488273299700,2.7512998046875,0.03926410526037216,0.030329030007123947,0.015696216374635696
1772363488283369500,2.761369384765625,0.04213579371571541,0.03317594900727272,0.022206047549843788
1772363488293439700,2.771439697265625,0.040825553238391876,0.023137938231229782,0.03738650679588318
1772363488303509800,2.781509765625,0.036909639835357666,0.016847286373376846,0.037544965744018555
1772363488313578500,2.79157861328125,0.03640850633382797,0.008400410413742065,0.03782051056623459
1772363488323648800,2.801648681640625,0.036060430109500885,0.007604924496263266,0.03097991645336151
1772363488333718500,2.811718505859375,0.03737589716911316,0.011778855696320534,0.020802024751901627
1772363488343787800,2.821787841796875,0.039332255721092224,0.01855580322444439,0.006048113107681274
1772363488353857500,2.831857421875,0.033059410750865936,0.020414259284734726,-0.00010618474334478378
1772363488363927600,2.841927490234375,0.030408233404159546,0.02241376042366028,-0.004590948112308979
1772363488373997600,2.85199755859375,0.02604464814066887,0.020810618996620178,-0.006331947166472673
1772363488384066600,2.862066650390625,0.018456503748893738,0.001590584870427847,-0.0006580827757716179
1772363488394136600,2.872136474609375,0.013418234884738922,-0.020346814766526222,0.007140365429222584
1772363488404206600,2.88220654296875,0.01454768143594265,-0.03206712007522583,0.01989717036485672
1772363488414276600,2.892276611328125,0.015207978896796703,-0.037769872695207596,0.03285966441035271
1772363488424345900,2.902345947265625,0.017337443307042122,-0.0363546684384346,0.046002097427845
1772363488434415600,2.91241552734375,0.013155749067664146,-0.030499625951051712,0.0571390837430954
1772363488444485600,2.922485595703125,0.008684035390615463,-0.005163110792636871,0.08227186650037766
1772363488454554600,2.9325546875,0.010307000949978828,0.024336621165275574,0.07700439542531967
1772363488464624600,2.942624755859375,0.014863137155771255,0.017316795885562897,0.04186345636844635
1772363488474694700,2.952694580078125,0.006511365994811058,-0.03306814283132553,0.04147817939519882
1772363488484764700,2.9627646484375,-0.007569032721221447,-0.043557267636060715,0.0528235137462616
1772363488494833700,2.972833740234375,-0.014214721508324146,0.0020038443617522717,0.050410784780979156
1772363488504903700,2.982903564453125,-0.016842730343341827,0.04098133742809296,0.06046981364488602
1772363488514973700,2.9929736328125,-0.0063589634373784065,0.04755944758653641,0.025166943669319153
1772363488525043700,3.003043701171875,-0.00565722119063139,0.0012585287913680077,0.009030851535499096
1772363488535112700,3.01311279296875,-0.006477103102952242,-0.028904128819704056,0.017368849366903305
1772363488545182700,3.0231826171875,-0.008047835901379585,-0.015847980976104736,0.027531471103429794
1772363488555252500,3.03325244140625,-0.007573694922029972,0.000724665354937315,0.018964262679219246
1772363488565321700,3.04332177734375,-0.008600609377026558,-0.003295110072940588,0.012482661753892899
1772363488575391500,3.0533916015625,-0.0017110486514866352,-0.0025004001799970865,0.020463712513446808
1772363488585461500,3.06346142578125,-0.004253834951668978,0.007631862070411444,0.027064889669418335
1772363488595531800,3.07353173828125,-0.00579466950148344,0.0011067269369959831,0.026670385152101517
1772363488605600500,3.0836005859375,-0.01163391675800085,-0.010030079632997513,0.02970239520072937
1772363488615670800,3.0936708984375,-0.020795421674847603,-0.009256002493202686,0.0322268046438694
1772363488625740500,3.103740478515625,-0.023987220600247383,-0.005964601878076792,0.03451073169708252
1772363488635810600,3.113810546875,-0.022438660264015198,0.00605506356805563,0.035165779292583466
1772363488645879600,3.123879638671875,-0.014092578552663326,-0.0006696847267448902,0.023053990676999092
1772363488655949600,3.133949462890625,-0.012441985309123993,-0.01615453138947487,0.015740947797894478
1772363488666019600,3.14401953125,-0.012473676353693008,-0.018066681921482086,0.008949356153607368
1772363488676089600,3.154089599609375,-0.019145000725984573,-0.000034988392144441605,0.00163960549980402
1772363488686158600,3.16415869140625,-0.01539820060133934,0.01042670663446188,-0.009251924231648445
1772363488696228600,3.174228515625,-0.012673648074269295,0.00686112092807889,-0.015208087861537933
1772363488706298600,3.184298583984375,-0.0171528197824955,-0.0166292916983366,-0.006447352934628725
1772363488716368600,3.19436865234375,-0.03225899487733841,-0.03242374211549759,0.015307558700442314
1772363488726437600,3.204437744140625,-0.040242087095975876,-0.03602566942572594,0.04420312121510506
1772363488736504000,3.214504150390625,-0.039162974804639816,-0.027891656383872032,0.0664864182472229
1772363488746574000,3.224573974609375,-0.04302562400698662,-0.02818833291530609,0.09092411398887634
1772363488756644000,3.23464404296875,-0.04534836485981941,-0.0386800616979599,0.10291499644517899
1772363488766713000,3.244713134765625,-0.04504769295454025,-0.052617184817790985,0.09608771651983261
1772363488776783000,3.254783203125,-0.046160727739334106,-0.06715312600135803,0.08458410203456879
1772363488786853000,3.26485302734375,-0.04737379774451256,-0.07650188356637955,0.07454930990934372
1772363488796923100,3.274923095703125,-0.04926054924726486,-0.08154398947954178,0.06186938285827637
1772363488806992100,3.2849921875,-0.036591894924640656,-0.07482296973466873,0.04866036772727966
1772363488817062100,3.295062255859375,-0.03148893639445305,-0.06833057105541229,0.03312765434384346
1772363488827132200,3.305132080078125,-0.0229021105915308,-0.062035925686359406,0.029908694326877594
1772363488837201200,3.315201171875,-0.012644108384847641,-0.05741189792752266,0.019976075738668442
1772363488847271200,3.325271240234375,-0.01600954495370388,-0.05290529876947403,0.0038133496418595314
1772363488857341000,3.3353408203125,-0.020441947504878044,-0.03198106586933136,-0.012138715013861656
1772363488867411200,3.3454111328125,-0.015524419024586678,-0.018183493986725807,-0.03388741984963417
1772363488877480000,3.35547998046875,-0.013345262967050076,-0.014177154749631882,-0.049095749855041504
1772363488887550200,3.36555029296875,-0.008872750215232372,-0.02060336247086525,-0.049457672983407974
1772363488897620200,3.3756201171875,-0.004702630918473005,-0.02747243642807007,-0.05116148293018341
1772363488907690000,3.38568994140625,-0.0003417045809328556,-0.0189998559653759,-0.04503780975937843
1772363488917759200,3.39575927734375,0.001410887110978365,-0.01374080777168274,-0.03057870827615261
1772363488927829000,3.4058291015625,0.0001967521384358406,-0.0022226369474083185,-0.01889808475971222
1772363488937899000,3.41589892578125,-0.0005231318064033985,-0.005240879487246275,-0.006235909648239613
1772363488947969300,3.42596923828125,0.005456463433802128,-0.014936650171875954,0.005415951833128929
1772363488958038000,3.4360380859375,0.002681054174900055,-0.018065743148326874,0.024209344759583473
1772363488968108300,3.4461083984375,0.0033915857784450054,-0.02043968439102173,0.04644674062728882
1772363488978178000,3.456177978515625,0.00042348727583885193,-0.017315160483121872,0.05744871124625206
1772363488988248000,3.466248046875,0.0020245793275535107,-0.02024623565375805,0.06456440687179565
1772363488998318000,3.476318115234375,-0.0022056149318814278,-0.016025658696889877,0.06619008630514145
1772363489008387000,3.486386962890625,0.0011923126876354218,-0.009329140186309814,0.058707669377326965
1772363489018457000,3.49645703125,0.006211366970092058,-0.00993412733078003,0.053303852677345276
1772363489028527000,3.506527099609375,0.016593966633081436,-0.006653112359344959,0.04988755285739899
1772363489038597000,3.51659716796875,0.022306283935904503,0.005284199025481939,0.041189663112163544
1772363489048666000,3.526666015625,0.029298413544893265,0.008574800565838814,0.033851057291030884
1772363489058736000,3.536736083984375,0.03436248376965523,0.009238602593541145,0.026202630251646042
1772363489068806100,3.54680615234375,0.026449700817465782,-0.005035141482949257,0.029818937182426453
1772363489078876000,3.5568759765625,0.022495204582810402,-0.015493825078010559,0.03021024353802204
1772363489088945200,3.566945068359375,0.02921169623732567,-0.01717747561633587,0.025614427402615547
1772363489099015200,3.57701513671875,0.036461349576711655,-0.033833764493465424,0.029163450002670288
1772363489109085200,3.587085205078125,0.03787122666835785,-0.031084317713975906,0.03981316462159157
1772363489119155200,3.5971552734375,0.042257923632860184,-0.03398599475622177,0.042052965611219406
1772363489129224000,3.607223876953125,0.045824430882930756,-0.028612002730369568,0.029516134411096573
1772363489139294200,3.617294189453125,0.040662460029125214,-0.034630585461854935,0.021693367511034012
1772363489149364200,3.6273642578125,0.027306439355015755,-0.02195260487496853,0.010900638066232204
1772363489159434000,3.63743408203125,0.02542937733232975,-0.0037786411121487617,-0.015622138977050781
1772363489169503200,3.647503173828125,0.03338983282446861,-0.003168777097016573,-0.042295828461647034
1772363489179573000,3.657572998046875,0.030129456892609596,-0.011131670325994492,-0.057863689959049225
1772363489189643300,3.667643310546875,0.025242023169994354,-0.008085014298558235,-0.06942979991436005
1772363489199713300,3.67771337890625,0.02258472517132759,-0.005441662389785051,-0.07617683708667755
1772363489209782000,3.687781982421875,0.016907399520277977,-0.009787142276763916,-0.06604351103305817
1772363489219852300,3.697852294921875,0.009973693639039993,-0.011872254312038422,-0.04198841750621796
1772363489229922000,3.707922119140625,0.008608290925621986,-0.0143873430788517,-0.013676350936293602
1772363489239992000,3.717991943359375,0.0074540055356919765,-0.016526270657777786,0.009269807487726212
1772363489250061000,3.72806103515625,0.00893339142203331,-0.019045887514948845,0.01949980854988098
1772363489260131000,3.738131103515625,0.005110692698508501,-0.01598689891397953,0.030323602259159088
1772363489270201000,3.748201171875,0.011028236709535122,-0.009977476671338081,0.02858961746096611
1772363489280271000,3.75827099609375,0.005267953500151634,0.006056392565369606,0.017512284219264984
1772363489290341000,3.768341064453125,-0.002822729293256998,0.008533664979040623,-0.004055325873196125
1772363489300410000,3.77841015625,-0.006909520830959082,0.014682617038488388,-0.02526979148387909
1772363489310480100,3.788480224609375,-0.01883568800985813,0.020570600405335426,-0.03792007267475128
1772363489320550100,3.798550048828125,-0.0239876676350832,0.01956794038414955,-0.05057462304830551
1772363489330620200,3.8086201171875,-0.022874999791383743,0.016233129426836967,-0.060893043875694275
1772363489340689200,3.818689208984375,-0.02711445838212967,0.004127731081098318,-0.059099484235048294
1772363489350759000,3.828759033203125,-0.034303929656744,0.0012011830694973469,-0.06071575731039047
1772363489360829200,3.8388291015625,-0.03560714051127434,0.0036810575984418392,-0.06771491467952728
1772363489370899200,3.848899169921875,-0.0350731760263443,0.011442573741078377,-0.06209244579076767
1772363489380968200,3.85896826171875,-0.037626978009939194,0.0325905941426754,-0.054996270686388016
1772363489391038200,3.8690380859375,-0.04101664945483208,0.043516743928194046,-0.036043353378772736
1772363489401108000,3.87910791015625,-0.038703590631484985,0.049271609634160995,-0.021835755556821823
1772363489411178200,3.88917822265625,-0.0346049889922142,0.052634648978710175,-0.01191175077110529
1772363489421247000,3.8992470703125,-0.02635711245238781,0.05055674910545349,-0.0013398835435509682
1772363489431317000,3.90931689453125,-0.016056006774306297,0.04911784082651138,-0.0010903459042310715
1772363489441387300,3.91938720703125,-0.01886611059308052,0.04020680487155914,-0.00036951247602701187
1772363489451457000,3.92945703125,-0.01837076246738434,0.023596933111548424,-0.007822634652256966
1772363489461527000,3.939527099609375,-0.020320624113082886,0.005375361535698175,-0.01784553937613964
1772363489471596000,3.949595947265625,-0.021352598443627357,-0.007378783077001572,-0.02643396705389023
1772363489481666000,3.959666015625,-0.027485227212309837,-0.013377759605646133,-0.03602356091141701
1772363489491736000,3.969736083984375,-0.027905208989977837,-0.01092179212719202,-0.04656648635864258
1772363489501806000,3.97980615234375,-0.022093025967478752,-0.011392494663596153,-0.04955792799592018
1772363489511875000,3.989875,-0.019207224249839783,-0.004026990383863449,-0.05623660236597061
1772363489521945000,3.999945068359375,-0.026857053861021996,-0.0007462836802005768,-0.049103595316410065
1772363489532015000,4.01001513671875,-0.02970503829419613,0.01747772842645645,-0.040917567908763885
1772363489542085000,4.020085205078125,-0.012879554182291031,0.03761951997876167,-0.05034995079040527
1772363489552155100,4.030155029296875,-0.001270835753530264,0.034329451620578766,-0.06073760986328125
1772363489562224000,4.04022412109375,0.00945358071476221,0.030324548482894897,-0.0721229761838913
1772363489572294100,4.050294189453125,0.01528909895569086,0.040599558502435684,-0.091666579246521
1772363489582364200,4.0603642578125,0.015453722327947617,0.05305282771587372,-0.10715784132480621
1772363489592434200,4.07043408203125,0.023547867313027382,0.06611137092113495,-0.11936444044113159
1772363489602503200,4.080503173828125,0.028668753802776337,0.06425350904464722,-0.12304989248514175
1772363489612573200,4.0905732421875,0.03152419626712799,0.046015381813049316,-0.12179847806692123
1772363489622643200,4.100643310546875,0.03403206914663315,0.027253495529294014,-0.10938256233930588
1772363489632713000,4.110712890625,0.03838074207305908,0.023769548162817955,-0.11424150317907333
1772363489642783200,4.120783203125,0.038664065301418304,0.022265681996941566,-0.11600521951913834
1772363489652852000,4.13085205078125,0.04000523313879967,0.025915544480085373,-0.10975504666566849
1772363489662922200,4.140922119140625,0.03595852851867676,0.03115168586373329,-0.1017378643155098
1772363489672992300,4.1509921875,0.03964061290025711,0.03306516632437706,-0.10615578293800354
1772363489683062000,4.16106201171875,0.04130878672003746,0.015526307746767998,-0.10239176452159882
1772363489693131300,4.17113134765625,0.03226549178361893,0.007365050259977579,-0.10503601282835007
1772363489703201000,4.181200927734375,0.02071349322795868,0.005861080251634121,-0.10772358626127243
1772363489713271000,4.19127099609375,0.008662955835461617,0.0034000538289546967,-0.10301937907934189
1772363489723341300,4.20134130859375,-0.003658619709312916,-0.005807149223983288,-0.09600843489170074
1772363489733410800,4.211410888671875,-0.023074395954608917,-0.016840092837810516,-0.07503071427345276
1772363489743480000,4.22147998046875,-0.045978106558322906,-0.019180048257112503,-0.04925922304391861
1772363489753549800,4.2315498046875,-0.056028611958026886,-0.031832460314035416,-0.00653013726696372
1772363489763619800,4.241619873046875,-0.06337381899356842,-0.048347972333431244,0.03215787932276726
1772363489773690000,4.251690185546875,-0.06879627704620361,-0.06042860448360443,0.06376853585243225
1772363489783758800,4.2617587890625,-0.07201297581195831,-0.055198464542627335,0.08069603145122528
1772363489793828900,4.271828857421875,-0.07675579935312271,-0.03313231095671654,0.08950363844633102
1772363489803899000,4.28189892578125,-0.07682683318853378,-0.007476519793272018,0.08595532178878784
1772363489813969000,4.291968994140625,-0.08079174906015396,-0.0037835142575204372,0.07296868413686752
1772363489824039000,4.302038818359375,-0.0827479436993599,-0.012098579667508602,0.05598881095647812
1772363489834108000,4.31210791015625,-0.08269840478897095,-0.027663957327604294,0.027639195322990417
1772363489844178000,4.322177978515625,-0.0860588550567627,-0.024223830550909042,0.006147316657006741
1772363489854248000,4.332248046875,-0.08614833652973175,0.001977947074919939,-0.017986249178647995
1772363489864318000,4.34231787109375,-0.07852106541395187,0.032206159085035324,-0.0552951917052269
1772363489874388000,4.352387939453125,-0.07176702469587326,0.03881452605128288,-0.08791518211364746
1772363489884457000,4.36245703125,-0.0692204162478447,0.03239911422133446,-0.10439127683639526
1772363489894527000,4.37252685546875,-0.06226503849029541,0.02795509621500969,-0.10278645157814026
1772363489904596700,4.3825966796875,-0.05736318975687027,0.03225937858223915,-0.0856875330209732
1772363489914667000,4.3926669921875,-0.04491876810789108,0.030263341963291168,-0.05635707825422287
1772363489924735700,4.40273583984375,-0.029854897409677505,0.012191129848361015,-0.027261164039373398
1772363489934805800,4.4128056640625,-0.02103637158870697,0.007267211563885212,0.010551195591688156
1772363489944876000,4.4228759765625,-0.00894143059849739,0.009160840883851051,0.03638475388288498
1772363489954945800,4.43294580078125,-0.005613809917122126,0.013977433554828167,0.06160089746117592
1772363489965015800,4.443015869140625,-0.007801266852766275,0.01720215193927288,0.08616475015878677
1772363489975084800,4.453084716796875,-0.003875234629958868,0.023015832528471947,0.09986937046051025
1772363489985154800,4.46315478515625,0.0016348818317055702,0.021173439919948578,0.09939390420913696
1772363489995224800,4.473224853515625,0.0025720479898154736,0.008107970468699932,0.09102332592010498
1772363490005294800,4.483294921875,0.007198998238891363,-0.0009778523817658424,0.07322672754526138
1772363490015364900,4.49336474609375,0.013230524957180023,-0.011777503415942192,0.04704359918832779
1772363490025433900,4.503433837890625,0.014415495097637177,-0.02363322116434574,0.027761254459619522
1772363490035503900,4.51350390625,0.00920368917286396,-0.028637833893299103,0.0034761549904942513
1772363490045574000,4.523573974609375,0.006022078916430473,-0.02690218947827816,-0.02521221898496151
1772363490055644000,4.533643798828125,-0.0015101395547389984,-0.03117603063583374,-0.05660689249634743
1772363490065714000,4.5437138671875,-0.004663052968680859,-0.04125494882464409,-0.07242563366889954
1772363490075782700,4.55378271484375,-0.003149845637381077,-0.050145380198955536,-0.07499691843986511
1772363490085853000,4.56385302734375,-0.0015744566917419434,-0.047895397990942,-0.06460338830947876
1772363490095923000,4.5739228515625,0.009968481957912445,-0.039918430149555206,-0.05116667598485947
1772363490105992700,4.58399267578125,0.014504143968224525,-0.03498297929763794,-0.03266666829586029
1772363490116064800,4.594064697265625,0.009010841138660908,-0.03707302734255791,-0.010746187530457973
1772363490126134800,4.604134765625,0.005096033681184053,-0.03627268597483635,0.004316461272537708
1772363490136203800,4.614203857421875,0.008700888603925705,-0.030057132244110107,0.015499607659876347
1772363490146273800,4.624273681640625,0.015226698480546474,-0.016320815309882164,0.035621922463178635
1772363490156344000,4.634343994140625,0.01420431025326252,-0.004569616634398699,0.05636634677648544
1772363490166413800,4.644413818359375,0.015966854989528656,0.0019270614720880985,0.06890203058719635
1772363490176482800,4.65448291015625,0.012698357924818993,0.005701293703168631,0.07443634420633316
1772363490186552800,4.664552734375,0.011836586520075798,0.002107888925820589,0.07573135942220688
1772363490196622800,4.674622802734375,0.013459783978760242,0.0004908177070319653,0.06852191686630249
1772363490206692900,4.68469287109375,0.010337965562939644,0.006870072800666094,0.06607206165790558
1772363490216763000,4.694762939453125,0.009879102930426598,0.035684943199157715,0.05730173736810684
1772363490226832000,4.704831787109375,0.014186535030603409,0.04358723759651184,0.04014432430267334
1772363490236902000,4.71490185546875,0.015845417976379395,0.017483467236161232,0.025288943201303482
1772363490246972000,4.724971923828125,0.018261637538671494,0.011039171367883682,0.00943878572434187
1772363490257042000,4.7350419921875,0.012403215281665325,0.016946861520409584,0.006597992964088917
1772363490267111700,4.745111572265625,0.0044072032906115055,0.03850875422358513,0.001150769181549549
1772363490277181000,4.755180908203125,-0.003754320554435253,0.029401008039712906,0.005413956940174103
1772363490287250700,4.765250732421875,-0.006818742025643587,0.00637349858880043,0.010013749822974205
1772363490297321000,4.775321044921875,-0.010706955567002296,-0.0023957581724971533,0.01701919548213482
1772363490307391000,4.785390869140625,-0.008699808269739151,-0.0017246026545763016,0.02412869781255722
1772363490317460700,4.795460693359375,-0.005714403931051493,-0.006935077253729105,0.02423841878771782
1772363490327530800,4.80553076171875,-0.004319537431001663,-0.01372566632926464,0.022785749286413193
1772363490337599700,4.815599853515625,-0.001416691578924656,-0.011874502524733543,0.025783933699131012
1772363490347669800,4.825669677734375,0.0026841466315090656,-0.008513633161783218,0.020360132679343224
1772363490357740000,4.835739990234375,0.007937232032418251,-0.0009087109938263893,0.02076866291463375
1772363490367809800,4.845809814453125,0.009316651150584221,0.010471714660525322,0.029368894174695015
1772363490377879800,4.8558798828125,0.018617209047079086,0.009615774266421795,0.040490783751010895
1772363490387948800,4.86594873046875,0.02637060545384884,0.00388469360768795,0.04189302772283554
1772363490398018800,4.876018798828125,0.03629620745778084,0.0007221894338726997,0.04165999963879585
1772363490408088800,4.8860888671875,0.04181603342294693,0.005470379255712032,0.038736920803785324
1772363490418158800,4.896158935546875,0.04064398258924484,0.005273304879665375,0.03605645149946213
1772363490428228900,4.906228759765625,0.031240222975611687,0.0034340848214924335,0.039906494319438934
1772363490438297900,4.9162978515625,0.021377738565206528,-0.008123235777020454,0.056629013270139694
1772363490448367900,4.926367919921875,0.018098430708050728,-0.012942632660269737,0.05893085524439812
1772363490458438000,4.93643798828125,0.01703689619898796,-0.02836526371538639,0.04530532658100128
1772363490468507600,4.946507568359375,0.01239087339490652,-0.03602836653590202,0.035594649612903595
1772363490478578000,4.956577880859375,0.015707308426499367,-0.03138940781354904,0.01800340786576271
1772363490488647000,4.96664697265625,0.017499420791864395,-0.022741712629795074,-0.0005506677553057671
1772363490498717000,4.976717041015625,0.016649872064590454,-0.02494174987077713,-0.014905372634530067
1772363490508787000,4.986786865234375,0.023738402873277664,-0.018457118421792984,-0.030184004455804825
1772363490518856700,4.996856689453125,0.025788238272070885,0.0016074036248028278,-0.03833035007119179
1772363490528927000,5.006927001953125,0.03320184350013733,0.02893342450261116,-0.05262495204806328
1772363490538997000,5.0169970703125,0.03599843010306358,0.02586146630346775,-0.06256120651960373
1772363490549065700,5.027065673828125,0.0313982218503952,0.027729980647563934,-0.05737115442752838
1772363490559136000,5.037135986328125,0.024671606719493866,0.030265841633081436,-0.035548415035009384
1772363490569205800,5.047205810546875,0.01775950752198696,0.035171426832675934,-0.012373766861855984
1772363490579275800,5.05727587890625,0.012553295120596886,0.03185445815324783,0.002458975650370121
1772363490589346000,5.067345947265625,0.011144046671688557,0.016383152455091476,0.011104044504463673
1772363490599414800,5.077414794921875,0.007485662586987019,0.016425231471657753,0.01888953149318695
1772363490609484800,5.08748486328125,0.012319033965468407,0.032808199524879456,0.026639863848686218
1772363490619554800,5.097554931640625,0.017311662435531616,0.05137815326452255,0.027707789093255997
1772363490629624800,5.107624755859375,0.02176813594996929,0.05249420553445816,0.02967745065689087
1772363490639694800,5.11769482421875,0.018222935497760773,0.05374828726053238,0.028578367084264755
1772363490649764900,5.127764892578125,0.020918289199471474,0.05697356164455414,0.0182606540620327
1772363490659833900,5.137833740234375,0.019357144832611084,0.06588130444288254,0.011460005305707455
1772363490669904000,5.14790380859375,0.016775047406554222,0.06811751425266266,0.008992578834295273
1772363490679974000,5.157973876953125,0.018904244527220726,0.06536062061786652,0.0011434443295001984
1772363490690044000,5.1680439453125,0.018241774290800095,0.052905865013599396,-0.009952245280146599
1772363490700113700,5.17811376953125,0.01971423625946045,0.040143199265003204,-0.016054347157478333
1772363490710183000,5.188182861328125,0.01901126839220524,0.029869303107261658,-0.021503541618585587
1772363490720252700,5.198252685546875,0.016450906172394753,0.021740801632404327,-0.027890600264072418
1772363490730322700,5.20832275390625,0.009830083698034286,0.027917902916669846,-0.030562367290258408
1772363490740392700,5.218392822265625,-0.0019213808700442314,0.040547940880060196,-0.021030914038419724
1772363490750462500,5.22846240234375,-0.0017962749116122723,0.05875687301158905,-0.015218746848404408
1772363490760532700,5.23853271484375,0.0025377534329891205,0.05958937853574753,-0.013263720087707043
1772363490770601500,5.2486015625,0.0056803179904818535,0.03594094142317772,-0.006198624148964882
1772363490780671500,5.25867138671875,0.0000690375454723835,0.01663169078528881,0.0011261338368058205
1772363490790741800,5.26874169921875,-0.002102368511259556,0.007518394850194454,0.01073037926107645
1772363490800811500,5.2788115234375,-0.006579408422112465,0.010842019692063332,0.021088741719722748
1772363490810881500,5.288881591796875,-0.006502246018499136,0.021771570667624474,0.029033489525318146
1772363490820951800,5.298951904296875,-0.0004177219234406948,0.026548217982053757,0.036119893193244934
1772363490831020500,5.3090205078125,0.0011652982793748379,0.023607533425092697,0.03574402630329132
1772363490841090600,5.319090576171875,0.0013178973458707333,0.01086989976465702,0.029696252197027206
1772363490851160600,5.32916064453125,-0.0044106971472501755,0.004792260471731424,0.02534589357674122
1772363490861230600,5.339230712890625,-0.01460341364145279,0.002448412124067545,0.02331443689763546
1772363490871300600,5.349300537109375,-0.01987421326339245,-0.008183583617210388,0.01688743755221367
1772363490881370600,5.35937060546875,-0.02373260073363781,-0.010040871798992157,0.012991500087082386
1772363490891439600,5.369439697265625,-0.013137847185134888,0.00015942426398396492,-0.003937238827347755
1772363490901509600,5.379509521484375,-0.004078306257724762,0.011059210635721684,-0.02399536967277527
1772363490911579600,5.38957958984375,0.0021755043417215347,0.024398289620876312,-0.03481137007474899
1772363490921649700,5.399649658203125,0.01183984987437725,0.03420937433838844,-0.04791438952088356
1772363490931719400,5.409719482421875,0.0141865573823452,0.03024918958544731,-0.0537930466234684
1772363490941789700,5.419789794921875,0.02026362530887127,0.02459263615310192,-0.05584847554564476
1772363490951858400,5.4298583984375,0.027230527251958847,0.01567838340997696,-0.05486932769417763
1772363490961928700,5.4399287109375,0.035516418516635895,0.014128688722848892,-0.041084807366132736
1772363490971998700,5.449998779296875,0.045939233154058456,0.023667333647608757,-0.03106572851538658
1772363490982068500,5.460068359375,0.046835120767354965,0.03643159568309784,-0.02499398961663246
1772363490992138800,5.470138671875,0.050579652190208435,0.020089520141482353,-0.009211288765072823
1772363491002208800,5.480208740234375,0.048296794295310974,0.0035142716951668262,0.01114644668996334
1772363491012278500,5.490278564453125,0.04630345106124878,0.008418995887041092,0.024045901373028755
1772363491022347800,5.50034765625,0.039604537189006805,0.008157739415764809,0.032601840794086456
1772363491032417500,5.51041748046875,0.03901828080415726,-0.005689428653568029,0.03778257220983505
1772363491042487600,5.520487548828125,0.038881659507751465,-0.006727262400090694,0.03504084795713425
1772363491052557800,5.530557861328125,0.03935883939266205,0.00048609497025609016,0.022278431802988052
1772363491062627600,5.540627685546875,0.04341323301196098,0.0014184676110744476,0.00981404073536396
1772363491072697600,5.550697509765625,0.0404495932161808,-0.012158021330833435,0.0036998847499489784
1772363491082766600,5.5607666015625,0.03666204586625099,-0.01574449986219406,-0.0028618788346648216
1772363491092836600,5.570836669921875,0.03193480148911476,-0.014616958796977997,-0.005348557606339455
1772363491102906600,5.58090673828125,0.027203429490327835,-0.016230834648013115,0.0010052118450403214
1772363491112976600,5.5909765625,0.01693955808877945,-0.015278058126568794,0.0028787143528461456
1772363491123046700,5.601046630859375,0.010002821683883667,-0.02645294740796089,-0.0019000619649887085
1772363491133116700,5.61111669921875,0.0013716062530875206,-0.04313082993030548,-0.007692331913858652
1772363491143186700,5.621186767578125,-0.008127357810735703,-0.05255735293030739,-0.007942669093608856
1772363491153255700,5.631255615234375,-0.011521786451339722,-0.04771449789404869,-0.00914429035037756
1772363491163325400,5.641325439453125,-0.01789126917719841,-0.03868478536605835,-0.010492648929357529
1772363491173395700,5.651395751953125,-0.024043770506978035,-0.03592253476381302,-0.0171024389564991
1772363491183465700,5.6614658203125,-0.02448931522667408,-0.05926380679011345,-0.010142799466848373
1772363491193535500,5.671535400390625,-0.02463090606033802,-0.048889219760894775,-0.013893583789467812
1772363491203605800,5.681605712890625,-0.023193063214421272,-0.040880028158426285,-0.020546426996588707
1772363491213675500,5.691675537109375,-0.02145889773964882,-0.02324998378753662,-0.02106141671538353
1772363491223744500,5.70174462890625,-0.026614779606461525,-0.010798907838761806,-0.003772706724703312
1772363491233814800,5.711814697265625,-0.02445303089916706,-0.002256736159324646,0.015474237501621246
1772363491243884500,5.721884521484375,-0.016555428504943848,0.008567947894334793,0.025345245376229286
1772363491253954600,5.73195458984375,0.0019269450567662716,-0.000029903370887041092,0.02871786803007126
1772363491264024800,5.74202490234375,0.005997852887958288,0.00006197579205036163,0.043926384299993515
1772363491274094600,5.752094482421875,-0.0021276180632412434,0.02520821988582611,0.04255734011530876
1772363491284164600,5.76216455078125,-0.00475456053391099,0.02773262932896614,0.041796740144491196
1772363491294233600,5.772233642578125,-0.01443125493824482,-0.0034741696435958147,0.05110200494527817
1772363491304303600,5.7823037109375,-0.01629360392689705,-0.01499127596616745,0.04956509545445442
1772363491314373600,5.79237353515625,-0.01242549903690815,-0.013815265148878098,0.03614214062690735
1772363491324443600,5.802443603515625,-0.012991951778531075,-0.008252720348536968,0.019275011494755745
1772363491334513700,5.812513671875,-0.00462855352088809,0.004378017969429493,0.004994421266019344
1772363491344583400,5.82258349609375,-0.0019552730955183506,0.020469635725021362,-0.017050160095095634
1772363491354653700,5.83265380859375,-0.0012197266332805157,0.02247782051563263,-0.028384685516357422
1772363491364722700,5.84272265625,-0.003489005845040083,0.010509575717151165,-0.036885496228933334
1772363491374792400,5.85279248046875,-0.0077784713357687,0.000005701091140508652,-0.04369935393333435
1772363491384862700,5.86286279296875,-0.007786727510392666,-0.0030617278534919024,-0.03946972265839577
1772363491394932500,5.872932373046875,-0.009060613811016083,0.007042243145406246,-0.032200273126363754
1772363491405002500,5.88300244140625,-0.012333638966083527,0.019355103373527527,-0.0378728061914444
1772363491415072800,5.89307275390625,-0.013367481529712677,-0.0007529105059802532,-0.027438178658485413
1772363491425142500,5.903142578125,-0.020383313298225403,-0.007445434108376503,-0.02352306619286537
1772363491435212500,5.913212646484375,-0.03089642897248268,-0.005235995166003704,-0.020339006558060646
1772363491445281500,5.923281494140625,-0.03345998749136925,-0.009049641899764538,-0.01578500121831894
1772363491455351600,5.9333515625,-0.04440062493085861,-0.022153150290250778,-0.006252476014196873
1772363491465421600,5.943421630859375,-0.04961562529206276,-0.03028777614235878,0.008390914648771286
1772363491475491600,5.95349169921875,-0.05166542902588844,-0.027599500492215157,0.023098312318325043
1772363491485561600,5.9635615234375,-0.05018844082951546,-0.03599937632679939,0.03164226561784744
1772363491495631600,5.973631591796875,-0.0481252484023571,-0.03945956379175186,0.03225433826446533
1772363491505701600,5.98370166015625,-0.04402531310915947,-0.045324377715587616,0.03453506901860237
1772363491515771600,5.993771728515625,-0.047809574753046036,-0.033684782683849335,0.03984275832772255
1772363491525840600,6.003840576171875,-0.050396036356687546,-0.02530061826109886,0.04454750195145607
1772363491535910700,6.01391064453125,-0.05072273313999176,-0.026177803054451942,0.03498674929141998
1772363491545980700,6.023980712890625,-0.05619126930832863,-0.032865267246961594,0.024114923551678658
1772363491556050400,6.034050537109375,-0.05499570444226265,-0.031027358025312424,0.012546149082481861
1772363491566120700,6.04412060546875,-0.050748761743307114,-0.022476747632026672,-0.0037702396512031555
1772363491576190700,6.054190673828125,-0.04650221765041351,-0.012423273175954819,-0.014547434635460377
1772363491586260500,6.064260498046875,-0.0358855240046978,-0.01387416385114193,-0.022099893540143967
1772363491596330800,6.074330810546875,-0.023934898898005486,-0.020032968372106552,-0.026613321155309677
1772363491606399500,6.0843994140625,-0.015422368422150612,-0.021871615201234818,-0.02831961028277874
1772363491616469500,6.094469482421875,-0.006786789745092392,-0.0008728792890906334,-0.025882568210363388
1772363491626539800,6.104539794921875,0.008894435130059719,0.022252678871154785,-0.02186785265803337
1772363491636609500,6.114609619140625,0.01837753690779209,0.02928127720952034,-0.013127426616847515
1772363491646679600,6.124679443359375,0.020255863666534424,0.031478118151426315,-0.014912542887032032
1772363491656749800,6.134749755859375,0.01746191643178463,0.022876372560858727,-0.00554053345695138
1772363491666819600,6.144819580078125,0.020189525559544563,-0.0006537199951708317,0.014479780569672585
1772363491676889600,6.1548896484375,0.02106773667037487,-0.0030248756520450115,0.02638988010585308
1772363491686959600,6.164959716796875,0.027733629569411278,0.007214446552097797,0.02119884453713894
1772363491697028600,6.175028564453125,0.0342307910323143,0.014244778081774712,0.01474048476666212
1772363491707098600,6.1850986328125,0.03273329138755798,0.010916091501712799,0.015546358190476894
1772363491717168600,6.195168701171875,0.03901812061667442,0.006186934653669596,0.011285657994449139
1772363491727239000,6.205239013671875,0.040765952318906784,0.00014075962826609612,0.006313002668321133
1772363491737309000,6.215308837890625,0.04157528653740883,-0.0024012273643165827,0.017084423452615738
1772363491747379000,6.22537890625,0.037999726831912994,0.002679285127669573,0.021922588348388672
1772363491757449000,6.235448974609375,0.04076045751571655,0.008978337049484253,0.02828044444322586
1772363491767519000,6.24551904296875,0.03316938132047653,-0.003336386289447546,0.03296973928809166
1772363491777588000,6.255587890625,0.03666248917579651,-0.016359899193048477,0.02669674903154373
1772363491787658000,6.265657958984375,0.034706395119428635,-0.03220357745885849,0.01626834273338318
1772363491797728000,6.27572802734375,0.03216317296028137,-0.04144042357802391,0.011913192458450794
1772363491807798000,6.285798095703125,0.0257183238863945,-0.043326206505298615,0.003477361984550953
1772363491817868000,6.295867919921875,0.01939438097178936,-0.026344027370214462,-0.010453366674482822
1772363491827938000,6.30593798828125,0.03805754706263542,-0.03663847595453262,-0.02178538218140602
1772363491838007800,6.3160078125,0.0056558698415756226,-0.01055590994656086,-0.033218786120414734
1772363491848078000,6.326078125,0.013418451882898808,-0.027326101437211037,-0.044723376631736755
1772363491858148000,6.336148193359375,0.013523772358894348,-0.029958223924040794,-0.05351259559392929
1772363491868217900,6.3462177734375,0.00956365279853344,-0.014863694086670876,-0.06276442110538483
1772363491878287000,6.356287109375,0.006231418810784817,-0.014394080266356468,-0.04463851451873779
1772363491888356900,6.36635693359375,-0.00047468673437833786,-0.0006303312256932259,-0.017411421984434128
1772363491898427100,6.37642724609375,0.0005353842861950397,-0.006120150908827782,-0.00045942794531583786
1772363491908497200,6.3864970703125,-0.00490785064175725,-0.02512899599969387,0.023117005825042725
1772363491918567000,6.39656689453125,-0.0063438620418310165,-0.03010634146630764,0.037983573973178864
1772363491928637000,6.406636962890625,-0.008539638482034206,-0.029995286837220192,0.047009292989969254
1772363491938707000,6.41670703125,-0.012097521685063839,-0.028940532356500626,0.04650231450796127
1772363491948777000,6.42677685546875,-0.011781136505305767,-0.01994117721915245,0.04010779783129692
1772363491958847000,6.436846923828125,-0.015997061505913734,-0.0069282944314181805,0.036837976425886154
1772363491968917000,6.4469169921875,-0.017621589824557304,0.005051936022937298,0.03048020973801613
1772363491978986000,6.456986083984375,-0.02378356270492077,0.011701717972755432,0.014623465947806835
1772363491989056000,6.467055908203125,-0.02173612453043461,0.008049193769693375,-0.0034064017236232758
1772363491999126000,6.4771259765625,-0.018319247290492058,-0.007755892351269722,-0.020612116903066635
1772363492009196000,6.487196044921875,-0.01496872492134571,-0.024737805128097534,-0.03426374867558479
1772363492019265800,6.497265869140625,-0.012773657217621803,-0.03177868574857712,-0.043692655861377716
1772363492029336000,6.507336181640625,-0.01679316721856594,-0.02726702392101288,-0.04497603327035904
1772363492039406000,6.517406005859375,-0.013855524361133575,-0.020065821707248688,-0.04531826078891754
1772363492049475800,6.527475830078125,-0.015227850526571274,0.00005222950130701065,-0.036700539290905
1772363492059546000,6.537546142578125,-0.01097942516207695,0.017135759815573692,-0.02273446135222912
1772363492069616000,6.5476162109375,-0.007941024377942085,0.012881625443696976,-0.008311579003930092
1772363492079684900,6.557684814453125,-0.009257391095161438,0.004292828030884266,0.003871581517159939
1772363492089755100,6.567755126953125,-0.013291280716657639,0.0012509655207395554,0.01206133607774973
1772363492099825000,6.577824951171875,-0.018475942313671112,0.00563407177105546,0.014103698544204235
1772363492109895000,6.58789501953125,-0.018144378438591957,0.0028984728269279003,0.008564588613808155
1772363492119965200,6.597965087890625,-0.019892312586307526,-0.008388146758079529,0.01066040899604559
1772363492130035000,6.608034912109375,-0.0140147153288126,-0.0031345291063189507,0.020013965666294098
1772363492140105000,6.61810498046875,-0.010338673368096352,0.014305664226412773,0.02459387667477131
1772363492150175000,6.628175048828125,-0.006964181084185839,0.024021407589316368,0.025048477575182915
1772363492160245000,6.638244873046875,-0.0074028195813298225,0.01676938496530056,0.019057977944612503
1772363492170315000,6.64831494140625,-0.015378454700112343,0.004956667777150869,0.01728670857846737
1772363492180384800,6.658384765625,-0.01882179081439972,-0.009255863726139069,0.018422994762659073
1772363492190455000,6.668455078125,-0.026086896657943726,-0.020896540954709053,0.013604003936052322
1772363492200524000,6.67852392578125,-0.030923018231987953,-0.017993412911891937,0.014896959066390991
1772363492210594000,6.688593994140625,-0.019873030483722687,-0.0046794721856713295,0.010121379047632217
1772363492220664000,6.6986640625,-0.016028190031647682,0.008419446647167206,-0.0007594991475343704
1772363492230734000,6.708734130859375,-0.005803516134619713,0.010500175878405571,-0.008934072218835354
1772363492240803800,6.718803955078125,-0.004697479773312807,0.014995595440268517,-0.016688212752342224
1772363492250874000,6.7288740234375,0.0002895556390285492,0.012921527028083801,-0.01973460242152214
1772363492260944000,6.73894384765625,-0.0014687180519104004,0.012008238583803177,-0.014638389460742474
1772363492271014000,6.749013916015625,0.003745484631508589,0.016021355986595154,-0.008939757011830807
1772363492281084200,6.759084228515625,0.007599174045026302,0.022871604189276695,0.00623458344489336
1772363492291154000,6.76915380859375,0.01639612764120102,0.034064069390296936,0.019153576344251633
1772363492301224000,6.779223876953125,0.025540392845869064,0.0399162620306015,0.024337153881788254
1772363492311294000,6.7892939453125,0.027527110651135445,0.033440522849559784,0.024821314960718155
1772363492321363000,6.799363037109375,0.029983967542648315,0.025266200304031372,0.02728075534105301
1772363492331433000,6.809432861328125,0.02459585852921009,0.026433197781443596,0.030481606721878052
1772363492341503000,6.8195029296875,0.0271464791148901,0.0316583551466465,0.0325276143848896
1772363492351573000,6.829572998046875,0.032724738121032715,0.0407828763127327,0.032485537230968475
1772363492361643000,6.83964306640625,0.03178395330905914,0.04846319928765297,0.02462831139564514
1772363492371713000,6.849713134765625,0.031177286058664322,0.05618397146463394,0.01514932420104742
1772363492381783000,6.859782958984375,0.02494555339217186,0.057455874979496,0.011256138794124126
1772363492391853000,6.86985302734375,0.01381300762295723,0.0560542531311512,0.013048713095486164
1772363492401922800,6.8799228515625,0.011034929193556309,0.042756255716085434,0.012075775302946568
1772363492411993000,6.8899931640625,0.0022153384052217007,0.014194915071129799,0.020706545561552048
1772363492422062800,6.900062744140625,-0.000876094214618206,-0.013119159266352654,0.03307240456342697
1772363492432132900,6.9101328125,0.000612345989793539,-0.030995095148682594,0.04372478276491165
1772363492442203100,6.920203125,-0.0005932720378041267,-0.05011986568570137,0.050350289791822433
1772363492452273000,6.93027294921875,-0.0012521380558609962,-0.021849878132343292,0.03852798417210579
1772363492462342100,6.940342041015625,-0.00893311481922865,-0.0007522841915488243,0.03773505985736847
1772363492472412200,6.950412109375,-0.008328578434884548,0.0036904006265103817,0.03703571483492851
1772363492482482000,6.96048193359375,-0.00924364011734724,0.009749624878168106,0.02871653065085411
1772363492492552000,6.970552001953125,-0.009514749981462955,0.00744066433981061,0.022313226014375687
1772363492502622000,6.9806220703125,-0.011880991980433464,0.005979914218187332,0.00849470030516386
1772363492512692000,6.99069189453125,-0.007374924141913652,-0.0002814438194036484,-0.00592179037630558
1772363492522762000,7.000761962890625,-0.005623349454253912,-0.00105364341288805,-0.01913575641810894
1772363492532832000,7.01083203125,-0.004302954766899347,-0.004269676748663187,-0.01979515515267849
1772363492542902000,7.020902099609375,-0.0035362495109438896,0.0049760909751057625,-0.014399339444935322
1772363492552972000,7.030971923828125,-0.0010270187631249428,0.01913345418870449,-0.007621860597282648
1772363492563042000,7.0410419921875,-0.001966794952750206,0.00985456071794033,0.006439109332859516
1772363492573112000,7.051112060546875,0.0038700553122907877,-0.005862617399543524,0.018062740564346313
1772363492583182000,7.06118212890625,0.003295558039098978,-0.010767985135316849,0.03078065812587738
1772363492593251800,7.071251953125,0.006964328698813915,-0.0026232392992824316,0.03961595892906189
1772363492603322000,7.081322021484375,0.009968072175979614,0.008943772874772549,0.03834722936153412
1772363492613390800,7.091390869140625,0.012420577928423882,0.014560645446181297,0.029000068083405495
1772363492623461000,7.101461181640625,0.016061261296272278,0.013177248649299145,0.010533169843256474
1772363492633531100,7.11153125,0.009615346789360046,0.00770498625934124,-0.00928048137575388
1772363492643601000,7.121600830078125,0.0046271090395748615,0.004531524609774351,-0.018503893166780472
1772363492653671000,7.1316708984375,0.0002118544653058052,-0.001656063599511981,-0.020869845524430275
1772363492663741000,7.141740966796875,-0.008411075919866562,-0.003341506700962782,-0.024351561442017555
1772363492673811000,7.15181103515625,-0.013472413644194603,-0.013089208863675594,-0.035115793347358704
1772363492683881000,7.161880859375,-0.010627519339323044,-0.02344442345201969,-0.044587329030036926
1772363492693951000,7.171950927734375,-0.017673179507255554,-0.031649887561798096,-0.05025320500135422
1772363492704021000,7.18202099609375,-0.0188550166785717,-0.03443150222301483,-0.050197016447782516
1772363492714091000,7.192091064453125,-0.023628201335668564,-0.028069477528333664,-0.042061593383550644
1772363492724161000,7.2021611328125,-0.0166733730584383,-0.026715721935033798,-0.026941772550344467
1772363492734231300,7.212231201171875,-0.016830764710903168,-0.02202616259455681,-0.007668210659176111
1772363492744301300,7.22230126953125,-0.014797484502196312,-0.01393918041139841,0.007492195814847946
1772363492754371000,7.23237109375,-0.012269079685211182,0.0014075515791773796,0.018019137904047966
1772363492764441300,7.24244140625,-0.014275232329964638,0.0009543588384985924,0.027765149250626564
1772363492774510300,7.25251025390625,-0.016019335016608238,0.0035525383427739143,0.033788688480854034
1772363492784580400,7.262580322265625,-0.015120916068553925,-0.003127163741737604,0.03769323229789734
1772363492794650400,7.272650390625,-0.015294820070266724,-0.010196524672210217,0.04635782912373543
1772363492804720400,7.282720458984375,-0.00973796471953392,-0.013776181265711784,0.046368323266506195
1772363492814790100,7.2927900390625,-0.005838030483573675,-0.018249759450554848,0.03912772238254547
1772363492824860400,7.3028603515625,-0.007880608551204205,-0.009581686928868294,0.02978461980819702
1772363492834930200,7.31293017578125,-0.006145559251308441,0.011397099122405052,0.022530701011419296
1772363492845000200,7.323000244140625,-0.0045866165310144424,0.02809213474392891,0.014595815911889076
1772363492855070500,7.333070556640625,-0.004843877628445625,0.02080971747636795,0.0038606133311986923
1772363492865140200,7.34314013671875,0.005666807293891907,0.004080651793628931,0.00021866150200366974
1772363492875210200,7.353210205078125,0.005334977060556412,0.015145819634199142,-0.007322079036384821
1772363492885280300,7.3632802734375,0.009489521384239197,0.03104637935757637,-0.019362684339284897
1772363492895350300,7.373350341796875,0.012447228655219078,0.031854379922151566,-0.028488004580140114
1772363492905420300,7.383420166015625,0.016665389761328697,0.03305576741695404,-0.03191681206226349
1772363492915490300,7.393490234375,0.017015062272548676,0.02955211140215397,-0.03262760862708092
1772363492925560300,7.403560302734375,0.021313123404979706,0.030777234584093094,-0.03843490779399872
1772363492935630300,7.41363037109375,0.015612626448273659,0.0288296639919281,-0.03151175379753113
1772363492945699300,7.42369921875,0.01692553423345089,0.030348116531968117,-0.015710247680544853
1772363492955769300,7.433769287109375,0.020644638687372208,0.03890299052000046,-0.0020343828946352005
1772363492965839400,7.44383935546875,0.01645848900079727,0.04035633057355881,0.014591728337109089
1772363492975909000,7.4539091796875,0.014649135991930962,0.031734880059957504,0.020663738250732422
1772363492985979400,7.4639794921875,0.016231011599302292,0.02298109605908394,0.02408253215253353
1772363492996049200,7.474049072265625,0.01573992520570755,0.015602010302245617,0.02516297437250614
1772363493006119200,7.484119140625,0.018933428451418877,0.015625931322574615,0.016317281872034073
1772363493016189400,7.494189453125,0.018680427223443985,0.011755293235182762,0.0017420658841729164
1772363493026259200,7.50425927734375,0.015895498916506767,0.0057776253670454025,-0.008962934836745262
1772363493036329200,7.5143291015625,0.010689020156860352,0.0038164732977747917,-0.01436196081340313
1772363493046399200,7.524399169921875,0.007748428266495466,0.005985676310956478,-0.023630831390619278
1772363493056469200,7.53446923828125,0.0005192775279283524,-0.00214202469214797,-0.02165423333644867
1772363493066539300,7.544539306640625,0.0000492362305521965,-0.00954580120742321,-0.026417121291160583
1772363493076609300,7.554609375,0.0019430099055171013,-0.0184498131275177,-0.0214519239962101
1772363493086679300,7.56467919921875,0.0019558644853532314,-0.02848188579082489,-0.01265497412532568
1772363493096749300,7.574749267578125,0.000476212240755558,-0.03245611861348152,-0.002419646829366684
1772363493106819300,7.5848193359375,0.002487019170075655,-0.024586906656622887,0.009310588240623474
1772363493116889300,7.594889404296875,-0.002779647707939148,-0.029091376811265945,0.017621248960494995
1772363493126958300,7.604958251953125,0.0014485744759440422,-0.011684555560350418,0.01523887924849987
1772363493137028000,7.615028076171875,0.006035336758941412,-0.00509403133764863,0.010038791224360466
1772363493147098400,7.625098388671875,0.009213659912347794,-0.009506138041615486,-0.001161668449640274
1772363493157168400,7.63516845703125,0.0103604169562459,-0.006846172735095024,-0.0077719008550047874
1772363493167238100,7.645238037109375,0.009551342576742172,0.009423535317182541,-0.017365844920277596
1772363493177308400,7.655308349609375,0.01016892958432436,0.029535192996263504,-0.03687243536114693
1772363493187378200,7.665378173828125,0.01051989197731018,0.03175496682524681,-0.04654094576835632
1772363493197448200,7.6754482421875,0.014778818935155869,0.03066679835319519,-0.05607373267412186
1772363493207518500,7.6855185546875,0.013055803254246712,0.028237776830792427,-0.05576339364051819
1772363493217588200,7.695588134765625,0.008043200708925724,0.03295477107167244,-0.04350273311138153
1772363493227658200,7.705658203125,0.01201278530061245,0.04083278030157089,-0.02649446204304695
1772363493237728300,7.715728271484375,0.008206862956285477,0.03905671834945679,-0.005919678136706352
1772363493247798300,7.72579833984375,0.010379995219409466,0.031745731830596924,0.01162558514624834
1772363493257868300,7.735868408203125,0.012997616082429886,0.02798987552523613,0.02506735920906067
1772363493267938300,7.745938232421875,0.019676372408866882,0.020206434652209282,0.03691932559013367
1772363493278008300,7.75600830078125,0.02123085968196392,0.01695338450372219,0.045574866235256195
1772363493288078300,7.766078369140625,0.016710329800844193,0.01090436615049839,0.050840362906455994
1772363493298148400,7.7761484375,0.016916723921895027,0.018637120723724365,0.04901370406150818
1772363493308218400,7.78621826171875,0.012990353628993034,0.01961231231689453,0.037798602133989334
1772363493318288400,7.796288330078125,0.01013358123600483,0.015857789665460587,0.028469551354646683
1772363493328357000,7.806357177734375,0.0019168364815413952,0.005849296692758799,0.02203943394124508
1772363493338427400,7.816427490234375,0.0020622452720999718,-0.0021614921279251575,-0.0012371279299259186
1772363493348497400,7.826497314453125,-0.004396301228553057,-0.0015159703325480223,-0.020848017185926437
1772363493358567200,7.836567138671875,-0.004629327449947596,0.000434262678027153,-0.03518674150109291
1772363493368637400,7.846637451171875,-0.01334080845117569,0.012110693380236626,-0.0489766001701355
1772363493378707200,7.856707275390625,-0.022416062653064728,0.0027235825546085835,-0.04626070708036423
1772363493388777200,7.866777099609375,-0.027968117967247963,-0.01092120073735714,-0.038685061037540436
1772363493398847200,7.87684716796875,-0.02012430876493454,-0.021470513194799423,-0.02451464906334877
1772363493408917200,7.886917236328125,-0.014477070420980453,-0.0326935313642025,-0.0031279604882001877
1772363493418987300,7.8969873046875,-0.018693653866648674,-0.035854436457157135,0.004315841943025589
1772363493429057300,7.907057373046875,-0.01686927303671837,-0.04115915670990944,0.011523322202265263
1772363493439127300,7.917127197265625,-0.01462502870708704,-0.03381096199154854,0.011333704926073551
1772363493449197300,7.927197265625,-0.01616855338215828,-0.029175760224461555,0.014167482033371925
1772363493459267300,7.937267333984375,-0.014477180317044258,-0.020330071449279785,0.02630084566771984
1772363493469337300,7.94733740234375,-0.009500373154878616,-0.010651031509041786,0.027596211060881615
1772363493479407400,7.957407470703125,-0.0034635192714631557,-0.008259512484073639,0.02420121245086193
1772363493489477400,7.967477294921875,-0.002452518790960312,-0.014198113232851028,0.015843503177165985
1772363493499547100,7.977547119140625,-0.004599559120833874,-0.013174127787351608,0.010745945386588573
1772363493509617400,7.987617431640625,-0.010694029740989208,-0.020302413031458855,0.006883116438984871
1772363493519687200,7.997687255859375,-0.012304442934691906,-0.02285904809832573,0.0013919444754719734
1772363493529754400,8.00775439453125,-0.013863091357052326,-0.029257947579026222,-0.006623815279453993
1772363493539824000,8.01782421875,-0.01382900308817625,-0.021751828491687775,-0.018665563315153122
1772363493549894400,8.027894287109374,-0.01422530971467495,-0.015822120010852814,-0.02538108266890049
1772363493559964200,8.037964111328124,-0.013536350801587105,-0.0015875240787863731,-0.03358069062232971
1772363493570034200,8.0480341796875,-0.0117268031463027,0.007549725007265806,-0.03474448621273041
1772363493580104400,8.0581044921875,-0.011643978767096996,0.009805688634514809,-0.03459055721759796
1772363493590174200,8.06817431640625,-0.00896645151078701,0.005949812009930611,-0.032888077199459076
1772363493600244200,8.078244140625,-0.009851684793829918,0.0013643810525536537,-0.01919224113225937
1772363493610314500,8.088314453125,-0.0037975506857037544,0.014222037978470325,-0.0022559594362974167
1772363493620384300,8.09838427734375,-0.00047445856034755707,0.02613915130496025,0.011721108108758926
1772363493630454300,8.108454345703125,0.004054045304656029,0.03161006420850754,0.02056529000401497
1772363493640524300,8.118524169921875,0.007524144370108843,0.03240421786904335,0.026783239096403122
1772363493650594300,8.12859423828125,0.01194935292005539,0.035725321620702744,0.027867235243320465
1772363493660664300,8.138664306640624,0.01041350793093443,0.035377245396375656,0.03211497515439987
1772363493670734000,8.148734130859374,0.014412179589271545,0.029695676639676094,0.026121973991394043
1772363493680804400,8.158804443359376,0.015247346833348274,0.025141673162579536,0.018318112939596176
1772363493690874400,8.168874267578126,0.01296039018779993,0.015929389744997025,0.007984427735209465
1772363493700944100,8.178944091796875,0.005535497330129147,0.016411423683166504,-0.005160402972251177
1772363493711013400,8.189013427734375,0.003664354095235467,0.004554952494800091,-0.01721058040857315
1772363493721083400,8.19908349609375,-0.002505124546587467,-0.004191400948911905,-0.014100008644163609
1772363493731153200,8.209153076171875,-0.0060297478921711445,-0.003498388919979334,-0.016443593427538872
1772363493741223000,8.219222900390625,-0.008550962433218956,-0.009472924284636974,-0.01189225073903799
1772363493751292700,8.229292724609374,-0.011568525806069374,-0.010075084865093231,-0.008052948862314224
1772363493761362700,8.23936279296875,-0.01262313686311245,-0.018407849594950676,-0.001697048544883728
1772363493771432700,8.2494326171875,-0.013975576497614384,-0.025793850421905518,0.003310753032565117
1772363493781502700,8.259502685546876,-0.012119886465370655,-0.039230827242136,0.014613473787903786
1772363493791572700,8.26957275390625,-0.009207871742546558,-0.04665809124708176,0.017604108899831772
1772363493801642800,8.279642822265625,-0.004571041092276573,-0.046347301453351974,0.022990882396697998
1772363493811712800,8.289712646484375,-0.007009920664131641,-0.04499386250972748,0.020656459033489227
1772363493821782800,8.29978271484375,-0.0069920774549245834,-0.04064971208572388,0.0067028263583779335
1772363493831852800,8.309852783203125,-0.003924635238945484,-0.03622232377529144,-0.003964119590818882
1772363493841922800,8.3199228515625,-0.0019767992198467255,-0.031408924609422684,-0.015134748071432114
1772363493851992800,8.329992919921875,-0.0006306134164333344,-0.019440917298197746,-0.02864939719438553
1772363493862062600,8.3400625,-0.0001922575756907463,-0.016072552651166916,-0.03359302505850792
1772363493872132900,8.3501328125,-0.0003390694037079811,-0.012694921344518661,-0.03400607779622078
1772363493882202600,8.36020263671875,0.0013989098370075226,-0.007133441977202892,-0.03423457592725754
1772363493892272600,8.370272705078126,-0.0011997604742646217,-0.0013229860924184322,-0.029289446771144867
1772363493902343000,8.380343017578125,-0.001964620314538479,0.012622123584151268,-0.016442090272903442
1772363493912412700,8.39041259765625,0.0026225880719721317,0.020746104419231415,-0.005417410284280777
1772363493922482700,8.400482666015625,0.006299082189798355,0.0060244170017540455,0.008153792470693588
1772363493932552700,8.410552734375,0.01465926319360733,-0.00641589192673564,0.022366469725966454
1772363493942621700,8.42062158203125,0.015898166224360466,-0.0022826658096164465,0.039110563695430756
1772363493952691700,8.430691650390624,0.018232937902212143,0.0075137619860470295,0.04672116041183472
1772363493962761700,8.44076171875,0.012090090662240982,0.014711488038301468,0.04511873424053192
1772363493972831700,8.450831787109376,0.006111315451562405,0.01967882551252842,0.035668425261974335
1772363493982901800,8.46090185546875,0.004481460899114609,0.024283165112137794,0.02444666437804699
1772363493992971800,8.4709716796875,-0.0018146978691220284,0.020404526963829994,0.0063563501462340355
1772363494003041800,8.481041748046875,0.0013805627822875977,0.01375860907137394,-0.012400292791426182
1772363494013111800,8.49111181640625,0.0030103735625743866,0.00010376330465078354,-0.02266661264002323
1772363494023181600,8.501181640625,0.002337392885237932,-0.0047439890913665295,-0.03523460030555725
1772363494033251800,8.511251953125,0.0033093313686549664,-0.005381577182561159,-0.04341121017932892
1772363494043321900,8.52132177734375,-0.0029224655590951443,-0.0008179843425750732,-0.048812635242938995
1772363494053391600,8.5313916015625,-0.005196148995310068,0.0018794178031384945,-0.05007017031311989
1772363494063462000,8.5414619140625,-0.010858295485377312,0.005242723971605301,-0.040438584983348846
1772363494073531600,8.55153173828125,-0.013675568625330925,-0.00069778086617589,-0.020747890695929527
1772363494083601700,8.5616015625,-0.011224661022424698,-0.010121376253664494,0.0018223989754915237
1772363494093671700,8.571671630859376,-0.008313186466693878,-0.0206582210958004,0.015902262181043625
1772363494103741700,8.58174169921875,-0.007931288331747055,-0.020138904452323914,0.024376438930630684
1772363494113812700,8.591812744140626,-0.007915345951914787,-0.011013212613761425,0.02539084106683731
1772363494123881700,8.6018818359375,-0.011086905375123024,0.001801652368158102,0.025237176567316055
1772363494133951700,8.61195166015625,-0.005519024096429348,0.0030654463917016983,0.027653029188513756
1772363494144021800,8.622021728515625,-0.0036153970286250114,-0.009111324325203896,0.029746806249022484
1772363494154091800,8.632091796875,-0.005735245533287525,-0.0120554119348526,0.03201118856668472
1772363494164161800,8.642161865234375,-0.0046119242906570435,-0.015758272260427475,0.031050322577357292
1772363494174231800,8.652231689453124,-0.004987005144357681,-0.02301586978137493,0.024147147312760353
1772363494184301800,8.6623017578125,-0.011822007596492767,-0.02125445380806923,0.02406512014567852
1772363494194371600,8.67237158203125,-0.015167485922574997,-0.01639833301305771,0.02345038205385208
1772363494204441900,8.68244189453125,-0.01530197449028492,-0.012752997688949108,0.015421482734382153
1772363494214511600,8.69251171875,-0.007990410551428795,-0.010583216324448586,-0.0020338622853159904
1772363494224581600,8.70258154296875,-0.0028140246868133545,-0.014321763068437576,-0.01307532750070095
1772363494234652000,8.71265185546875,0.0026328815147280693,-0.008469106629490852,-0.01641298271715641
1772363494244721700,8.7227216796875,0.012324124574661255,0.00643926952034235,-0.03402766212821007
1772363494254791700,8.732791748046875,0.020911240950226784,0.016950776800513268,-0.043968260288238525
1772363494264861700,8.74286181640625,0.024641530588269234,0.021080808714032173,-0.05127650871872902
1772363494274931700,8.752931640625,0.026568595319986343,0.020073600113391876,-0.05728939175605774
1772363494285001700,8.763001708984374,0.026377912610769272,0.023456081748008728,-0.05557245388627052
1772363494295071700,8.77307177734375,0.029921572655439377,0.02305624634027481,-0.04858972877264023
1772363494305141800,8.783141845703126,0.019907021895051003,0.02135315351188183,-0.027464736253023148
1772363494315211800,8.793211669921876,0.012476485222578049,0.01679132878780365,-0.008483597077429295
1772363494325281800,8.80328173828125,0.011846382170915604,0.01783076301217079,-0.0008712168782949448
1772363494335351800,8.813351806640625,0.00870028231292963,0.01242832187563181,0.009282087907195091
1772363494345421800,8.823421875,0.011363709345459938,0.004001813009381294,0.01745985634624958
1772363494355491600,8.83349169921875,0.011305148713290691,0.00691246846690774,0.0217143464833498
1772363494365561600,8.8435615234375,0.01310571189969778,0.017082814127206802,0.022213691845536232
1772363494375632000,8.8536318359375,0.012282528914511204,0.023113010451197624,0.017470600083470345
1772363494385700600,8.86370068359375,0.008570348843932152,0.023652832955121994,0.009570067748427391
1772363494395771000,8.87377099609375,-0.002443462610244751,0.015293411910533905,0.0006039021536707878
1772363494405840600,8.883840576171876,-0.0036205798387527466,0.00894789770245552,-0.0031636711210012436
1772363494415910700,8.89391064453125,-0.00882183387875557,0.0045429402962327,-0.003758516162633896
1772363494425981000,8.90398095703125,-0.011984603479504585,0.0003873435780405998,0.0008247839286923409
1772363494436050700,8.91405078125,-0.01148311048746109,0.0006490922532975674,0.006908765062689781
1772363494446120700,8.92412060546875,-0.010422639548778534,-0.002186907920986414,0.015062032267451286
1772363494456190700,8.934190673828125,-0.013245922513306141,0.00043179746717214584,0.027047233656048775
1772363494466260700,8.9442607421875,-0.01216174941509962,-0.0038481687661260366,0.030892571434378624
1772363494476330800,8.954330810546875,-0.01834039017558098,-0.0038917958736419678,0.03600877523422241
1772363494486400800,8.96440087890625,-0.018125474452972412,-0.01653222367167473,0.03238261491060257
1772363494496470800,8.974470703125,-0.020828142762184143,-0.023106038570404053,0.028340287506580353
1772363494506540800,8.984540771484374,-0.02219114825129509,-0.02020372450351715,0.024971920996904373
1772363494516610800,8.99461083984375,-0.02749761752784252,-0.004842767026275396,0.017555013298988342
1772363494526680800,9.004680908203126,-0.018586415797472,0.012661658227443695,0.005576380528509617
1772363494536750800,9.014750732421875,-0.014238351956009865,0.01712897978723049,-0.006294832099229097
1772363494546820600,9.024820556640625,-0.012854041531682014,0.018243514001369476,-0.02115580439567566
1772363494556890600,9.034890625,-0.007470036391168833,0.020153580233454704,-0.03011174127459526
1772363494566961000,9.0449609375,-0.005031646694988012,0.021188484504818916,-0.025377707555890083
1772363494577030700,9.05503076171875,-0.01341652125120163,0.020659787580370903,-0.01300351694226265
1772363494587100700,9.0651005859375,-0.014887917786836624,0.008691541850566864,0.004248707555234432
1772363494597171000,9.0751708984375,-0.015638604760169983,-0.007441981229931116,0.014454920776188374
1772363494607240700,9.08524072265625,-0.006284785456955433,-0.0134040005505085,0.028028517961502075
1772363494617310700,9.095310791015624,-0.0033260276541113853,-0.015142395161092281,0.03440244868397713
1772363494627380700,9.105380615234376,-0.0028831446543335915,-0.011610777117311954,0.041610028594732285
1772363494637450800,9.11545068359375,-0.0008204183541238308,-0.0009334143251180649,0.04415307566523552
1772363494647520800,9.125520751953125,0.006406867876648903,0.011737106367945671,0.04114104062318802
1772363494657590500,9.135590576171875,0.005934524349868298,0.01641722396016121,0.03168157860636711
1772363494667660800,9.145660888671875,-0.0003404156304895878,0.013098125346004963,0.020236913114786148
1772363494677729800,9.155729736328125,-0.0016642366535961628,0.009632447734475136,0.006663311272859573
1772363494687799800,9.1657998046875,-0.005849394481629133,-0.004599484149366617,-0.000591939315199852
1772363494697869800,9.175869873046874,-0.0033120280131697655,-0.013901174068450928,-0.0026773735880851746
1772363494707939600,9.185939697265624,-0.0015378305688500404,-0.011199131608009338,-0.010313987731933594
1772363494718009600,9.196009521484376,0.0002814033068716526,-0.008928433991968632,-0.016431445255875587
1772363494728080000,9.206079833984376,0.0030431016348302364,-0.005274842958897352,-0.02156362310051918
1772363494738150100,9.216150146484376,0.004000184126198292,-0.005328546743839979,-0.0170819703489542
1772363494748220000,9.226219970703125,0.002108008600771427,-0.001997730927541852,-0.0018790485337376595
1772363494758290200,9.236290283203125,0.001479919534176588,-0.002119728596881032,0.0113148782402277
1772363494768360200,9.246360107421875,0.003777695121243596,-0.002596434438601136,0.021899880841374397
1772363494778430000,9.256429931640625,0.0084400475025177,0.001285152044147253,0.028663337230682373
1772363494788500000,9.2665,0.005546789616346359,0.010167859494686127,0.0343201570212841
1772363494798570000,9.276570068359375,0.004647058434784412,0.014807539992034435,0.03365480154752731
1772363494808640000,9.286639892578124,0.005937360227108002,0.0146586699411273,0.026795564219355583
1772363494818710000,9.2967099609375,0.012851826846599579,0.008322086185216904,0.026909902691841125
1772363494828780000,9.306780029296876,0.017356829717755318,0.010335169732570648,0.02374526858329773
1772363494838850000,9.31685009765625,0.022178446874022484,0.00886627659201622,0.014018073678016663
1772363494848920000,9.326920166015626,0.016187133267521858,0.00006852298974990845,0.004926839843392372
1772363494858990000,9.336989990234375,0.009845628403127193,-0.009942417964339256,-0.001085164025425911
1772363494869060000,9.34706005859375,-0.0013207392767071724,-0.01065001916140318,-0.0012068701907992363
1772363494879130000,9.357130126953125,-0.0038415445014834404,-0.012241890653967857,-0.0019624875858426094
1772363494889199900,9.367199951171875,-0.006468220613896847,-0.001972741214558482,-0.00023729167878627777
1772363494899270100,9.377270263671875,-0.00808720476925373,0.007956757210195065,-0.004847229458391666
1772363494909340200,9.387340087890625,-0.005815528798848391,0.01139117032289505,-0.00751784723252058
1772363494919410000,9.397409912109374,-0.007360572926700115,0.013186294585466385,-0.017082054167985916
1772363494929480200,9.407480224609374,-0.00970575213432312,0.008296199142932892,-0.02036386728286743
1772363494939550000,9.417550048828126,-0.015355619601905346,0.006493324413895607,-0.01378337200731039
1772363494949620000,9.427619873046876,-0.018074441701173782,0.007977770641446114,-0.012050186283886433
1772363494959690000,9.43768994140625,-0.01491948775947094,0.0023869285359978676,-0.006524042226374149
1772363494969760000,9.447760009765625,-0.002664952538907528,-0.008161053992807865,0.003711284138262272
1772363494979830000,9.457830078125,-0.0012290324084460735,-0.011020662263035774,0.016414383426308632
1772363494989900000,9.467900146484375,0.001486326102167368,-0.002365388674661517,0.022068539634346962
1772363494999969000,9.477968994140625,0.002680544275790453,0.010052837431430817,0.026162799447774887
1772363495010039000,9.4880390625,0.0070100449956953526,0.024326317012310028,0.02443307638168335
1772363495020109000,9.498109130859374,0.0005610641092061996,0.024457838386297226,0.022681694477796555
1772363495030179000,9.508178955078124,-0.0005697137676179409,0.018670257180929184,0.015515128150582314
1772363495040249000,9.5182490234375,0.0026403102092444897,0.011925293132662773,0.006444836966693401
1772363495050318800,9.52831884765625,0.0037103681825101376,0.0011354968883097172,0.004281551577150822
1772363495060389000,9.53838916015625,0.000902524683624506,0.0035514612682163715,-0.00013529881834983826
1772363495070459100,9.548459228515625,-0.0034940876066684723,0.004721121396869421,-0.0023204218596220016
1772363495080529000,9.55852880859375,-0.005365224555134773,0.0040566627867519855,-0.007840888574719429
1772363495090599200,9.56859912109375,-0.0059218257665634155,-0.002693118993192911,-0.006461371202021837
1772363495100669200,9.578669189453125,-0.0006675017066299915,-0.016883041709661484,-0.0016830414533615112
1772363495110739000,9.588739013671875,-0.0062391008250415325,-0.022051971405744553,0.01715722680091858
1772363495120809000,9.59880908203125,-0.011943498626351357,-0.02030220627784729,0.03439018875360489
1772363495130879000,9.60887890625,-0.010894479230046272,-0.01275214459747076,0.04642714560031891
1772363495140949000,9.618948974609374,-0.007052191998809576,-0.01545540802180767,0.04558584466576576
1772363495151019000,9.62901904296875,-0.005815952550619841,-0.023047547787427902,0.044090479612350464
1772363495161089000,9.639089111328126,-0.0076317754574120045,-0.025379009544849396,0.04227562993764877
1772363495171159000,9.649158935546875,-0.006018165964633226,-0.022000789642333984,0.026988554745912552
1772363495181229000,9.65922900390625,-0.004379423335194588,-0.020938044413924217,0.017589282244443893
1772363495191299000,9.669299072265625,-0.0014462172985076904,-0.017493246123194695,0.011683722957968712
1772363495201369000,9.679369140625,0.0015529775992035866,-0.006601357366889715,0.0030815312638878822
1772363495211439000,9.689439208984375,0.0018310118466615677,-0.002962946891784668,-0.007115446496754885
1772363495221508900,9.6995087890625,0.008044266141951084,-0.0008445265702903271,-0.02015739120543003
1772363495231579100,9.7095791015625,0.011545524001121521,0.00502241775393486,-0.03055836632847786
1772363495241649200,9.719649169921874,0.010114357806742191,0.007384521886706352,-0.03491014987230301
1772363495251719000,9.729718994140624,0.0066621024161577225,0.007213546894490719,-0.028104711323976517
1772363495261789200,9.7397890625,0.0017830315046012402,0.014776665717363358,-0.013811340555548668
1772363495271859000,9.74985888671875,0.0024235215969383717,0.009076436050236225,0.0070007313042879105
1772363495281929000,9.759928955078125,0.0036847288720309734,-0.007329948712140322,0.01676592044532299
1772363495291999000,9.7699990234375,0.0024269181303679943,-0.025131050497293472,0.02536526881158352
1772363495302069000,9.780069091796875,0.002943761181086302,-0.020427295938134193,0.028448577970266342
1772363495312139000,9.790138916015625,0.0032470952719449997,-0.004903197754174471,0.03317675366997719
1772363495322209000,9.800208984375,0.000976568553596735,0.007824311032891273,0.03133651241660118
1772363495332279000,9.810279052734375,0.0029888530261814594,0.010803323239088058,0.02658490091562271
1772363495342349000,9.82034912109375,0.0023340024054050446,0.015794100239872932,0.01614576205611229
1772363495352418000,9.83041796875,-0.0018018865957856178,0.017325151711702347,0.0021591056138277054
1772363495362488000,9.840488037109376,-0.0026108468882739544,0.017955737188458443,-0.013400948606431484
1772363495372558000,9.85055810546875,-0.002451856154948473,0.013444341719150543,-0.02707042172551155
1772363495382627800,9.8606279296875,0.00023593520745635033,0.0023511741310358047,-0.04129684716463089
1772363495392698000,9.870697998046875,0.002993638627231121,-0.008439421653747559,-0.046508923172950745
1772363495402768100,9.88076806640625,-0.0031914799474179745,-0.0020555024966597557,-0.04906981810927391
1772363495412838000,9.890837890625,-0.004729988519102335,0.0006113867275416851,-0.038689885288476944
1772363495422908200,9.900908203125,-0.0027523613534867764,0.0002503679133951664,-0.03473056107759476
1772363495432978000,9.91097802734375,-0.002303618472069502,-0.00007986370474100113,-0.020983856171369553
1772363495443048000,9.9210478515625,-0.0015124944038689137,-0.004266762174665928,-0.0016091810539364815
1772363495453118200,9.9311181640625,-0.0018339385278522968,-0.006169058382511139,0.0044066328555345535
1772363495463188000,9.94118798828125,-0.007937608286738396,-0.0035100714303553104,0.009598823264241219
1772363495473258000,9.951258056640626,-0.010228991508483887,0.0006252848543226719,0.011876892298460007
1772363495483328000,9.961327880859375,-0.009358849376440048,0.006070852745324373,0.010933945886790752
1772363495493398000,9.97139794921875,-0.007157746236771345,0.0018492098897695541,0.01224288996309042
1772363495503468000,9.981468017578125,-0.0008452925831079483,-0.006625128909945488,0.019640885293483734
1772363495513538000,9.9915380859375,0.0016570133157074451,-0.009659267961978912,0.03231087327003479
1772363495523608000,10.001608154296875,0.0009670327417552471,-0.005540721584111452,0.0340716689825058
1772363495533678000,10.011677978515625,0.004251775797456503,-0.011294747702777386,0.03021913580596447
1772363495543748000,10.021748046875,0.004004999529570341,-0.014273826032876968,0.02001711167395115
1772363495553818000,10.031818115234374,0.005874006077647209,-0.01007295586168766,0.015491867437958717
1772363495563888000,10.04188818359375,-0.0003784559667110443,0.010429874062538147,0.008966587483882904
1772363495573958000,10.0519580078125,-0.0012815333902835846,0.012596886605024338,-0.0013744672760367393
1772363495584028000,10.06202783203125,-0.004245809745043516,0.008024442940950394,-0.018097970634698868
1772363495594098200,10.07209814453125,-0.00003348803147673607,0.0011486937291920185,-0.033371198922395706
1772363495604168000,10.08216796875,0.004027933813631535,-0.00450851721689105,-0.052219368517398834
1772363495614238000,10.092238037109375,0.009557189419865608,-0.000655722338706255,-0.053846560418605804
1772363495624308200,10.10230810546875,0.014453677460551262,0.005204829853028059,-0.0532982163131237
1772363495634378000,10.1123779296875,0.019092105329036713,0.019508402794599533,-0.042898837476968765
1772363495644448000,10.122447998046875,0.018720317631959915,0.03195780888199806,-0.030559256672859192
1772363495654518000,10.13251806640625,0.01761483959853649,0.04123173654079437,-0.015304668806493282
1772363495664588000,10.142588134765624,0.020872583612799644,0.04229312762618065,-0.00042913854122161865
1772363495674658000,10.152657958984374,0.022192979231476784,0.042150117456912994,0.010327368974685669
1772363495684728000,10.16272802734375,0.0215977244079113,0.034733712673187256,0.023499269038438797
1772363495694798000,10.172798095703126,0.014763519167900085,0.029672909528017044,0.024347219616174698
1772363495704868000,10.1828681640625,0.011881833896040916,0.028746288269758224,0.027105191722512245
1772363495714937900,10.192937744140625,0.010719097219407558,0.03756028413772583,0.02736724354326725
1772363495725008100,10.203008056640625,0.011770827695727348,0.04267365485429764,0.018988415598869324
1772363495735078100,10.213078125,0.012418508529663086,0.03853510320186615,0.003905867226421833
1772363495745148000,10.22314794921875,0.014396704733371735,0.04104513302445412,-0.00983364786952734
1772363495755218000,10.233218017578125,0.017110731452703476,0.04526278004050255,-0.018019938841462135
1772363495765288000,10.243287841796874,0.014941494911909103,0.046335700899362564,-0.022728852927684784
1772363495775358000,10.25335791015625,0.012400040403008461,0.035689711570739746,-0.025729702785611153
1772363495785427200,10.26342724609375,0.010079692117869854,0.02941555343568325,-0.023297347128391266
1772363495795497000,10.2734970703125,0.009765971451997757,0.018501918762922287,-0.026921376585960388
1772363495805567000,10.28356689453125,0.004963473882526159,0.009617333300411701,-0.020849019289016724
1772363495815637000,10.293636962890625,0.0018070954829454422,0.0021018930710852146,-0.01529712788760662
1772363495825707000,10.30370703125,0.003405810333788395,-0.005262797698378563,-0.00915170181542635
1772363495835777000,10.313777099609375,-0.0013535250909626484,-0.01896742545068264,0.0056136613711714745
1772363495845846800,10.3238466796875,0.0012489897198975086,-0.02786046266555786,0.016895610839128494
1772363495855917000,10.3339169921875,0.004047972150146961,-0.03169168904423714,0.021425381302833557
1772363495865987000,10.343987060546874,0.00217936048284173,-0.03794482722878456,0.020769089460372925
1772363495876056800,10.354056884765624,0.001176147721707821,-0.055423419922590256,-0.0028685955330729485
1772363495886127000,10.364127197265624,-0.0039256252348423,-0.06837520003318787,0.00619111955165863
1772363495896197000,10.374197021484376,0.006380275823175907,-0.045085325837135315,0.01829332299530506
1772363495906267000,10.384266845703126,0.012482726946473122,-0.006443662103265524,0.010711307637393475
1772363495916337000,10.3943369140625,0.010119171813130379,0.0005202377215027809,0.00042458251118659973
1772363495926407200,10.4044072265625,0.010462488979101181,-0.010208677500486374,-0.011908251792192459
1772363495936477000,10.414476806640625,0.016452737152576447,-0.01572701334953308,-0.01992596499621868
1772363495946547000,10.424546875,0.021704785525798798,-0.0040449704974889755,-0.022049210965633392
1772363495956617000,10.434616943359375,0.018602736294269562,0.011059947311878204,-0.017355656251311302
1772363495966687000,10.44468701171875,0.0184621661901474,0.016347087919712067,-0.010391315445303917
1772363495976757000,10.454757080078124,0.018351644277572632,0.02394721657037735,0.005974608473479748
1772363495986827000,10.464826904296874,0.025102823972702026,0.00840632151812315,0.019451886415481567
1772363495996897000,10.47489697265625,0.030384402722120285,0.0034421896561980247,0.04909766465425491
1772363496006967000,10.484967041015626,0.03529733046889305,0.011150920763611794,0.0520939938724041
1772363496017036800,10.495036865234376,0.03655434399843216,0.008765792474150658,0.04784012213349342
1772363496027107000,10.505107177734375,0.032493360340595245,0.0021537523716688156,0.03998059779405594
1772363496037177000,10.515177001953125,0.03065258264541626,0.004309048876166344,0.039044495671987534
1772363496047246800,10.525246826171875,0.02616409957408905,0.013071720488369465,0.034255243837833405
1772363496057317000,10.535317138671875,0.02489829994738102,0.017916008830070496,0.01570020243525505
1772363496067387100,10.54538720703125,0.014647921547293663,0.0008842595852911472,-0.009843061678111553
1772363496077457000,10.555456787109375,0.0009440933354198933,-0.025794755667448044,-0.017284199595451355
1772363496087527000,10.56552685546875,0.0022789346985518932,-0.008960666134953499,0.026925429701805115
1772363496097597000,10.575596923828124,-0.0012540151365101337,0.06851814687252045,0.008787705563008785
1772363496107667000,10.5856669921875,-0.014991575852036476,0.047162458300590515,-0.038518473505973816
1772363496117737000,10.595737060546876,-0.00603429926559329,-0.026328273117542267,-0.06784892827272415
1772363496127807000,10.605806884765625,-0.013615790754556656,-0.06832466274499893,-0.08656996488571167
1772363496137877000,10.615876953125,-0.015259228646755219,-0.09449661523103714,-0.09495226293802261
1772363496147947000,10.625947021484375,-0.01403431873768568,-0.10717576742172241,-0.09371495991945267
1772363496158017000,10.63601708984375,-0.02561800554394722,-0.10301590710878372,-0.09682739526033401
1772363496168087000,10.646087158203125,-0.0298825204372406,-0.14122167229652405,-0.1404898464679718
1772363496178157000,10.656156982421875,-0.04503936693072319,-0.1993347704410553,-0.11115192621946335
1772363496188226800,10.666226806640625,-0.052310165017843246,-0.19885128736495972,-0.0756014809012413
1772363496198297000,10.676297119140624,-0.04247324913740158,-0.14172329008579254,-0.04822605103254318
1772363496208367000,10.6863671875,-0.0419984869658947,-0.053367722779512405,-0.020578615367412567
1772363496218436900,10.696436767578126,-0.038181111216545105,-0.006264660507440567,-0.0003774743527173996
