time,seconds_elapsed,z,y,x
1772366243421331200,0.108331298828125,-0.043781858581304546,-0.001865364613616839,0.004375694333575666
1772366243431401200,0.118401123046875,-0.036163784793019293,0.0024798432501498607,0.0070372051604092115
1772366243441471200,0.12847119140625,-0.034948563784360884,0.0006073091102298349,0.0010803425826132298
1772366243451542300,0.138542236328125,-0.03752572079598904,0.005819143740693107,-0.008150500164553523
1772366243461612300,0.1486123046875,-0.031496377503871915,-0.0008660696442704647,-0.0010425313228741287
1772366243471682300,0.158682373046875,-0.03956979384422302,-0.00030088264271616933,-0.0022644012680277225
1772366243481753300,0.16875341796875,-0.02412789456248283,0.00589511332004331,0.005282324317097664
1772366243491823000,0.178822998046875,-0.031759996876120564,0.004918505106540396,-0.0006835618173703551
1772366243501893400,0.188893310546875,-0.02160568260848522,0.00010912293028086423,0.00010254705902189015
1772366243511963400,0.19896337890625,-0.02625380067527294,0.006987301604077219,-0.0023814883090555665
1772366243522034200,0.2090341796875,-0.029693711996078488,0.0057470283525530245,0.0024340222138911484
1772366243532104200,0.219104248046875,-0.01799684446156025,0.005201011842349544,0.006651859104633331
1772366243542174500,0.229174560546875,-0.025037995144724844,0.00199019656968303,0.004694624089635909
1772366243552244200,0.239244140625,-0.03625672377347946,-0.0007967216019518673,0.006406652171909809
1772366243562315300,0.249315185546875,-0.03013677958846092,0.001499344312818721,-0.002068330706655979
1772366243572385300,0.25938525390625,-0.032519875332713125,-0.0015000018999446183,0.0060734381621703505
1772366243582455000,0.269455078125,-0.02952244708240032,0.006515729436418041,0.004817117958143353
1772366243592525300,0.279525390625,-0.034604864913225175,-0.00428127578208223,0.0041249709755182265
1772366243602596400,0.289596435546875,-0.03640110068023204,-0.01064983356646262,-0.002525207628682256
1772366243612666400,0.299666259765625,-0.03132569711208343,-0.0009144388306420296,-0.001334171213209629
1772366243622736100,0.309736083984375,-0.04225274931788444,0.00607704575820826,-0.007549282868392765
1772366243632806400,0.319806396484375,-0.03148468706607818,-0.0013713431521318851,0.0011881868712604045
1772366243642877400,0.32987744140625,-0.021454291439056396,-0.007135761030903086,0.005131335006467998
1772366243652947200,0.339947265625,-0.024900632500648497,-0.00646046471837908,0.0008241027992218732
1772366243663017200,0.350017333984375,-0.032388357907533645,-0.001121633574226871,0.0048138300225138665
1772366243673087200,0.360087158203125,-0.02925239796936512,-0.004200392565596849,0.0017162658659741281
1772366243683157500,0.370157470703125,-0.026563012754917143,-0.003046217561792582,-0.00109857235904783
1772366243693227500,0.3802275390625,-0.03150397628843784,0.004708433419279754,0.00006287263575941324
1772366243703297300,0.39029736328125,-0.027899814316630363,0.0009932122884318232,0.004660758352652192
1772366243713368300,0.400368408203125,-0.034491467666625975,-0.004094027847982943,0.0035926907297223806
1772366243723438600,0.4104384765625,-0.03645253860652446,0.005983293926995247,0.004815145196765661
1772366243733508600,0.420508544921875,-0.031072014611959457,-0.0005672419613227248,-0.00979614847972989
1772366243743578400,0.430578369140625,-0.04244973319470882,-0.002928920458210632,-0.0022652049856260415
1772366243753649400,0.4406494140625,-0.03572013267874718,-0.004072911994718015,0.004529752384126186
1772366243763719700,0.4507197265625,-0.037220600369572636,-0.0022088168895803392,0.0052045463731512425
1772366243773789400,0.46078955078125,-0.030793197670578955,0.004186857230588793,-0.003338204512000084
1772366243783859500,0.470859375,-0.02346563126146793,-0.002074851778987795,0.0013232844930142163
1772366243793930500,0.480930419921875,-0.02286532728075981,-0.010187686814274639,0.0015399959836155175
1772366243804000300,0.491000244140625,-0.02945230445563793,-0.005473006317298859,0.00026266952417790886
1772366243814070500,0.501070556640625,-0.031386487388610836,0.0005168269483372569,0.0027465952944010497
1772366243824140500,0.511140625,-0.0279459915459156,0.005359545138617977,0.00003971095588058233
1772366243834211600,0.521211669921875,-0.027500585865974425,-0.00467158114076592,-0.000897314165905118
1772366243844281300,0.53128125,-0.02676058115363121,-0.0037844139095395803,-0.0013445464767515658
1772366243854351600,0.5413515625,-0.030194647255539893,0.005544071392668411,0.0002583221426233649
1772366243864421400,0.55142138671875,-0.0369347691655159,-0.002200012528616935,-0.00842942670378834
1772366243874492400,0.561492431640625,-0.03021393647789955,0.001332536378549412,-0.004474405467696487
1772366243884562400,0.5715625,-0.027670097213983533,0.0014410473874770103,-0.0020598551392555235
1772366243894632700,0.5816328125,-0.02782324194908142,0.0051657213332597166,-0.004233728579618037
1772366243904702500,0.591702392578125,-0.03231412362754345,0.0007152081978041678,-0.0017594108879566191
1772366243914773500,0.6017734375,-0.04219195904135704,-0.00841990995677188,0.0025515476463362574
1772366243924843500,0.611843505859375,-0.02737666722536087,0.005218766694748774,-0.004457490865513682
1772366243934913300,0.621913330078125,-0.024388006803393363,0.0028803229429759086,0.00213544112611562
1772366243944984300,0.631984375,-0.02363864974081516,-0.0018408420937135815,0.003825403507053852
1772366243955054600,0.6420546875,-0.03590776420533657,0.007333037168672308,-0.003927110315859317
1772366243965124400,0.652124267578125,-0.03754734810590744,-0.0009257182764820754,-0.006633300534635782
1772366243975194400,0.6621943359375,-0.03739186528325081,0.00258251817333512,-0.004903042675927281
1772366243985265400,0.672265380859375,-0.03857844471931457,0.0058984651877544815,-0.0025738325433805583
1772366243995335700,0.682335693359375,-0.025421441504359245,0.006757867629220708,-0.002911065141111612
1772366244005405400,0.692405517578125,-0.03215221106410027,-0.0005355042493436485,-0.00045358898639678955
1772366244015475500,0.702475341796875,-0.02602291452884674,-0.002078715103352442,0.00019607056137174367
1772366244025546500,0.71254638671875,-0.03186637986004352,-0.0006709215315058827,0.0024315745284780857
1772366244035616500,0.722616455078125,-0.031416298004984855,-0.004073277320899069,0.000488879495486617
1772366244045686500,0.7326865234375,-0.02093874313235283,0.0010791461393702775,-0.002009001734852791
1772366244055756500,0.742756591796875,-0.03275485313236713,0.004614800319075584,0.0018011311378329992
1772366244065827300,0.752827392578125,-0.04128653463423252,0.00005876271622255444,-0.0035293431699275966
1772366244075897300,0.7628974609375,-0.028562077617645263,0.003555180864082649,-0.005713372678123415
1772366244085967600,0.772967529296875,-0.030957448321580885,-0.005938550602970645,0.004578011972643434
1772366244096037400,0.783037353515625,-0.02721884631514549,0.0011286935026757418,-0.0028312779031693935
1772366244106108400,0.7931083984375,-0.029169395861029623,0.007443575737904756,0.0025966654296964405
1772366244116178400,0.803178466796875,-0.0273795898348093,0.0009126669986639171,-0.001121734038926661
1772366244126248400,0.81324853515625,-0.038459786775708195,0.003316138810664415,-0.0017147680286318063
1772366244136318500,0.823318359375,-0.03262859640419483,-0.006436517587210983,0.004430493260733783
1772366244146389500,0.833389404296875,-0.04489771086871624,0.001551028834283352,-0.0011092033509165049
1772366244156459500,0.84345947265625,-0.028286183285713196,0.006115057947346941,-0.0037724312108010053
1772366244166529500,0.853529541015625,-0.03412555696368217,-0.0028729433541186153,-0.005948021684214473
1772366244176600600,0.8636005859375,-0.04339432056844234,0.0023476682378444818,-0.0015972425961866975
1772366244186670600,0.873670654296875,-0.028567922836542126,-0.0021177502057980746,-0.0016621245259419084
1772366244196740400,0.883740234375,-0.0315583368241787,-0.007463814808335155,-0.0009932488210499285
1772366244206810400,0.893810302734375,-0.03380816157758236,0.0005055109698791057,-0.001284194591641426
1772366244216880600,0.903880615234375,-0.03201777102947235,-0.002173928239289671,-0.002262501571886241
1772366244226951400,0.913951416015625,-0.027531565526127812,-0.00020875651300884782,-0.0026222747949883342
1772366244237021400,0.924021484375,-0.031421558701992036,-0.0028691439618356526,-0.0005474412823095917
1772366244247091500,0.934091552734375,-0.02409399229288101,0.0016207787354011087,-0.004656885895133018
1772366244257162500,0.94416259765625,-0.030233810222148893,0.002943076847726479,0.0005024696294218302
1772366244267232500,0.954232421875,-0.02963058363199234,-0.0003419453054666519,-0.0004347016228362918
1772366244277302500,0.964302490234375,-0.030978491109609603,0.0023352836803067476,0.003125621207244694
1772366244287372500,0.97437255859375,-0.02993102788329124,0.0019093772852793334,-0.0028499460710212587
1772366244297443300,0.984443359375,-0.04145429241657257,0.002914033416332677,-0.003191379919834435
1772366244307513600,0.994513671875,-0.037409985461831094,-0.004521651276061311,0.0008069324687123298
1772366244317583600,1.00458349609375,-0.028721652093529698,0.00021090280432254073,0.002966886981576681
1772366244327653400,1.0146533203125,-0.0323117855399847,-0.0012910079249180853,0.0038593057766556737
1772366244337724400,1.024724365234375,-0.03261222979128361,-0.0033447986495681106,0.008002396930754184
1772366244347794400,1.03479443359375,-0.018103227445483205,-0.004813693025195971,-0.0012469678537920116
1772366244357864400,1.044864501953125,-0.030074820268154143,0.0010037062829826027,-0.007130838260613381
1772366244367934500,1.0549345703125,-0.03710077338218689,0.0019286573744844643,-0.006106865507736802
1772366244378005500,1.065005615234375,-0.02571779410243034,0.008466370313847437,-0.00035217443853616714
1772366244388075500,1.075075439453125,-0.03813245451748371,-0.0020609602509532123,-0.0005467471625655889
1772366244398145500,1.0851455078125,-0.03648760991990566,0.002945871593011543,-0.0016381591284647583
1772366244408215600,1.095215576171875,-0.02870119382739067,0.0031264066585339604,-0.004057860556058585
1772366244418286600,1.10528662109375,-0.029459903240203856,-0.0044152774252928795,-0.003812982416898012
1772366244428356400,1.1153564453125,-0.028415947145223615,-0.0010059347726870328,0.0073541986877098675
1772366244438426400,1.12542626953125,-0.026467151165008543,-0.0041504707429558035,-0.004244396104104817
1772366244448496600,1.13549658203125,-0.028704700958728787,0.0013355777190066874,-0.0009924085708335041
1772366244458567400,1.1455673828125,-0.03663958561122417,-0.0009155074097216128,-0.007694901884160935
1772366244468637400,1.155637451171875,-0.028251696494221684,-0.00634006234225817,0.0011919862635433674
1772366244478707500,1.16570751953125,-0.025705519142746925,-0.005765742186177521,-0.009154599173180759
1772366244488777500,1.175777587890625,-0.02810381245613098,-0.001591799236088991,0.0012257424026727675
1772366244498848500,1.1858486328125,-0.03349778045415878,0.0024319581209681926,0.006188040985167026
1772366244508918500,1.19591845703125,-0.03739303432703018,-0.008336697785882278,0.0027893749902024863
1772366244518988300,1.20598828125,-0.03439735964238643,-0.003198786908155307,0.0023948957799002526
1772366244529058600,1.21605859375,-0.03035246816575527,-0.001346592303365469,0.004416135941818357
1772366244539129600,1.226129638671875,-0.027957681983709334,0.01091713359998539,-0.00140972066745162
1772366244549199600,1.23619970703125,-0.02271861228644848,0.004640619746921584,-0.0013669409716501831
1772366244559269400,1.246269287109375,-0.024358780708909032,-0.003948618894768879,-0.0000513283284381032
1772366244569340400,1.25634033203125,-0.022566636595129964,0.003639607744524255,-0.010169073445349931
1772366244579410400,1.266410400390625,-0.025853987702727316,-0.003322495486214757,-0.0006521437657997012
1772366244589480400,1.27648046875,-0.026904958060383795,-0.000523247555969283,0.004793737082555889
1772366244599550500,1.286550537109375,-0.03334522024095058,-0.008102039646636694,0.0009462678741663694
1772366244609621500,1.29662158203125,-0.024374562799930572,-0.005115105390874669,0.002305938854813576
1772366244619691300,1.306691162109375,-0.026764088284969328,0.004125984755670651,0.011377828180603683
1772366244629761500,1.316761474609375,-0.031851182290911675,-0.0015428820604458451,0.001784070405177772
1772366244639831600,1.32683154296875,-0.03274608530402184,0.012511517518805339,0.00138886054251343
1772366244649902600,1.336902587890625,-0.024207974061369895,0.0038266912818420676,-0.0011037599908187985
1772366244659972400,1.346972412109375,-0.028693010520935057,-0.0034583146271761505,-0.0038824674565345048
1772366244670042600,1.357042724609375,-0.014184008175134658,0.002264693528972566,-0.0008602700911462306
1772366244680112400,1.3671123046875,-0.028548049092292783,0.00587560490197502,-0.0005376870732754468
1772366244690183400,1.377183349609375,-0.04336860160529613,0.0017571732650976627,-0.0009631094111129641
1772366244700253200,1.387253173828125,-0.016438509103655814,0.007325465783569961,0.001194178220629692
1772366244710323500,1.397323486328125,-0.03079728932380676,0.004475318783149123,-0.002406549685075879
1772366244720393500,1.4073935546875,-0.028992870250344274,0.0007401691091246902,0.005677753375470638
1772366244730464500,1.417464599609375,-0.029288053804636,0.001299437826545909,-0.0021663842536509036
1772366244740534300,1.4275341796875,-0.0216588741004467,0.00032326800446026027,-0.0023558058785274625
1772366244750604300,1.437604248046875,-0.026744214540719985,-0.004710223517566919,0.0009688450321555137
1772366244760674300,1.44767431640625,-0.03288169438242912,-0.0013096760927699506,-0.0020803499380126593
1772366244770745300,1.457745361328125,-0.03138239573538303,0.004780393543792888,-0.006070771281048655
1772366244780815400,1.4678154296875,-0.024051906716823578,0.0005616616039071232,0.004211589813046157
1772366244790885400,1.477885498046875,-0.03348024479746818,-0.004181185541627929,0.00016293547675013542
1772366244800955400,1.487955322265625,-0.0240595055013895,-0.006289610796654597,-0.004777808861061931
1772366244811026400,1.4980263671875,-0.02196224096119404,-0.0030619448538869616,0.0005059767607599496
1772366244821096400,1.508096435546875,-0.026141572472453117,0.0008030782775022089,0.003986950744315982
1772366244831166200,1.518166259765625,-0.013268646895885467,-0.008483157051866873,0.0021296324398368594
1772366244841236500,1.528236572265625,-0.031821371674537656,-0.008575210116337984,-0.0012453238859772681
1772366244851307500,1.5383076171875,-0.02464519643485546,0.00293586165565066,0.00832958305850625
1772366244861377300,1.548377197265625,-0.02106850699186325,0.0013581000780686736,0.004882620942406356
1772366244871447300,1.558447265625,-0.022265023300051687,-0.009803993859468027,-0.0003261632144451141
1772366244881517300,1.568517333984375,-0.027952421286702153,-0.0008000186707358807,0.0032459961839020252
1772366244891588400,1.57858837890625,-0.024806524476408957,-0.005936029852321371,0.0024112989254295824
1772366244901658400,1.588658447265625,-0.023460370564460754,-0.007023067037202417,0.007634623064287006
1772366244911728400,1.598728271484375,-0.03214052062630653,0.002363696924038231,-0.003002506284229457
1772366244921798400,1.60879833984375,-0.02555529701709747,-0.004095653549488634,-0.00817822842169553
1772366244931869200,1.618869140625,-0.020620178702473638,-0.0027364757591858504,0.0019280819857493041
1772366244941939500,1.628939453125,-0.022121230915188788,-0.006181264184508472,-0.0004110284863039851
1772366244952009500,1.639009521484375,-0.029307927548885344,-0.0013108177370857446,0.007292166302166878
1772366244962079200,1.649079345703125,-0.022875264152884482,0.0033818153248634185,0.0012797376122325658
1772366244972150300,1.659150390625,-0.023624621215462684,0.0015100666362326592,0.0015667013274505734
1772366244982220300,1.66922021484375,-0.01883680241703987,-0.0035893297288566825,-0.00023855799622833726
1772366244992290300,1.679290283203125,-0.03514730122685432,-0.007176120440755039,-0.008616948632523417
1772366245002361300,1.689361328125,-0.028700024783611295,0.0022391937615349887,0.0009665069445967673
1772366245012431400,1.699431396484375,-0.026008886003494262,-0.0066830305610317735,-0.0038644203431904313
1772366245022501000,1.709501220703125,-0.029754502272605895,0.006446016067918389,-0.0008025485545396804
1772366245032571400,1.7195712890625,-0.017189619731903076,0.001920209206547588,0.000617949235253036
1772366245042642400,1.729642333984375,-0.028263971453905103,-0.00829063928760588,-0.003159815737791359
1772366245052712400,1.73971240234375,-0.028856676650047302,0.002146483109937981,0.0010338000271469354
1772366245062782200,1.7497822265625,-0.039784897899627684,0.005331944745639338,0.0010936769882217048
1772366245072852500,1.7598525390625,-0.02272504202723503,-0.006895248539606109,0.0025016806226223704
1772366245082923500,1.769923583984375,-0.0309568637996912,-0.0009401395274791866,0.006083411566913128
1772366245092993300,1.7799931640625,-0.02811024219691753,-0.000699371307855472,-0.0009989844420924781
1772366245103063300,1.790063232421875,-0.02122398981451988,0.000029171295557171106,0.0016059373592957854
1772366245113133300,1.80013330078125,-0.03468786702156067,0.0014796440985053777,0.0051491994567215435
1772366245123204400,1.810204345703125,-0.030048516783118245,0.005450146031519398,0.011464447018131613
1772366245133274400,1.8202744140625,-0.01868131959438324,-0.0021297146382275966,-0.0010914850311353802
1772366245143344400,1.830344482421875,-0.02227846730351448,0.0009384590270463377,0.0035411797381937503
1772366245153414100,1.8404140625,-0.028571429967880247,-0.001963180698594078,0.0014468743400648236
1772366245163485200,1.850485107421875,-0.026176059263944625,0.00448201338541694,0.004467172009311616
1772366245173555500,1.860555419921875,-0.03530687570273876,0.004869076474243774,-0.000374094009399414
1772366245183625500,1.87062548828125,-0.026935353198647496,0.005025280816107988,-0.0011502660136669873
1772366245193695200,1.8806953125,-0.024995909568667412,0.005909297109022736,0.0008494199035689234
1772366245203766300,1.890766357421875,-0.032033553120493885,-0.0034920981657691297,-0.0031376769712194797
1772366245213836500,1.90083642578125,-0.025152561435103415,0.0005227543656248599,0.000391045144200325
1772366245223906300,1.91090625,-0.018271569749712942,0.010843602572893723,0.001414506440423429
1772366245233977300,1.920977294921875,-0.023365678018331525,-0.004243373190797865,0.0024800167800858616
1772366245244047400,1.93104736328125,-0.036842999228835105,-0.007692143671493977,-0.002077098535001278
1772366245254117400,1.941117431640625,-0.037892216020822524,-0.002284183680731803,-0.0013668313737958669
1772366245264187400,1.9511875,-0.0259200386762619,-0.007215411271527409,-0.0056748672986403105
1772366245274258400,1.961258544921875,-0.025621347990632055,-0.001415410622721538,-0.0007584902171045542
1772366245284328400,1.971328369140625,-0.01768470977246761,0.0005894446599762886,0.00518386891130358
1772366245294398200,1.981398193359375,-0.017089081966876984,-0.00313825235995464,-0.006242036194726824
1772366245304468500,1.991468505859375,-0.027424598020315168,0.0002602949040010571,0.00009071049075573682
1772366245314539500,2.00153955078125,-0.028328268861770627,-0.0021782025556080042,0.009264014364406466
1772366245324609300,2.011609375,-0.031176644030213353,-0.005618972392939031,-0.0010258724490180612
1772366245334679300,2.02167919921875,-0.014563947403430939,-0.00006459880196489393,0.0011402560763061045
1772366245344749600,2.03174951171875,-0.020100538742542265,0.0014879735354334114,0.0016061200223863124
1772366245354820400,2.0418203125,-0.03520575341582298,0.0005380067336838692,-0.0013701558420434593
1772366245364890400,2.051890380859375,-0.028318916511535643,0.004861569021223112,-0.0012996844217181204
1772366245374960400,2.06196044921875,-0.020837620845437048,-0.004207178499409929,-0.00021495792493224142
1772366245385030100,2.072030029296875,-0.02128945626616478,-0.004366113654477521,0.0021038769440725443
1772366245395101200,2.08210107421875,-0.019054244560003278,0.006798090041754767,0.004585391561500728
1772366245405171500,2.09217138671875,-0.02294774486720562,0.01065471980413422,0.0016689195929095147
1772366245415241200,2.1022412109375,-0.025037995144724844,0.0009900430838111788,0.0038871436316519972
1772366245425311200,2.112311279296875,-0.031767595660686494,0.013298512311186641,0.00023695056103169917
1772366245435382300,2.12238232421875,-0.03145838358104229,0.006640707522956654,0.0061605319237336515
1772366245445452500,2.13245263671875,-0.02381692891716957,-0.00034338834388181563,0.0026439021049067374
1772366245455522300,2.142522216796875,-0.029499066206812856,-0.00022772607496008275,0.00003949176017194986
1772366245465593300,2.15259326171875,-0.021416882038116453,-0.0016477672070264815,0.0032032530207186933
1772366245475663400,2.162663330078125,-0.02500292383134365,0.0010401201700791715,-0.0024037732060998677
1772366245485733400,2.1727333984375,-0.02231470766067505,-0.003572798719163984,-0.00236402571760118
1772366245495803400,2.182803466796875,-0.02964227406978607,-0.0076174070680048315,-0.004622143375314772
1772366245505874400,2.19287451171875,-0.026042788273096085,0.005234630984161049,0.001539776787906885
1772366245515944200,2.202944091796875,-0.032329905718564984,0.0021898016618564723,-0.0014861834371462464
1772366245526014200,2.21301416015625,-0.03248655758500099,0.005927974410029128,-0.00025623978339135646
1772366245536084500,2.22308447265625,-0.0218681329369545,0.008660468113841488,0.00010064736288040876
1772366245546155500,2.233155517578125,-0.020383447337150574,0.007403070197580382,0.003750219378992915
1772366245556225300,2.243225341796875,-0.02488134327828884,0.01010213655582629,-0.004368789668753743
1772366245566295300,2.25329541015625,-0.03325812647938728,-0.0012169197754003107,-0.0034009310172870752
1772366245576365300,2.263365234375,-0.025924130329489706,0.006827599264029413,0.005616305511817336
1772366245586436400,2.273436279296875,-0.027418168279528615,0.010599692548112943,0.004144077534787356
1772366245596506400,2.28350634765625,-0.02532616443634033,0.008354881896544247,-0.00044416357092559334
1772366245606576400,2.293576416015625,-0.027871757265925407,0.007060056313034147,-0.0016736688332632183
1772366245616646400,2.303646484375,-0.03011807488799095,0.006769758996414021,-0.00006228811386972666
1772366245626717400,2.313717529296875,-0.031167876201868054,0.008525343092624097,-0.00535966386962682
1772366245636787500,2.323787353515625,-0.03265782249867916,-0.005709344956977292,-0.005665295752696692
1772366245646857200,2.333857177734375,-0.050013446447253224,-0.0026876590482424944,-0.0003770531514659524
1772366245656927200,2.34392724609375,-0.04073533049225807,0.009331937634618953,0.004892484749294817
1772366245666998300,2.353998291015625,-0.029956162324547765,0.0062907707072794436,-0.0023686288274824617
1772366245677068300,2.364068359375,-0.0318979440420866,0.0016986845435108988,0.0031011808857321736
1772366245687142700,2.374142578125,-0.016191256344318387,-0.005320710965571925,0.0010474997589364648
1772366245697213700,2.384213623046875,-0.029209727871417998,0.0012803312672767788,-0.0007478592252358793
1772366245707283500,2.394283447265625,-0.03833645265698433,0.004966207572631538,-0.0017770196098834275
1772366245717353500,2.404353515625,-0.025762802287936207,-0.004492598711512983,-0.0003564487548545003
1772366245727423700,2.414423828125,-0.026360183659195898,-0.0024486535274423657,0.0032523528594523665
1772366245737494800,2.424494873046875,-0.034739889469742775,0.004359300321200862,0.0009996054966002702
1772366245747564500,2.434564453125,-0.022763035950064656,0.004591054117307067,-0.00021163345668464897
1772366245757634600,2.444634521484375,-0.02650046891272068,0.004126368348160758,-0.002489844054356217
1772366245767704600,2.45470458984375,-0.024546996757388112,-0.0007379497525747865,-0.0008049231747165322
1772366245777775600,2.464775634765625,-0.032176176461577416,0.0005113379224669188,-0.0002900324551388621
1772366245787845600,2.474845703125,-0.02260696860551834,0.0009311616365797817,0.004469948488287628
1772366245797915600,2.48491552734375,-0.032338673546910286,0.0039516145694535225,-0.0012887611689046024
1772366245807985700,2.494985595703125,-0.036081367206573484,-0.00024589191931299865,0.005130750484578311
1772366245818056700,2.505056640625,-0.02396247486770153,0.0063495790892746295,0.0055473684614524245
1772366245828126700,2.515126708984375,-0.02127367417514324,0.0019169852029997853,-0.00306442907191813
1772366245838196500,2.525196533203125,-0.026512743872404095,0.01002345442958176,-0.006059848028235137
1772366245848266500,2.5352666015625,-0.039379824230074884,0.0038020500309299677,0.002663921979628503
1772366245858337500,2.545337646484375,-0.0292009600430727,-0.004983231772668659,0.003202924227155745
1772366245868407600,2.555407470703125,-0.036222821503877636,-0.006571167684393003,0.003315481223538518
1772366245878477600,2.5654775390625,-0.036223406025767325,-0.0013002872099168597,0.0028590792255476115
1772366245888548600,2.575548583984375,-0.03756371471881866,0.008320723898615687,0.0004560732044279575
1772366245898618600,2.58561865234375,-0.02349018118083477,0.005727300738776102,-0.00043459202498197556
1772366245908688600,2.595688720703125,-0.03320785759687424,-0.0030808596169110388,0.00037350948750972747
1772366245918758700,2.605758544921875,-0.02287935580611229,0.00048547282884828745,-0.00707129009310156
1772366245928829700,2.61582958984375,-0.02871171522140503,0.007427373521775007,-0.0007360957222059369
1772366245938899500,2.6258994140625,-0.030503274813294408,0.001266284475615248,0.004616115493327379
1772366245948969700,2.6359697265625,-0.02526128250658512,-0.0010018979183863848,0.0014256854215636849
1772366245959039700,2.646039794921875,-0.023919220247864723,0.0021515063449274747,0.004016834425926208
1772366245969110500,2.656110595703125,-0.02556757197678089,0.0003816014624200761,0.005593216897174715
1772366245979180500,2.6661806640625,-0.031845337072014805,-0.002996341404924169,0.0015318857423961161
1772366245989250600,2.67625048828125,-0.026454876205325124,0.0020226923334877938,0.0018928645418956876
1772366245999320600,2.686320556640625,-0.02450315761566162,-0.0033664259594865143,0.0018830007350072264
1772366246009391600,2.6963916015625,-0.031982115194201466,-0.00551459870301187,0.00508362340722233
1772366246019461600,2.706461669921875,-0.029587913534045218,-0.0018198084388393908,0.005856288280151784
1772366246029531600,2.71653173828125,-0.032276714226603505,-0.00478179091643542,-0.0010361015820875763
1772366246039601700,2.7266015625,-0.025843466308712957,-0.0035295166998635975,-0.0037436800403520465
1772366246049672700,2.736672607421875,-0.03496609944105148,0.005503246191935613,0.002778159476444125
1772366246059742700,2.74674267578125,-0.019552841731905937,0.00016942001646384595,0.006694748398289084
1772366246069812500,2.7568125,-0.0212058696359396,-0.0027398367600515484,-0.001042640920728445
1772366246079883500,2.766883544921875,-0.036327450922131535,0.00045085817319341,0.0015191358586773276
1772366246089953500,2.77695361328125,-0.027951252242922782,-0.0052381837812718,0.005779788977839052
1772366246100023600,2.7870234375,-0.022705752804875374,-0.009420547499833627,-0.003460917576216161
1772366246110093600,2.797093505859375,-0.03467033136487007,0.005333643512381241,0.0013367284964770079
1772366246120164600,2.80716455078125,-0.03615852409601211,0.0038336142129730432,0.0033030236007645726
1772366246130234400,2.817234375,-0.025679215657711026,-0.0009134250504896044,-0.0006535320052877069
1772366246140304600,2.8273046875,-0.03210778740048408,0.002383671132987365,-0.009176299548335373
1772366246150374700,2.837374755859375,-0.03510112399756908,0.003102304263738915,-0.0006261690743267536
1772366246160445700,2.84744580078125,-0.040188218003511425,0.0011502020815853029,0.0031209815647453066
1772366246170515500,2.857515380859375,-0.024779051947593687,0.007892808209592476,-0.002001731743849814
1772366246180585700,2.867585693359375,-0.03375497008562088,0.004725411953544244,0.004479702697321773
1772366246190655700,2.87765576171875,-0.02940437366068363,-0.003396373573178425,-0.0014303615966811776
1772366246200726500,2.8877265625,-0.04107902936339378,0.0012295965938828885,0.00509341414887458
1772366246210796500,2.897796630859375,-0.03165127580463886,-0.001324544868338853,-0.001038658865354955
1772366246220866600,2.907866455078125,-0.034036125114560126,0.0059137358221225435,-0.002765921049378812
1772366246230936600,2.9179365234375,-0.018627543580532074,0.00538130031269975,0.0022909239487722516
1772366246241007600,2.928007568359375,-0.028801147070527076,0.0022104243247769773,0.0033930765043944117
1772366246251077600,2.93807763671875,-0.03837152397036552,0.0038887054010760037,0.011930895486101507
1772366246261147400,2.9481474609375,-0.03208206843733787,-0.005030669377278536,-0.0033672114107757803
1772366246271218400,2.958218505859375,-0.03730886317491531,0.0042811022521462285,-0.002526303607225418
1772366246281288700,2.968288818359375,-0.033870120897889135,0.00431861211778596,0.0018965908689424394
1772366246291358700,2.978358642578125,-0.025797873601317405,-0.012058257325971499,-0.003652129299379885
1772366246301428500,2.988428466796875,-0.023852000230550764,0.006993895741645246,-0.0018293343190103769
1772366246311499500,2.99849951171875,-0.030884383085370063,0.003413836164632812,0.004174216944724321
1772366246321569800,3.00856982421875,-0.028935002583265302,0.0008954601355362683,-0.002759162515029311
1772366246331639600,3.0186396484375,-0.028636311897635457,0.008303827562741934,0.0001981163879856467
1772366246341709600,3.02870947265625,-0.03520984506905079,-0.0016662435786332934,-0.000009535013325512408
1772366246351780600,3.038780517578125,-0.022782909694314003,-0.0018638485099654644,0.006577222965843975
1772366246361850600,3.0488505859375,-0.02488134327828884,0.00648267655018717,0.0070827248025685545
1772366246371920600,3.058920654296875,-0.033710546422004696,0.006430928096640855,0.002903941280581057
1772366246381990700,3.06899072265625,-0.036700375887751574,0.002742366643855348,0.00507653607930988
1772366246392061700,3.079061767578125,-0.024130817171931267,0.003034307928290218,0.0013310294080525636
1772366246402131500,3.08913134765625,-0.034896541336178775,0.00009766082135029137,-0.000006831599585711955
1772366246412201700,3.09920166015625,-0.04028583315908909,0.001215686799539253,0.007563055665418505
1772366246422272800,3.109272705078125,-0.022931378254294393,-0.0024776695593725887,-0.003728409405983984
1772366246432342500,3.119342529296875,-0.033550387424230575,0.0015636599869932979,0.0038700098337605595
1772366246442412500,3.12941259765625,-0.030113398712873458,0.005973859378369525,0.0013904314450919628
1772366246452482800,3.13948291015625,-0.028322423642873764,-0.0017006481717340648,-0.0006343889134004712
1772366246462553600,3.1495537109375,-0.02384089431464672,0.011115962374024093,-0.0024609467534348365
1772366246472623600,3.15962353515625,-0.04014671694934368,0.0035553087282460183,0.004060417839325964
1772366246482693600,3.169693603515625,-0.044025019687414166,0.006640460927784442,0.0007227613165974616
1772366246492763400,3.179763427734375,-0.03609481121003628,0.0006905395474284887,0.004457089006714522
1772366246502834400,3.18983447265625,-0.02082709945142269,-0.0015385164125822483,0.003972301164455711
1772366246512904700,3.19990478515625,-0.033845570978522296,0.004234568829834461,-0.0014040946442633866
1772366246522974500,3.209974365234375,-0.033396658167243,0.0008435929509811103,0.005051401638053357
1772366246533044500,3.22004443359375,-0.030248423269391058,0.0010857585432473569,0.0034016616696491836
1772366246543115500,3.230115478515625,-0.041321605947613714,-0.001678655535634607,0.00207731773070991
1772366246553185800,3.240185791015625,-0.030987843459844587,0.006591105360724031,0.0028696006195619702
1772366246563255600,3.250255615234375,-0.03337327729165554,0.0009530538079794496,0.007867737700417637
1772366246573325600,3.26032568359375,-0.039360535007715226,0.005963931639399379,0.003057597472332418
1772366246583396600,3.270396728515625,-0.036951135778427124,0.004823757761484012,0.00891231484990567
1772366246593466600,3.280466552734375,-0.02901215947270393,-0.004047183898417279,0.00043276539407670496
1772366246603536600,3.29053662109375,-0.03589373567998409,0.010388123023509978,0.002284859534166753
1772366246613607700,3.300607666015625,-0.03274725434780121,-0.00035184564497321843,0.0055206996502354735
1772366246623677400,3.310677490234375,-0.016436171016097068,-0.000674163801362738,0.004373758104816079
1772366246633747500,3.32074755859375,-0.01508709449470043,0.006564244753262028,-0.0005318053217604756
1772366246643817700,3.330817626953125,-0.01554068348109722,0.0056412116242107,0.0031281419578939674
1772366246653888800,3.340888671875,-0.019727029255032537,-0.0004190930617507547,-0.0023177388904616235
1772366246663958500,3.35095849609375,-0.024664485657215116,0.005434984995005652,0.00036876024715602393
1772366246674028500,3.361028564453125,-0.033195582637190815,0.003367357541248202,0.012031177522800862
1772366246684095200,3.37109521484375,-0.0382809230774641,0.009301259368564933,0.005190335184708237
1772366246694166300,3.381166259765625,-0.03738602006435394,0.000681981781637296,-0.0019250497784465551
1772366246704236300,3.391236328125,-0.028247020319104192,0.001941562521830201,0.0010660583289340139
1772366246714306000,3.40130615234375,-0.03078910601735115,-0.002946264318656176,0.0026409429628401994
1772366246724376300,3.411376220703125,-0.03348492097258567,-0.0011854377917479722,-0.0036652445092797276
1772366246734447400,3.421447265625,-0.029891280394792556,0.010616524951905012,0.005805069549567997
1772366246744517400,3.431517333984375,-0.021214637464284897,0.0004737184589728713,-0.0002199628936126828
1772366246754587100,3.441587158203125,-0.02375847672820091,0.0044552806421183045,0.0035330694969743486
1772366246764657200,3.4516572265625,-0.03842120833098888,0.006246611905144527,0.002535436761751771
1772366246774728200,3.461728271484375,-0.02584288178682327,-0.0045415432866197075,0.004366780374757945
1772366246784798200,3.471798095703125,-0.030478140372037887,0.004505385127849876,-0.00024900632500648496
1772366246794868200,3.4818681640625,-0.03078384532034397,0.009163978922879323,0.007999656984396279
1772366246804939300,3.491939208984375,-0.026302900514006612,0.0031827764882706106,0.001558591086231172
1772366246815009000,3.502009033203125,-0.026751228803396223,0.010738872689940034,0.004881524963863194
1772366246825079300,3.512079345703125,-0.02929506806731224,0.0017282120320945976,0.00520655566714704
1772366246835149300,3.5221494140625,-0.02660626737475395,0.011144951006490737,0.0007635317184031009
1772366246845220400,3.532220458984375,-0.03872165258228778,-0.0014743103362619876,0.005362184620276093
1772366246855290000,3.5422900390625,-0.021067337948083877,-0.002301710204267874,0.007408997614867985
1772366246865360400,3.5523603515625,-0.024657471394538878,0.010712596604367717,0.003535115323588252
1772366246875430100,3.56243017578125,-0.032439795833826064,0.008233529672352597,-0.002635061211325228
1772366246885501200,3.572501220703125,-0.0348258141875267,0.0097962215449661,-0.0011623583102598786
1772366246895571200,3.5825712890625,-0.03183306211233139,-0.002151771206408739,0.0013826865300536155
1772366246905641200,3.59264111328125,-0.025697920358180998,0.000733638903638348,0.000831628518551588
1772366246915711200,3.602711181640625,-0.03496493039727211,0.009597794629726559,0.0018235986979678273
1772366246925782300,3.6127822265625,-0.029576223096251485,0.0003678651980124414,0.0017205401822924613
1772366246935852300,3.622852294921875,-0.02433715339899063,0.002202067488385364,0.0052072497868910425
1772366246945922000,3.632922119140625,-0.03061433397233486,0.003573036181181669,0.0032855244766920805
1772366246955992300,3.642992431640625,-0.025671616873145103,0.008906159103754908,-0.0009260288037359714
1772366246966063400,3.6530634765625,-0.03704115214943886,0.001876963719865307,-0.0007154913255944848
1772366246976133000,3.663133056640625,-0.030596213793754577,0.003368161258846521,-0.0023066329745575786
1772366246986203100,3.673203125,-0.023857260927557945,0.005584175074193626,0.004232997927255928
1772366246996274200,3.683274169921875,-0.03821604114770889,0.0053590884808916595,0.013793401422351598
1772366247006344200,3.69334423828125,-0.02294949843287468,0.004218275282159447,-0.002905366052687168
1772366247016414200,3.703414306640625,-0.02131166809797287,0.002505617012223229,0.003953742594458163
1772366247026484200,3.713484130859375,-0.033279169267415996,0.010437186329625547,0.004481785056553781
1772366247036555300,3.72355517578125,-0.031927754658460615,0.008838044037297368,0.006218253460340202
1772366247046625000,3.733625,-0.02504208679795265,0.001227486835187301,0.0038443639358505606
1772366247056695300,3.7436953125,-0.02893558710515499,0.001817095891945064,0.004407331580854952
1772366247066765300,3.753765380859375,-0.021906126859784124,0.004501887129666283,0.000739748984016478
1772366247076836000,3.763836181640625,-0.019817045626044274,0.007941771051008253,0.0028505671255290507
1772366247086906000,3.773906005859375,-0.026551322317123413,0.000008484700554981827,-0.0008995061229914427
1772366247096976400,3.783976318359375,-0.03612520634829998,0.00033511370588093996,0.0029144992072135207
1772366247107046100,3.794046142578125,-0.03432078727483749,0.0104593159630429,0.002672762873210013
1772366247117117200,3.8041171875,-0.03537175763249397,0.0038385187169536947,0.004239098874479532
1772366247127187200,3.814187255859375,-0.030278233885765074,0.008761727398075164,0.00854702520146966
1772366247137257200,3.82425732421875,-0.02698620660305023,0.0026174798888619986,0.011433175097033382
1772366247147328300,3.834328369140625,-0.03701660223007202,0.010878335959557443,0.002047616712190211
1772366247157398300,3.844398193359375,-0.035975568744540214,0.00819382784962654,0.0020252222172915933
1772366247167468300,3.85446826171875,-0.026402269235253333,0.004700332311214879,0.005823883847892284
1772366247177538000,3.8645380859375,-0.02341302429139614,-0.0009176080352626741,0.0027687340609729287
1772366247187609000,3.874609130859375,-0.02237082176208496,-0.006806903535872697,0.004141995175555348
1772366247197679400,3.884679443359375,-0.024022680622339247,0.004937639065273106,0.009525916703604162
1772366247207749000,3.8947490234375,-0.02671615749001503,-0.0030765213685110208,-0.0033587723759934303
1772366247217819100,3.904819091796875,-0.03674246146380901,0.005537742116581648,0.001102481349185109
1772366247227890200,3.91489013671875,-0.027314123383164406,0.007240664443792775,0.005146715238690376
1772366247237960400,3.92496044921875,-0.026566519886255264,-0.000938468160200864,0.005409896219521761
1772366247248030200,3.9350302734375,-0.025820669955015182,-0.002263369221566245,-0.0004733166001737118
1772366247258100200,3.945100341796875,-0.0231271930873394,0.0014993534459732472,0.01030245403405279
1772366247268171300,3.955171142578125,-0.02792027258276939,0.010799051045114173,0.005876563883200288
1772366247278241300,3.9652412109375,-0.030164836639165877,0.0027401381541509178,0.00048296121135354037
1772366247288311300,3.975311279296875,-0.028221885877847668,-0.008115666313190013,0.0044886531887575985
1772366247298382300,3.98538232421875,-0.028361586609482764,0.0005151099152863025,0.007098835687153041
1772366247308449300,3.99544921875,-0.028352234259247776,0.003161596702923998,0.0015764190038666129
1772366247318520300,4.005520263671875,-0.031039865908026692,-0.003978319913288579,0.0057258303008973594
1772366247328590000,4.015590087890625,-0.028338790255784986,0.0005605108264368027,0.003502016771584749
1772366247338660400,4.025660400390625,-0.02594926477074623,-0.002693193739885464,0.0008688187237828969
1772366247348731400,4.0357314453125,-0.024758593681454655,0.00658279419010505,0.0010229498395696282
1772366247358801200,4.04580126953125,-0.01413549285829067,0.006328116176137701,0.0023482070939615366
1772366247368871200,4.05587109375,-0.016982698982954025,0.007884506172128021,0.001044248355925083
1772366247378941200,4.065941162109375,-0.033144729232788085,-0.001877712638536468,0.008790295905433594
1772366247389012200,4.07601220703125,-0.02342003855407238,0.004833658100990578,-0.00352031961325556
1772366247399082200,4.086082275390625,-0.02806757209897041,0.005614789408165961,-0.0007191445874050259
1772366247409152300,4.09615234375,-0.04183247807919979,0.010182389584649353,0.0031901012782007453
1772366247419222000,4.106221923828125,-0.03150923698544502,0.00605433160290122,0.0046353316504508255
1772366247429293000,4.11629296875,-0.015353051954507826,0.009143191863177344,0.005866773141548037
1772366247439363300,4.12636328125,-0.022537410500645637,0.005119553237129003,-0.003146225603856146
1772366247449433300,4.136433349609375,-0.029126141241192817,0.009399166785087436,0.0036135508546605703
1772366247459503000,4.146503173828125,-0.039759178936481475,-0.001684455088758841,0.012698263129405677
1772366247469574100,4.15657421875,-0.02778700159192085,0.0037922410229686647,0.003460040793381631
1772366247479644400,4.16664453125,-0.03018471038341522,0.005835409888904542,0.002064129455573857
1772366247489714200,4.176714111328125,-0.036163200271129604,0.009897398630809039,-0.0022920564599335194
1772366247499785200,4.18678515625,-0.03480594044327736,0.004046033120946958,0.007024272613599896
1772366247509855200,4.196855224609375,-0.02821837874650955,0.0016153079758398233,0.004846672846190631
1772366247519925000,4.206925048828125,-0.032249241697788235,0.0026220647324342278,0.003731770406849682
1772366247529995300,4.216995361328125,-0.025960370686650275,-0.007604894646303728,0.009203589414060116
1772366247540066300,4.22706640625,-0.02954991961121559,0.008351749224541708,0.005344466300494968
1772366247550136300,4.23713623046875,-0.03314882088601589,0.006389847167581319,0.008905848576501011
1772366247560206000,4.2472060546875,-0.021332710886001586,-0.002655629075318575,0.00357581266015768
1772366247570276400,4.2572763671875,-0.02328618304133415,0.0030798275704495607,-0.00003773819450289011
1772366247580347400,4.267347412109375,-0.022847791624069212,0.006079137250594794,0.003615048692002892
1772366247590417200,4.277417236328125,-0.03901157543957233,0.0031405173822771754,0.006403145040571689
1772366247600487200,4.287487060546875,-0.021505729365348815,0.0019579291347414252,-0.0011135141998529433
1772366247610558200,4.29755810546875,-0.038116087904572486,-0.004979057921050116,-0.0015844927124679087
1772366247620628200,4.307628173828125,-0.033327684584259984,0.013040071437554434,0.0019867899030447003
1772366247630698200,4.3176982421875,-0.02675532045662403,-0.0025730105594731867,0.006499773815460502
1772366247640768300,4.327768310546875,-0.025708441752195357,-0.0010871924485079943,0.001250986441783607
1772366247650839300,4.33783935546875,-0.022415829947590827,0.006176478411536663,0.004240633244439959
1772366247660909000,4.347908935546875,-0.02929799067676067,-0.011526214542193337,-0.0038146263847127554
1772366247670979300,4.357979248046875,-0.031987960413098336,0.006237588348472491,0.0013321619192138312
1772366247681049000,4.368049072265625,-0.031236265262961384,0.008187306777294725,0.009798742295615375
1772366247691119600,4.37811962890625,-0.029437691408395767,0.007909238754585384,-0.0027044366531074047
1772366247701189600,4.388189697265625,-0.03258475726246834,0.004108302968507632,-0.001030219830572605
1772366247711259600,4.398259765625,-0.02167056453824043,-0.003303014467610046,0.002933861494809389
1772366247721330700,4.40833056640625,-0.021661796709895133,0.00030502909487113353,0.005086947875469923
1772366247731400700,4.418400634765625,-0.03587853811085224,0.01443043895056471,0.00461355821006
1772366247741470500,4.428470458984375,-0.029592005187273025,0.010483363558910786,0.000642535687237978
1772366247751540700,4.438540771484375,-0.03752513627409935,0.002028939411183819,0.005692366422712802
1772366247761611800,4.44861181640625,-0.02046586492359638,0.0057007689248770475,0.002723543212376535
1772366247771681500,4.458681640625,-0.03407470355927944,0.0006938548825215548,0.006480374995246529
1772366247781751600,4.46875146484375,-0.03257891204357147,0.005494697559298947,0.003294876826927066
1772366247791821800,4.47882177734375,-0.03572422433197498,0.005043063067970797,0.005028934077918529
1772366247801892900,4.488892822265625,-0.030340777727961538,0.0035731731784995643,-0.0008707914851605892
1772366247811962600,4.498962646484375,-0.020014614024758338,0.001250831178156659,0.0013791428660973905
1772366247822032600,4.50903271484375,-0.032737901997566224,-0.0012354692122433335,0.00426244321744889
1772366247832103700,4.519103759765625,-0.034982466053962706,0.002117330080689862,-0.005758526994101703
1772366247842173700,4.529173583984375,-0.038872459229826926,0.006410058838548139,-0.002757774275541305
1772366247852243700,4.53924365234375,-0.03318038506805897,0.001717370977671817,0.00453673011418432
1772366247862313700,4.549313720703125,-0.027789339679479597,0.002093382949521765,-0.0006172551155090331
1772366247872384500,4.559384521484375,-0.03347264601290226,0.005801626350311562,0.0007878259094431996
1772366247882454500,4.56945458984375,-0.025095862811803815,0.003896559913968667,0.007605944959074258
1772366247892524800,4.57952490234375,-0.022850129711627958,0.0020458996791392564,0.007178257598914206
1772366247902597600,4.58959765625,-0.03886252235770225,0.012130820238683372,0.004289806148409844
1772366247912667600,4.599667724609375,-0.03571779459118843,0.0034334907131735233,0.002690809986554086
1772366247922737700,4.609737548828125,-0.02988543517589569,-0.000021435513673350214,0.005002046070992946
1772366247932808700,4.61980859375,-0.0309393281430006,0.00921486885990016,0.00008767828345298767
1772366247942878700,4.629878662109375,-0.028397242444753647,0.016301265190588308,-0.00307111454103142
1772366247952948500,4.639948486328125,-0.027965280768275258,0.008491413423558697,0.002377360123209655
1772366247963018800,4.650018798828125,-0.0209399121761322,0.0002423117227386683,-0.004527487361803651
1772366247973089800,4.66008984375,-0.03651274436116218,-0.0013498071737587452,-0.0028103447129949927
1772366247983159600,4.67015966796875,-0.04026069871783256,0.005314573485730216,0.00589143265876919
1772366247993229600,4.6802294921875,-0.03488134376704693,0.005893807278946042,0.006007460253871977
1772366248003300600,4.690300537109375,-0.024115035080909727,0.0010531531815882772,-0.0010485226722434162
1772366248013371000,4.700370849609375,-0.027414661148190498,-0.00017933862227946518,0.00532908606827259
1772366248023440600,4.710440673828125,-0.0313140066742897,-0.0043340745483990755,0.0027170038737356662
1772366248033510700,4.7205107421875,-0.03744681034088135,0.0014497147511225194,0.0023017741363495587
1772366248043581700,4.730581787109375,-0.026075521498918532,0.0037629692627117036,0.00465703202560544
1772366248053651500,4.7406513671875,-0.03505202415883541,0.006867885608645156,-0.0011169847985729574
1772366248063721700,4.7507216796875,-0.035358898150920866,0.004526711043668911,-0.004873085929080844
1772366248073791700,4.760791748046875,-0.021138065096735954,-0.004388425950985402,-0.0007284604050219059
1772366248083862500,4.770862548828125,-0.019494974064826965,-0.004457490865513682,0.0059262847764417525
1772366248093932500,4.7809326171875,-0.030870354560017584,0.010868006361788139,0.0028850904496386647
1772366248104002800,4.7910029296875,-0.03356558499336242,0.006000528189586475,0.004504252616688609
1772366248114073900,4.801073974609375,-0.02788987744450569,0.004597218996612354,0.0033623160399496553
1772366248124143600,4.8111435546875,-0.02879004115462303,0.007099566339515149,-0.0055261795429512855
1772366248134213600,4.821213623046875,-0.02370528523623943,0.0030014833709225055,-0.003362389105185866
1772366248144283600,4.83128369140625,-0.019072364738583564,-0.007990395965706557,0.002181399159692228
1772366248154354700,4.841354736328125,-0.019969021317362785,-0.0027827169205527752,0.005220511127263307
1772366248164424700,4.8514248046875,-0.027307693642377853,-0.004438475637789816,0.00422072296757251
1772366248174494700,4.86149462890625,-0.028206103786826132,-0.003030015345662832,-0.003860036429017782
1772366248184564500,4.871564453125,-0.02401683540344238,0.0017692290290724484,-0.001774827652797103
1772366248194635500,4.881635498046875,-0.026107670202851294,0.0013059040999505668,-0.00033975334838032723
1772366248204705800,4.891705810546875,-0.028202012133598325,0.005643622777005657,0.00953914151135832
1772366248214775600,4.901775634765625,-0.02566694069802761,0.003974173461133614,-0.004682239532098174
1772366248224846600,4.9118466796875,-0.03135667677223682,-0.003881216214364394,0.003330861455760896
1772366248234916600,4.92191650390625,-0.025821838998794554,0.0015536135170143097,0.0034922990951687096
1772366248244986600,4.931986572265625,-0.033600071784853934,0.003918762612622231,0.00016775778234004974
1772366248255056600,4.942056640625,-0.022685879060626028,0.00009342303765006363,-0.0015246522840112447
1772366248265127700,4.952127685546875,-0.016548399218916893,-0.0020673351928126066,0.003193352681212127
1772366248275197700,4.96219775390625,-0.02552957805395126,0.0005988335428293794,0.0001597206063568592
1772366248285267700,4.972267822265625,-0.018490765458345413,0.011192479942645876,-0.001513327172398567
1772366248295337700,4.982337646484375,-0.02358428920507431,0.0142140014545992,-0.001484539469331503
1772366248305408800,4.99240869140625,-0.03525894490778446,0.00108004118851386,-0.003936974122747778
1772366248315478500,5.002478515625,-0.030322073027491566,-0.002768898457754403,0.005022358206659555
1772366248325548500,5.012548583984375,-0.025234394499659536,-0.003383943349868059,0.005024148304946721
1772366248335619600,5.02261962890625,-0.026582886499166486,-0.0026482129538431764,-0.012977993386238812
1772366248345689600,5.032689697265625,-0.033173370805382726,0.004004842594033107,-0.0011646233325824141
1772366248355759600,5.042759521484375,-0.031229251000285146,0.007917696055676788,0.0003179799079895019
1772366248365829600,5.05282958984375,-0.026281857725977895,-0.0019124642915092408,-0.0001121916702017188
1772366248375900700,5.062900634765625,-0.031975685453414913,0.008099381898669525,0.00137954472489655
1772366248385970700,5.072970703125,-0.02883797194957733,0.005975320683093741,0.0005204436775296926
1772366248396040700,5.083040771484375,-0.023603578427433967,0.0037143443480134007,0.004489201178029179
1772366248406110500,5.0931103515625,-0.02824059057831764,0.004980665356246754,0.003489961007609963
1772366248416181500,5.103181396484375,-0.02316167987883091,0.007897539183637127,-0.006255991654843092
1772366248426251800,5.113251708984375,-0.024955577558279037,0.009112403999269008,0.0024696780491620302
1772366248436321800,5.12332177734375,-0.016273673930764197,0.00007836246583610773,0.003750292444229126
1772366248446391600,5.1333916015625,-0.023308979395031928,0.010700275978911667,-0.003194850518554449
1772366248456462600,5.143462646484375,-0.02450491118133068,0.010808412528503685,0.00030691052470356226
1772366248466532600,5.15353271484375,-0.020755787780880927,0.005389748480636626,-0.0034094796499237415
1772366248476602600,5.1636025390625,-0.026143326038122177,0.0008339209403377026,0.0004526026057079434
1772366248486673700,5.173673583984375,-0.019262334352731704,0.000978014719299972,0.004290646398626268
1772366248496743700,5.18374365234375,-0.028988778597116467,-0.0030743568108882752,0.008176109529845417
1772366248506813400,5.1938134765625,-0.020160744497179982,-0.001732358484249562,0.008314239358901977
1772366248516883700,5.2038837890625,-0.016273673930764197,0.010185586188733577,0.011545585962943732
1772366248526954800,5.213954833984375,-0.021813772401213644,0.007476793020917102,-0.0005028349556028842
1772366248537024800,5.224024658203125,-0.022861235627532003,0.0012956749668810515,-0.0005485737934708594
1772366248547094500,5.234094482421875,-0.01583703607916832,0.007514357685483992,0.002084587721712887
1772366248557165600,5.24416552734375,-0.01120937627851963,0.00305599003713578,0.005893332354910671
1772366248567235600,5.254235595703125,-0.02019756937623024,0.0017086670814082025,0.009712598382122814
1772366248577305600,5.2643056640625,-0.01960018800497055,0.0029673619056120515,0.002479432258196175
1772366248587375600,5.274375732421875,-0.02813479211628437,-0.002530395260453224,-0.00047265901304781435
1772366248597446700,5.28444677734375,-0.024248890593647956,-0.0037033845625817773,-0.0032921003479510543
1772366248607516400,5.294516357421875,-0.029342998862266538,0.0004216046792455017,0.005976005669683217
1772366248617586700,5.304586669921875,-0.020660510712862012,-0.003292009016405791,0.003188566908240318
1772366248627656700,5.31465673828125,-0.03562134847939014,0.0019120624327100813,0.007583039007522165
1772366248637727700,5.324727783203125,-0.010787351474165915,0.008847149792360141,-0.002705021174997091
1772366248647797500,5.334797607421875,-0.0149795424669981,-0.00332211189372465,-0.005795132677443325
1772366248657867800,5.34486767578125,-0.01977612909376621,-0.00001556289531290531,0.00431084893643856
1772366248667938800,5.354938720703125,-0.010498013138771056,0.0013579448144417255,0.0008986658727750182
1772366248678008600,5.365008544921875,-0.01334521926343441,0.006650918389717117,0.002009659321978688
1772366248688083200,5.375083251953125,-0.019181670331954954,0.0019786431292071935,0.001692629262059927
1772366248698153200,5.3851533203125,-0.012594108635187149,0.004349582644784823,0.00008581511992961168
1772366248708224300,5.395224365234375,-0.017234627917408943,0.00989676844314672,-0.0005529942402616143
1772366248718294000,5.4052939453125,-0.007660159364342689,0.002207958373054862,0.00076433543600142
1772366248728364300,5.4153642578125,-0.013647417080402374,0.0031641996519640087,0.0028649244444444773
1772366248738435300,5.425435302734375,-0.01724164218008518,0.004242450742190704,0.0017616759102791547
1772366248748505000,5.435505126953125,-0.021433833172917364,0.0064405909741297365,0.0014398966100066899
1772366248758575000,5.4455751953125,-0.010061375287175179,0.00043811742262914774,-0.002751965589262545
1772366248768645400,5.455645263671875,-0.010364157626032829,0.0028119064824189987,0.0013466653686016797
1772366248778716400,5.46571630859375,-0.0171013569265604,0.007725525351287797,0.00007175006195902824
1772366248788786200,5.4757861328125,-0.0087228201597929,0.016893020538659764,0.002451557870581746
1772366248798856200,5.485856201171875,-0.019799509969353674,0.009525341314869,0.0023986951721832153
1772366248808927200,5.49592724609375,-0.02115209362208843,0.003681976448372006,0.0012156228674575686
1772366248818997200,5.505997314453125,-0.0121779290497303,0.003729158324655145,0.003832527367584407
1772366248829067300,5.5160673828125,-0.01068038396835327,0.010010768477944656,-0.004187039893679321
1772366248839137300,5.52613720703125,-0.009776128605008125,0.005973786313133314,-0.004937639065273106
1772366248849208000,5.5362080078125,-0.013814005818963051,0.0004103343665599823,-0.006996580889075994
1772366248859278000,5.546278076171875,-0.016806173372268675,-0.0003693539022002369,0.0056101314993575215
1772366248869348400,5.556348388671875,-0.010814824002981185,0.0037783586280886084,0.007076331594400107
1772366248879419400,5.56641943359375,-0.008114917394518853,-0.0002494173169601708,-0.0010088847815990446
1772366248889489200,5.5764892578125,-0.018141221368312834,0.008742008917452767,0.002873436544463038
1772366248899559200,5.58655908203125,-0.017246902877092362,0.0029991270170547065,0.0026691096113994717
1772366248909629200,5.596629150390625,-0.013508300870656966,0.0015839081905782222,0.007271744568645953
1772366248919700200,5.6067001953125,-0.011265490379929542,-0.000014722645096480846,-0.00397255689278245
1772366248929770200,5.616770263671875,-0.0226391173094511,0.00605939137050882,0.002602839442156255
1772366248939840300,5.62684033203125,-0.012318798825144767,0.006896170988213271,0.007457659062184393
1772366248949911000,5.6369111328125,-0.019202128598093986,0.0034021274605300278,-0.0028791356328874826
1772366248959981300,5.646981201171875,-0.013518237742781639,0.0002039524737279862,-0.004436521142721176
1772366248970051300,5.65705126953125,-0.02130465383529663,0.0005690959916915744,-0.003564597146399319
1772366248980122400,5.667122314453125,-0.01951835494041443,0.003362407371494919,0.0013060776298865675
1772366248990192000,5.677192138671875,-0.0129360539406538,0.005100355346314609,0.0009937968103215097
1772366249000262100,5.68726220703125,-0.017570143482089042,0.001967500680685043,0.002741663390956819
1772366249010332200,5.697332275390625,-0.012035305708646773,0.00008502053548581897,0.006018858430720865
1772366249020403200,5.7074033203125,-0.02400339139997959,0.0026846085746306926,-0.001538790407218039
1772366249030473200,5.71747314453125,-0.018019640815258024,0.005229954809043556,0.003513049622252583
1772366249040543200,5.727543212890625,-0.021163784059882163,-0.00030086437640711666,0.004364844145998358
1772366249050614000,5.737614013671875,-0.003955459627509117,-0.0013263440997805446,0.001673559235408902
1772366249060684300,5.747684326171875,-0.019219079732894898,0.005687772445986047,0.0005018120422959327
1772366249070754300,5.75775439453125,-0.024010990184545517,0.003968757500499486,0.0010067293571308254
1772366249080824000,5.767823974609375,-0.02191372564435005,0.004037420556228607,-0.006140512049011886
1772366249090895000,5.77789501953125,-0.013679565784335136,0.004799627967225387,0.00019727613776922225
1772366249100965400,5.78796533203125,-0.008436404433846472,0.004361400946741923,0.0025704715425148607
1772366249111035100,5.79803515625,-0.017396540480852127,-0.0008620601894333958,0.0013239055475220084
1772366249121106200,5.808106201171875,-0.022770050212740898,0.003879453515540808,0.004908632166497409
1772366249131176200,5.81817626953125,-0.012731471279263495,-0.0006451660357415676,0.000426554848998785
1772366249141246200,5.82824609375,-0.01107610528767109,0.004401029704231768,0.005708952231332659
1772366249151317000,5.83831689453125,-0.02198912896811962,0.002766021514078602,-0.0003759206403046846
1772366249161387300,5.84838720703125,-0.009262918385863303,-0.0002730173882562667,0.002942811986245215
1772366249171457300,5.858457275390625,-0.015388123267889022,-0.003145029160613194,-0.0026815307015553114
1772366249181528300,5.8685283203125,-0.022719196808338164,0.007368784335488453,0.0006212737035006284
1772366249191598000,5.87859814453125,-0.01957096191048622,0.003957350190496072,0.00445869644191116
1772366249201668400,5.88866845703125,-0.021660043144226072,-0.00750857639866881,-0.0027647885382175445
1772366249211738000,5.898738037109375,-0.02539806062877178,0.004161001270124688,0.002688691094703972
1772366249221809200,5.90880908203125,-0.012970540732145309,-0.0005255125782918185,0.003890760360844433
1772366249231879200,5.918879150390625,-0.015962123763561247,-0.0012892086934763937,0.004358670133538544
1772366249241949400,5.928949462890625,-0.007139934882521629,0.00611691197771579,0.003303315861709416
1772366249252020200,5.939020263671875,-0.0004167641073465347,0.008154226491600275,0.005901479128748178
1772366249262090200,5.94909033203125,-0.020172434934973716,0.003567985546728596,-0.004666567038930952
1772366249272160300,5.95916015625,-0.016136895808577537,0.008282556445850058,-0.005508790016733109
1772366249282231300,5.969231201171875,-0.028116087415814398,0.005661039702687412,-0.005489025870338082
1772366249292301000,5.979301025390625,-0.019291560447216034,0.008730683805840089,-0.00810465172883123
1772366249302371300,5.989371337890625,-0.02003974846601486,0.010888692956790328,-0.00001435731891542673
1772366249312442400,5.9994423828125,-0.014491466689109802,0.018300658846879377,0.00027172961346805095
1772366249322512100,6.00951220703125,-0.014181085565686225,0.003927484775194898,0.00903754866477102
1772366249332582100,6.01958203125,-0.027197803527116773,0.004653753223130479,0.0032386896602809427
1772366249342652400,6.02965234375,-0.019714169773459432,0.01110835445630364,0.008219364149682223
1772366249352723200,6.03972314453125,-0.023902269113063812,0.009020862391451372,0.0043701779082417486
1772366249362793200,6.049793212890625,-0.020303952360153196,0.0028842136668041345,0.0009262479994446038
1772366249372863200,6.05986328125,-0.008929156386852264,0.007470920402556657,-0.003513853339850902
1772366249382934300,6.069934326171875,-0.013720482316613197,0.007332315649464726,-0.0010757029401138425
1772366249393004300,6.08000439453125,-0.03093231388032436,0.0047094380662776525,0.008261047866940497
1772366249403074300,6.09007421875,-0.018367431339621543,0.0035367136256303634,-0.0006586831044405699
1772366249413145300,6.100145263671875,-0.014334814822673797,0.007487506211176514,-0.013122406825609504
1772366249423215000,6.110215087890625,-0.02676058115363121,-0.0014813519984018056,0.0040833603234961624
1772366249433285000,6.12028515625,-0.02198211470544338,-0.006378147596633061,0.004139949348941445
1772366249443356200,6.130356201171875,-0.021986790880560873,-0.00233152082064189,-0.0006454217640683055
1772366249453426200,6.14042626953125,-0.013617606464028358,-0.0028237156512215733,-0.0070113400667905805
1772366249463496200,6.15049609375,-0.024991233393549916,0.0032921003479510543,-0.004347856478579342
1772366249473567200,6.160567138671875,-0.027837270474433896,0.003536804957175627,-0.003236059311777353
1772366249483637200,6.17063720703125,-0.021406945165991783,0.006781540765753016,-0.0028484117010608313
1772366249493707300,6.180707275390625,-0.020366496202349663,0.012841607989696784,-0.0031354119488969444
1772366249503777300,6.19077734375,-0.024112112471461295,-0.001323458022950217,-0.0019097426114603876
1772366249513848300,6.200848388671875,-0.015435469540953635,-0.0056760272092651574,-0.00002586509361863136
1772366249523918000,6.21091796875,-0.018275076881051063,0.0019009382504969834,0.0018318550696596503
1772366249533988400,6.22098828125,-0.01990998460650444,-0.001465442043216899,0.0011725509107112884
1772366249544059400,6.231059326171875,-0.01945814918577671,0.004485420052055269,-0.005987805705331265
1772366249554129200,6.241129150390625,-0.014963175854086875,0.00480710802078247,0.0011366393471136688
1772366249564199200,6.25119921875,-0.019739304214715956,0.006940466787666082,0.0026146760104224084
1772366249574270200,6.261270263671875,-0.023176292926073074,0.011213376600202172,0.00210614196639508
1772366249584340200,6.27134033203125,-0.023773089775443075,-0.001401829621940851,-0.0038149917108938097
1772366249594410200,6.28141015625,-0.012546762362122535,-0.0020433971947990356,0.0026791560813784598
1772366249604481300,6.291481201171875,-0.02031856540739536,0.015147144985711201,-0.0014509294606745242
1772366249614551300,6.30155126953125,-0.022716274198889733,0.004399066076008603,-0.00706190121024847
1772366249624621000,6.31162109375,-0.014336568388342857,-0.0008057360254693776,-0.0010637933066114783
1772366249634692000,6.321692138671875,-0.02317161675095558,0.0046788602649234234,-0.005831409567221999
1772366249644762400,6.331762451171875,-0.021827800926566124,0.0025522417660802602,-0.00305957023371011
1772366249654832000,6.34183203125,-0.027964111724495887,0.0016503336234483866,0.0007743819059804082
1772366249664902100,6.351902099609375,-0.025710195317864417,-0.0007228891807608306,0.002785502532683313
1772366249674973200,6.36197314453125,-0.02226151616871357,0.009732828319398685,-0.0012524477465078233
1772366249685039900,6.372039794921875,-0.03408171782195568,0.005454986603418365,-0.0001989931708201766
1772366249695110000,6.38210986328125,-0.033630466923117636,-0.001086069070501253,0.002669511470198631
1772366249705181000,6.392180908203125,-0.023451018214225766,0.0011231770773418247,0.004691518817096949
1772366249715251000,6.4022509765625,-0.015662848556041716,-0.008784532884927466,-0.0066775050025433295
1772366249725320700,6.41232080078125,-0.028237083446979522,0.0015115005414932966,-0.0033138007231056687
1772366249735391700,6.422391845703125,-0.028246435797214507,-0.0004274042323697358,-0.003245302064158022
1772366249745462000,6.4324619140625,-0.009252981513738632,0.0075044390796683725,-0.0007893237467855214
1772366249755531800,6.44253173828125,-0.020773323437571524,-0.004596296548005193,-0.008558532976172864
1772366249765602800,6.452602783203125,-0.023470891958475112,0.00265053277509287,-0.006725801123678684
1772366249775672800,6.4626728515625,-0.027224691534042358,0.015536171702761201,-0.002814472898840904
1772366249785743000,6.4727431640625,-0.023639818784594535,0.005841821363382041,-0.006506824610754847
1772366249795814000,6.48281396484375,-0.02664718390703201,0.010793288024608045,-0.0008421499125659466
1772366249805884000,6.4928837890625,-0.013326514562964438,0.0059945825059898195,0.0032635318405926225
1772366249815954000,6.502953857421875,-0.016170213556289673,0.004687089237151667,0.006097038233466446
1772366249826025000,6.51302490234375,-0.01648176372349262,0.0044565958163701,0.004355528328381478
1772366249836095000,6.523094970703125,-0.023521160840988157,0.0014187442241236567,0.001806976356729865
1772366249846165000,6.5331650390625,-0.022916765207052228,-0.00040925665432587266,0.0026697306659072637
1772366249856236000,6.543236083984375,-0.02410977438390255,-0.0037819114251993594,0.008283113568276166
1772366249866305800,6.553305908203125,-0.023511223968863487,0.002716656813863665,-0.006070113693922758
1772366249876375800,6.563375732421875,-0.016178396862745283,0.005859813677798956,-0.005601327138394117
1772366249886446000,6.573446044921875,-0.024102760121226308,0.0019288857033476232,0.0021605390347540377
1772366249896516900,6.583516845703125,-0.02755143927037716,0.004818469665013253,0.0065009793918579814
1772366249906587000,6.5935869140625,-0.02320902615189552,-0.006221349599724635,0.0049256198339164255
1772366249916657000,6.603656982421875,-0.02051788737177849,-0.007512750250287354,0.004437690186500549
1772366249926727700,6.613727783203125,-0.02306757185459137,0.00846436101985164,-0.0023656696854159236
1772366249936798000,6.6237978515625,-0.025311551389098165,-0.003119949518283829,-0.0009884630480781198
1772366249946868000,6.633867919921875,-0.0224649297863245,0.003995709439506754,-0.0018168766962364314
1772366249956939000,6.64393896484375,-0.026951135289669036,0.004745696689747274,0.000045117783360183234
1772366249967008800,6.6540087890625,-0.022913842597603797,0.007915166171872988,-0.003305580884031951
1772366249977079000,6.6640791015625,-0.028310148683190345,0.005704139058897271,-0.0018659400023519992
1772366249987150000,6.674150146484375,-0.02053133137524128,0.001266156611451879,-0.0010362111799418925
1772366249997219800,6.6842197265625,-0.028611761978268622,0.0041544253988657145,0.0012114581489935518
1772366250007289900,6.694289794921875,-0.032360885378718375,-0.001636186367087066,-0.0052390696972608565
1772366250017361000,6.70436083984375,-0.027874095353484153,-0.0013751516775693743,0.004916742407716811
1772366250027430700,6.7144306640625,-0.023834464573860167,-0.000738790002791211,0.0041630379635840655
1772366250037501000,6.7245009765625,-0.020548867031931876,0.0018544596271123737,0.0002491159228608012
1772366250047572000,6.734572021484375,-0.019513678765296937,0.0015602989861276,-0.0018154519241303205
1772366250057642000,6.74464208984375,-0.024608371555805204,0.006685131186572835,-0.000306179872341454
1772366250067711700,6.754711669921875,-0.02999532529115677,0.007063864838471635,-0.0031369463188573718
1772366250077782800,6.76478271484375,-0.03252747411727905,0.004824735009018331,-0.005901844454929232
1772366250087853000,6.77485302734375,-0.03506780624985695,-0.0004853632309939712,-0.011017360837757588
1772366250097922800,6.7849228515625,-0.027886954835057258,0.0029930991350673136,0.006318973888456821
1772366250107992800,6.794992919921875,-0.019057167169451713,0.0004318886112421751,0.0025942542769014833
1772366250118063900,6.80506396484375,-0.020704349854588508,0.0020843137270770964,-0.004763415009528398
1772366250128134000,6.8151337890625,-0.034628830310702324,-0.0010787260142620652,-0.007789411767199635
1772366250138204000,6.825203857421875,-0.02775134575664997,-0.0009551087677478789,0.0038987244715914127
1772366250148275000,6.83527490234375,-0.014589666366577148,0.01077111272541806,-0.0002727890593931079
1772366250158345000,6.845344970703125,-0.018041268125176427,0.0024957258058711886,-0.005134440279006958
1772366250168414700,6.855414794921875,-0.02762099737524986,0.005098035525064915,0.0021372677570208904
1772366250178485800,6.86548583984375,-0.027777649241685867,0.0008659509132616221,0.00017977701369673013
1772366250188556000,6.87555615234375,-0.031977439019083974,-0.0020141984997782856,0.0038445465989410876
1772366250198625800,6.885625732421875,-0.022853052321076393,0.0019778394116088745,0.004090557249262929
1772366250208696800,6.89569677734375,-0.03153261786103249,0.010114055322483181,-0.0030833895007148383
1772366250218766800,6.905766845703125,-0.025548867276310918,0.007670452429493889,-0.004040580627694725
1772366250228836900,6.9158369140625,-0.020607903742790222,0.005642800793098286,-0.008208440896868705
1772366250238908000,6.925907958984375,-0.013572013756632804,0.002553429076168686,0.0012518266920000314
1772366250248978000,6.93597802734375,-0.02420505145192146,0.012115467405924573,-0.001327083885297179
1772366250259048000,6.9460478515625,-0.024804770910739897,0.011347314311331137,-0.00001720686312764883
1772366250269118700,6.95611865234375,-0.02540507489144802,0.011861273449147119,-0.0030612142015248537
1772366250279189000,6.96618896484375,-0.044999417677521705,0.001973555962136015,-0.00378887088894844
1772366250289259000,6.976259033203125,-0.034518355673551555,0.009236039512092247,0.0021717180158942937
1772366250299330000,6.986330078125,-0.02059796687066555,0.006916336993407457,0.0019511706003919242
1772366250309399800,6.99639990234375,-0.015207506003975867,0.012438872407702728,0.0029538813695311546
1772366250319469800,7.0064697265625,-0.02913081741631031,0.004670055903960019,0.0041881358722224826
1772366250329540900,7.016540771484375,-0.03347264601290226,-0.00608701002979651,-0.00274396494589746
1772366250339611000,7.02661083984375,-0.029729952353239057,0.0053183180790860205,0.0020802768727764486
1772366250349681000,7.036680908203125,-0.01925415104627609,-0.0017761610933579503,0.0017992679743096232
1772366250359752000,7.046751953125,-0.02179740578830242,0.002294951669918373,0.008965944733284414
1772366250369821700,7.05682177734375,-0.024787819775938986,0.007478994111157954,-0.00008870119675993918
1772366250379892000,7.06689208984375,-0.022847207102179527,0.004311835317127407,0.0005555515235289931
1772366250389963000,7.076962890625,-0.030035072779655454,0.012281407690513878,0.005055420226044952
1772366250400033000,7.087032958984375,-0.03647533496022224,0.01664609657288529,-0.0010540756301954388
1772366250410102800,7.097102783203125,-0.04306231213510036,0.0019418365164659917,-0.0029212942741811275
1772366250420173800,7.107173828125,-0.03528291030526161,0.012185473035369068,0.0012085720721632242
1772366250430244000,7.117244140625,-0.01583645155727863,0.008929202052624896,0.005384469517320394
1772366250440313900,7.12731396484375,-0.028113749328255652,0.0035244477991014716,0.0044819311870262024
1772366250450385000,7.137385009765625,-0.029009821385145185,0.005006457384629175,-0.0008360854979604482
1772366250460455000,7.147454833984375,-0.025862755531072614,0.0043619398028589785,-0.0010210136108100413
1772366250470524700,7.157524658203125,-0.029450550889968872,0.0009290153452660888,0.0008649827988818288
1772366250480595000,7.167594970703125,-0.042756607186794277,0.005149226856185123,0.010852269936539233
1772366250490666000,7.177666015625,-0.021215806508064268,-0.0010286580611485988,0.00008753215298056601
1772366250500736000,7.187736083984375,-0.029147184029221535,0.007189098653336987,0.0032507088916376233
1772366250510805800,7.1978056640625,-0.03289221577644348,0.012296751390118151,-0.0034163112495094535
1772366250520876800,7.207876708984375,-0.01987549781501293,0.005010603836784139,-0.0007488090733066201
1772366250530947000,7.217947021484375,-0.023018472015857695,-0.0013356781837064772,-0.007656031178496778
1772366250541016800,7.228016845703125,-0.026162615260481834,0.005098665712727234,-0.0008160656232386827
1772366250551087900,7.238087890625,-0.02631692903935909,0.00749848426291719,0.004920687930472195
1772366250561158000,7.248157958984375,-0.025862755531072614,0.012736330117471516,-0.007540368909575045
1772366250571228000,7.258227783203125,-0.028554478833079336,-0.0010919416888616979,-0.002571421390585601
1772366250581299000,7.268298828125,-0.0319938056319952,0.005399813216924667,0.002843041406199336
1772366250591369000,7.278368896484375,-0.02885141595304012,0.007817377486359328,-0.0031300051214173436
1772366250601439000,7.28843896484375,-0.031389994519948956,0.004672667986154556,0.00460734766498208
1772366250611509800,7.298509765625,-0.034382162073254584,0.0036637375387828797,0.008230652728676796
1772366250621579800,7.308579833984375,-0.028238252490758894,0.0062687506717164065,0.00600194382853806
1772366250631650000,7.318650146484375,-0.029131401938199995,-0.006781275904271751,0.0023909867897629737
1772366250641720800,7.328720947265625,-0.02748305020928383,0.0035260643674526362,-0.002802855526283383
1772366250651790800,7.338790771484375,-0.025686229920387268,0.006832412436464801,0.006508322448097169
1772366250661860900,7.34886083984375,-0.03615852409601211,0.004698003356810659,0.00014919921234250069
1772366250671932000,7.358931884765625,-0.022390695506334303,0.012657227866118772,-0.0003878668064251542
1772366250682002000,7.369001953125,-0.024620061993598938,0.007479441635729745,0.004259666738472879
1772366250692074200,7.37907421875,-0.016827800682187078,0.0015916987713892011,-0.0025378113819286225
1772366250702145300,7.389145263671875,-0.028193828827142713,0.005968023292627185,0.0037473333021625873
1772366250712215300,7.39921533203125,-0.026387071666121482,-0.0009475556489545852,0.007306633218936621
1772366250722285600,7.40928564453125,-0.029077041402459144,0.004140999661711975,-0.0033818609906360506
1772366250732356400,7.4193564453125,-0.02728255920112133,-0.0010838953797239809,0.003330240401253104
1772366250742426400,7.42942626953125,-0.02204758115708828,0.0017735946769360453,-0.00016545622739940882
1772366250752496400,7.439496337890625,-0.025195231533050536,0.0006762096279766411,-0.0020869988745078442
1772366250762567200,7.449567138671875,-0.025941665986180303,0.008285643452079966,-0.01118628766387701
1772366250772637400,7.459637451171875,-0.037761867639422415,0.0007184139350429177,-0.008925539657659827
1772366250782707500,7.46970751953125,-0.033570261168479915,0.0045254872009623795,0.0007037278225645422
1772366250792778500,7.479778564453125,-0.03237023772895336,0.0072047072144225234,0.0022516879169270396
1772366250802848300,7.48984814453125,-0.03491290794909,0.005718925636075437,-0.0011604220815002917
1772366250812918500,7.49991845703125,-0.0202472537368536,0.010884400374162941,-0.004709127539023757
1772366250822988300,7.50998828125,-0.03251519915759563,0.0006780271257273852,0.005216529071889817
1772366250833059300,7.520059326171875,-0.028920389536023137,-0.005657030247850343,0.0030343261945992707
1772366250843129300,7.53012939453125,-0.036250294032692906,0.0028196879300754515,0.0010182736644521356
1772366250853199400,7.540199462890625,-0.01679857458770275,-0.005709244492277503,0.00580751723498106
1772366250863270400,7.5502705078125,-0.031167876201868054,0.0012679375765845178,-0.002635974526777863
1772366250873340400,7.56034033203125,-0.02532967156767845,0.005314829214056954,-0.0009351254256442188
1772366250883410400,7.570410400390625,-0.027870003700256347,-0.003636191944731399,0.0030337782053276893
1772366250893481500,7.5804814453125,-0.022176175972819328,0.011554920046869664,-0.0009772840669378638
1772366250903551200,7.59055126953125,-0.029359365475177764,0.0015176380213350056,-0.0016976707633584737
1772366250913621500,7.60062158203125,-0.029060090267658233,0.009753898506890981,-0.0019732728343456983
1772366250923692500,7.610692626953125,-0.027859482306241988,0.008168574677361175,-0.00531706683691591
1772366250933762300,7.62076220703125,-0.03399111692905426,0.003979625954385847,0.004968984051607549
1772366250943832300,7.630832275390625,-0.027253917628526685,0.0038110370549838987,-0.0003083718294277787
1772366250953903400,7.6409033203125,-0.02350245614051819,-0.003883599967695772,0.001854286097176373
1772366250963973400,7.650973388671875,-0.023346973317861557,0.0020439086514525114,-0.0020723858272656795
1772366250974043400,7.66104345703125,-0.033365678507089616,0.002800855365442112,-0.0044568698110058905
1772366250984114400,7.671114501953125,-0.028871289697289464,-0.00036718934457749124,-0.0010622224040329456
1772366250994184400,7.681184326171875,-0.03560731995403767,0.0033032519296277312,-0.0007974705206230282
1772366251004254500,7.69125439453125,-0.03905132292807102,0.001559887994173914,-0.002145414530858397
1772366251014325500,7.701325439453125,-0.020198153898119926,0.00807004620633088,-0.004100311458297074
1772366251024395500,7.7113955078125,-0.032440964877605435,0.005125973844761028,-0.0009396189376711844
1772366251034465300,7.72146533203125,-0.02900397616624832,0.0074271634592209005,0.0021961948700249196
1772366251044536300,7.731536376953125,-0.029884266132116317,0.0029547581523656843,-0.00852799170743674
1772366251054606300,7.7416064453125,-0.02883621838390827,0.002481916476227343,-0.0010360285168513656
1772366251064676400,7.75167626953125,-0.025980244430899618,0.001173034967901185,0.0013145897299051284
1772366251074747400,7.761747314453125,-0.022239888858795166,0.006867995206499472,0.0010035875519737601
1772366251084817400,7.7718173828125,-0.012058686584234236,0.0016412735341582447,-0.0036511063860729335
1772366251094887400,7.781887451171875,-0.03854980314671993,0.00047096937946043905,0.00730601216442883
1772366251104958200,7.791958251953125,-0.00024608371555805207,0.0063613243259955194,-0.002966886981576681
1772366251115028500,7.802028564453125,-0.03227028448581695,0.014773489367729053,-0.003441189962439239
1772366251125098500,7.812098388671875,-0.023728666111826894,0.004337654744973406,-0.0058616220423951745
1772366251135169500,7.82216943359375,-0.036007717448472976,0.007153534149611368,0.00950005160998553
1772366251145239300,7.8322392578125,-0.008476736444234847,-0.010216246188478544,-0.004023739090748131
1772366251155309300,7.842309326171875,-0.03719780401587486,0.0008746822089888155,0.005914886599592864
1772366251165380400,7.85238037109375,-0.038088615375757216,0.006679605628084391,-0.006506934208609164
1772366251175450400,7.862450439453125,-0.02207096203267574,0.012845845773397013,-0.002798398546874523
1772366251185520400,7.872520263671875,-0.01847030719220638,-0.002244755852641538,0.003370280150696635
1772366251195591400,7.88259130859375,-0.02968494416773319,0.001966304237442091,-0.00004416793528944254
1772366251205661200,7.8926611328125,-0.015317980641126631,-0.00093266860707663,0.00046579088084399697
1772366251215731500,7.9027314453125,-0.01651975764632225,-0.00028002251777797934,0.004116093549318612
1772366251225802500,7.912802490234375,-0.030731822872161862,-0.0011631437615491449,0.004617649863287806
1772366251235872500,7.92287255859375,-0.023999299746751784,-0.0022810601418837904,0.0008690744521096348
1772366251245942300,7.9329423828125,-0.013225976797938346,0.0008784450686536729,-0.0025788375120609996
1772366251256013300,7.943013427734375,-0.012772387811541556,0.006240191297512501,0.0060820598600432275
1772366251266083600,7.95308349609375,-0.026682255220413207,0.0049809302177280185,0.0024610928839072584
1772366251276153300,7.9631533203125,-0.009327215793728827,0.0008393734335899353,-0.0011858122510835527
1772366251286224400,7.973224365234375,-0.025630700340867042,0.005786081721307709,0.0009235445857048034
1772366251296294400,7.98329443359375,-0.01156184297800064,0.0036888445805758237,0.004543671311624348
1772366251306364400,7.993364501953125,-0.020534838506579396,0.007807340149534866,0.0025530820162966844
1772366251316432400,8.003432373046875,-0.02726677711009979,0.009270407572574912,0.0003374152608215809
1772366251326503200,8.013503173828125,-0.01978314335644245,0.0046455059845931825,0.0006819178495556116
1772366251336573400,8.023573486328125,-0.025770401072502135,0.00073115468560718,0.006915661139972508
1772366251346643500,8.0336435546875,-0.020683891588449476,0.003574881078395992,-0.001159289570339024
1772366251356714500,8.043714599609375,-0.012902151671051978,-0.0007656506102532148,0.005626680775359273
1772366251366784300,8.0537841796875,-0.022479542833566665,-0.0016466894947923718,-0.005302819115854799
1772366251376854500,8.0638544921875,-0.018285598275065422,0.001374649354070425,-0.0023737433940172192
1772366251386925600,8.073925537109375,-0.023814006307721135,0.00802109249806963,0.004857340370677411
1772366251396995300,8.083995361328125,-0.028448680371046066,-0.003899226795090362,0.003614318039640784
1772366251407065300,8.0940654296875,-0.02544423785805702,0.00391831508805044,0.003285962868109345
1772366251417136400,8.104136474609374,-0.02483691961467266,0.011156568379048257,0.00883859202656895
1772366251427206400,8.114206298828124,-0.02648351777791977,0.011093449148116632,0.0007697422634810209
1772366251437276400,8.1242763671875,-0.02978431288897991,0.006118071888340636,0.005383117810450494
1772366251447347500,8.134347412109374,-0.02111176161170006,0.006327595586329698,-0.0013250745913013814
1772366251457417500,8.14441748046875,-0.03024257805049419,-0.0035827355912886557,0.0043203108845278615
1772366251467487200,8.1544873046875,-0.027850129956007,0.006886626841733232,0.002221913833171129
1772366251477558300,8.164558349609376,-0.025005261918902396,0.005103661548253148,0.0004969897367060184
1772366251487628500,8.174628662109376,-0.018427052572369575,-0.00021862945305183527,0.0030749139333143827
1772366251497698300,8.1846982421875,-0.015427286234498024,-0.002342855065409094,-0.00005721007995307445
1772366251507769300,8.194769287109375,-0.027248656931519507,0.0025667634817771613,-0.002457695350423455
1772366251517839400,8.20483935546875,-0.017225860089063644,0.0008036901988554745,0.0009253346839919686
1772366251527909400,8.214909423828125,-0.021117022308707236,-0.002046922592446208,-0.0031352658184245225
1772366251537980400,8.22498046875,-0.028308395117521284,0.002441666664229706,-0.003149732735194266
1772366251548050400,8.235050537109375,-0.013653846821188927,0.007856248192023485,0.002932107929140329
1772366251558120400,8.245120361328125,-0.021442016479372977,0.0042097540489863606,-0.0030786402603611347
1772366251568191200,8.255191162109375,-0.02220306397974491,0.0032307346826884894,-0.0030823300547897815
1772366251578261200,8.26526123046875,-0.014139584511518477,0.00267166689466685,-0.0022849691320210694
1772366251588331500,8.27533154296875,-0.04735387184917927,0.004540584305394441,0.0040939913153648375
1772366251598402600,8.285402587890625,-0.038379122754931445,0.008229492818051949,0.004943995740823447
1772366251608472300,8.295472412109374,-0.023720482805371285,0.0023916809095069764,0.011248758440837264
1772366251618542300,8.305542236328124,-0.018794716840982436,0.005431870589312166,-0.005919672372564673
1772366251628613400,8.31561328125,-0.027034137398004532,-0.00206685113562271,-0.0013326368432492017
1772366251638683400,8.325683349609376,-0.03631634500622749,0.008147997680213301,-0.006249708044528961
1772366251648753400,8.33575341796875,-0.03136953625380993,0.007057380298757925,0.003018653701432049
1772366251658824400,8.345824462890626,-0.033009704676270485,0.003350899596791714,0.0016536124259233474
1772366251668894200,8.355894287109376,-0.04347264650166034,0.0031149628159124402,-0.002104096139781177
1772366251678964500,8.365964599609375,-0.027461422899365425,0.0010503493031486868,0.001344473411515355
1772366251689035500,8.376035400390625,-0.027007833912968633,-0.0010645513584371655,0.003982091906107962
1772366251699102700,8.386102783203125,-0.02580371882021427,-0.005302472055982798,-0.0016718056697398423
1772366251709172700,8.3961728515625,-0.03507131338119507,0.006306269670510664,-0.001133095683157444
1772366251719243800,8.406243896484375,-0.025042671319842336,0.01181114156395197,-0.004345372260548174
1772366251729313500,8.4163134765625,-0.032819735062122345,0.007666607371438294,0.00567263880893588
1772366251739383800,8.4263837890625,-0.025184125617146492,0.0038141149280592796,0.007116663604788482
1772366251749454800,8.436454833984374,-0.02891863597035408,-0.0030984866051468997,-0.0035194062978029248
1772366251759524900,8.44652490234375,-0.02112520561516285,0.003778742220578715,0.004831109950877726
1772366251769595600,8.456595703125,-0.017236381483078003,-0.0024275102747138588,-0.0002723506679758429
1772366251779665700,8.466665771484376,-0.017976970717310903,0.0018615469550248235,-0.004574322178214788
1772366251789735700,8.476735595703126,-0.020669863063097,0.0041885103315580634,-0.0019953020030632615
1772366251799806700,8.486806640625,-0.0315928236156702,0.007839023062586783,0.009516893146932125
1772366251809876700,8.496876708984376,-0.033387305817008016,0.010698038356052712,0.002064348651282489
1772366251819946800,8.50694677734375,-0.02994505640864372,0.00396739666047506,0.0014407733928412199
1772366251830017800,8.517017822265625,-0.03667348788082599,0.000789597741421312,0.00394285587426275
1772366251840087600,8.527087646484375,-0.03382511271238327,0.001489590103784576,-0.0074707012068480246
1772366251850157800,8.53715771484375,-0.0341243879199028,-0.00003289762260392308,0.003446158398501575
1772366251860228900,8.547228759765625,-0.03367255249917507,-0.0032804555759299546,-0.0005554053930565715
1772366251870298600,8.557298583984375,-0.0267827929854393,-0.005172269805055111,0.002262318908795714
1772366251880368600,8.56736865234375,-0.03291208952069282,0.008026782453339546,0.003450067388638854
1772366251890439700,8.577439697265625,-0.025136779344081876,0.006095540396124124,-0.0037136136956512924
1772366251900510000,8.587510009765625,-0.030071897658705708,0.0056242604894097895,0.0013115575226023792
1772366251910579700,8.597579833984375,-0.022891630765795708,0.007872843133797868,-0.00452924092747271
1772366251920650800,8.607650634765625,-0.03531681257486343,0.004421725432388484,-0.0007324789930135011
1772366251930720800,8.617720703125,-0.031577626046538354,0.004871661156974733,0.00027487141862511633
1772366251940790500,8.62779052734375,-0.0329348858743906,0.002937304694065824,0.003450615377910435
1772366251950861600,8.637861572265624,-0.03172492556273937,0.005451506871543824,0.0028386209594085813
1772366251960931800,8.647931884765624,-0.026036358532309532,0.003020096739847213,0.006475735352747142
1772366251971001600,8.658001708984376,-0.02319908927977085,-0.0014713603273499756,-0.0011361644230782986
1772366251981072600,8.66807275390625,-0.019608371311426162,0.0006918455885257572,0.001561002239026129
1772366251991142700,8.678142578125,-0.025747604718804357,-0.0004016852692235261,0.000889240457303822
1772366252001213000,8.688212890625,-0.034735797816514966,0.0009979341293219477,-0.0036623949650675057
1772366252011283700,8.69828369140625,-0.03817863174676895,0.006413648168276995,0.00346880862172693
1772366252021353700,8.708353759765625,-0.04116495408117771,0.0013895455291029065,-0.004371420017257333
1772366252031423700,8.718423828125,-0.02410100655555725,-0.002687905643414706,-0.0067685077542439095
1772366252041494500,8.72849462890625,-0.022895722419023514,-0.0008362224952783435,-0.004298318248428404
1772366252051564800,8.738564697265625,-0.0266302327722311,0.0011803780241403728,-0.006083923023566603
1772366252061634800,8.748634765625,-0.029921675533056257,0.0037239615597296502,-0.005323971501737833
1772366252071705900,8.758705810546875,-0.028574937099218368,0.0059604519075248386,-0.0033801804902032014
1772366252081775600,8.768775634765625,-0.03351531611084938,0.0025015801579225806,-0.0011955299274995922
1772366252091845600,8.778845703125,-0.032169746720790864,0.00256543917437084,0.005642755127325654
1772366252101916700,8.788916748046875,-0.03740297119915485,0.003342999418126419,0.0021216317964717745
1772366252111986700,8.798986572265624,-0.030974399456381797,0.0040673133709933605,-0.004115509027428924
1772366252122057700,8.8090576171875,-0.029773791494965552,0.009406080583063884,-0.0016288433108478783
1772366252132127700,8.819127685546874,-0.03724924194216728,0.008870421070093289,-0.0021842852365225552
1772366252142197500,8.829197509765624,-0.03380173183679581,-0.0034769279961008575,0.0002094780322164297
1772366252152268500,8.8392685546875,-0.02182955449223518,0.00009254625481553375,-0.0024578049482777715
1772366252162338800,8.8493388671875,-0.023477321699261665,0.004705867002857848,-0.00026763796024024483
1772366252172408800,8.859408935546876,-0.030214520999789236,0.001995110206818208,0.0047765667520463465
1772366252182479600,8.869479736328126,-0.030517303338646887,-0.00023718802304938433,0.011890198149532079
1772366252192549600,8.879549560546875,-0.03321078020632267,0.0004587309523951262,0.0017023469384759664
1772366252202620000,8.889619873046875,-0.022433365604281424,0.005179448464512825,-0.006469817068614065
1772366252212691000,8.89969091796875,-0.030223873350024223,-0.0008657499838620424,0.00172309746555984
1772366252222760700,8.9097607421875,-0.042346272820234294,0.0034504783805925396,0.00840513251274824
1772366252232830700,8.919830810546875,-0.03620996202230453,0.0026631821941118686,0.0025869842858985063
1772366252242901800,8.92990185546875,-0.026178981873393056,0.0004598269309382885,-0.002973608983308077
1772366252252971800,8.9399716796875,-0.03680675887167453,0.0005655340614262968,0.0029662293944507836
1772366252263041800,8.950041748046875,-0.03156827369630336,0.0018843798413407057,0.0027135698076337575
1772366252273112800,8.96011279296875,-0.024088147073984146,-0.0037802857236936688,0.0049279579214751715
1772366252283182600,8.9701826171875,-0.023331191226840017,-0.0016202307461295276,0.0021101605543866753
1772366252293252600,8.980252685546875,-0.028877719438076016,-0.0016709836858324705,-0.0011523118402808905
1772366252303323600,8.99032373046875,-0.02782499551475048,0.004857979691494256,-0.007438479437679052
1772366252313394000,9.000393798828124,-0.0152495915800333,0.00193558030561544,-0.0007171718260273337
1772366252323463700,9.010463623046874,-0.021382395246624945,0.0039963122277054935,-0.007547273574396968
1772366252333534700,9.02053466796875,-0.02737316009402275,0.0026659312736243006,-0.0012338161112740635
1772366252343604700,9.030604736328126,-0.0372527490735054,0.0015032989687286317,-0.0036916210595518348
1772366252353674800,9.0406748046875,-0.027086744368076322,0.004418711491394787,-0.0014900193620473146
1772366252363745800,9.050745849609376,-0.01630757620036602,0.009102174866199493,0.0023419965488836168
1772366252373815800,9.06081591796875,-0.022151041531562804,0.0011983520722482354,0.003079882369376719
1772366252383885600,9.070885498046875,-0.03366904536783695,-0.0016286423814482985,-0.0011658289089798927
1772366252393956600,9.08095654296875,-0.025734160715341566,0.0028981325943022965,-0.004504216084070503
1772366252404026600,9.091026611328125,-0.026178981873393056,0.001148211053898558,-0.005612615717388689
1772366252414097000,9.101096923828125,-0.025876199534535408,0.006831179460603743,-0.0022437238061800598
1772366252424167700,9.111167724609375,-0.02662204946577549,0.0026348237493075428,0.009785444422625005
1772366252434237700,9.12123779296875,-0.02049041484296322,-0.0035917865474242713,-0.008386391279660165
1772366252444307700,9.1313076171875,-0.029314357289671897,0.005731355859385803,-0.0036302462611347433
1772366252454378500,9.14137841796875,-0.025277064597606657,0.013307535867858678,0.0021612331544980405
1772366252464448800,9.15144873046875,-0.03186228820681572,0.007161132934177294,-0.0020645313143730164
1772366252474518800,9.161518798828125,-0.023033669584989546,0.0006609115941449999,0.0026021453224122524
1772366252484589800,9.17158984375,-0.02707154679894447,0.003114223030395806,-0.0020103169091045857
1772366252494659600,9.18165966796875,-0.013301380121707916,-0.00031320326817221937,-0.0013242708737030624
1772366252504729900,9.191729736328124,-0.02258300320804119,0.00907230945089832,-0.009055668843351305
1772366252514801000,9.20180078125,-0.010768062251806258,0.00555932376072742,-0.0027882059464231133
1772366252524870700,9.21187060546875,-0.02304828263223171,0.0005150368500500917,-0.008113127296231686
1772366252534940700,9.221940673828126,-0.02020925981402397,0.010192627850873395,-0.0023871508648619054
1772366252545011700,9.23201171875,-0.01692892296910286,0.010821080213831737,-0.003977561861462891
1772366252555081700,9.242081787109376,-0.02052080998122692,-0.0003129018740728497,0.0026456556705757974
1772366252565151700,9.25215185546875,-0.02889116344153881,0.004585820819763466,0.0007475304316729306
1772366252575222800,9.262222900390626,-0.02050736597776413,0.01283117792722769,0.0032383973993360994
1772366252585292800,9.272292724609375,-0.003735679396986961,0.00412671540803276,-0.0012864596139639615
1772366252595363600,9.282363525390625,-0.010313304221630095,0.0012848613119218497,-0.001181026478111744
1772366252605433600,9.29243359375,-0.0023836802661418915,0.0014653507116716355,-0.005980645312182605
1772366252615504000,9.30250390625,-0.00433481433391571,0.010198710531787947,0.00033262948784977195
1772366252625575000,9.312574951171875,-0.010315057787299155,0.003945805883174762,-0.005420125352591276
1772366252635644700,9.322644775390625,-0.025883213797211646,0.0055206722507718945,-0.006306333602592348
1772366252645714700,9.332714599609375,-0.023198504757881162,0.014023830911051482,0.0053123906617984175
1772366252655785700,9.34278564453125,-0.0244037888944149,0.0031992709653452037,0.0027593086455017326
1772366252665855700,9.352855712890625,-0.025309797823429105,0.0008510273387655616,-0.0032501974349841475
1772366252675925800,9.36292578125,-0.015883213308453558,0.004684184894012287,-0.0036924613097682594
1772366252685996800,9.372996826171875,-0.022768881168961523,0.012346755411149933,-0.0022324352271854875
1772366252696066300,9.38306640625,-0.019628245055675505,0.012079884635889902,-0.003621405367553234
1772366252706136300,9.39313623046875,-0.015287000980973242,0.006570866290293634,0.004772584696672856
1772366252716207400,9.403207275390624,-0.013650924211740493,-0.0024421872540377077,-0.0014411021864041685
1772366252726277400,9.41327734375,-0.015151391902565954,0.0060530072954948985,-0.0024028598906472324
1772366252736347100,9.42334716796875,-0.011412789896130562,0.0049891409236472095,0.004730937512032687
1772366252746418200,9.433418212890626,-0.022488310661911964,0.0029461181881837543,0.002888780244067311
1772366252756488400,9.443488525390626,-0.021741876208782193,0.00357398602925241,-0.0008529270349070429
1772366252766558200,9.45355810546875,-0.010961538997292518,-0.002879309162823483,0.0028751170448958873
1772366252776629200,9.463629150390625,-0.013504209217429161,0.005120320422109216,-0.002055069366283715
1772366252786699300,9.47369921875,-0.021591069561243056,0.007456709214113652,-0.003812544025480747
1772366252796770300,9.483770263671875,-0.018449848926067353,0.00950473691825755,-0.002053242735378444
1772366252806840000,9.493840087890625,-0.011117606341838835,-0.002142948579136282,0.00015248714797198772
1772366252816910300,9.503910400390625,-0.01905249099433422,0.00833582100304775,-0.007561448230221867
1772366252826981400,9.5139814453125,-0.02742927419543266,0.02117961181667633,-0.0011056962195783852
1772366252837051100,9.524051025390625,-0.03251578367948532,0.003301123904623091,0.0035784430086612698
1772366252847121200,9.53412109375,-0.028481413596868514,0.004364469686662778,-0.0023829130811616776
1772366252857192200,9.544192138671875,-0.01875087769925594,0.009478469965839759,0.004259374477528035
1772366252867262500,9.554262451171875,-0.008131284007430076,0.006982132238615304,0.004623531614802777
1772366252877332200,9.564332275390624,-0.024891280150413513,0.005314884012984112,-0.0016803543023765086
1772366252887403300,9.5744033203125,-0.02174596786201,0.005405393574340269,-0.003421389283426106
1772366252897473300,9.584473388671874,-0.014857377392053603,0.00020571517255157232,-0.004802322247810661
1772366252907543300,9.594543212890626,-0.02143500221669674,0.00769466442214325,-0.003946691799163818
1772366252917614300,9.6046142578125,-0.020081249520182608,0.0011268668717704714,0.004292838355712592
1772366252927684400,9.614684326171876,-0.01604044969677925,0.002372857478028163,-0.004651077208854258
1772366252937755400,9.62475537109375,-0.02097615253329277,0.00613777210265398,-0.0071796458384022115
1772366252947825200,9.6348251953125,-0.01768821690380573,0.004243574120197445,0.002434058746509254
1772366252957895200,9.644895263671875,-0.026824294039607045,0.00038756541232578455,0.0025627266274765134
1772366252967966200,9.65496630859375,-0.029222587352991103,0.007520659562107175,-0.0030703838886693116
1772366252978036200,9.6650361328125,-0.025777415335178373,0.007945515644364059,-0.012285371479578316
1772366252988106200,9.675106201171875,-0.026230419799685475,0.004173550224443897,0.001992306328378618
1772366252998177300,9.68517724609375,-0.03745148651599884,0.01592056791046634,0.0027966084485873577
1772366253008247300,9.695247314453125,-0.026821371430158614,0.0011148111077956854,-0.001568966349773109
1772366253018317300,9.7053173828125,-0.025770401072502135,0.0006484265719074756,0.0023995719550177455
1772366253028388400,9.715388427734375,-0.022027707412838934,0.006386312636779621,0.0017038447758182882
1772366253038458400,9.725458251953125,-0.030260698229074477,0.004876885321363806,-0.00046210108641535043
1772366253048528100,9.735528076171875,-0.014846855998039244,0.007236828518891706,-0.0019372516728937625
1772366253058599200,9.74559912109375,-0.014245967495441436,0.008840135529683902,-0.0033609643330797553
1772366253068669400,9.75566943359375,-0.021878654330968854,0.007828611266426741,0.00021879384983330963
1772366253078740500,9.765740478515625,-0.018440496575832365,0.004329033047100529,-0.004782923427596688
1772366253088810200,9.775810302734374,-0.035654666227102276,0.003237484083883464,0.005259674093872308
1772366253098880300,9.78588037109375,-0.034761516779661175,0.010279475017264485,0.0014077844386920333
1772366253108951300,9.795951416015624,-0.027594693890213965,0.00484116555401124,-0.0028062530597671863
1772366253119021000,9.80602099609375,-0.021458383092284202,0.010175932444399223,-0.01275276979561895
1772366253129091300,9.81609130859375,-0.05961129587590694,-0.006361169062368571,0.0090637425519526
1772366253139162400,9.826162353515626,-0.016813187634944916,0.00138730790624395,-0.007661474538594484
1772366253149232000,9.836232177734376,-0.009487959313392639,0.0052704238167498255,0.0007128244444727898
1772366253159302100,9.84630224609375,-0.046294718185067175,0.0003020334201864898,0.0031944486597552894
1772366253169373200,9.856373291015625,-0.024755671072006224,0.0034171606328804046,-0.0001204480418935418
1772366253179443500,9.866443359375,-0.03178162418603897,-0.004585656422981992,0.0051135070888325565
1772366253189514200,9.87651416015625,-0.01517301921248436,0.011374750307528301,-0.003309964798204601
1772366253199584300,9.886584228515625,-0.009345920494198799,0.01321121762022376,0.0007007321478798985
1772366253209654300,9.896654296875,-0.052447980117797846,0.004700697637395933,0.009267411897890269
1772366253219725300,9.906725341796875,-0.0313490779876709,0.009885881722951307,0.003001775631867349
1772366253229795300,9.91679541015625,-0.02447568508684635,0.004717146448697894,0.00011157061569392681
1772366253239865300,9.926865234375,-0.015361819782853125,0.010053539040591567,-0.004849449325166642
1772366253249936400,9.936936279296875,-0.005374678775668144,0.0166979820237495,0.0016516031319275498
1772366253260006100,9.947006103515625,-0.014912322449684143,0.014391805706918238,-0.0076245035290718076
1772366253270076200,9.957076171875,0.19791443567276,0.0200619420315139,-0.04666040969230234
1772366253280147200,9.967147216796874,-0.1946340988278389,-0.014132972107641398,0.05164207056239247
1772366253290217200,9.97721728515625,-0.13239946871101854,0.0026537111128680404,0.009837065012007951
1772366253300287200,9.987287353515624,-0.0743178666204214,0.013674652147199958,-0.0014392390228807925
1772366253310358300,9.997358154296874,-0.05377952098250389,0.007529043797962367,0.002824921227619052
1772366253320428300,10.00742822265625,-0.06851707138717174,0.0024751944744959473,0.008246361754462122
1772366253330499000,10.0174990234375,-0.09563128828406334,-0.007237641369644552,0.013417882640846073
1772366253340569300,10.0275693359375,-0.005754033482074737,-0.00037653256165795024,-0.00828347889445722
1772366253350639400,10.037639404296876,0.010631284129619598,-0.004309040571842343,-0.014513130531646311
1772366253360710400,10.04771044921875,0.0248830968439579,0.009101298083364963,-0.009980419005453586
