time,seconds_elapsed,z,y,x
1772366295423633000,0.1146328125,-0.00003992626443505287,0.0030871606431901455,-0.002942965365946293
1772366295433703000,0.124702880859375,0.002416839823126793,0.001561169046908617,-0.0032665394246578217
1772366295443773000,0.13477294921875,-0.00048786262050271034,0.002980755176395178,-0.0015936503186821938
1772366295453843000,0.144843017578125,0.0002397126518189907,0.0032231020741164684,0.0008450066670775414
1772366295463913000,0.154912841796875,-0.0006629973649978638,0.0008054948411881924,0.00003453437238931656
1772366295473982700,0.164982666015625,0.00017190352082252502,0.0008971076458692551,-0.0006850520148873329
1772366295484053800,0.1750537109375,0.002514469902962446,-0.00018093502148985863,-0.0010250397026538849
1772366295494124000,0.1851240234375,-0.00039503350853919983,0.0024366858415305614,0.0015118876472115517
1772366295504194000,0.195194091796875,-0.0010542669333517551,0.0015152222476899624,0.00018117669969797134
1772366295514263800,0.205263916015625,-0.00008594151586294174,0.0005394401960074902,0.0002517504617571831
1772366295524334000,0.215333984375,0.001403232105076313,0.000034790486097335815,-0.00096918735653162
1772366295534404000,0.225404052734375,0.0013137501664459705,-0.0010339361615478992,0.00011285580694675446
1772366295544473900,0.235473876953125,0.00045794155448675156,-0.00048056989908218384,-0.00024025607854127884
1772366295554543900,0.2455439453125,-0.0007274318486452103,-0.0010595410130918026,4.936009645462036e-7
1772366295564614000,0.25561376953125,0.0006340485997498035,-0.001987284980714321,-0.0020511671900749207
1772366295574684000,0.265683837890625,0.0006052865646779537,-0.0008367993868887424,0.0017710020765662193
1772366295584754000,0.27575390625,0.00031278468668460846,-0.000941538717597723,-0.0007585557177662849
1772366295594824000,0.285823974609375,0.0004659164696931839,-0.0005801478400826454,0.000963444821536541
1772366295604894000,0.29589404296875,-0.0003794371150434017,-0.0015716240741312504,-0.0010258154943585396
1772366295614964000,0.3059638671875,0.0025343275628983974,-0.00039716996252536774,0.0003944486379623413
1772366295625033700,0.31603369140625,-0.0010679061524569988,-0.0011837510392069817,-0.00025876518338918686
1772366295635104000,0.32610400390625,-0.0008423370309174061,-0.0000234115868806839,0.0008144881576299667
1772366295645174000,0.336174072265625,-0.0008068163879215717,0.0007662246935069561,-0.0018854960799217224
1772366295655243800,0.346243896484375,0.00029173772782087326,-0.0009864014573395252,-0.001081487163901329
1772366295665314000,0.35631396484375,0.0011992496438324451,0.0024196268059313297,-0.0011025629937648773
1772366295675383800,0.3663837890625,0.0005086921155452728,-0.000843544490635395,-0.00007271859794855118
1772366295685453800,0.376453857421875,-0.00020133471116423607,0.000028199981898069382,0.0005303304642438889
1772366295695524000,0.386524169921875,-0.0016777906566858292,-0.0013606385327875614,0.0017029205337166786
1772366295705593900,0.39659375,0.0004489375278353691,-0.0005141203291714191,-0.0006401659920811653
1772366295715664000,0.406663818359375,0.00016397936269640923,-0.0026060333475470543,-0.0005352376028895378
1772366295725734000,0.41673388671875,0.0012870412319898605,-0.0010961669031530619,-0.0007414743304252625
1772366295735804700,0.4268046875,0.00026891473680734634,-0.0010887100361287594,-0.0007172394543886185
1772366295745875000,0.436875,0.002818999346345663,0.003629476297646761,0.0016722334548830986
1772366295755944700,0.44694482421875,-0.0017320765182375908,-0.00008962815627455711,-0.0004465775564312935
1772366295766014700,0.4570146484375,-0.0006605354137718678,-0.0019109484273940325,0.0007577277719974518
1772366295776085000,0.4670849609375,0.00007156748324632645,0.0013514240272343159,-0.00013842619955539703
1772366295786154800,0.47715478515625,-0.0014552469365298748,-0.0006327289156615734,0.0020965589210391045
1772366295796224800,0.487224853515625,0.0012143063358962536,-0.0010140934027731419,0.0013348953798413277
1772366295806294800,0.497294677734375,-0.0006524380296468735,-0.0009422260336577892,0.002685142681002617
1772366295816364800,0.50736474609375,0.0021758386865258217,0.0006322348490357399,-0.0028347913175821304
1772366295826434800,0.517434814453125,0.0002383161336183548,-0.002278702799230814,-0.001652916893362999
1772366295836504600,0.527504638671875,-0.0012738262303173542,-0.0002637552097439766,-0.0004915129393339157
1772366295846574800,0.537574951171875,0.00008034845814108849,-0.00045378832146525383,0.0005173534154891968
1772366295856644900,0.547644775390625,0.0014588003978133202,0.0009885793551802635,-0.0012043807655572891
1772366295866714600,0.557714599609375,0.0005994830280542374,0.004122887272387743,-0.00066414475440979
1772366295876785000,0.567784912109375,0.0010255887173116207,0.001405930146574974,0.0005009882152080536
1772366295886855000,0.57785498046875,-0.00055294344201684,-0.0032277319114655256,0.0013883542269468307
1772366295896924700,0.587924560546875,0.0016566812992095947,0.00017525535076856613,0.004052846692502499
1772366295906995000,0.597994873046875,-0.000795464962720871,-0.00038481270894408226,-0.0003323676064610481
1772366295917065000,0.60806494140625,-0.0005440628156065941,0.0004210597835481167,0.0014024153351783752
1772366295927134700,0.618134765625,-0.00048663513734936714,0.0017123986035585403,-0.0003867335617542267
1772366295937204700,0.628204833984375,-0.0011598817072808743,0.0021667340770363808,0.00010621733963489532
1772366295947274800,0.638274658203125,0.0006393636576831341,-0.00047673797234892845,0.001921430230140686
1772366295957344800,0.6483447265625,0.002336330246180296,0.0006276750937104225,-0.00011429004371166229
1772366295967414800,0.658414794921875,-0.0016756458207964897,-0.0010308017954230309,-0.0023480374366045
1772366295977485800,0.66848583984375,0.0005773883312940598,-0.00007019983604550362,-0.0003488026559352875
1772366295987555800,0.678555908203125,0.0004094662144780159,0.0019465633668005466,0.00047265272587537766
1772366295997625900,0.6886259765625,0.0004645935259759426,-0.00024441909044981003,0.00003988947719335556
1772366296007696000,0.69869580078125,-0.00041735731065273285,-0.002996901050209999,-0.0006241369992494583
1772366296017766000,0.708765869140625,0.0007056975737214088,0.00001832982525229454,-0.0004973700270056725
1772366296027836000,0.7188359375,0.0011638188734650612,0.001377409789711237,0.001287110149860382
1772366296037905700,0.72890576171875,-0.004425890278071165,0.0012746118009090424,-0.00007962435483932495
1772366296047975700,0.7389755859375,0.0002684555947780609,0.0013599228113889694,-0.00025964993983507156
1772366296058046000,0.7490458984375,-0.004420838318765163,0.00001209694892168045,-0.00011663883924484253
1772366296068115700,0.75911572265625,0.0003795372322201729,-0.0005349721759557724,0.0018210262060165405
1772366296078185700,0.769185791015625,0.0020605246536433697,0.0007369536906480789,-0.0005795471370220184
1772366296088256000,0.779256103515625,0.0003840574063360691,0.002626611851155758,0.000505414791405201
1772366296098325800,0.78932568359375,-0.0010263528674840927,0.0019757351838052273,-0.0003446657210588455
1772366296108395800,0.799395751953125,-0.0005320198833942413,0.0012697363272309303,0.00049615278840065
1772366296118465800,0.8094658203125,0.0016973121091723442,-0.0011414897162467241,0.0010050823912024498
1772366296128535800,0.819535888671875,-0.001121362205594778,0.0012169810943305492,0.0013126637786626816
1772366296138605800,0.829605712890625,-0.00010749697685241699,-0.000851762481033802,0.00022076722234487534
1772366296148675600,0.839675537109375,-0.00020525790750980377,-0.0035049007274210453,0.0019018696621060371
1772366296158745900,0.849745849609375,0.000659736804664135,0.0005755946040153503,0.0006094379350543022
1772366296168815900,0.85981591796875,0.0011021224781870842,0.00018120883032679558,0.0006761113181710243
1772366296178885600,0.8698857421875,-0.001758112572133541,-0.0014385259710252285,0.002405834384262562
1772366296188956000,0.879955810546875,0.0004767538048326969,-0.0007912381552159786,-0.00008300412446260452
1772366296199026000,0.89002587890625,-0.0012287343852221966,0.0002455306239426136,0.0020081093534827232
1772366296209095700,0.900095703125,0.00134621886536479,0.0013921558856964111,-0.0001247003674507141
1772366296219166700,0.910166748046875,-0.00006419140845537186,-0.0018316006753593683,-0.0028579020872712135
1772366296229236700,0.92023681640625,-0.0009093503467738628,0.001957033760845661,0.0017986148595809937
1772366296239306800,0.930306640625,-0.0001330389641225338,0.0005351719446480274,0.0008108485490083694
1772366296249376800,0.940376708984375,-0.003905904944986105,0.0022438839077949524,0.0016718069091439247
1772366296259446800,0.95044677734375,0.0011466443538665771,-0.00011754082515835762,-0.00015858374536037445
1772366296269516800,0.960516845703125,0.0018040435388684273,-0.0012209261767566204,0.0003351578488945961
1772366296279586800,0.9705869140625,0.001087120734155178,0.000055260490626096725,0.0005679186433553696
1772366296289656800,0.98065673828125,-0.000596282072365284,0.00020807934924960136,0.0019105300307273865
1772366296299726800,0.990726806640625,0.00036325445398688316,0.003970859572291374,-0.0021457308903336525
1772366296309796900,1.000796875,0.002773858606815338,0.0013826624490320683,0.0005143983289599419
1772366296319867000,1.010866943359375,0.00031682616099715233,0.00014109676703810692,0.00029548630118370056
1772366296329936600,1.0209365234375,-0.00019264360889792442,0.001413022167980671,0.0004153801128268242
1772366296340007000,1.0310068359375,-0.0023924140259623528,-0.00213484070263803,-0.0009521525353193283
1772366296350077000,1.041076904296875,0.0007731779478490353,0.000395218376070261,0.0005749426782131195
1772366296360146700,1.051146728515625,-0.0011680005118250847,0.000043414533138275146,-0.00027274154126644135
1772366296370217000,1.061217041015625,0.0016467506065964699,0.0028670472092926502,0.000810074619948864
1772366296380286700,1.07128662109375,0.0006973333656787872,-0.0022952237632125616,-0.001571590080857277
1772366296390356700,1.081356689453125,0.0005279644392430782,0.0007146233692765236,-0.0009155217558145523
1772366296400426800,1.0914267578125,0.0003516632132232189,0.00012393435463309288,0.0001353612169623375
1772366296410496800,1.101496826171875,0.0010270308703184128,-0.000015451107174158096,-0.0012649726122617722
1772366296420566800,1.11156689453125,0.0012206430546939373,-0.0023827350232750177,0.0016562491655349731
1772366296430636800,1.12163671875,0.00026133423671126366,-0.0019566193222999573,0.00009059812873601913
1772366296440706800,1.131706787109375,-0.000032945070415735245,0.0021989773958921432,-0.0018852008506655693
1772366296450776800,1.14177685546875,-0.0009793159551918507,0.0027853278443217278,-0.0015994217246770859
1772366296460846800,1.151846923828125,0.0005999384447932243,-0.0005731843411922455,0.0007873037829995155
1772366296470916900,1.161916748046875,-0.0014324421063065529,-0.001959440065547824,0.00004900246858596802
1772366296480987000,1.17198681640625,0.0007582739926874638,0.0006635072641074657,-0.000721183605492115
1772366296491058000,1.182057861328125,-0.00028663408011198044,0.0019441801123321056,0.00015600211918354034
1772366296501127700,1.192127685546875,-0.0012443065643310547,-0.0015472238883376122,-0.00003201700747013092
1772366296511197700,1.20219775390625,0.0028633521869778633,0.0002824976108968258,0.0014014998450875282
1772366296521268000,1.21226806640625,0.00029792916029691696,0.0000646510161459446,0.0015972424298524857
1772366296531337700,1.222337646484375,-0.00010458333417773247,-0.000353923998773098,0.0006875265389680862
1772366296541407700,1.23240771484375,0.0008879764936864376,-0.00007881969213485718,0.0004201456904411316
1772366296551478000,1.24247802734375,-0.00013442197814583778,0.0014303219504654408,0.0006537996232509613
1772366296561547800,1.2525478515625,0.0028208880685269833,0.0006159273907542229,-0.0005784453824162483
1772366296571617800,1.26261767578125,0.0006732214242219925,0.0015223775990307331,0.0004863860085606575
1772366296581687800,1.272687744140625,0.0023432900197803974,0.00015457812696695328,-0.001972776837646961
1772366296591757800,1.2827578125,0.0013025440275669098,-0.00008251145482063293,0.0007844706997275352
1772366296601827800,1.292827880859375,-0.0007366389036178589,0.0012434767559170723,0.0004193512722849846
1772366296611897600,1.302897705078125,0.000838900450617075,0.0010701599530875683,0.0013819094747304916
1772366296621968000,1.3129677734375,0.00026525557041168213,-0.00070936419069767,0.00287700816988945
1772366296632038000,1.323037841796875,-0.001325573306530714,-0.0012297413777559996,-0.0014826683327555656
1772366296642107600,1.333107666015625,-0.0006062532775104046,0.0010483264923095703,0.0014739735051989555
1772366296652178000,1.343177978515625,-0.0005960594862699509,0.0018029985949397087,-0.002481960691511631
1772366296662248000,1.353248046875,-0.0001790085807442665,0.0008362713269889355,-0.0006670169532299042
1772366296672317700,1.363317626953125,0.0005101538263261318,-0.00016556866466999054,0.000810038298368454
1772366296682387700,1.3733876953125,-0.000005966983735561371,0.0006589461117982864,0.0004305373877286911
1772366296692458000,1.3834580078125,0.0004963730461895466,0.0010917321778833866,0.0004462413489818573
1772366296702527700,1.39352783203125,-0.000723088625818491,-0.0012340063694864511,0.0012356024235486984
1772366296712597800,1.40359765625,0.0011881068348884583,-0.00077441381290555,-0.00002802908420562744
1772366296722667800,1.413667724609375,0.0027543120086193085,0.00035423412919044495,-0.00022723432630300522
1772366296732737800,1.42373779296875,-0.0013636630028486252,0.0027510705403983593,0.002770231105387211
1772366296742804700,1.4338046875,0.00012504449114203453,-0.001319304807111621,0.00042638368904590607
1772366296752874500,1.44387451171875,-0.0001472514122724533,0.0016490588895976543,-0.0005593309178948402
1772366296762944800,1.45394482421875,0.0008961749263107777,0.001493263989686966,-0.003029412589967251
1772366296773014800,1.464014892578125,-0.00017373915761709213,0.001828119158744812,-0.0016608228906989098
1772366296783084500,1.47408447265625,-0.0005854633636772633,0.0006233053281903267,-0.0007076775655150414
1772366296793154800,1.48415478515625,0.0009822570718824863,-0.00041185738518834114,-0.0018822597339749336
1772366296803224800,1.494224853515625,-0.00031709903851151466,-0.0001282310113310814,0.0008064676076173782
1772366296813294600,1.504294677734375,0.003499799408018589,0.0020954543724656105,0.0007791090756654739
1772366296823364600,1.514364501953125,-0.0003431420773267746,-0.002148825442418456,-0.0008105318993330002
1772366296833435000,1.524434814453125,-0.0012000263668596745,-0.0039795986376702785,0.001430850476026535
1772366296843504600,1.534504638671875,0.0006215758621692657,0.00032353727146983147,-0.0004011383280158043
1772366296853574700,1.54457470703125,0.0003431490622460842,0.0007630772888660431,-0.0015181256458163261
1772366296863644700,1.554644775390625,-0.0004584621638059616,0.0007100803777575493,0.0006608730182051659
1772366296873714700,1.564714599609375,-0.0036511803045868874,0.0006648744456470013,0.0006184717640280724
1772366296883784700,1.57478466796875,0.0003603394143283367,-0.0022446289658546448,-0.001423373818397522
1772366296893854700,1.584854736328125,-0.0004867780953645706,-0.0011468054726719856,0.000031935982406139374
1772366296903924700,1.5949248046875,0.0000613001175224781,-0.000495662447065115,0.0008085137233138084
1772366296913994800,1.604994873046875,-0.0003881063312292099,0.001096532680094242,0.001247253268957138
1772366296924064500,1.615064453125,0.0002952609211206436,0.00011142948642373085,-0.001522168517112732
1772366296934134800,1.625134765625,-0.0029411930590867996,0.0011265934444963932,0.0010914923623204231
1772366296944204800,1.635204833984375,-0.001541702076792717,0.0012472346425056458,-0.00004860665649175644
1772366296954274600,1.645274658203125,-0.00016315514221787453,0.0011847452260553837,-0.00037676095962524414
1772366296964344800,1.6553447265625,-0.00014105113223195076,0.0026223198510706425,-0.0007280316203832626
1772366296974414800,1.665414794921875,-0.0008400995284318924,0.003719235770404339,0.001457112841308117
1772366296984484600,1.675484619140625,-0.00012077996507287025,-0.0029189600609242916,0.0006309999153017998
1772366296994555000,1.685554931640625,-0.00019210344180464745,0.0003800671547651291,-0.0018345126882195473
1772366297004624600,1.695624755859375,-0.0013058376498520374,-0.0008561722934246063,0.00005606561899185181
1772366297014694700,1.705694580078125,0.0005532586947083473,0.005561641417443752,0.0023982375860214233
1772366297024765700,1.715765625,0.0004552542231976986,-0.00450271088629961,-0.0014233989641070366
1772366297034835700,1.725835693359375,-0.00004173535853624344,-0.0016667856834828854,0.0023532696068286896
1772366297044905700,1.73590576171875,-0.00021990062668919563,0.0007702731527388096,-0.002993558533489704
1772366297054975700,1.745975830078125,-0.0012598470784723759,-0.001036291942000389,-0.0009053880348801613
1772366297065045500,1.75604541015625,0.00030023278668522835,0.0006580110639333725,-0.0008486630395054817
1772366297075115800,1.76611572265625,-0.0009802686981856823,0.0012998566962778568,0.00267044547945261
1772366297085185800,1.776185791015625,-0.0003224681131541729,-0.0012365379370748997,0.0016725584864616394
1772366297095255600,1.786255615234375,-0.00008848868310451508,-0.0010950220748782158,0.0005468875169754028
1772366297105325800,1.796325927734375,0.0007924851961433887,-0.0038463338278234005,0.0017671473324298859
1772366297115395800,1.806395751953125,0.0028220261447131634,-0.0008335146121680737,0.0019010799005627632
1772366297125465600,1.816465576171875,-0.0011780415661633015,-0.0007264553569257259,-0.0019607702270150185
1772366297135535600,1.82653564453125,0.0003272518515586853,-0.0007425267249345779,0.0006935959681868553
1772366297145606000,1.83660595703125,-0.00116358557716012,0.0005347253754734993,0.0019950829446315765
1772366297155675600,1.846675537109375,-0.00015615951269865036,0.00029994966462254524,0.0016236910596489906
1772366297165745700,1.85674560546875,-0.0006200824864208698,0.0011433730833232403,0.0008543040603399277
1772366297175816000,1.86681591796875,0.00010332325473427773,-0.0009731515310704708,0.0016551399603486061
1772366297185885700,1.8768857421875,-0.0011808532290160656,0.00037946784868836403,0.00056404247879982
1772366297195955700,1.886955810546875,-0.0014219721779227257,0.00006032036617398262,0.0018595485016703606
1772366297206025700,1.897025634765625,0.00011067651212215424,0.0018180068582296371,-0.0006360989063978195
1772366297216095700,1.907095703125,-0.0013368632644414902,0.0000022049061954021454,-0.0013691242784261703
1772366297226165800,1.917165771484375,0.002361202146857977,0.00015613529831171036,0.0005028117448091507
1772366297236235500,1.927235595703125,-0.00047723064199090004,0.0034614340402185917,-0.0024848543107509613
1772366297246305800,1.937305908203125,0.00036699138581752777,-0.0009695328772068024,-0.002139175310730934
1772366297256375800,1.947375732421875,-0.0019694571383297443,0.002049839124083519,-0.0015107812359929085
1772366297266445600,1.957445556640625,-0.0006216312758624554,0.0027116346172988415,0.001493263989686966
1772366297276515800,1.967515869140625,0.0016827420331537724,-0.002167404629290104,-0.0006335647776722908
1772366297286585900,1.9775859375,0.0005474365316331387,-0.00010345457121729851,0.0008857687935233116
1772366297296655600,1.987655517578125,0.0030481298454105854,0.001029652077704668,0.0010340744629502296
1772366297306725600,1.9977255859375,-0.00040013063699007034,-0.000832696445286274,-0.000968090258538723
1772366297316796700,2.007796630859375,0.00030381930992007256,-0.0042411889880895615,-0.0010572010651230812
1772366297326866700,2.01786669921875,0.001468153204768896,0.0006574294529855251,0.00017823930829763412
1772366297336936700,2.027936767578125,0.001213128212839365,-0.0008371942676603794,-0.0005145994946360588
1772366297347006700,2.0380068359375,-0.0015469719655811787,0.0018222383223474026,0.0024239318445324898
1772366297357076700,2.04807666015625,-0.00003709178417921066,-0.0010762992314994335,-0.0029045967385172844
1772366297367146800,2.058146728515625,0.0012718518264591694,0.0002179970033466816,0.0003588413819670677
1772366297377216800,2.068216796875,-0.0007798471488058567,0.000930392649024725,-0.0014497116208076477
1772366297387286800,2.078286865234375,0.0004014931619167328,0.0005762004293501377,-0.002106846310198307
1772366297397356800,2.088356689453125,-0.0007492685690522194,-0.0001429254189133644,-0.0010912520810961723
1772366297407426600,2.098426513671875,0.0008915048092603683,0.0025165071710944176,0.0019703181460499763
1772366297417496600,2.10849658203125,-0.0012831720523536205,0.0007333969697356224,0.00012021325528621674
1772366297427566800,2.11856689453125,-0.0010490803979337215,0.00025828881189227104,-0.0019099144265055656
1772366297437636600,2.12863671875,0.000895294826477766,-0.0011024833656847477,-0.002319851890206337
1772366297447706600,2.13870654296875,-0.0011665248312056065,-0.0018188739195466042,0.0010884618386626244
1772366297457777000,2.14877685546875,0.0024860063567757607,0.0027709826827049255,0.0006877081468701363
1772366297467846700,2.1588466796875,-0.0005217678844928741,-0.0008362685330212116,-0.001605539582669735
1772366297477916700,2.168916748046875,-0.00025738030672073364,-0.0003129071556031704,-0.0007718494161963463
1772366297487986700,2.178986572265625,-0.0010411483235657215,-0.0009720395319163799,0.0003056647256016731
1772366297498056700,2.189056640625,-0.002262367866933346,0.000657930038869381,-0.0004544965922832489
1772366297508126700,2.199126708984375,0.00015445100143551826,-0.0007157283835113049,-0.0020995307713747025
1772366297518196700,2.20919677734375,-0.0018853782676160336,-0.0004485924728214741,-0.00022076163440942764
1772366297528266800,2.219266845703125,0.0016270647756755352,0.001378868706524372,-0.0005129110068082809
1772366297538336800,2.229336669921875,0.0018420927226543427,0.0023969216272234917,-0.0019202986732125282
1772366297548406500,2.239406494140625,-0.0010056253522634506,-0.0008159158751368523,0.0007460573688149452
1772366297558476800,2.249476806640625,-0.001882500946521759,-0.00224578520283103,0.0005890820175409317
1772366297568546800,2.259546875,0.0017649643123149872,-0.0009158025495707989,-0.0020093638449907303
1772366297578616600,2.269616455078125,0.0011666370555758476,-0.00033379485830664635,0.0024570049718022346
1772366297588687600,2.2796875,0.0012771585024893284,-0.00016468390822410583,0.0016213050112128258
1772366297598757600,2.289757568359375,0.001076758373528719,0.000989170279353857,0.0011091474443674088
1772366297608828000,2.299827880859375,-0.0011853305622935295,0.0008853068575263023,0.0016135508194565773
1772366297618897700,2.309897705078125,-0.0005512177012860775,-0.0012538093142211437,-0.0006761429831385612
1772366297628967700,2.3199677734375,-0.0003261812962591648,0.00007643969729542732,-0.0007879957556724548
1772366297639037700,2.33003759765625,0.00036767590790987015,0.0028219972737133503,0.00018365215510129929
1772366297649107700,2.340107666015625,0.0014609037898480892,0.0018150554969906807,-0.000695456750690937
1772366297659177700,2.350177734375,-0.0011676489375531673,0.001725552137941122,0.00009286217391490936
1772366297669247700,2.360247802734375,-0.000510381069034338,0.0002885102294385433,-0.003110388293862343
1772366297679317800,2.37031787109375,-0.0011192825622856617,-0.0033354456536471844,0.004109647125005722
1772366297689387800,2.3803876953125,0.00268184719607234,0.001044122502207756,0.0021306518465280533
1772366297699457500,2.39045751953125,0.000380068551748991,-0.0018527035135775805,-0.0008263019844889641
1772366297709527800,2.40052783203125,0.00195346400141716,0.002171865664422512,0.0019798707216978073
1772366297719597800,2.410597900390625,0.0005945074371993542,0.003643795382231474,0.0004267720505595207
1772366297729667600,2.42066748046875,-0.00011655641719698906,0.00008527934551239014,-0.0010374337434768677
1772366297739738600,2.430738525390625,-0.002249710261821747,-0.0002565160393714905,0.0001671547070145607
1772366297749809000,2.440808837890625,-0.0011825822293758392,0.0010034255683422089,-0.0013926587998867035
1772366297759878700,2.450878662109375,-0.0015029949136078358,0.0024149022065103054,-0.000645994208753109
1772366297769948700,2.46094873046875,-0.000811105128377676,-0.0010637184605002403,-0.0016595935449004173
1772366297780018700,2.471018798828125,0.0015727700665593147,-0.0010779686272144318,-0.002026328817009926
1772366297790088700,2.481088623046875,-0.0016046473756432533,0.00047412188723683357,-0.001935514621436596
1772366297800158700,2.49115869140625,0.001490873284637928,-0.002273657126352191,-0.0004904428496956825
1772366297810228500,2.501228515625,-0.0018370128236711025,0.0004978948272764683,-0.0010608918964862823
1772366297820298800,2.511298828125,-0.0006732442416250706,-0.0033339913934469223,0.0007951613515615463
1772366297830368800,2.52136865234375,-0.0007488778792321682,0.0005185375921428204,0.0021744128316640854
1772366297840439600,2.531439453125,0.0005114860832691193,-0.00033985404297709465,-0.00286026019603014
1772366297850509600,2.541509521484375,-0.0008310135453939438,-0.0008423924446105957,0.0008663013577461243
1772366297860579800,2.551579833984375,-0.00009863777086138725,0.0002287556417286396,-0.0019886204972863197
1772366297870649600,2.561649658203125,-0.0008326047100126743,0.0009795008227229118,0.00039810407906770706
1772366297880719600,2.5717197265625,-0.001463186927139759,-0.0011296262964606285,0.0009253649041056633
1772366297890789600,2.58178955078125,-0.0007686344906687737,0.0014392589218914509,-0.00001126900315284729
1772366297900859600,2.591859619140625,0.0017313221469521523,-0.00222899136133492,0.0017552906647324562
1772366297910929700,2.6019296875,0.0006697862409055233,-0.00029420480132102966,0.0024658218026161194
1772366297920999700,2.611999755859375,-0.0004891385324299335,0.0002517569810152054,0.0007930314168334007
1772366297931069700,2.622069580078125,-0.0011181770823895931,-0.0013405471108853817,-0.0015223203226923943
1772366297941139700,2.6321396484375,0.0022839843295514584,-0.0016912987921386957,0.0002643270418047905
1772366297951209700,2.642209716796875,-0.00010700151324272156,0.0015990366227924824,0.0005596717819571495
1772366297961279700,2.65227978515625,-0.0007271063514053822,-0.0024844505824148655,-0.00061031524091959
1772366297971349800,2.662349853515625,0.0010920986533164978,0.00001892074942588806,-0.00009046588093042374
1772366297981419500,2.67241943359375,-0.0012268703430891037,-0.000722784548997879,-0.0006934851408004761
1772366297991489500,2.682489501953125,0.0024232580326497555,-0.0013576820492744446,0.0004202490672469139
1772366298001559800,2.692559814453125,-0.00035211164504289627,0.003286929801106453,0.00014846306294202805
1772366298011629600,2.702629638671875,0.0013432567939162254,-0.0006974255666136742,-0.00005660019814968109
1772366298021699600,2.712699462890625,-0.0009709475561976433,0.0016744830645620823,-0.0023765377700328827
1772366298031769900,2.722769775390625,0.0009281523525714874,0.00045502185821533203,0.0007843682542443275
1772366298041839600,2.732839599609375,-0.0004706205800175667,-0.00009534135460853577,0.0004213964566588402
1772366298051909600,2.74290966796875,0.0007826634682714939,0.0013006874360144138,0.0009204726666212082
1772366298061979600,2.752979736328125,-0.002269589342176914,-0.0007271775975823402,-0.002098657190799713
1772366298072049700,2.763049560546875,0.0014383294619619846,0.0015002903528511524,-0.0016512461006641388
1772366298082119700,2.77311962890625,0.0014930441975593567,-0.00003571994602680206,-0.0009409291669726372
1772366298092189700,2.783189697265625,0.0013361838646233082,-0.0005656885914504528,-0.0016967346891760826
1772366298102260500,2.793260498046875,0.0015957122668623924,0.000021222978830337524,0.0007712645456194878
1772366298112330800,2.803330810546875,0.00020900415256619453,0.0007783598266541958,0.0029718345031142235
1772366298122400800,2.81340087890625,-0.0004339972510933876,0.00021490827202796936,0.0007653729990124702
1772366298132470500,2.823470458984375,0.0016488614492118359,0.0023028263822197914,-0.0007715374231338501
1772366298142540800,2.833540771484375,-0.0027165585197508335,-0.000971844419836998,-0.0021530939266085625
1772366298152610800,2.84361083984375,-0.00005073472857475281,0.0004015476442873478,0.003451261669397354
1772366298162680600,2.8536806640625,-0.0020086290314793587,0.001739616971462965,0.00033043231815099716
1772366298172750600,2.86375048828125,0.00027875974774360657,0.001492741983383894,-0.0009345691651105881
1772366298182820600,2.873820556640625,-0.0005775084719061852,-0.0018316691275686026,0.0000907164067029953
1772366298192890600,2.883890625,0.0008579352870583534,-0.0021909293718636036,-0.0009569711983203888
1772366298202960600,2.893960693359375,0.0003447975032031536,-0.0012010419741272926,-0.0004453640431165695
1772366298213030700,2.90403076171875,0.00042682280763983727,-0.0033688547555357218,-0.00028983503580093384
1772366298223100700,2.9141005859375,-0.00042449310421943665,-0.00241800001822412,0.0009203553199768066
1772366298233170700,2.924170654296875,-0.0007217014208436012,-0.00571952061727643,-0.00003971438854932785
1772366298243240700,2.93424072265625,0.003678248729556799,-0.002879341831430793,0.0006165150552988052
1772366298253310700,2.944310791015625,0.0006965738721191883,-0.0031666969880461693,0.0006074607372283936
1772366298263380700,2.954380615234375,0.0003890977241098881,0.0007877922616899014,0.0003930535167455673
1772366298273450500,2.964450439453125,-0.0007563279941678047,-0.0017491350881755352,-0.0012903306633234024
1772366298283520800,2.974520751953125,-0.0011602165177464485,0.00035011302679777145,-0.00012927502393722534
1772366298293590800,2.9845908203125,0.0015740511007606983,0.0009285514242947102,0.0013016415759921074
1772366298303660500,2.99466064453125,0.0014970558695495129,0.000253407284617424,0.00042240507900714874
1772366298313730800,3.004730712890625,-0.0016899490728974342,-0.001106402836740017,0.0009981803596019745
1772366298323800600,3.014800537109375,-0.0000783097930252552,0.0007059117779135704,-0.0010169502347707748
1772366298333870600,3.02487060546875,0.0007856199517846107,-0.0006451099179685116,0.0007223598659038544
1772366298343940600,3.034940673828125,-0.0015775379724800587,0.0005759666673839092,-0.0011120252311229706
1772366298354010600,3.0450107421875,0.0023732613772153854,-0.001812090165913105,-0.00014236848801374435
1772366298364080600,3.05508056640625,-0.0022113132290542126,-0.0006162230856716633,-0.0006643692031502724
1772366298374151700,3.065151611328125,0.0007045818492770195,0.0030557438731193542,-0.002329643815755844
1772366298384221400,3.075221435546875,0.001921277493238449,-0.0003882087767124176,0.0012400224804878235
1772366298394291700,3.085291748046875,0.0005329716950654984,0.006630019284784794,-0.0035275686532258987
1772366298404361700,3.09536181640625,-0.0007331077940762043,-0.006149008870124817,-0.00008883979171514511
1772366298414431500,3.105431396484375,-0.0003951531834900379,0.002781369723379612,-0.0005146795883774757
1772366298424501800,3.115501708984375,0.0018616844899952412,-0.005297590978443623,-0.0009446106851100922
1772366298434571800,3.12557177734375,-0.0007801712490618229,-0.001177414320409298,0.0007379744201898575
1772366298444641500,3.1356416015625,0.0014995969831943512,-0.0014443607069551945,-0.0008630715310573578
1772366298454711600,3.145711669921875,-0.0008096294477581978,0.0020041665993630886,-0.0011019576340913773
1772366298464781800,3.15578173828125,0.00035263272002339363,-0.0027075198013335466,-0.0007869461551308632
1772366298474851600,3.1658515625,0.00234654126688838,-0.0028830221854150295,-0.0009952057152986526
1772366298484921600,3.175921630859375,-0.0005436432547867298,0.0005289250984787941,-0.0017573907971382141
1772366298494992000,3.185991943359375,0.002171183470636606,0.0013659563846886158,-0.00074006337672472
1772366298505061600,3.1960615234375,-0.0005080732516944408,0.002125505357980728,0.0011704331263899803
1772366298515131600,3.206131591796875,0.00024826452136039734,-0.0031882997136563063,0.0002702847123146057
1772366298525201700,3.21620166015625,-0.000624075997620821,-0.00046758633106946945,0.00020788144320249557
1772366298535271700,3.226271728515625,0.00015969201922416687,0.0001713060773909092,-0.001855270005762577
1772366298545341700,3.236341796875,0.000671126414090395,-0.00385569641366601,-0.000552707351744175
1772366298555411500,3.246411376953125,0.0009941677562892437,-0.0023544724099338055,0.0013072444126009941
1772366298565481700,3.256481689453125,0.0028611370362341404,0.0012554326094686985,0.0024163974449038506
1772366298575551700,3.2665517578125,0.00014977296814322472,0.00029163481667637825,0.0008248919621109962
1772366298585621500,3.27662158203125,0.0008088466711342335,-0.0011109132319688797,0.00023828167468309402
1772366298595691800,3.28669189453125,-0.0013991803862154484,0.00114345271140337,0.0018942346796393394
1772366298605761800,3.29676171875,0.002503880299627781,-0.0015542167238891125,0.0012242551892995834
1772366298615832600,3.30683251953125,0.002471389714628458,-0.0033411977346986532,-0.00028362683951854706
1772366298625902600,3.316902587890625,-0.00016506435349583626,-0.0024607654195278883,0.00009793229401111603
1772366298635972900,3.326972900390625,0.0017694556154310703,-0.0023206830956041813,-0.0009076772257685661
1772366298646042600,3.337042724609375,-0.0004394366405904293,-0.00042661698535084724,-0.0008654193952679634
1772366298656112600,3.347112548828125,0.0011065280996263027,0.00015448452904820442,-0.0016862060874700546
1772366298666182700,3.3571826171875,0.0005704620853066444,-0.0013708900660276413,0.0027159806340932846
1772366298676252700,3.367252685546875,-0.0002516559325158596,0.0012019895948469639,-0.000017221085727214813
1772366298686322700,3.37732275390625,-0.001307822298258543,0.0012870486825704575,0.0008265320211648941
1772366298696392700,3.387392822265625,0.0006248336285352707,-0.0036041128914803267,-0.0011580558493733406
1772366298706462700,3.397462646484375,-0.0018335324712097645,0.001035965047776699,-0.0020431969314813614
1772366298716532700,3.40753271484375,0.0005622478201985359,-0.0021688828710466623,0.001089213415980339
1772366298726602500,3.4176025390625,-0.001157999038696289,-0.0024983857292681932,-0.0008938247337937355
1772366298736672500,3.427672607421875,-0.0001491936855018139,-0.004178307950496674,-0.0007819719612598419
1772366298746742800,3.43774267578125,0.001775179523974657,0.0015090927481651306,0.0010677976533770561
1772366298756812800,3.447812744140625,-0.0018605682998895645,-0.003682207316160202,-0.0026997756212949753
1772366298766882800,3.4578828125,0.001984274946153164,0.0013532661832869053,0.0016808751970529556
1772366298776952800,3.467952880859375,0.00038105202838778496,0.0006722956895828247,0.0004137428477406502
1772366298787022800,3.47802294921875,-0.00014444440603256226,0.00023749936372041702,-0.0005727270618081093
1772366298797092900,3.4880927734375,-0.0012030508369207382,0.000745896715670824,0.0022265221923589706
1772366298807163000,3.498162841796875,0.0010034479200839996,0.0010761832818388939,0.00024130288511514664
1772366298817234000,3.50823388671875,0.00177390081807971,-0.005828062072396278,-0.0005352748557925224
1772366298827304000,3.518303955078125,-0.0023665940389037132,0.0009508514776825905,-0.0016037244349718094
1772366298837373700,3.528373779296875,0.0009035016410052776,-0.0012585069052875042,0.0008253445848822594
1772366298847443700,3.538443603515625,-0.002716240007430315,-0.00017527956515550613,-0.000450831837952137
1772366298857514000,3.548513916015625,0.001778376754373312,-0.0027609425596892834,0.0017340248450636864
1772366298867583700,3.558583740234375,0.00029461923986673355,-0.0014394319150596857,0.0020445212721824646
1772366298877653800,3.56865380859375,0.0029969289898872375,-0.0013177255168557167,0.0025984589010477066
1772366298887723800,3.578723876953125,-0.001062693540006876,0.0002182922326028347,0.0009847022593021393
1772366298897793800,3.588793701171875,0.00021162861958146095,-0.002008110284805298,0.0022877873852849007
1772366298907863800,3.59886376953125,-0.003784196451306343,-0.0008042673580348492,0.0005463818088173866
1772366298917933800,3.608933837890625,0.00049230782315135,-0.00037230225279927254,-0.0001391163095831871
1772366298928003800,3.61900390625,0.000698877964168787,0.0009625847451388836,0.002951056696474552
1772366298938073900,3.629073974609375,-0.001380251720547676,0.00033274712041020393,0.0005941595882177353
1772366298948143600,3.6391435546875,-0.0012288275174796581,-0.0023613099474459887,0.0004583289846777916
1772366298958214000,3.6492138671875,0.0017323410138487816,-0.0012691477313637733,0.002507631666958332
1772366298968284000,3.659283935546875,0.0018408028408885002,-0.0009218617342412472,0.0003503803163766861
1772366298978353700,3.669353759765625,0.00043705059215426445,-0.0014100191183388233,0.0014593200758099556
1772366298988424000,3.679423828125,-0.0035799997858703136,-0.0022828085348010063,0.0010905060917139053
1772366298998495000,3.689494873046875,0.001237391959875822,0.0002474607899785042,0.0019160863012075424
1772366299008564700,3.699564697265625,-0.0011031627655029297,0.0029554562643170357,0.002214414067566395
1772366299018634800,3.709634765625,0.0008340203203260899,-0.0023445000406354666,0.0006047999486327171
1772366299028704800,3.719704833984375,0.0005456460639834404,-0.0013532107695937157,-0.0002356506884098053
1772366299038774800,3.72977490234375,-0.0005015088245272636,-0.0014259149320423603,0.0017832918092608452
1772366299048844800,3.7398447265625,-0.0013557076454162598,-0.003804224543273449,0.0010063890367746353
1772366299058914800,3.749914794921875,-0.0010965820401906967,-0.0017551884520798922,0.0009177057072520256
1772366299068984800,3.75998486328125,0.0016861786134541035,0.0009832065552473068,-0.0009022438898682594
1772366299079054800,3.770054931640625,0.002921618986874819,-0.001151050440967083,-0.00043432600796222687
1772366299089124600,3.78012451171875,0.0007269945926964283,-0.0007645357400178909,0.0018975073471665382
1772366299099195000,3.79019482421875,-0.00033134501427412033,-0.0005221879109740257,-0.00004873145371675491
1772366299109265000,3.800264892578125,0.0005388390272855759,0.0012949653901159763,-0.0005618277937173843
1772366299119334700,3.810334716796875,0.00034842314198613167,0.000585765577852726,-0.0007322700694203377
1772366299129404700,3.82040478515625,-0.0022658100351691246,-0.0007673967629671097,0.002079388126730919
1772366299139475000,3.830474853515625,-0.0002282252535223961,0.001694162841886282,-0.0013046907261013985
1772366299149544700,3.840544677734375,-0.004418506287038326,-0.0014308977406471968,0.0030770301818847656
1772366299159614700,3.85061474609375,-0.001034960150718689,0.001481535378843546,-0.000537412241101265
1772366299169685800,3.860685791015625,0.00034887949004769325,-0.0014668544754385948,0.0009484579786658287
1772366299179755800,3.870755859375,-0.000603200402110815,-0.0022149363067001104,-0.0030606649816036224
1772366299189825800,3.88082568359375,0.0006202752701938152,-0.001251889392733574,-0.00018059462308883667
1772366299199895800,3.890895751953125,-0.00230227829888463,0.000020302366465330124,0.0005190176889300346
1772366299209965800,3.9009658203125,0.00107988016679883,0.00035540107637643814,0.003065364435315132
1772366299220035800,3.911035888671875,0.0015946696512401104,-0.0010472862049937248,0.0006317682564258575
1772366299230105900,3.92110595703125,-0.0005832049064338207,-0.0005817417986690998,0.0012934254482388496
1772366299240175600,3.931175537109375,-0.0006463215686380863,-0.0021679203491657972,0.0006534671410918236
1772366299250246000,3.941245849609375,0.0003529987297952175,-0.003372768871486187,0.00016662944108247757
1772366299260316000,3.95131591796875,-0.0003173188306391239,-0.0021413234062492847,0.0016393577679991722
1772366299270385700,3.9613857421875,0.000894343014806509,-0.002041284227743745,0.001020980067551136
1772366299280456000,3.9714560546875,-0.0006462959572672844,-0.0030375728383660316,0.0005429424345493317
1772366299290526000,3.98152587890625,-0.001750259194523096,-0.004578480962663889,0.00034120120108127594
1772366299300594000,3.991593994140625,-0.0000194706954061985,0.0011190860532224178,-0.0011440441012382507
1772366299310663700,4.00166357421875,0.0018516960553824902,-0.003054165281355381,0.0007156962528824806
1772366299320733700,4.011733642578125,0.00009640678763389587,0.0002665300853550434,0.0025900285691022873
1772366299330804000,4.021803955078125,-0.0003196028992533684,-0.0013160193338990211,-0.00041289906948804855
1772366299340873700,4.031873779296875,-0.0005965717136859894,-0.0011088252067565918,0.00023105274885892868
1772366299350943700,4.04194384765625,0.0014620055444538593,0.0011889212764799595,0.002310577780008316
1772366299361014000,4.052013916015625,-0.0005635949783027172,0.00033937301486730576,-0.0005941316485404968
1772366299371084800,4.062084716796875,0.001528054941445589,-0.00342335132881999,-0.00003222934901714325
1772366299381154800,4.07215478515625,-0.001086636446416378,0.0009735277853906155,0.0014956267550587654
1772366299391224800,4.082224853515625,0.0010424116626381874,-0.0006441879086196423,-0.0008097691461443901
1772366299401294600,4.092294677734375,0.00038807280361652374,0.0013742218725383282,0.0008248789235949516
1772366299411364900,4.10236474609375,0.00035500293597579,0.0005979035049676895,-0.0008101863786578178
1772366299421435000,4.112434814453125,-0.0004647183232009411,0.0017782165668904781,0.0018798718228936195
1772366299431504600,4.122504638671875,0.00037673721089959145,0.0009729117155075073,0.0030290791764855385
1772366299441575000,4.132574951171875,0.0027528093196451664,-0.0016252680215984583,-0.0013025524094700813
1772366299451645000,4.14264501953125,-0.0013487623073160648,-0.0005417638458311558,-0.0019710445776581764
1772366299461714700,4.152714599609375,0.0004994720220565796,-0.0007425658404827118,0.0014109034091234207
1772366299471784700,4.16278466796875,0.00003237137570977211,-0.0017069268506020308,-0.00043194275349378586
1772366299481855000,4.17285498046875,0.0011610188521444798,0.0013075051829218864,-0.002771263010799885
1772366299491924700,4.1829248046875,0.00005641300231218338,-0.0005417522042989731,0.0009321486577391624
1772366299501994800,4.192994873046875,-0.0010434729047119617,0.0006880955770611763,-0.000316607765853405
1772366299512064800,4.203064697265625,-0.000570214819163084,0.0014906679280102253,0.0004887906834483147
1772366299522134800,4.213134765625,-0.001738011371344328,-0.0024896925315260887,0.0008256807923316956
1772366299532204800,4.223204833984375,-0.0033388077281415462,0.0006568040698766708,-0.00007657893002033234
1772366299542275800,4.23327587890625,-0.0016788593493402004,0.00197613425552845,0.0008078571408987045
1772366299552345900,4.243345947265625,0.002085353247821331,0.0005827597342431545,-0.00027929432690143585
1772366299562415900,4.253415771484375,-0.002882240805774927,0.0002852845937013626,0.0018725404515862465
1772366299572485600,4.263485595703125,0.0013149343430995941,-0.003479310777038336,0.0006261300295591354
1772366299582555600,4.2735556640625,-0.00020493147894740105,-0.0012292061001062393,-0.0008151726797223091
1772366299592626000,4.2836259765625,0.000036179088056087494,-0.0008517131209373474,0.0014618532732129097
1772366299602695700,4.29369580078125,-0.0008607730269432068,-0.00014837225899100304,-0.000664946623146534
1772366299612765700,4.303765625,0.00015171198174357414,0.0025144298560917377,-0.0008187945932149887
1772366299622836000,4.3138359375,0.0005767522379755974,-0.0010363627225160599,0.0024124188348650932
1772366299632905700,4.32390576171875,0.0003022202290594578,0.0002763848751783371,-0.000027867965400218964
1772366299642975700,4.333975830078125,-0.000022419262677431107,0.000303016509860754,-0.00038712844252586365
1772366299653046000,4.3440458984375,-0.004445703234523535,-0.0012887939810752869,-0.00022451020777225494
1772366299663115800,4.35411572265625,0.0007296176627278328,0.00032721227034926414,-0.0009680641815066338
1772366299673185800,4.364185791015625,-0.0000847172923386097,-0.00029516126960515976,-0.0002979980781674385
1772366299683255800,4.374255859375,-0.0006189476698637009,-0.0010831905528903008,-0.0007773665711283684
1772366299693325800,4.384325927734375,0.0011851084418594837,0.0006704498082399368,0.0013555828481912613
1772366299703395800,4.394395751953125,0.00029241712763905525,0.00243585929274559,0.0008799415081739426
1772366299713467000,4.404466796875,0.0020307027734816074,0.0023928782902657986,-0.0029547475278377533
1772366299723536600,4.41453662109375,0.0017753057181835175,-0.00033419858664274216,0.00040190108120441437
1772366299733607000,4.42460693359375,0.0003073546104133129,-0.0023622317239642143,0.0008027190342545509
1772366299743676200,4.43467626953125,-0.000574418343603611,-0.0009944322519004345,0.0019987449049949646
1772366299753746200,4.44474609375,-0.000960606150329113,-0.0012808956671506166,0.001050359569489956
1772366299763816200,4.454816162109375,-0.00036139506846666336,0.0008475026115775108,0.0006514182314276695
1772366299773886200,4.46488623046875,-0.00035942066460847855,-0.0009939270094037056,-0.0004853401333093643
1772366299783956200,4.474956298828125,0.00011648610234260559,-0.000654374249279499,-0.0015178481116890907
1772366299794026200,4.485026123046875,-0.0003921813331544399,-0.000013931654393672943,0.0019385088235139847
1772366299804096300,4.49509619140625,-0.001180743332952261,-0.001323407981544733,-0.0016562258824706078
1772366299814166300,4.505166259765625,-0.0018493225798010826,-0.0006259731017053127,-0.00045546889305114746
1772366299824236000,4.515236083984375,0.0004862700589001179,0.0017543602734804153,-0.0004341639578342438
1772366299834306300,4.525306396484375,0.00023225601762533188,0.001492439303547144,-0.0016731824725866318
1772366299844376300,4.535376220703125,0.0001672748476266861,-0.0007110601291060448,-0.0009583905339241028
1772366299854446000,4.545446044921875,0.000026931054890155792,0.0014501744881272316,-0.001096273772418499
1772366299864516400,4.555516357421875,-0.0021059950813651085,0.0000959569588303566,0.0010539628565311432
1772366299874587400,4.56558740234375,0.001505082007497549,-0.002640829421579838,0.0001808740198612213
1772366299884657200,4.5756572265625,0.0006217113696038723,0.0008239434100687504,-0.0006716037169098854
1772366299894729200,4.585729248046875,0.0005013439804315567,0.0008102580904960632,0.002870667725801468
1772366299904799200,4.59579931640625,-0.00028029363602399826,0.0018294500187039375,-0.0003080815076828003
1772366299914869200,4.605869140625,0.00021972833201289177,0.000805168878287077,-0.0019527561962604523
1772366299924939300,4.615939208984375,0.0006375783123075962,0.0010722838342189789,-0.0014944253489375114
1772366299935009300,4.62600927734375,-0.0011095418594777584,0.0010330318473279476,0.0001970399171113968
1772366299945079300,4.636079345703125,0.00008248863741755486,0.0001805541105568409,0.00106150284409523
1772366299955149000,4.646149169921875,-0.000777446199208498,0.0006788317114114761,0.001096390187740326
1772366299965219300,4.65621923828125,0.0008209776133298874,0.00249575637280941,0.0005904501304030418
1772366299975289000,4.6662890625,-0.002191815059632063,-0.0018415481317788363,0.00014210492372512817
1772366299985359000,4.676359130859375,0.00036375410854816437,0.0024179117754101753,-0.0005231527611613274
1772366299995429400,4.686429443359375,0.0006857756525278091,0.00017774617299437523,-0.0007948568090796471
1772366300005500400,4.69650048828125,-0.00031397538259625435,0.003652106039226055,0.0012206239625811577
1772366300015570200,4.706570068359375,0.0008894791826605797,-0.00004691071808338165,-0.0031036175787448883
1772366300025640200,4.71664013671875,-0.0008559566922485828,0.002933432348072529,0.0011430587619543076
1772366300035710200,4.726710205078125,-0.0015100250020623207,0.0020606163889169693,-0.0005637016147375107
1772366300045780200,4.7367802734375,0.000502259936183691,0.0019881785847246647,-0.002631113864481449
1772366300055850200,4.746850341796875,0.0013516684994101524,0.00026385486125946045,0.00013694167137145996
1772366300065920000,4.756919921875,-0.0010233386419713497,-0.00027357134968042374,0.00022109784185886383
1772366300075990300,4.766990234375,0.00027754902839660645,-0.0004179333336651325,-0.0008989190682768822
1772366300086060300,4.777060302734375,0.0006163031794130802,0.0006558531895279884,-0.001432083547115326
1772366300096130000,4.787130126953125,-0.0011263652704656124,-0.0002753930166363716,-0.0010893754661083221
1772366300106200300,4.797200439453125,-0.0007833498530089855,-0.002018432132899761,0.0012784404680132866
1772366300116270300,4.807270263671875,-0.0012566796503961086,0.0005186125636100769,0.00009139534085988998
1772366300126340000,4.817340087890625,-0.0018979688175022602,0.0002815909683704376,0.0025249915197491646
1772366300136410000,4.82741015625,-0.001174380537122488,0.0026517845690250397,0.0017281072214245796
1772366300146480400,4.83748046875,0.0015718708746135235,-0.0013285758905112743,-0.0019225534051656723
1772366300156550100,4.847550048828125,-0.001080300658941269,0.002231891732662916,0.00005177594721317291
1772366300166620200,4.8576201171875,0.0015085581690073013,0.0011027115397155285,0.00132742989808321
1772366300176691200,4.867691162109375,0.0024396697990596294,0.0017905272543430328,0.0002417275682091713
1772366300186761200,4.87776123046875,-0.000884221401065588,-0.0005991272628307343,0.0004707593470811844
1772366300196831200,4.887831298828125,0.0008257119916379452,0.0028537525795400143,0.0006667999550700188
1772366300206901200,4.8979013671875,0.0003394186496734619,-0.0013050397392362356,-0.0008746376261115074
1772366300216971300,4.90797119140625,-0.0002756444737315178,0.0008949898183345795,0.0018201377242803574
1772366300227041300,4.918041259765625,-0.0012516933493316174,0.0006302716210484505,0.000356198288500309
1772366300237111300,4.928111328125,0.002193594351410866,0.0017994255758821964,0.0003598639741539955
1772366300247181000,4.93818115234375,0.0008066203445196152,0.0010097986087203026,-0.0009552054107189178
1772366300257251300,4.948251220703125,0.0017868280410766602,0.0002337801270186901,0.0002963924780488014
1772366300267321000,4.958321044921875,0.0017226459458470345,0.0012897239066660404,0.00015418045222759247
1772366300277391000,4.96839111328125,-0.0014424631372094154,0.0019694329239428043,0.002141176722943783
1772366300287461400,4.97846142578125,0.0023876954801380634,0.00343230739235878,0.0006218431517481804
1772366300297531100,4.98853125,0.0006683869287371635,0.0016427631489932537,-0.0008098706603050232
1772366300307601200,4.99860107421875,-0.0015209983102977276,0.0006659156642854214,0.0018136091530323029
1772366300317671400,5.00867138671875,-0.0013880492188036442,0.001778292004019022,-0.0026236483827233315
1772366300327741200,5.0187412109375,-0.002433073241263628,-0.0006720824167132378,0.0010935915634036064
1772366300337811200,5.028811279296875,-0.00009522680193185806,0.000628940761089325,0.0002358853816986084
1772366300347881200,5.038881103515625,0.0007026558741927147,-0.0004863911308348179,0.001768268644809723
1772366300357952000,5.048951904296875,0.0000484418123960495,-0.000532771460711956,-0.0007894746959209442
1772366300368022300,5.059022216796875,-0.0024442775174975395,-0.0022651576437056065,0.002521633170545101
1772366300378092300,5.06909228515625,-0.0003041774034500122,0.0007456932216882706,-0.0019174851477146149
1772366300388162000,5.079162109375,-0.0006328108720481396,0.002983547281473875,-0.0004197238013148308
1772366300398232300,5.089232421875,0.0009261257946491241,-0.0012571956031024456,-0.0010184599086642265
1772366300408302300,5.09930224609375,0.0011253305710852146,-0.001166648231446743,0.0027065034955739975
1772366300418372000,5.1093720703125,0.0005507422611117363,-0.0005398220382630825,-0.0004839478060603142
1772366300428442000,5.119442138671875,0.000551008153706789,-0.0011110701598227024,0.0019081030040979385
1772366300438512400,5.129512451171875,-0.0012983991764485836,0.0018940884619951248,-0.00020077917724847794
1772366300448582100,5.13958203125,0.000460086390376091,0.0033772028982639313,-0.00010863319039344788
1772366300458652200,5.149652099609375,-0.0013189157471060753,-0.001351577928289771,0.0004808492958545685
1772366300468722200,5.15972216796875,-0.0001990566961467266,-0.000046362634748220444,0.0005647391080856323
1772366300478792200,5.169792236328125,0.0015430627390742302,-0.0010762759484350681,0.0024066781625151634
1772366300488862200,5.1798623046875,0.0005038976669311523,0.0004521124064922333,-0.001021343283355236
1772366300498932200,5.18993212890625,0.0038945521228015423,-0.0010768244974315166,-0.00020324159413576126
1772366300509002200,5.200002197265625,0.000024180393666028976,0.001661970280110836,-0.001976640895009041
1772366300519072300,5.210072265625,0.002733695786446333,-0.001486082561314106,0.0035073570907115936
1772366300529142000,5.22014208984375,-0.0014330861158668995,0.001657778862863779,0.001271100714802742
1772366300539212300,5.23021240234375,0.0016839499585330486,0.0017578182741999626,0.00038960017263889313
1772366300549283300,5.240283447265625,0.001547595951706171,-0.001008140854537487,-0.0003182673826813698
1772366300559353000,5.25035302734375,-0.001732326578348875,-0.0014224739279597998,0.0002450598403811455
1772366300569423000,5.260423095703125,0.0022304574958980083,-0.000952425878494978,-0.0015315348282456398
1772366300579493400,5.270493408203125,-0.0020161988213658333,0.002169033046811819,0.0013553136959671974
1772366300589563100,5.280563232421875,0.00020860601216554642,-0.0018933529499918222,0.0020432081073522568
1772366300599633200,5.290633056640625,-0.0016930573619902134,-0.00025228923186659813,0.0019498281180858612
1772366300609703400,5.300703369140625,0.002478518057614565,0.00039086397737264633,-0.0010156016796827316
1772366300619773200,5.310773193359375,-0.0005157548002898693,-0.0005530123598873615,-0.0022729746997356415
1772366300629843200,5.32084326171875,-0.0007988489232957363,0.0005527320317924023,-0.0007720170542597771
1772366300639913200,5.330913330078125,-0.0005575432442128658,0.0003435397520661354,0.0009469976648688316
1772366300649983200,5.340983154296875,0.00011570379137992859,-0.00007564201951026917,-0.0013156244531273842
1772366300660053200,5.35105322265625,-0.0005446309223771095,0.000054377131164073944,-0.0008885292336344719
1772366300670123000,5.361123046875,0.00010704481974244118,-0.0013797350693494081,-0.0011164955794811249
1772366300680193300,5.371193359375,0.001058440189808607,-0.0027923777233809233,0.0019696978852152824
1772366300690263300,5.38126318359375,-0.0010313424281775951,-0.0007995343767106533,-0.001674305647611618
1772366300700333000,5.3913330078125,-0.0012229750864207745,0.0010479437187314034,0.0017147911712527275
1772366300710403300,5.4014033203125,0.0011107525788247585,0.000573101919144392,-0.002999003976583481
1772366300720473300,5.411473388671875,-0.0007444070652127266,0.0003924802877008915,-0.0006265593692660332
1772366300730543000,5.421543212890625,-0.00034573208540678024,0.0005224426276981831,-0.0005549201741814613
1772366300740614400,5.431614501953125,0.0005548517219722271,0.0005573644302785397,-0.00008560530841350555
1772366300750684200,5.44168408203125,0.0016978802159428596,-0.0013068483676761389,-0.0002400679513812065
1772366300760754400,5.45175439453125,-0.0007690023630857468,-0.0029543773271143436,0.002036474645137787
1772366300770824400,5.461824462890625,-0.0005911029875278473,0.00012290524318814278,0.0006609521806240082
1772366300780894200,5.471894287109375,-0.001830283086746931,0.0019019925966858864,0.000861242413520813
1772366300790964500,5.481964599609375,-0.0011993800289928913,0.0006119576282799244,-0.0016509182751178741
1772366300801034500,5.492034423828125,0.0001336713321506977,-0.0003120647743344307,0.0007081720978021622
1772366300811104300,5.502104248046875,-0.00008364254608750343,-0.001985595328733325,-0.0010527102276682854
1772366300821174300,5.51217431640625,-0.0016957484185695648,-0.000749342143535614,-0.0008025849238038063
1772366300831244300,5.522244384765625,-0.0016038687899708748,-0.0019946361426264048,0.0012560384348034859
1772366300841314300,5.532314208984375,-0.00013634981587529182,0.0010890462435781956,0.0011841487139463425
1772366300851384300,5.54238427734375,-0.000929173082113266,0.001522342674434185,-0.0017634378746151924
1772366300861454300,5.552454345703125,0.0009579858742654324,-0.0003346037119626999,0.00258447602391243
1772366300871524400,5.5625244140625,0.0006666360422968864,0.0016158954240381718,-0.0006033275276422501
1772366300881594400,5.572594482421875,0.00024426309391856194,-0.003988935612142086,0.0010978374630212784
1772366300891664400,5.582664306640625,-0.0023528519086539745,0.0009621470235288143,0.0019953222945332527
1772366300901734400,5.592734375,-0.0017082449048757553,0.0003285259008407593,-0.0031577106565237045
1772366300911804400,5.602804443359375,-0.00024643586948513985,0.00017725815996527672,0.0005704481154680252
1772366300921874200,5.612874267578125,-0.001314601395279169,-0.0020957444794476032,0.0019522067159414291
1772366300931944400,5.6229443359375,0.00137412641197443,0.0017429357394576073,-0.00147208571434021
1772366300942014500,5.633014404296875,0.0027732746675610542,-0.0009665703400969505,-0.0002518305554986
1772366300952085200,5.643085205078125,-0.00014288676902651787,-0.0004304759204387665,0.0013138419017195702
1772366300962155300,5.6531552734375,0.0020142635330557823,-0.000806120689958334,0.0007773302495479584
1772366300972225500,5.6632255859375,-0.000870472751557827,-0.0002668304368853569,-0.0007217638194561005
1772366300982295300,5.67329541015625,0.0010255714878439903,-0.002109859837219119,-0.0007869955152273178
1772366300992365300,5.683365234375,-0.0010711350478231907,0.0006441147997975349,-0.0018682386726140976
1772366301002435300,5.693435302734375,0.0014806892722845078,-0.00005255546420812607,0.0006634276360273361
1772366301012505300,5.70350537109375,0.0028026825748384,-0.0006096884608268738,-0.002731836400926113
1772366301022575400,5.713575439453125,-0.0003774627111852169,0.0011398610658943653,-0.0015300503000617027
1772366301032645000,5.72364501953125,0.00155998719856143,-0.0012833490036427975,-0.002956172451376915
1772366301042715400,5.73371533203125,0.0002401759847998619,0.00013640942052006721,0.0004269145429134369
1772366301052785400,5.743785400390625,0.00039224280044436455,-0.002404512371867895,0.0004373006522655487
1772366301062855200,5.753855224609375,-0.0000951625406742096,0.0013283449225127697,-0.0004684431478381157
1772366301072925400,5.763925537109375,0.003571211127564311,-0.001675434410572052,0.0012415731325745583
1772366301082995500,5.773995361328125,0.000015996862202882767,0.0012830207124352455,-0.0017407992854714394
1772366301093065200,5.784065185546875,0.0009124167263507843,-0.0010858611203730106,-0.0006654150784015656
1772366301103135200,5.79413525390625,-0.000006936956197023392,0.0012482465244829655,0.0016682930290699005
1772366301113205500,5.80420556640625,-0.0020101661793887615,-0.0024349051527678967,0.002103187143802643
1772366301123275300,5.814275146484375,-0.0035255756229162216,-0.0004956298507750034,-0.0010662432760000229
1772366301133345300,5.82434521484375,-0.0003162003122270107,-0.005088783800601959,0.0002570813521742821
1772366301143415600,5.83441552734375,0.0005684094503521919,0.0013723941519856453,-0.0002618608996272087
1772366301153485300,5.8444853515625,0.0017164982855319977,-0.00017303833737969398,-0.001231517642736435
1772366301163556400,5.854556396484375,0.0010887780226767063,-0.0033335310872644186,-0.0004414869472384453
1772366301173626400,5.86462646484375,-0.0020007556304335594,-0.0011963443830609322,-0.0014524227008223534
1772366301183696400,5.8746962890625,-0.0023345723748207092,0.0012954198755323887,0.00050320103764534
1772366301193766400,5.884766357421875,0.0025366153568029404,-0.0025786804035305977,-4.032626748085022e-7
1772366301203836400,5.89483642578125,-0.0013411222025752068,-0.0028891314286738634,0.0014819269999861717
1772366301213906200,5.90490625,-0.0011682827025651932,-0.001028913538902998,-0.0011506080627441406
1772366301223976400,5.9149765625,0.00027902936562895775,0.0009276741184294224,0.0005080793052911758
1772366301234046200,5.925046142578125,0.000035616569221019745,0.0005364557728171349,0.0016905227676033974
1772366301244116200,5.9351162109375,-0.0005132225342094898,-0.0020863586105406284,-0.00040204450488090515
1772366301254186500,5.9451865234375,0.0006404588930308819,-0.0012903395108878613,-0.0005879336968064308
1772366301264256300,5.95525634765625,-0.0014965743757784367,-0.00020991498604416847,0.0008442932739853859
1772366301274326300,5.965326171875,-0.0003319741226732731,0.00010300660505890846,-0.0002510650083422661
1772366301284396300,5.975396240234375,-0.00101828807964921,-0.002318756189197302,0.000998491421341896
1772366301294466300,5.98546630859375,0.0002634916454553604,0.0018509551882743835,0.00048743002116680145
1772366301304536300,5.995536376953125,-0.0009145056828856468,-0.0024298622738569975,0.0008951444178819656
1772366301314606300,6.0056064453125,0.0005121496506035328,-0.0009874943643808365,0.001877318136394024
1772366301324676400,6.01567626953125,-0.00019362475723028183,-0.0023293395061045885,-0.001005728729069233
1772366301334746400,6.025746337890625,-0.0008112117648124695,0.0014568767510354519,-0.0009961407631635666
1772366301344816400,6.03581640625,0.0009013395756483078,0.00009116856381297112,0.0006223442032933235
1772366301354886400,6.045886474609375,-0.001485651358962059,-0.0023024806287139654,0.0009525762870907784
1772366301364956400,6.055956298828125,-0.002264720853418112,-0.0017870855517685413,0.0010014474391937256
1772366301375026200,6.066026123046875,0.0019896789453923702,0.0017669028602540493,-0.0012356080114841461
1772366301385097200,6.07609716796875,-0.0003491053357720375,0.0011107265017926693,0.003508620895445347
1772366301395167200,6.086167236328125,-0.002264183945953846,-0.00005387375131249428,0.0011772895231842995
1772366301405237500,6.096237548828125,-0.0023355484008789062,-0.0022770538926124573,-0.001001494936645031
1772366301415307300,6.106307373046875,-0.0011155540123581886,-0.003118080087006092,0.0004286225885152817
1772366301425377300,6.116377197265625,-0.0011450829915702343,-0.0018570299725979567,0.0002300916239619255
1772366301435447600,6.126447509765625,0.0003963541239500046,0.0013368991203606129,0.00016750767827033997
1772366301445517300,6.136517333984375,0.00023964978754520416,-0.0004516500048339367,0.002103290520608425
1772366301455587300,6.14658740234375,-0.0012155012227594852,-0.005445077084004879,-0.0027761533856391907
1772366301465657300,6.1566572265625,0.0009340099059045315,0.000036213546991348267,0.00169390719383955
1772366301475727400,6.166727294921875,-0.0028151883743703365,-0.0025752822402864695,-0.001304013654589653
1772366301485797400,6.17679736328125,0.00042959023267030716,-0.0007047196850180626,0.0003118971362709999
1772366301495867100,6.1868671875,-0.0012750993482768536,0.00016400357708334923,-0.0004162108525633812
1772366301505937400,6.1969375,-0.0003955727443099022,-0.002998123876750469,0.0011473707854747772
1772366301516007400,6.20700732421875,0.001440144143998623,-0.0026124981231987476,-0.0005485303699970245
1772366301526077200,6.2170771484375,0.0007003243081271648,-0.0004135831259191036,-0.0000562276691198349
1772366301536147500,6.2271474609375,0.00021429779008030891,-0.00203970936127007,0.001031407155096531
1772366301546217500,6.237217529296875,0.00024740351364016533,-0.0017143290024250746,-0.00022234395146369934
1772366301556287200,6.247287353515625,-0.0014173388481140137,0.0002409638836979866,0.0018916735425591469
1772366301566357200,6.257357177734375,-0.00046828947961330414,0.0016620056703686714,0.0011598709970712662
1772366301576427300,6.26742724609375,0.000516280997544527,-0.0003492133691906929,0.0009047398343682289
1772366301586497300,6.277497314453125,0.0033554635010659695,-0.00295580574311316,-0.0005996804684400558
1772366301596567300,6.2875673828125,-0.00004832260310649872,0.002498614601790905,-0.0015680063515901566
1772366301606638300,6.297638427734375,0.0012205555103719234,-0.00009789131581783295,-0.0021580206230282784
1772366301616708400,6.307708251953125,-0.0002601621672511101,0.0003228881396353245,-0.0007207123562693596
1772366301626778400,6.3177783203125,0.0013665957376360893,-0.0004187673330307007,-6.798654794692993e-8
1772366301636848400,6.327848388671875,-0.0005080034025013447,0.0018494469113647938,-0.00176174845546484
1772366301646918400,6.33791845703125,0.0009478074498474598,0.0002266010269522667,0.000779823400080204
1772366301656988400,6.347988525390625,-0.0008535548113286495,-0.00008312473073601723,0.0013063298538327217
1772366301667058200,6.35805810546875,-0.0012298459187150002,0.001095995306968689,0.0017164051532745361
1772366301677128200,6.368128173828125,0.00027510663494467735,-0.0000028247013688087463,0.0020935088396072388
1772366301687198500,6.378198486328125,-0.0003692605532705784,0.0015992633998394012,-0.001560070551931858
1772366301697268200,6.388268310546875,0.0012534032575786114,0.0004085642285645008,-0.0018506217747926712
1772366301707338200,6.398338134765625,0.0007805577479302883,-0.0015087046194821596,0.001432894729077816
1772366301717408500,6.408408447265625,0.0007118480280041695,0.0005121021531522274,-0.0016968520358204842
1772366301727478300,6.418478271484375,-0.00048080645501613617,-0.002252188976854086,-0.0006114542484283447
1772366301737548300,6.42854833984375,0.0011285417713224888,0.00011562742292881012,0.0007973583415150642
1772366301747618600,6.43861865234375,-0.0005639693699777126,-0.0033813398331403732,-0.0005556056275963783
1772366301757688600,6.4486884765625,0.00042752549052238464,0.00007171463221311569,0.001968005672097206
1772366301767758600,6.458758544921875,-0.0009676394984126091,-0.0009408378973603249,-0.0009041968733072281
1772366301777828400,6.468828369140625,-0.0004288824275135994,-0.0022638964001089334,0.0017163529992103577
1772366301787898600,6.478898681640625,0.0014367070980370045,-0.0001348135992884636,0.0013803774490952492
1772366301797968600,6.48896875,0.0006950167007744312,-0.0007049967534840107,0.0018336474895477295
1772366301808038400,6.499038330078125,-0.000004655215889215469,-0.0008882004767656326,0.0010645613074302673
1772366301818108700,6.509108642578125,0.0015338528901338577,0.0017310180701315403,0.0014166319742798805
1772366301828178700,6.5191787109375,0.001454908400774002,0.0031598093919456005,0.0001213299110531807
1772366301838248400,6.52924853515625,0.0018077772110700607,-0.000204562209546566,0.0014651613309979439
1772366301848319500,6.539319580078125,0.0008099605329334736,-0.00033851852640509605,0.0007309084758162498
1772366301858389500,6.549389404296875,0.0010445849038660526,0.00006042327731847763,0.00020147208124399185
1772366301868459500,6.55945947265625,-0.002306227572262287,-0.0006236275658011436,0.0006050439551472664
1772366301878529500,6.569529541015625,-0.000814058817923069,0.0002983585000038147,-0.0010003093630075455
1772366301888599600,6.579599609375,0.0006269426085054874,-0.0017954616341739893,0.001451045274734497
1772366301898669600,6.589669677734375,0.00004530837759375572,-0.0010798703879117966,-0.0021016113460063934
1772366301908739600,6.599739501953125,-0.0005761738866567612,-0.0022698212414979935,0.00026258453726768494
1772366301918809600,6.6098095703125,-0.0009428905323147774,-0.0012604831717908382,0.0013864384964108467
1772366301928879600,6.619879638671875,0.00009872671216726303,0.0016861292533576488,0.00036498531699180603
1772366301938949600,6.62994970703125,-0.0011931722983717918,-0.00037462497130036354,0.0010440917685627937
1772366301949019400,6.640019287109375,0.00009666197001934052,-0.0011619729921221733,-0.001759929582476616
1772366301959089400,6.65008935546875,0.00033315038308501244,-0.002715660957619548,-0.0001409938558936119
1772366301969159700,6.66015966796875,0.0012505948543548584,-0.0005060886032879353,0.0007301820442080498
1772366301979229400,6.6702294921875,-0.000247166957706213,-0.000576396007090807,0.0009072823449969292
1772366301989299500,6.680299560546875,-0.0006230655126273632,-0.0018447218462824821,-0.0013719750568270683
1772366301999369700,6.69036962890625,0.002047286368906498,0.0046488638035953045,0.00042272917926311493
1772366302009439500,6.700439453125,0.001362350769340992,-0.0010027815587818623,-0.0019909245893359184
1772366302019509500,6.710509521484375,0.002981286495923996,0.001622030045837164,0.0004930049180984497
1772366302029579500,6.72057958984375,-0.0027728849090635777,0.00011391239240765572,-0.0009751589968800545
1772366302039649500,6.7306494140625,0.0012929625809192657,0.001346423290669918,0.00003737490624189377
1772366302049719600,6.740719482421875,-0.0018069143407046795,-0.0017951836343854666,-0.00008256174623966217
1772366302059789600,6.75078955078125,-0.0011099656112492085,0.0005281581543385983,0.0030189547687768936
1772366302069859600,6.760859619140625,0.0017090882174670696,0.0024960138835012913,0.001339498907327652
1772366302079929600,6.7709296875,0.00024221884086728096,0.0014693653210997581,0.0009464165195822716
1772366302089999400,6.780999267578125,0.00048304954543709755,0.0004830877296626568,0.0019412878900766373
1772366302100069600,6.791069580078125,0.0013251411728560925,-0.00018430035561323166,0.000059232115745544434
1772366302110140700,6.801140625,-0.0023940843529999256,-0.0003436235710978508,0.00017702393233776093
1772366302120210700,6.811210693359375,0.0007998445071280003,0.0017272504046559334,0.00023188535124063492
1772366302130280400,6.821280517578125,0.001010002102702856,0.0005190661177039146,0.0014668311923742294
1772366302140350500,6.8313505859375,0.0017721988260746002,0.0035135243088006973,-0.000858641229569912
1772366302150420700,6.841420654296875,0.0006573926657438278,0.0009603365324437618,0.001542992889881134
1772366302160490500,6.851490478515625,0.0005862866528332233,0.0011009518057107925,0.0027557965368032455
1772366302170560500,6.861560546875,-0.00006122235208749771,-0.0006445073522627354,0.0013872506096959114
1772366302180630500,6.871630615234375,-0.0008489852771162987,0.00007587764412164688,-0.0004439381882548332
1772366302190700500,6.881700439453125,0.0012791892513632774,0.000021529849618673325,-0.00096090417355299
1772366302200770600,6.8917705078125,0.0005257809534668922,0.00009023956954479218,0.0006007738411426544
1772366302210840600,6.901840576171875,-0.0037625981494784355,-0.0007425234653055668,-0.0009312033653259277
1772366302220910600,6.91191064453125,0.0008585192263126373,-0.0012826123274862766,0.0017521977424621582
1772366302230980600,6.921980712890625,-0.0010765180923044682,-0.000021404121071100235,0.0030628833919763565
1772366302241050400,6.93205029296875,-0.0016200686804950237,-0.0018587189260870218,0.0013709766790270805
1772366302251120600,6.94212060546875,0.0001406022347509861,-0.002259158296510577,0.004097426310181618
1772366302261190700,6.952190673828125,0.00016643479466438293,-0.0010673939250409603,0.00025608204305171967
1772366302271260400,6.962260498046875,0.001599863637238741,-0.001831362023949623,0.0011226637288928032
1772366302281330700,6.97233056640625,-0.002189548220485449,-0.00021775253117084503,0.0007924316450953484
1772366302291400400,6.982400390625,0.0011450694873929024,-0.000434274785220623,0.0011297641322016716
1772366302301470500,6.992470458984375,0.0012076538987457752,-0.0005155014805495739,0.0028565581887960434
1772366302311540500,7.00254052734375,0.00029481761157512665,-0.0009968634694814682,-0.0019457228481769562
1772366302321610500,7.012610595703125,-0.0010508778505027294,-0.0012101824395358562,0.0015206476673483849
1772366302331680500,7.022680419921875,0.0004992024041712284,-0.001101276371628046,-0.0019010445103049278
1772366302341750500,7.03275048828125,0.0006880206055939198,0.0009706625714898109,-0.0018560374155640602
1772366302351820500,7.042820556640625,0.0013140598312020302,-0.0010539856739342213,-0.003227132372558117
1772366302361890600,7.052890625,-0.0013871840201318264,0.0009942511096596718,-0.001284089870750904
1772366302371961600,7.062961669921875,0.0001957230269908905,-7.962808012962341e-7,-0.001275193877518177
1772366302382031400,7.07303125,0.000620497390627861,0.000006660819053649902,0.000867585651576519
1772366302392101600,7.0831015625,0.0001008184626698494,0.0014678696170449257,0.0006598718464374542
1772366302402171600,7.093171630859375,0.0013154861517250538,-0.005252351053059101,-0.0006051305681467056
1772366302412241400,7.103241455078125,-0.0016295132227241993,-0.0026201531291007996,0.0009137755259871483
1772366302422311400,7.1133115234375,0.0009031533263623714,0.0008227815851569176,-0.0007674777880311012
1772366302432381700,7.123381591796875,-0.0008698087185621262,0.0017907959409058094,-0.0003503868356347084
1772366302442451500,7.133451416015625,0.0007121092639863491,-0.0001256149262189865,0.0019812099635601044
1772366302452521500,7.143521484375,0.00010648556053638458,0.0012044250033795834,-0.0007070843130350113
1772366302462591700,7.153591796875,0.00012060068547725677,-0.0006179763004183769,-0.0007342491298913956
1772366302472661500,7.16366162109375,0.001605078112334013,-0.000658984761685133,-0.00030670780688524246
1772366302482731500,7.1737314453125,-0.0007899021729826927,0.0009855171665549278,-0.0006699636578559875
1772366302492801800,7.1838017578125,-0.0002647298388183117,-0.00013205036520957947,0.001999444328248501
1772366302502871600,7.19387158203125,0.0004934719763696194,0.0009478614665567875,-0.00026370957493782043
1772366302512941600,7.203941650390625,-0.0001382492482662201,0.0013451534323394299,0.00026416219770908356
1772366302523011300,7.21401123046875,-0.00033532315865159035,0.001276443712413311,-0.0023111142218112946
1772366302533081600,7.22408154296875,-0.0009366651065647602,0.0019036182202398777,0.0011651096865534782
1772366302543151600,7.234151611328125,0.0007473411969840527,-0.0011899536475539207,-0.002176159992814064
1772366302553221400,7.244221435546875,-0.0018125553615391254,0.0014320085756480694,-0.0006169602274894714
1772366302563291600,7.254291748046875,-0.0005116011016070843,0.0018607773818075657,0.000643780454993248
1772366302573361700,7.264361572265625,0.0010041231289505959,0.003934013191610575,-0.00015658698976039886
1772366302583431400,7.274431396484375,-0.00007046200335025787,0.0005451408214867115,-0.001690567471086979
1772366302593501400,7.28450146484375,0.001355340238660574,-0.00029884977266192436,-0.00037132203578948975
1772366302603571700,7.29457177734375,-0.0003384300507605076,-0.002321520820260048,-0.000017920508980751038
1772366302613641500,7.304641357421875,-0.0009942199103534222,0.00047044921666383743,0.0012387847527861595
1772366302623711500,7.31471142578125,-0.0012679924257099628,-0.0007423544302582741,-0.00018707197159528732
1772366302633782500,7.324782470703125,0.0007427418604493141,-0.00022457726299762726,0.0003475695848464966
1772366302643852500,7.3348525390625,-0.0008231964893639088,0.001811143010854721,-0.00007081311196088791
1772366302653922600,7.344922607421875,-0.0003027091734111309,-0.0009469776414334774,0.0008461866527795792
1772366302663992600,7.35499267578125,0.0000506923533976078,-0.002591479802504182,0.0011172965168952942
1772366302674062600,7.3650625,-0.0015337774530053139,0.0016474081203341484,-0.0009985435754060745
1772366302684132600,7.375132568359375,-0.0011769132688641548,0.0009722965769469738,-0.002168470062315464
1772366302694202600,7.38520263671875,-0.000900043174624443,-0.0008996515534818172,-0.0006417296826839447
1772366302704272400,7.3952724609375,-0.0012454558163881302,-0.003212340408936143,0.0002443036064505577
1772366302714342700,7.4053427734375,0.0006098714657127857,-0.001127593219280243,0.0009106369689106941
1772366302724412400,7.415412353515625,0.00019148923456668854,0.00003301259130239487,-0.0015317481011152267
1772366302734482400,7.425482421875,0.000079411081969738,0.00037618400529026985,-0.0008688205853104591
1772366302744552400,7.435552490234375,0.0012906165793538094,0.0023208241909742355,0.0005370620638132095
1772366302754622200,7.445622314453125,0.0018956679850816727,0.000413346104323864,0.0011473717167973518
1772366302764692200,7.455692138671875,-0.00009690923616290092,0.0023643779568374157,0.00012125633656978607
1772366302774762500,7.465762451171875,-0.001595828216522932,0.003874266054481268,-0.000668603926897049
1772366302784832300,7.475832275390625,-0.0009422884322702885,0.00026781344786286354,0.0019540777429938316
1772366302794902300,7.48590234375,0.0002549183554947376,-0.0007254579104483128,0.0012737801298499107
1772366302804972300,7.49597216796875,0.0009606559760868549,0.00037016673013567924,-0.0017640870064496994
1772366302815042300,7.506042236328125,-0.0010980945080518723,0.0003394284285604954,0.0026375511661171913
1772366302825112300,7.5161123046875,-0.0005766479298472404,-0.003480609506368637,0.00044869910925626755
1772366302835182000,7.52618212890625,0.0003387508913874626,0.0013876091688871384,0.0013825111091136932
1772366302845252400,7.53625244140625,-0.0011614076793193817,-0.0001852535642683506,0.0004360238090157509
1772366302855322400,7.546322265625,-0.001910278107970953,0.0017671966925263405,0.0006086006760597229
1772366302865392000,7.55639208984375,-0.0008609932847321033,0.0015789112076163292,0.001059473492205143
1772366302875462400,7.56646240234375,0.0028061228804290295,-0.0008071828633546829,-0.0002051098272204399
1772366302885532400,7.576532470703125,-0.0006258930079638958,0.0007156128995120525,0.0009858561679720879
1772366302895602200,7.586602294921875,-0.001294457819312811,-0.0008636363781988621,0.0014198524877429008
1772366302905673200,7.596673095703125,-0.000014009885489940643,0.0004508998245000839,-0.0016715452075004578
1772366302915743200,7.6067431640625,0.0005762218497693539,0.0044117821380496025,0.0004082322120666504
1772366302925813200,7.616813232421875,0.00021136878058314323,0.0016215885989367962,0.0006308723241090775
1772366302935883300,7.62688330078125,-0.00005227327346801758,0.0029749316163361073,0.000134405680000782
1772366302945953300,7.636953369140625,-0.001005951315164566,0.002481181174516678,0.0015549352392554283
1772366302956023300,7.647023193359375,-0.0005592000670731068,0.0009053065441548824,0.00018441397696733475
1772366302966093300,7.65709326171875,0.0009894282557070255,-0.0006803395226597786,0.0018409006297588348
1772366302976163300,7.667163330078125,0.000007317401468753815,0.0011491281911730766,-0.000889679417014122
1772366302986233300,7.6772333984375,-0.002110161818563938,0.0009842785075306892,-0.00035172048956155777
1772366302996303400,7.687303466796875,0.00041634542867541313,-0.0017198377754539251,0.0006221439689397812
1772366303006373400,7.697373291015625,0.000021398533135652542,-0.001074021216481924,0.00010016467422246933
1772366303016443100,7.707443115234375,-0.0010399664752185345,-0.0017439131624996662,-0.002995794638991356
1772366303026513400,7.717513427734375,-0.00020959274843335152,-0.002213694853708148,0.0008346298709511757
1772366303036583200,7.727583251953125,0.00008879322558641434,-0.0018136159051209688,-0.0009312853217124939
1772366303046653200,7.737653076171875,-0.0013234810903668404,-0.0012319814413785934,0.002020562067627907
1772366303056723500,7.747723388671875,-0.0009133988060057163,-0.0015502048190683126,-0.00038920342922210693
1772366303066793200,7.757793212890625,-0.0003642546944320202,0.0017838063649833202,-0.0001841401681303978
1772366303076863200,7.76786328125,0.0011883224360644817,0.002008170820772648,0.0012094220146536827
1772366303086933200,7.777933349609375,-0.0010444717481732368,0.0023929979652166367,0.00089303869754076
1772366303097003300,7.788003173828125,-0.0024815956130623817,0.0012967470102012157,-0.002085643820464611
1772366303107073300,7.7980732421875,0.0015887799672782421,-0.0007363101467490196,0.0014933785423636436
1772366303117143300,7.808143310546875,0.002514549996703863,0.001580893062055111,-0.00046403612941503525
1772366303127213300,7.81821337890625,0.0023696739226579666,0.0011350801214575768,0.0006257295608520508
1772366303137283300,7.828283447265625,0.00036038970574736595,-0.0011542816646397114,-0.0004167770966887474
1772366303147353300,7.838353271484375,0.002546845003962517,-0.002896521706134081,-0.00013954192399978638
1772366303157423400,7.84842333984375,-0.0008587632328271866,0.0021577379666268826,-0.0015161214396357536
1772366303167493400,7.858493408203125,0.0002243444323539734,0.0010184375569224358,0.0004413016140460968
1772366303177563100,7.868563232421875,0.0015062401071190834,0.002363883890211582,-0.00020130351185798645
1772366303187633200,7.878633056640625,-0.0013990025036036968,-0.0004164562560617924,-0.0008897306397557259
1772366303197704200,7.8887041015625,0.00012556789442896843,-0.003827730193734169,0.0017121993005275726
1772366303207774500,7.8987744140625,-0.0004254402592778206,-0.0008572405204176903,-0.00041673146188259125
1772366303217844200,7.90884423828125,-0.0008201072923839092,0.002582869492471218,-0.00042003579437732697
1772366303227914200,7.918914306640625,-0.0007282285951077938,0.00033196574077010155,-0.0026243338361382484
1772366303237984300,7.928984375,0.0026503135450184345,0.0010952758602797985,-0.0021196072921156883
1772366303248054300,7.93905419921875,-0.0012083402834832668,-0.00012418581172823906,-0.0010402277112007141
1772366303258124300,7.949124267578125,0.0012900177389383316,-0.0024026466999202967,-0.0015406245365738869
1772366303268194300,7.9591943359375,-0.0002492894418537617,0.0013329694047570229,-0.00068681500852108
1772366303278264300,7.969264404296875,-0.0015673278830945492,-0.0011612651869654655,0.0014851288869976997
1772366303288334300,7.979334228515625,-0.0005388152785599232,-0.0013295768294483423,0.0003607422113418579
1772366303298404000,7.989404052734375,-0.00015755370259284973,-0.0004997388459742069,-0.0000024531036615371704
1772366303308472300,7.999472412109375,0.0008941288106143475,-0.0033477232791483402,0.0015853242948651314
1772366303318542300,8.009542236328125,0.001635547261685133,-0.004072471056133509,-0.00013656169176101685
1772366303328612400,8.0196123046875,-0.0004078960046172142,-0.003088433062657714,-0.0031432705000042915
1772366303338682400,8.029682373046874,-0.001153287012130022,-0.00022495165467262268,-0.0005774842575192451
1772366303348752400,8.03975244140625,-0.0007916302420198917,-0.002189565682783723,-0.0033857878297567368
1772366303358822400,8.049822509765624,0.00018131081014871597,-0.0026751644909381866,0.00027006398886442184
1772366303368892200,8.05989208984375,-0.00021816324442625046,0.0012631178833544254,0.00040322262793779373
1772366303378962200,8.069962158203126,0.0002937731333076954,-0.0006569339893758297,-0.0022214511409401894
1772366303389032400,8.080032470703125,0.00010335724800825119,0.0016626794822514057,0.0007101567462086678
1772366303399102200,8.090102294921875,-0.0010578110814094543,0.0005391351878643036,-0.001408364623785019
1772366303409172200,8.100172119140625,0.00010732235386967659,-0.002038804814219475,-0.00008157826960086823
1772366303419242500,8.110242431640625,-0.00020806118845939636,-0.0024677275214344263,0.00008494313806295395
1772366303429312300,8.120312255859375,-0.0012698634527623653,-0.00010044360533356667,-0.0011755311861634254
1772366303439382300,8.13038232421875,0.0025672209449112415,-0.0007235794328153133,-0.0009575532749295235
1772366303449452300,8.140452392578124,0.000834302045404911,-0.0026674210093915462,0.00004273001104593277
1772366303459522300,8.150522216796874,-0.00029424717649817467,0.0014729485847055912,-0.0009330352768301964
1772366303469592300,8.16059228515625,0.001160637941211462,-0.0006490582600235939,-0.002910698764026165
1772366303479662000,8.170662109375,-0.0012173466384410858,-0.0019333150703459978,-0.00003720540553331375
1772366303489732400,8.180732421875,0.00007455283775925636,0.00048696575686335564,0.0014387192204594612
1772366303499802400,8.19080224609375,-0.003068307414650917,-0.001576150069013238,0.0009482391178607941
1772366303509872000,8.2008720703125,0.0005762288346886635,-0.0011314023286104202,-0.000229676254093647
1772366303519942400,8.2109423828125,0.0001892298460006714,0.000084651168435812,-0.002145075239241123
1772366303530012400,8.221012451171875,-0.0009636529721319675,0.0002556261606514454,0.000024069100618362427
1772366303540082200,8.231082275390625,0.000042984262108802795,0.0023909318260848522,0.0013912711292505264
1772366303550152200,8.241152099609375,0.0006312765181064606,-0.000029349233955144882,0.0008157622069120407
1772366303560222500,8.251222412109374,-0.0001331046223640442,0.00019936123862862587,0.0009490055963397026
1772366303570292200,8.261292236328124,-0.001725674606859684,-0.0004848050884902477,-0.0006118733435869217
1772366303580362200,8.2713623046875,-0.00012765498831868172,-0.0005192547105252743,-0.0006561549380421638
1772366303590433300,8.281433349609374,0.00290728360414505,0.001494627445936203,-0.0008396459743380547
1772366303600503300,8.29150341796875,0.00020763324573636055,-0.0010109888389706612,0.0011683516204357147
1772366303610573300,8.3015732421875,0.001745342742651701,0.00030487915500998497,-0.0004180930554866791
1772366303620643300,8.311643310546875,-0.001074561383575201,-0.0013279304839670658,0.0009889481589198112
1772366303630713300,8.32171337890625,-0.0013459366746246815,0.0017229868099093437,0.0005511250346899033
1772366303640783400,8.331783447265625,-0.00043806806206703186,-0.0012855497188866138,0.00001593213528394699
1772366303650853400,8.341853271484375,-0.000557377003133297,-0.0013830217067152262,-0.0014722421765327454
1772366303660923100,8.351923095703125,-0.00006273901090025902,-0.0008498704992234707,-0.0005655987188220024
1772366303670993400,8.361993408203125,0.0006627058610320091,-0.00018567824736237526,0.0017670635133981705
1772366303681063400,8.3720634765625,0.00174323795363307,-0.0010032877326011658,0.0001212703064084053
1772366303691133200,8.38213330078125,0.00007556658238172531,-0.0006900997832417488,0.00003471784293651581
1772366303701203500,8.392203369140624,-0.0019186506979167461,-0.0032078553922474384,0.0003843288868665695
1772366303711273200,8.402273193359376,0.0003847172483801842,0.0001791529357433319,-0.002223438583314419
1772366303721343200,8.41234326171875,0.0014907554723322392,0.00030768895521759987,0.00010913889855146408
1772366303731413200,8.422413330078125,-0.0008203359320759773,0.0015074429102241993,0.0005136728286743164
1772366303741483300,8.432483154296875,0.00031904224306344986,-0.0029136857483536005,-0.0006323624402284622
1772366303751552800,8.442552734375,-0.0023963171988725662,-0.0013077997136861086,0.000848088413476944
1772366303761622800,8.452622802734375,0.00006970670074224472,-0.003554580733180046,-0.0010993927717208862
1772366303771693000,8.462693115234375,-0.0017969030886888504,-0.00252446997910738,0.0012021111324429512
1772366303781762800,8.4727626953125,-0.00039278948679566383,0.00021051941439509392,0.000005305744707584381
1772366303791832800,8.482832763671874,-0.002291623502969742,-0.0011564814485609531,-0.001213090494275093
1772366303801903000,8.492903076171874,-0.0016409410163760185,0.000992816872894764,0.002062666229903698
1772366303811972900,8.502972900390626,0.0016653737984597683,-0.0034333569929003716,-0.00017438922077417374
1772366303822043000,8.51304296875,-0.0015351753681898117,0.0014048353768885136,-0.00025900639593601227
1772366303832113200,8.523113037109376,0.001211076509207487,0.000052215997129678726,-0.0004030829295516014
1772366303842183000,8.533182861328125,-0.0003132200799882412,0.0011294055730104446,-0.00019857101142406464
1772366303852253000,8.5432529296875,-0.0011084405705332756,-0.0014980691485106945,0.0006379270926117897
1772366303862322700,8.55332275390625,-0.000523420050740242,0.0020485692657530308,-0.0013479376211762428
1772366303872393000,8.56339306640625,0.000028120353817939758,-0.0013845115900039673,0.0008305273950099945
1772366303882463000,8.573462890625,-0.00023733451962471008,-0.0005660825408995152,0.0020549707114696503
1772366303892535800,8.583535888671875,0.0017533781938254833,-0.002044136868789792,0.0008434988558292389
1772366303902606000,8.593606201171875,0.0017434987239539623,0.00005161343142390251,0.0004554595798254013
1772366303912675800,8.60367578125,-0.0023785424418747425,-0.001192083116620779,0.0011750459671020508
1772366303922745900,8.613745849609375,-0.0006109694950282574,-0.0010270625352859497,-0.0021585682407021523
1772366303932816100,8.623816162109375,-0.0013950043357908726,-0.0009274603798985481,0.0004049902781844139
1772366303942886000,8.633885986328124,-0.00009393831714987755,-0.0008004880510270596,0.0014335298910737038
1772366303952956000,8.643955810546874,0.002617425750941038,-0.00008969055488705635,-0.0007835514843463898
1772366303963026000,8.65402587890625,0.00030086562037467957,-0.0017931950278580189,-0.002877669408917427
1772366303973096000,8.664095947265626,0.003095054067671299,-0.002301858738064766,-0.00011197663843631744
1772366303983166000,8.674166015625,0.0021866606548428535,-0.0013268992770463228,0.0018803589046001434
1772366303993235700,8.684235595703125,0.002583205234259367,0.0013453164137899876,-0.0016424702480435371
1772366304003306000,8.694305908203125,-0.0010263603180646896,0.0008900891989469528,-0.0015691565349698067
1772366304013376000,8.7043759765625,-0.000710509717464447,-0.0009062127210199833,0.0018849633634090424
1772366304023445800,8.71444580078125,0.0008788495324552059,0.0015387623570859432,0.0006994158029556274
1772366304033516000,8.72451611328125,-0.00008148606866598129,-0.0011616828851401806,0.0015196697786450386
1772366304043586000,8.7345859375,-0.0008251289837062359,-0.000044354237616062164,0.0005850521847605705
1772366304053655800,8.74465576171875,-0.002398258540779352,-0.001187116838991642,0.0026924116536974907
1772366304063725800,8.754725830078126,-0.0004916037432849407,-0.00029277335852384567,0.0015348922461271286
1772366304073796000,8.764796142578126,0.0015710145235061646,-0.0007995730265974998,0.000424887053668499
1772366304083865900,8.774865966796876,-0.0018735472112894058,0.00044098030775785446,-0.0009923335164785385
1772366304093935900,8.784935791015625,0.0015555392019450665,-0.000017616432160139084,-0.00034332089126110077
1772366304104006000,8.795005859375,0.0014524273574352264,0.0010756589472293854,0.001338886097073555
1772366304114077000,8.805076904296875,0.0008955602534115314,-0.0034802109003067017,0.00017242133617401123
1772366304124147000,8.81514697265625,-0.00035262899473309517,0.0007174015045166016,-0.0008224770426750183
1772366304134217000,8.825217041015625,0.00041223084554076195,0.0007099444046616554,-0.0015228884294629097
1772366304144287000,8.835286865234375,0.00020458223298192024,0.00009943684563040733,0.0009222235530614853
1772366304154357000,8.84535693359375,0.0004139067605137825,-0.000846784096211195,-0.0002668779343366623
1772366304164426800,8.8554267578125,-0.00017529726028442383,-0.0016339384019374847,0.002313387580215931
1772366304174496800,8.865496826171874,-0.0006583943031728268,-0.0013588338624686003,-0.0011865384876728058
1772366304184567000,8.875567138671874,0.0004970929585397243,-0.0012641646899282932,0.002239745110273361
1772366304194636800,8.88563671875,-0.001621718518435955,-0.0006183483637869358,0.00048179272562265396
1772366304204706800,8.895706787109376,-0.001101587899029255,-0.0023446378763765097,0.001370767131447792
1772366304214777000,8.905777099609375,0.0024598571471869946,0.0006234552711248398,-0.00062527135014534
1772366304224846800,8.915846923828125,0.0002048262394964695,-0.0016392625402659178,0.00006845314055681229
1772366304234916900,8.925916748046875,-0.0003174198791384697,-0.00012472271919250488,-0.00019759684801101685
1772366304244987100,8.935987060546875,-0.0012270929291844368,-0.0001721614971756935,0.00029036588966846466
1772366304255057000,8.946056884765625,-0.000039855483919382095,-0.00023288186639547348,-0.00021377112716436386
1772366304265127000,8.956126953125,-0.0013625663705170155,-0.003347929334267974,0.0006041517481207848
1772366304275197000,8.966197021484374,0.0024974197149276733,-0.0015734650660306215,-0.0001905355602502823
1772366304285267000,8.976266845703124,0.00034190714359283447,0.0006538759917020798,-0.001574513502418995
1772366304295337000,8.9863369140625,0.0030721803195774555,-0.003463104832917452,0.001637524925172329
1772366304305406700,8.99640673828125,-0.0013411049731075764,-0.000055952928960323334,0.001392357051372528
1772366304315477000,9.00647705078125,-0.001096626278012991,-0.0015824770089238882,-0.0016188789159059525
1772366304325547000,9.016547119140625,0.00039286212995648384,-0.004067096393555403,0.0014111064374446869
1772366304335616800,9.02661669921875,-0.0007664118893444538,0.0004530870355665684,-0.0018832236528396606
1772366304345687000,9.03668701171875,-0.0021264515817165375,0.0017298553138971329,0.001285463571548462
1772366304355757000,9.046757080078125,-0.00008700229227542877,0.0005996096879243851,0.0016343379393219948
1772366304365826800,9.056826904296875,0.0011910013854503632,0.0013098274357616901,-0.00015686731785535812
1772366304375896800,9.066896728515625,-0.00012140441685914993,0.0015873289667069912,-0.0011451663449406624
1772366304385967000,9.076967041015624,0.0006929500959813595,0.0005157198756933212,0.0018691401928663254
1772366304396036900,9.087036865234374,-0.0029949950985610485,0.0003431467339396477,0.00044141989201307297
1772366304406107000,9.09710693359375,0.002098382916301489,0.00014530494809150696,0.003018430434167385
1772366304416177200,9.10717724609375,0.00041686277836561203,-0.002201472409069538,0.000814131461083889
1772366304426247000,9.117246826171876,-0.0000988873653113842,0.0038143726997077465,0.001102798618376255
1772366304436317000,9.12731689453125,-0.0019156956113874912,-0.002556174760684371,0.00031663384288549423
1772366304446388000,9.137387939453125,-0.0013310527428984642,0.0015818574465811253,0.0018617864698171616
1772366304456457700,9.147457763671875,-0.00022078119218349457,0.001376261468976736,0.0006266124546527863
1772366304466528000,9.157528076171875,0.0011322149075567722,0.001641265582293272,0.0020110495388507843
1772366304476598000,9.167597900390625,-0.0010816711001098156,0.0004495009779930115,0.00011860765516757965
1772366304486667800,9.177667724609375,-0.0014067767187952995,-0.001987194176763296,-0.0008563222363591194
1772366304496738000,9.187738037109375,-0.0007652211934328079,-0.0008031525649130344,0.0009194733574986458
1772366304506807800,9.197807861328124,0.00023796642199158669,0.0013991850428283215,0.001423390582203865
1772366304516877800,9.2078779296875,-0.0011460785754024982,-0.001928168348968029,-0.00095374695956707
1772366304526948000,9.217947998046874,0.001284091267734766,-0.0022275412920862436,-0.000056575052440166473
1772366304537017900,9.228017822265626,-0.0021034502424299717,-0.001832328038290143,-0.00013993214815855026
1772366304547088000,9.238087890625,-0.0018266700208187103,-0.00039266329258680344,0.0018080584704875946
1772366304557158000,9.248157958984375,0.00012409547343850136,-0.0005569802597165108,-0.001745130866765976
1772366304567228000,9.258227783203125,0.00007158424705266953,0.0002292911522090435,-0.001616201363503933
1772366304577298000,9.2682978515625,-0.0015553408302366734,0.0005691107362508774,0.00170928705483675
1772366304587368000,9.278367919921875,-0.00031843502074480057,-0.0005173268727958202,-0.0000736108049750328
1772366304597438000,9.28843798828125,-0.001226572785526514,-0.0006946930661797523,0.0002526259049773216
1772366304607508000,9.298508056640625,0.0014455411583185196,0.0025457562878727913,-0.0010629668831825256
1772366304617578000,9.308577880859374,0.002634642645716667,-0.0032988167367875576,-0.0014773551374673843
1772366304627648000,9.31864794921875,0.0012651807628571987,0.0026193377561867237,-0.000675431452691555
1772366304637718000,9.328718017578124,0.0002457229420542717,0.0036497144028544426,0.0013238033279776573
1772366304647787800,9.338787841796876,0.00036856532096862793,0.0008704038336873055,0.0011238353326916695
1772366304657857800,9.34885791015625,-0.00021493341773748398,-0.0015181850176304579,0.0011342214420437813
1772366304667928000,9.358927978515625,0.0014468156732618809,0.000030055642127990723,-0.00013467762619256973
1772366304677997800,9.368997802734375,-0.00026106927543878555,-0.00047674402594566345,0.0005103396251797676
1772366304688067800,9.37906787109375,-0.00023743696510791779,-0.0014042067341506481,0.0006188638508319855
1772366304698138000,9.38913818359375,0.002736514899879694,0.00048211030662059784,-0.0003633098676800728
1772366304708207900,9.399207763671875,-0.00016647810116410255,0.002365254797041416,-0.0021975981071591377
1772366304718278000,9.40927783203125,-0.0003544976934790611,-0.0029187232721596956,-0.0005008988082408905
1772366304728348000,9.419347900390624,0.0002142074517905712,-0.0021291186567395926,-0.002754703164100647
1772366304738418000,9.42941796875,-0.0009836824610829353,-0.0007615853101015091,0.000583302229642868
1772366304748488700,9.43948876953125,-0.0007094135507941246,0.0014579570852220058,0.00041064247488975525
1772366304758558500,9.449558349609376,0.00226613599807024,0.0013493001461029053,0.001041012816131115
1772366304768628500,9.45962841796875,-0.00015937210991978645,-0.0023053213953971863,0.0018854271620512009
1772366304778698500,9.469698486328125,-0.00025018583983182907,0.0015253694728016853,0.00030377600342035294
1772366304788769500,9.47976953125,0.00014627119526267052,-0.0014459220692515373,-0.0007644062861800194
1772366304798839600,9.489839599609375,0.001087165903300047,0.0005935267545282841,-0.0011806581169366837
1772366304808909600,9.49990966796875,-0.0017515197396278381,-0.0004857783205807209,-0.0015429751947522163
1772366304818979600,9.5099794921875,0.002483439166098833,-0.0004391730763018131,-0.00037304870784282684
1772366304829049600,9.520049560546875,-0.00019150879234075546,-0.000859210267663002,-0.0011757798492908478
1772366304839119400,9.530119384765625,0.0012782900594174862,-0.0016211408656090498,0.0006266478449106216
1772366304849189600,9.540189697265625,0.00004435935989022255,-0.0014583750162273645,0.0013742856681346893
1772366304859259600,9.550259765625,-0.0013024010695517063,-0.00019337376579642296,0.00033298972994089127
1772366304869329400,9.560329345703124,-0.0005690259858965874,0.0002718786709010601,-0.00045444630086421967
1772366304879399400,9.5703994140625,-0.002522720955312252,-0.0021811590995639563,-0.0010608481243252754
1772366304889469700,9.5804697265625,-0.0011944160796701908,-0.0003019077703356743,-0.0010328814387321472
1772366304899539500,9.59053955078125,0.002605115994811058,-0.0003599650226533413,0.0011146916076540947
1772366304909609500,9.600609375,-0.0013514729216694832,0.0033692186698317528,0.00018067657947540283
1772366304919679700,9.6106796875,0.00200570747256279,0.0005646441131830215,-0.00046673789620399475
1772366304929749500,9.62074951171875,-0.001357375644147396,-0.001115123275667429,0.0004285862669348717
1772366304939819500,9.630819580078125,-0.0014820117503404617,0.0006508189253509045,0.0002640029415488243
1772366304949889500,9.6408896484375,0.0003829393535852432,-0.0008783638477325439,0.0005732094869017601
1772366304959959600,9.65095947265625,-0.0010370579548180103,0.0011517638340592384,0.0004568295553326607
1772366304970029600,9.661029541015624,-0.0009528216905891895,0.001751032192260027,0.0013489080592989922
1772366304980099300,9.671099365234374,-0.0010111448355019093,0.0019566286355257034,-0.0007174387574195862
1772366304990169600,9.681169677734376,0.0012606275267899036,0.0002925330772995949,0.0025529861450195312
1772366305000239600,9.691239501953126,0.0001583453267812729,-0.0018686219118535519,0.0017910553142428398
1772366305010309400,9.701309326171875,-0.0010307291522622108,0.002909507602453232,0.00011346675455570221
1772366305020379600,9.711379638671875,-0.0013686837628483772,-0.0012548768427222967,-0.00039652828127145767
1772366305030449700,9.72144970703125,-0.00014104880392551422,0.0024239937774837017,0.0021281931549310684
1772366305040519400,9.73151953125,0.0003010360524058342,-0.0027886112220585346,0.0011289753019809723
1772366305050589400,9.74158935546875,-0.001331887673586607,-0.001753711374476552,0.00037392787635326385
1772366305060659700,9.75165966796875,0.0012100995518267155,0.0006660367362201214,0.00010787788778543472
1772366305070729500,9.7617294921875,-0.001259359996765852,0.0021221679635345936,0.000485103577375412
1772366305080799500,9.771799560546874,-0.0006801220588386059,-0.00098440982401371,0.0030878111720085144
1772366305090869800,9.781869873046874,-0.00015839794650673866,-0.00028146710246801376,-0.001294468529522419
1772366305100939500,9.791939453125,0.0016248547472059727,0.003611808642745018,-0.0010334793478250504
1772366305111009500,9.802009521484376,-0.0028322110883891582,0.0028200503438711166,0.0007724110037088394
1772366305121079600,9.81207958984375,-0.00018829479813575745,-0.0012633362784981728,-0.001153099350631237
1772366305131149600,9.822149658203125,0.0005570906214416027,0.0037766816094517708,-0.0009874524548649788
1772366305141219600,9.832219482421875,-0.0013414770364761353,0.0009441436268389225,0.0009470675140619278
1772366305151290600,9.84229052734375,-0.00044856593012809753,0.0014695962890982628,-0.000987519510090351
1772366305161360400,9.8523603515625,-0.002099725417792797,0.0017212647944688797,0.0012410134077072144
1772366305171430700,9.8624306640625,0.000018085818737745285,-0.001668296754360199,0.0013588527217507362
1772366305181500400,9.87250048828125,-0.00013531232252717018,-0.00042886147275567055,0.0009559160098433495
1772366305191570400,9.8825703125,-0.0005236472934484482,-0.002436544978991151,-0.0005124183371663094
1772366305201640700,9.892640625,0.0016364427283406258,0.0052770343609154224,-0.0007867235690355301
1772366305211710500,9.90271044921875,0.0004567415453493595,-0.000493964646011591,-0.0019934503361582756
1772366305221780500,9.912780517578126,0.0005635344423353672,0.002193964086472988,-0.00037691090255975723
1772366305231850800,9.922850830078126,-0.0005175871774554253,0.0019241981208324432,-0.0011157505214214325
1772366305241920500,9.93292041015625,-0.00035060662776231766,-0.0009118020534515381,-0.0017730193212628365
1772366305251990500,9.942990478515625,-0.0015092282555997372,-0.002650420879945159,0.0008418923243880272
1772366305262060500,9.953060546875,0.0014801695942878723,-0.0020275074057281017,-0.0004763724282383919
1772366305272130600,9.963130615234375,0.0005265949293971062,0.00021879980340600014,-0.0007535293698310852
1772366305282200600,9.97320068359375,0.0015865331515669823,-0.00021449662744998932,0.0008590146899223328
1772366305292270600,9.9832705078125,-0.001571959350258112,0.000027131754904985428,0.00011959671974182129
1772366305302340600,9.993340576171875,0.0006067724898457527,-0.00172149995341897,0.0012884587049484253
1772366305312410600,10.00341064453125,0.00118647376075387,0.0009635752066969872,0.0009470870718359947
1772366305322480400,10.01348046875,-0.0010455218143761158,0.002065058797597885,0.0005454830825328827
1772366305332550400,10.02355029296875,0.0007127439603209496,0.0011632107198238373,0.0016955742612481117
1772366305342620700,10.03362060546875,0.00023444043472409248,-0.0020253919064998627,-0.0003593210130929947
1772366305352690400,10.0436904296875,-0.0009391135536134243,0.000027360394597053528,0.003095204010605812
1772366305362760400,10.053760498046875,0.0006089815869927406,0.0003967410884797573,-0.001985042355954647
1772366305372830700,10.063830810546875,0.000792529433965683,0.001856849528849125,-0.0015928782522678375
1772366305382900500,10.073900390625,-0.0014964574947953224,-0.001787153771147132,-0.00009964406490325928
1772366305392970500,10.083970458984375,-0.0016768742352724075,-0.00048411544412374496,-0.0026418641209602356
1772366305403040800,10.094040771484375,-0.001035052351653576,-0.0005589500069618225,-0.0008628722280263901
1772366305413110500,10.104110595703125,-0.000886022113263607,-0.004465422593057156,0.0009592119604349136
1772366305423180500,10.1141806640625,0.0007872423157095909,0.003671866375952959,-0.000501265749335289
1772366305433250600,10.12425048828125,-0.0014208187349140644,0.0005313530564308167,-0.0014025233685970306
1772366305443320600,10.134320556640626,-0.002139872405678034,0.00587871391326189,0.0018888777121901512
1772366305453390600,10.144390625,0.0009331302717328072,0.013380082324147224,-0.0014436664059758186
1772366305463460400,10.15446044921875,-0.003036577720195055,0.004795382730662823,-0.0018327543511986732
1772366305473530600,10.164530517578125,-0.001304765697568655,-0.006386706605553627,-0.00014336779713630676
1772366305483600600,10.1746005859375,0.000538940541446209,0.03168424591422081,0.006047417409718037
1772366305493670400,10.18467041015625,-0.0016173352487385273,0.0734054446220398,0.03933538869023323
1772366305503740700,10.19474072265625,0.0003989436663687229,-0.00972752459347248,-0.005524493288248777
1772366305513810700,10.204810791015625,-0.0020271027460694313,-0.0013130279257893562,0.006116132251918316
1772366305523881500,10.214881591796875,0.0003636172041296959,-0.014111913740634918,-0.0016451170668005943
1772366305533951500,10.224951416015625,-0.001239006407558918,-0.01757863163948059,-0.00642050988972187
1772366305544021500,10.235021484375,0.0007865936495363712,-0.030919738113880157,-0.01312182191759348
1772366305554091500,10.245091552734374,-0.0024347887374460697,-0.02995639108121395,-0.016045894473791122
1772366305564161500,10.25516162109375,-0.00028268853202462196,-0.007987708784639835,-0.007073704618960619
1772366305574231600,10.2652314453125,0.0010077250190079212,0.0004191240295767784,-0.0037677744403481483
1772366305584301600,10.275301513671875,0.0025222650729119778,-0.010619944892823696,-0.002292383462190628
1772366305594371600,10.28537158203125,-0.002394077368080616,0.0017799576744437218,0.0030453139916062355
1772366305604441600,10.295441650390625,-0.001028674654662609,-0.004339453764259815,0.0006181085482239723
1772366305614511600,10.30551171875,0.0002391594462096691,-0.0106310173869133,0.003924727439880371
1772366305624581600,10.31558154296875,0.0003528762608766556,0.0005547911860048771,-0.0010151704773306847
1772366305634651600,10.325651611328125,-0.001236818265169859,-0.0038211930077522993,0.0005487948656082153
1772366305644721400,10.335721435546875,0.0007605520077049732,-0.009949393570423126,0.0010388167575001717
1772366305654791700,10.345791748046874,-0.00020177336409687996,-0.006713092792779207,-0.00013665203005075455
1772366305664861400,10.355861328125,0.0011535095982253551,-0.0036560501903295517,-0.0018051229417324066
1772366305674931500,10.365931396484376,-0.0006072227843105793,-0.00030661048367619514,-0.0018545137718319893
1772366305685001700,10.376001708984376,-0.0028642513789236546,-0.0033335592597723007,0.0003705564886331558
1772366305695071500,10.386071533203125,0.0007989774458110332,-0.00027370452880859375,0.0015071360394358635
1772366305705141500,10.3961416015625,0.0006740754470229149,0.0017265956848859787,0.0018227212131023407
1772366305715211500,10.40621142578125,-0.00180869922041893,0.0021703136153519154,-0.000022069551050662994
1772366305725281500,10.416281494140625,0.0038385342340916395,0.006269184872508049,0.0019044606015086174
1772366305735351600,10.4263515625,-0.001049662008881569,0.0042123994790017605,-0.0008863182738423347
1772366305745421600,10.436421630859375,0.0005306578241288662,-0.0005818228237330914,0.0004929332062602043
1772366305755491000,10.446490966796874,-0.0004965462721884251,-0.00036236969754099846,-0.0006288615986704826
1772366305765560800,10.456560791015624,-0.0006749783642590046,0.0019657653756439686,-0.0002139415591955185
1772366305775630800,10.466630859375,0.0008300282061100006,0.004844737704843283,-0.00008067861199378967
1772366305785701000,10.476701171875,-0.0007974300533533096,0.0024223257787525654,-0.0015717828646302223
1772366305795771000,10.48677099609375,0.0014007873833179474,0.002546230796724558,0.0017626257613301277
1772366305805841000,10.4968408203125,-0.0010967254638671875,-0.00016753049567341805,-0.0006027938798069954
1772366305815911000,10.506910888671875,0.002041221596300602,-0.000370765570551157,-0.0028512831777334213
1772366305825981000,10.51698095703125,0.003948577679693699,0.0006500240415334702,0.0012164292857050896
1772366305836051000,10.527051025390625,0.0009996439330279827,-0.0020080015528947115,0.0005684643983840942
1772366305846121000,10.537120849609375,0.0016800817102193832,-0.002945434069260955,-0.0009298296645283699
1772366305856191000,10.54719091796875,-0.0023859781213104725,-0.003591042011976242,0.0025326870381832123
1772366305866261000,10.557260986328124,0.0007823840714991093,-0.0009782146662473679,0.0009523667395114899
1772366305876330800,10.567330810546874,-0.0006341859698295593,0.0006508189253509045,0.00008528679609298706
1772366305886401000,10.577401123046876,0.0018228460103273392,0.0003426913172006607,0.0028933240100741386
1772366305896471000,10.587470947265626,-0.001284200232475996,0.001937775406986475,-0.0019514411687850952
1772366305906540800,10.597540771484375,-0.0014570397324860096,-0.0028923996724188328,0.0025666113942861557
1772366305916611000,10.607611083984375,-0.0002178768627345562,-0.0008682757616043091,-0.0003925347700715065
1772366305926680800,10.617680908203125,-0.0005774036981165409,0.0007996619679033756,0.000592568889260292
1772366305936751900,10.627751953125,0.0007505188696086407,0.0003057001158595085,0.0027234675362706184
1772366305946822000,10.63782177734375,-0.001196784432977438,0.0016436721198260784,-0.0008449014276266098
1772366305956892000,10.647891845703125,0.0009340783581137657,0.003454852383583784,-0.00032396893948316574
1772366305966962000,10.6579619140625,-0.0018084445036947727,0.00011285161599516869,0.0013088146224617958
1772366305977032000,10.668031982421875,0.0010765674524009228,0.0008797058835625648,0.0030359597876667976
1772366305987102000,10.67810205078125,-0.0004859091714024544,0.0030403281562030315,0.0005440395325422287
1772366305997172000,10.688171875,-0.0004920009523630142,0.0007676267996430397,0.0006290730088949203
1772366306007242000,10.698241943359376,0.0005796551704406738,0.00006242189556360245,0.0007129628211259842
1772366306017311700,10.708311767578126,-0.0020414874888956547,0.004407473839819431,0.0010173935443162918
1772366306027382000,10.718382080078126,0.0004459051415324211,-0.001121514942497015,0.0016099466010928154
1772366306037452000,10.7284521484375,-0.0008639981970191002,0.0017638937570154667,-0.0005453368648886681
1772366306047521800,10.738521728515625,0.0001469380222260952,0.0015345956198871136,0.0020246142521500587
1772366306057591800,10.748591796875,-0.0010262527503073215,0.0004016500897705555,0.00044484715908765793
1772366306067662000,10.758662109375,-0.0002531367354094982,-0.0009131524711847305,0.0014299498870968819
1772366306077731800,10.76873193359375,0.0017850506119430065,-0.0009234077297151089,-0.0011180778965353966
1772366306087801900,10.7788017578125,0.00001111859455704689,0.0016342923045158386,0.00409665796905756
1772366306097872100,10.7888720703125,0.0016947351396083832,0.002465343102812767,0.0029856963083148003
1772366306107942000,10.79894189453125,0.0014569149352610111,-0.0017794694285839796,0.0001004273071885109
1772366306118012000,10.809011962890626,-0.0021548476070165634,0.0019750865176320076,0.0011184383183717728
1772366306128082000,10.81908203125,0.0005511902272701263,-0.0009892778471112251,-0.0010158196091651917
1772366306138152000,10.82915185546875,-0.00035276496782898903,0.0013671908527612686,0.00004734750837087631
1772366306148222000,10.839221923828125,-0.0003138827160000801,-0.0009574824944138527,-0.00031484197825193405
1772366306158291700,10.849291748046875,0.0024373019114136696,0.00076321791857481,-0.00012773927301168442
1772366306168362000,10.859362060546875,0.0002207527868449688,0.01011810451745987,-0.0008374722674489021
1772366306178432000,10.869431884765625,0.0029935440979897976,0.007649176754057407,0.00046561937779188156
1772366306188501800,10.879501708984375,-0.00002115406095981598,0.0031180744990706444,-0.002509131096303463
1772366306198572000,10.889572021484375,-0.0003739055246114731,0.007332576438784599,-0.0008832849562168121
1772366306208642000,10.89964208984375,0.001444234512746334,0.007354946807026863,-0.0015951478853821754
1772366306218711800,10.9097119140625,-0.0023081102408468723,0.09759864211082458,0.05781461298465729
1772366306228781800,10.91978173828125,0.00015797698870301247,0.007989929988980293,0.005506666377186775
1772366306238852000,10.92985205078125,0.0020819692872464657,0.003808970097452402,0.001270955428481102
1772366306248921900,10.939921875,0.0017011375166475773,-0.01201020646840334,0.0012113004922866821
1772366306258991900,10.949991943359375,-0.0007810001261532307,-0.024497942999005318,-0.01218199823051691
1772366306269062000,10.960061767578125,0.0004600333049893379,-0.03136277198791504,-0.014058195054531097
1772366306279132000,10.9701318359375,0.0009345030412077904,-0.03007187321782112,-0.012273741886019707
1772366306289202000,10.980201904296875,-0.0007014768198132515,-0.012660127133131027,-0.00597563199698925
1772366306299272000,10.99027197265625,0.0015382273122668266,-0.011030343361198902,-0.0042373547330498695
1772366306309342000,11.000342041015625,0.00041144387796521187,-0.0010706535540521145,0.0016200020909309387
1772366306319412000,11.010411865234374,0.0017643864266574383,0.00260317325592041,-0.0009433869272470474
1772366306329481700,11.020481689453124,-0.0004500322975218296,0.00003934837877750397,0.004117417149245739
