time,seconds_elapsed,z,y,x
1772366215716149200,0.118149169921875,-0.0012012617662549019,0.001359050627797842,-0.002152537927031517
1772366215726219500,0.128219482421875,-0.001122698187828064,-0.0025352900847792625,-0.0004041725769639015
1772366215736290600,0.13829052734375,0.00039711687713861465,0.0024310825392603874,0.0011059166863560677
1772366215746360600,0.148360595703125,-0.0018679015338420868,-0.000664575956761837,-0.0009481785818934441
1772366215756430300,0.158430419921875,-0.002367615234106779,0.0012276801280677319,-0.001757522113621235
1772366215766501400,0.16850146484375,0.0013927682302892208,0.0023272992111742496,-0.0005061021074652672
1772366215776571400,0.1785712890625,-0.001646009273827076,0.0021745101548731327,-0.000883275642991066
1772366215786641400,0.188641357421875,-0.00013067061081528664,0.00018326472491025925,-0.0017930110916495323
1772366215796712400,0.19871240234375,-0.0021368302404880524,-0.0015280824154615402,-0.0009490558877587318
1772366215806782500,0.208782470703125,0.0007889186963438988,-0.00014670100063085556,0.0005063619464635849
1772366215816852200,0.218852294921875,-0.0013913055881857872,-0.0013968730345368385,-0.0017325477674603462
1772366215826923300,0.22892333984375,0.002133654896169901,-0.003222203813493252,-0.00023904629051685333
1772366215836993500,0.23899365234375,0.002337229438126087,-0.0006997296586632729,-0.0010717492550611496
1772366215847063600,0.2490634765625,-0.0022886814549565315,-0.0029519652016460896,-0.0017135711386799812
1772366215857133300,0.25913330078125,0.0013609137386083603,-0.0007278937846422195,0.0006837258115410805
1772366215867204400,0.269204345703125,0.00002294173464179039,-0.00018727220594882965,0.0001585502177476883
1772366215877274600,0.279274658203125,-0.00041855499148368835,0.0027173985727131367,0.00022422987967729568
1772366215887344400,0.289344482421875,0.00010502198711037636,0.0014667781069874763,-0.0003864327445626259
1772366215897415400,0.29941552734375,0.00005068909376859665,0.000682199839502573,-0.0017055561766028404
1772366215907485400,0.3094853515625,0.002877368126064539,0.00017966143786907196,-0.0007209861651062965
1772366215917555500,0.319555419921875,-0.0006750691682100296,-0.0016061372589319944,0.0007028775289654732
1772366215927626500,0.32962646484375,0.00011589005589485168,0.0003467588685452938,-0.002017540857195854
1772366215937696500,0.339696533203125,-0.00017897970974445343,0.0013216468505561352,-0.0008551357313990593
1772366215947766500,0.3497666015625,0.0008599194698035717,0.0017863684333860874,0.00023649446666240692
1772366215957837300,0.35983740234375,-0.00024071568623185158,0.0002824915573000908,0.0007800711318850517
1772366215967907300,0.3699072265625,-0.0007118284702301025,-0.0029439283534884453,-0.00027667079120874405
1772366215977977600,0.3799775390625,0.00008344557136297226,-0.0007612332701683044,0.0006452156230807304
1772366215988047400,0.39004736328125,0.0005012955516576767,0.0010617002844810486,-0.00012736767530441284
1772366215998118400,0.400118408203125,0.0005912031047046185,-0.0020212323870509863,-0.001125425100326538
1772366216008188400,0.4101884765625,0.0012274319306015968,-0.0027232414577156305,-0.000884409062564373
1772366216018258400,0.420258544921875,-0.0008741184137761593,-0.0014728358946740627,-0.002024349756538868
1772366216028329500,0.43032958984375,0.0003264341503381729,-0.0028406353667378426,0.0038804104551672935
1772366216038399500,0.4403994140625,0.00022949324920773506,-0.00535639887675643,0.00031534116715192795
1772366216048469500,0.450469482421875,0.00009793275967240334,0.0015675537288188934,-0.0007579121738672256
1772366216058540300,0.460540283203125,-0.0012674657627940178,0.0020944043062627316,0.0003131888806819916
1772366216068610300,0.4706103515625,-0.0010727886110544205,-0.003274528542533517,-0.0009542098268866539
1772366216078680600,0.4806806640625,-0.00009588757529854774,0.0026558255776762962,-0.0004670312628149986
1772366216088751400,0.49075146484375,-0.003216313198208809,0.0023599485866725445,-0.0005839439108967781
1772366216098821400,0.5008212890625,-0.00018979469314217567,0.0061818938702344894,0.0019224677234888077
1772366216108891400,0.510891357421875,0.00048558320850133896,0.0006646229885518551,0.00005186349153518677
1772366216118961400,0.52096142578125,-0.0018540029413998127,0.0006887959316372871,-0.001553407870233059
1772366216129032400,0.531032470703125,0.0010531037114560604,-0.000580999068915844,-0.0013179844245314598
1772366216139102500,0.5411025390625,0.0005464116111397743,0.0015115025453269482,-0.0016491105780005455
1772366216149172200,0.551172119140625,-0.00017077801749110222,0.003695827443152666,-0.0018986482173204422
1772366216159243300,0.5612431640625,0.002669868990778923,-0.00016823410987854004,-0.0011097267270088196
1772366216169313500,0.5713134765625,-0.0005011563189327717,-0.0026577571406960487,-0.0049792998470366
1772366216179383600,0.581383544921875,0.00009642867371439934,-0.0019300379790365696,0.0006328048184514046
1772366216189454300,0.591454345703125,-0.001607994083315134,0.000546435359865427,0.0018032640218734741
1772366216199524400,0.6015244140625,0.0007608095183968544,-0.0011089008767157793,-0.00010375864803791046
1772366216209594400,0.611594482421875,0.0010910416021943092,-0.000576268881559372,0.0013085156679153442
1772366216219665400,0.62166552734375,-0.0006585437804460526,0.0007411325350403786,0.0013373596593737602
1772366216229735400,0.6317353515625,0.0010818317532539368,0.0005973218940198421,-0.0003846399486064911
1772366216239805400,0.641805419921875,0.0009541227482259274,-0.0020680243615061045,-0.000034339725971221924
1772366216249876500,0.65187646484375,-0.0010871905833482742,0.0009591910056769848,-0.0006175721064209938
1772366216259946200,0.6619462890625,-0.001113729551434517,-0.0016651386395096779,0.0017306441441178322
1772366216270016500,0.6720166015625,0.0005464851856231689,0.0016976348124444485,0.0004933392629027367
1772366216280086500,0.68208642578125,0.00037919217720627785,0.002305043861269951,-0.0018749022856354713
1772366216290157300,0.6921572265625,-0.00016968511044979095,-0.001387162832543254,0.0012790793552994728
1772366216300227300,0.702227294921875,0.0010193660855293274,0.000338828656822443,-0.000545743852853775
1772366216310297600,0.712297607421875,0.0005642320029437542,0.004796693567186594,-0.0017002243548631668
1772366216320368600,0.72236865234375,-0.0010515418834984303,0.0018328605219721794,-0.0006900345906615257
1772366216330438400,0.7324384765625,-0.0015399656258523464,0.0030653709545731544,0.0015922943130135536
1772366216340508400,0.74250830078125,0.0015446804463863373,0.006451596971601248,0.00019048061221837997
1772366216350579500,0.752579345703125,-0.0016644285060465336,0.0018999888561666012,0.0014195293188095093
1772366216360649500,0.7626494140625,0.0008972333744168282,0.001393988262861967,-0.0001461431384086609
1772366216370719500,0.772719482421875,0.001004825346171856,0.0006634830497205257,0.0018767938017845154
1772366216380790500,0.78279052734375,0.0006599449552595615,0.0028888857923448086,0.000672430731356144
1772366216390860300,0.7928603515625,0.0006165350787341595,0.0009767361916601658,0.0018032090738415718
1772366216400930300,0.802930419921875,0.00014070561155676842,-0.0007384861819446087,-0.0022479016333818436
1772366216411000600,0.81300048828125,0.0011146236211061478,0.001425864640623331,0.0018160827457904816
1772366216421071600,0.823071533203125,-0.0013126642443239689,-0.0019078920595347881,-0.0005052294582128525
1772366216431141400,0.833141357421875,-0.0006942781619727612,0.002829072531312704,-0.00009350478649139404
1772366216441211400,0.84321142578125,-0.00024913111701607704,0.00015485752373933792,0.00017727632075548172
1772366216451282400,0.853282470703125,-0.0009322315454483032,-0.0001833639107644558,0.0005919309332966805
1772366216461352400,0.8633525390625,-0.001956326887011528,-0.00041808001697063446,0.0019530374556779861
1772366216471422500,0.87342236328125,0.000389651395380497,0.0016541257500648499,-0.0009008059278130531
1772366216481493500,0.883493408203125,0.0004368862137198448,0.0008804295212030411,0.00042022857815027237
1772366216491563300,0.893563232421875,-0.0002640578895807266,-0.0003046770580112934,0.00013713445514440536
1772366216501633300,0.90363330078125,-0.0022040028125047684,-0.004300478845834732,-0.0002459827810525894
1772366216511704300,0.913704345703125,0.00021681096404790878,0.0014237193390727043,0.0005748039111495018
1772366216521774600,0.923774658203125,-0.0008612954989075661,0.0023408071137964725,-0.00009215250611305237
1772366216531844400,0.93384423828125,0.00014378130435943604,0.00033970829099416733,-0.00018642842769622803
1772366216541915400,0.943915283203125,0.0015417332760989666,-0.0008740886114537716,-0.00028213951736688614
1772366216551985400,0.9539853515625,-0.0002953154034912586,0.00010915054008364677,0.0008299965411424637
1772366216562055400,0.964055419921875,-0.0007747886702418327,0.002045618835836649,-0.0002772891893982887
1772366216572125400,0.97412548828125,0.0013117976486682892,0.0000575692392885685,0.000459074042737484
1772366216582196500,0.984196533203125,-0.00011874828487634659,0.0005731340497732162,-0.0031827036291360855
1772366216592266200,0.994266357421875,-0.00011768285185098648,-0.0013448745012283325,-0.0008774716407060623
1772366216602336500,1.00433642578125,-0.0013287253677845001,0.002614140510559082,0.0015090685337781906
1772366216612407600,1.014407470703125,0.0004084547981619835,-0.002576626604422927,0.0019908342510461807
1772366216622477600,1.0244775390625,-0.00064103864133358,-0.0003578551113605499,-0.001299755647778511
1772366216632547300,1.03454736328125,0.0005075824446976185,-0.003011695109307766,0.001257411204278469
1772366216642618400,1.044618408203125,-0.0002198931761085987,-0.00031719403341412544,-0.0009702602401375771
1772366216652688600,1.054688720703125,-0.0016089985147118568,-0.00017471471801400185,-0.00179983489215374
1772366216662758700,1.064758544921875,0.0005413475446403027,-0.0032094591297209263,-0.0023572714999318123
1772366216672829700,1.07482958984375,0.0014356370083987713,0.0034556337632238865,-0.0021599316969513893
1772366216682899700,1.084899658203125,0.0013268706388771534,-0.0006953626871109009,0.0005714166909456253
1772366216692969500,1.094969482421875,-0.0004140380769968033,-0.0007896386086940765,0.000493386760354042
1772366216703039700,1.105039794921875,0.002299511805176735,0.0001421663910150528,-0.0007524294778704643
1772366216713110800,1.11511083984375,0.0016238675452768803,0.001513162162154913,-0.0006656106561422348
1772366216723180800,1.125180908203125,0.00019596097990870476,0.0013489527627825737,0.0015023695304989815
1772366216733250600,1.13525048828125,-0.0003308122977614403,0.0005888869054615498,-0.0031184814870357513
1772366216743321600,1.145321533203125,-0.001127186231315136,0.002401912584900856,-0.00027562305331230164
1772366216753391600,1.1553916015625,0.0006307666189968586,-0.00019493605941534042,0.000007737427949905396
1772366216763461600,1.165461669921875,-0.00152533408254385,-0.0015251648146659136,0.000026028603315353394
1772366216773532700,1.17553271484375,-0.0002866978757083416,-0.0003395257517695427,-0.0017857206985354424
1772366216783602700,1.185602783203125,0.0009929691441357136,-0.0013721457216888666,0.001873217523097992
1772366216793672400,1.19567236328125,0.0003628651611506939,0.00027262279763817787,-0.0012546656653285027
1772366216803743500,1.205743408203125,0.0007239049300551414,0.00028297677636146545,-0.0012591974809765816
1772366216813813800,1.215813720703125,-0.0004098028875887394,-0.00004192907363176346,-0.001947358250617981
1772366216823883800,1.2258837890625,0.002092554233968258,0.0017470098100602627,-0.0023306934162974358
1772366216833953500,1.23595361328125,0.0011631110683083534,0.0022239815443754196,0.0010943980887532234
1772366216844024600,1.246024658203125,-0.0001349765807390213,-0.002827388234436512,-0.000858980230987072
1772366216854094800,1.2560947265625,-0.00007905019447207451,0.001393455546349287,0.0008273329585790634
1772366216864164600,1.26616455078125,-0.00003176974132657051,-0.00019913073629140854,0.0018507102504372597
1772366216874235600,1.276235595703125,-0.00021765846759080887,-0.0002681068144738674,-0.0020849090069532394
1772366216884305700,1.2863056640625,-0.00016503408551216125,-0.00025566527619957924,-0.0003149285912513733
1772366216894375700,1.296375732421875,-0.0010508019477128983,-0.0010026819072663784,-0.0007165325805544853
1772366216904446700,1.30644677734375,-0.00025009922683238983,-0.0007343403995037079,0.0009703347459435463
1772366216914516700,1.316516845703125,0.000615161843597889,0.0009778058156371117,0.0007144054397940636
1772366216924586800,1.326586669921875,-0.000723736360669136,0.00013670232146978378,0.0009665610268712044
1772366216934657500,1.336657470703125,0.0006019850261509418,0.0020262147299945354,0.0018992004916071892
1772366216944727600,1.3467275390625,-0.002383055165410042,-0.0011043718550354242,0.0006267894059419632
1772366216954797800,1.3567978515625,0.0020883921533823013,-0.00045962026342749596,0.0015370575711131096
1772366216964867600,1.36686767578125,-0.0015363055281341076,-0.00040814653038978577,-0.0003144526854157448
1772366216974938600,1.376938720703125,0.0017489702440798283,-0.001390852965414524,-0.00008062738925218582
1772366216985008600,1.387008544921875,0.0020895148627460003,0.000364846084266901,0.0005439827218651772
1772366216995078700,1.39707861328125,-0.00044208625331521034,0.003798193298280239,0.0006726142019033432
1772366217005149700,1.407149658203125,0.0004643579013645649,-0.0014826764818280935,0.0003359997645020485
1772366217015219700,1.4172197265625,-0.0008349982090294361,-0.0012579055037349463,0.001271301880478859
1772366217025289700,1.427289794921875,-0.0003758850507438183,0.000870837364345789,-0.000048966147005558014
1772366217035360500,1.437360595703125,0.0006755311042070389,-0.000766474287956953,-0.0007768087089061737
1772366217045430800,1.4474306640625,0.00047821085900068283,0.0007840744219720364,-0.0013847975060343742
1772366217055500800,1.457500732421875,0.0004904614761471748,0.0010930011048913002,0.0027305856347084045
1772366217065570600,1.467570556640625,-0.0014769509434700012,0.0008592475205659866,0.0012754015624523163
1772366217075641600,1.4776416015625,-0.0004625534638762474,0.0029668728820979595,0.0011052247136831284
1772366217085711600,1.487711669921875,0.00027838489040732384,-0.003458784893155098,0.0005086679011583328
1772366217095781600,1.49778173828125,-0.00015917234122753143,0.0006304988637566566,-0.0041252318769693375
1772366217105852700,1.507852783203125,-0.000791225116699934,0.0007332717068493366,0.0005696099251508713
1772366217115922700,1.517922607421875,0.000022104009985923767,-0.002076895907521248,0.0013877330347895622
1772366217125992700,1.52799267578125,0.0018823319114744663,0.0002558543346822262,0.0005192020907998085
1772366217136063500,1.5380634765625,0.00029641948640346527,-0.0032890792936086655,-0.0004464592784643173
1772366217146133800,1.5481337890625,0.0006495360285043716,0.00043434975668787956,0.0014066509902477264
1772366217156203800,1.558203857421875,-0.00017338059842586517,-0.0030655767768621445,-0.0001507652923464775
1772366217166274800,1.56827490234375,0.00015975534915924072,-0.0009660683572292328,0.004590459167957306
1772366217176344600,1.578344482421875,-0.0000349218025803566,0.0032353345304727554,-0.0011252164840698242
1772366217186414600,1.58841455078125,-0.0005009532906115055,0.00043155672028660774,0.001834671013057232
1772366217196484600,1.598484619140625,0.00032249605283141136,-0.0008691311813890934,0.00012252479791641235
1772366217206555600,1.6085556640625,-0.001140933483839035,0.0006582625210285187,-0.00014510750770568848
1772366217216625700,1.618625732421875,0.0015738923102617264,0.0025837281718850136,-0.001242862083017826
1772366217226695700,1.62869580078125,-0.00032355496659874916,-0.000681411474943161,0.00011919159442186356
1772366217236766500,1.638766357421875,0.0010730065405368805,0.0028230417519807816,0.0010046930983662605
1772366217246836700,1.648836669921875,-0.0011328025721013546,0.0015689721331000328,0.0032004714012145996
1772366217256906800,1.65890673828125,0.0006741518154740334,-0.0029136603698134422,0.00016739685088396072
1772366217266977800,1.668977783203125,0.002563461195677519,0.0003086947835981846,-0.0008471803739666939
1772366217277047600,1.679047607421875,-0.0010864008218050003,0.001553456299006939,-0.001124948263168335
1772366217287117800,1.689117919921875,0.003535255789756775,0.002413664013147354,-0.00268383976072073
1772366217297187600,1.6991875,0.00012454530224204063,0.0026405653916299343,-0.0012444015592336655
1772366217307258600,1.709258544921875,-0.00041597476229071617,0.002601777669042349,0.0007031941786408424
1772366217317328600,1.71932861328125,0.0008229273371398449,0.0021692803129553795,0.00013514235615730286
1772366217327398700,1.729398681640625,0.0023700864985585213,0.0007472517900168896,0.0009924126788973808
1772366217337469700,1.7394697265625,-0.00001051323488354683,0.0004327325150370598,-0.0015093609690666199
1772366217347539700,1.749539794921875,0.0014912346377968788,-0.00029534241184592247,0.0005961768329143524
1772366217357609700,1.759609619140625,0.002228930126875639,0.0007707211188971996,-0.000825684517621994
1772366217367680800,1.7696806640625,-0.00014563556760549545,0.0014188829809427261,-0.0011972440406680107
1772366217377750500,1.77975048828125,0.0014096503145992756,-0.0015851629432290792,-0.0008033625781536102
1772366217387820800,1.78982080078125,-0.0017695766873657703,0.0022689644247293472,-0.002098570577800274
1772366217397890600,1.799890625,-0.0015775631181895733,-0.0012314943596720695,-0.0004410194233059883
1772366217407961600,1.809961669921875,0.0005137310363352299,0.0012486246414482594,-0.0012251129373908043
1772366217418031600,1.820031494140625,0.000432770699262619,0.0007189218886196613,-0.0011388259008526802
1772366217428102000,1.830101806640625,0.001266978681087494,-0.0009755874052643776,-0.0004565557464957237
1772366217438172700,1.840172607421875,-0.0009927134960889816,0.0001607835292816162,-0.00011620298027992249
1772366217448242700,1.85024267578125,-0.0010378733277320862,0.003855068702250719,-0.00009546894580125809
1772366217458312700,1.860312744140625,-0.0011057844385504723,0.0011948375031352043,0.0004360983148217201
1772366217468383700,1.8703837890625,0.0028083338402211666,0.0013637226074934006,-0.0003820424899458885
1772366217478453800,1.880453857421875,0.0006743427366018295,0.0018619997426867485,0.0006946735084056854
1772366217488523800,1.890523681640625,-0.0019963267259299755,0.0005051516927778721,0.00007659383118152618
1772366217498593500,1.900593505859375,0.0007965303957462311,-0.0012637199833989143,0.0017346777021884918
1772366217508664600,1.91066455078125,0.00014477316290140152,0.000309724360704422,-0.0010698037222027779
1772366217518734600,1.920734619140625,0.001082738395780325,0.0014817812480032444,-0.00005034543573856354
1772366217528804900,1.930804931640625,-0.00010443432256579399,0.0005707056261599064,-0.000047128647565841675
1772366217538875600,1.940875732421875,0.002261251676827669,0.0010791029781103134,0.0017928490415215492
1772366217548945700,1.950945556640625,0.00009478908032178879,0.002607014961540699,-0.0019165035337209702
1772366217559015700,1.961015625,0.0017131920903921127,0.002872265875339508,0.00036316271871328354
1772366217569086700,1.971086669921875,-0.0006838580593466759,0.0040043797343969345,-0.0007251044735312462
1772366217579156700,1.98115673828125,0.002854950726032257,-0.0005874428898096085,-0.0005221720784902573
1772366217589226800,1.991226806640625,-0.000677250325679779,0.0020156376995146275,-0.001100132241845131
1772366217599296500,2.001296630859375,0.0009078630246222019,0.0006137494929134846,-0.00010171253234148026
1772366217609367600,2.011367431640625,0.00006491830572485924,-0.0005947905592620373,-0.0014655012637376785
1772366217619437600,2.0214375,0.0017232690006494522,-0.0022012093104422092,-0.0008851978927850723
1772366217629507800,2.0315078125,0.002409280277788639,-0.004910866729915142,0.00040154997259378433
1772366217639578600,2.04157861328125,-0.00003363750874996185,0.0013606115244328976,0.0019448520615696907
1772366217649648600,2.051648681640625,0.000741895753890276,0.0010654134675860405,0.0010858159512281418
1772366217659718400,2.061718505859375,-0.0020498954690992832,-0.0019679272081702948,0.0006349431350827217
1772366217669789400,2.07178955078125,-0.000049559399485588074,0.0006885644979774952,0.0005513662472367287
1772366217679859200,2.081859130859375,-0.00213508028537035,-0.002882201923057437,0.0008224761113524437
1772366217689929200,2.09192919921875,0.0002918117679655552,-0.0028085217345505953,-0.000892912968993187
1772366217699999200,2.101999267578125,-0.0007588048465549946,0.0007569179870188236,-0.0007597552612423897
1772366217710070000,2.112070068359375,0.0014304155483841896,-0.0023009032011032104,-0.0010264823213219643
1772366217720140300,2.122140380859375,0.000009885523468255997,-0.00012882892042398453,0.0005104281008243561
1772366217730210300,2.132210205078125,0.0012242542579770088,-0.005583684425801039,-0.00043058954179286957
1772366217740281000,2.142281005859375,-0.0015715323388576508,-0.002161522628739476,-0.0028082598000764847
1772366217750351000,2.15235107421875,0.0024397647939622402,0.0024111513048410416,0.001046772114932537
1772366217760421400,2.16242138671875,0.0006679636426270008,0.0007916828617453575,-0.00043927133083343506
1772366217770492400,2.172492431640625,-0.0014709560200572014,0.0035797501914203167,0.00024159997701644897
1772366217780562200,2.182562255859375,0.0017743720673024654,0.0038450011052191257,0.0007393443956971169
1772366217790632200,2.192632080078125,0.0008320342749357224,0.0013654022477567196,-0.0016102558001875877
1772366217800702200,2.2027021484375,-0.0010287160985171795,0.000499342568218708,-0.002213462255895138
1772366217810773200,2.212773193359375,0.001058267429471016,0.0018085693009197712,-0.0014117266982793808
1772366217820843300,2.22284326171875,-0.0030869431793689728,0.00008150935173034668,0.002991810441017151
1772366217830913300,2.232913330078125,-0.0003930046223104,0.0006334520876407623,-0.0005338834598660469
1772366217840984000,2.242984130859375,0.0006440300494432449,-0.0036981794983148575,0.0007151393219828606
1772366217851054000,2.25305419921875,0.0008046957664191723,0.002088327892124653,0.00047282129526138306
1772366217861124400,2.263124267578125,-0.0017290357500314713,0.0038223122246563435,0.002013459801673889
1772366217871195400,2.2731953125,-0.0003115660510957241,-0.0034027493093162775,-0.000492422841489315
1772366217881265200,2.28326513671875,0.0005936422385275364,0.0006513809785246849,-0.0018727397546172142
1772366217891335200,2.293335205078125,0.0010827425867319107,0.00048183416947722435,-0.0015143314376473427
1772366217901405400,2.303405517578125,0.0003405199386179447,-0.002592518925666809,0.001811690628528595
1772366217911476200,2.313476318359375,0.001459299586713314,0.0014330833218991756,0.0018665101379156113
1772366217921546200,2.323546142578125,0.0021583791822195053,-0.001146454829722643,-0.0000040940940380096436
1772366217931616300,2.3336162109375,0.0005619069561362267,0.002454867586493492,0.0018410664051771164
1772366217941687000,2.34368701171875,-0.00013371044769883156,-0.0001744711771607399,-0.002231971360743046
1772366217951757300,2.35375732421875,-0.0001966259442269802,0.0012057744897902012,0.0016914522275328636
1772366217961827300,2.363827392578125,-0.0008909120224416256,0.001836144831031561,0.000023514963686466217
1772366217971897000,2.37389697265625,0.0015487764030694962,0.002001748885959387,-0.0010324511677026749
1772366217981968100,2.383968017578125,-0.0015290388837456703,-0.003960802685469389,0.0007806289941072464
1772366217992038100,2.3940380859375,0.0024187853559851646,-0.0013434728607535362,-0.00005996786057949066
1772366218002108200,2.404108154296875,0.0008059749379754066,0.00008984049782156944,-0.0031638815999031067
1772366218012179200,2.41417919921875,0.000436992384493351,-0.0033266928512603045,-0.0008038477972149849
1772366218022249200,2.424249267578125,-0.0029010134749114513,-0.0010659354738891125,0.0004483712837100029
1772366218032319200,2.4343193359375,0.0013182424008846283,-0.0033108480274677277,0.003541882149875164
1772366218042390000,2.44439013671875,0.00141811091452837,-0.003332153195515275,-0.0010304991155862808
1772366218052460300,2.454460205078125,0.0006027496419847012,-0.002231528051197529,0.00012494437396526337
1772366218062530300,2.4645302734375,-0.0007858225144445896,-0.0015401714481413364,0.0017420155927538872
1772366218072600000,2.47460009765625,-0.001531344372779131,0.0006015431135892868,-0.00032111629843711853
1772366218082671000,2.484671142578125,-0.00011853687465190887,-0.003917574882507324,-0.0008673304691910744
1772366218092741400,2.494741455078125,-0.0016356641426682472,0.0012613986618816853,0.00002905074506998062
1772366218102811100,2.50481103515625,0.0010123173706233501,-0.0024654287844896317,-0.001100395806133747
1772366218112882200,2.514882080078125,-0.0006708172149956226,0.0022216499783098698,0.0008597150444984436
1772366218122952200,2.5249521484375,-0.0011382014490664005,0.0014101848937571049,0.0005401354283094406
1772366218133022200,2.535022216796875,0.0006582685746252537,0.00004372280091047287,0.000040949322283267975
1772366218143093000,2.545093017578125,-0.00018195854499936104,-0.0007986347191035748,0.002393052913248539
1772366218153163300,2.555163330078125,0.00146916089579463,-0.0003082030452787876,-0.0011456944048404694
1772366218163233300,2.5652333984375,0.0018428023904561996,0.0019946321845054626,0.0016695335507392883
1772366218173303000,2.575302978515625,0.0009821811690926552,0.0028402148745954037,-0.0005152691155672073
1772366218183374000,2.5853740234375,0.0018064295873045921,0.002537147141993046,-0.00007904320955276489
1772366218193444400,2.5954443359375,-0.0016962341032922268,-0.0019462036434561014,0.0002863062545657158
1772366218203514000,2.60551416015625,0.0006105965003371239,-0.002522245282307267,-0.0009909458458423615
1772366218213585200,2.615585205078125,0.00022508436813950539,0.00279654236510396,0.002017783001065254
1772366218223655200,2.6256552734375,0.0013265679590404034,0.0012124939821660519,0.0013077836483716965
1772366218233725200,2.63572509765625,-0.0006451285444200039,0.0021094013936817646,0.000710953027009964
1772366218243795200,2.645795166015625,0.0004140106029808521,-0.0020733592100441456,-0.001826506108045578
1772366218253866200,2.6558662109375,-0.000793705228716135,-0.0015946798957884312,0.000041985884308815
1772366218263936300,2.665936279296875,-0.000824065413326025,0.0014655585400760174,-0.0005415128543972969
1772366218274006000,2.676006103515625,-0.0012915837578475475,-0.00027232151478528976,-0.003886554390192032
1772366218284077000,2.6860771484375,-0.00223780469968915,-0.0004877708852291107,-0.000823119655251503
1772366218294147300,2.696147216796875,0.00005309097468852997,-0.0014962998684495687,0.001332511194050312
1772366218304217000,2.706217041015625,0.0008605616167187691,-0.0009498191066086292,0.0005127908661961555
1772366218314288000,2.7162880859375,-0.0006798240356147289,-0.000717479269951582,-0.00001973286271095276
1772366218324358100,2.726358154296875,0.0023082424886524677,0.0010652407072484493,0.0016980059444904327
1772366218334428400,2.736428466796875,0.00044473353773355484,0.0016148444265127182,0.0012116124853491783
1772366218344498200,2.746498291015625,-0.0013225404545664787,-0.000258689746260643,-0.0003668433055281639
1772366218354569200,2.7565693359375,0.0008650817908346653,0.0030578835867345333,0.0019882312044501305
1772366218364639200,2.76663916015625,-0.0005514533258974552,0.0008514546789228916,0.002659347839653492
1772366218374709200,2.776709228515625,0.001698831096291542,-0.0007582320831716061,0.0003017894923686981
1772366218384780300,2.7867802734375,0.0003086607903242111,-0.0003403821028769016,0.0002426672726869583
1772366218394850300,2.796850341796875,-0.0005778255872428417,-0.0003542010672390461,0.0011827833950519562
1772366218404920000,2.806920166015625,0.0009127454832196236,0.000015978235751390457,0.000319918617606163
1772366218414991000,2.8169912109375,-0.0011036936193704605,-0.0011455998755991459,0.00009880773723125458
1772366218425061000,2.82706103515625,-0.0010379133746027946,0.0004863855428993702,0.002620554529130459
1772366218435131400,2.83713134765625,-0.001454753801226616,0.0004451330751180649,0.00045268796384334564
1772366218445201200,2.847201171875,0.0007745786570012569,-0.001156491693109274,-0.00006556324660778046
1772366218455272200,2.857272216796875,0.0019961209036409855,0.000385466031730175,-0.0005433326587080956
1772366218465342200,2.86734228515625,-0.0012156511656939983,-0.00013970956206321716,-0.000888211652636528
1772366218475412200,2.877412109375,0.00238094013184309,-0.0021182510536164045,0.0012067705392837524
1772366218485483300,2.887483154296875,0.00027118390426039696,-0.0012029227800667286,0.000010212883353233337
1772366218495553300,2.89755322265625,0.00040589645504951477,-0.0017058681696653366,-0.000773242674767971
1772366218505623000,2.907623046875,0.00032014260068535805,-0.00347047857940197,0.0013189371675252914
1772366218515693300,2.917693359375,0.0000013797543942928314,-0.0005099526606500149,-0.00022441428154706955
1772366218525764400,2.927764404296875,0.001034419983625412,0.000541729386895895,0.0014922600239515305
1772366218535834400,2.93783447265625,0.00024821609258651733,-0.0009150938130915165,0.0009370576590299606
1772366218545904000,2.947904052734375,0.002211498562246561,0.0007539093494415283,0.0013067051768302917
1772366218555975200,2.95797509765625,-0.002101755701005459,-0.0008474653586745262,-0.00021876394748687744
1772366218566045200,2.968045166015625,0.00020028091967105865,0.00029449816793203354,0.00013969745486974716
1772366218576115200,2.978115234375,0.0016795452684164047,-0.0016041963826864958,-0.0004261629655957222
1772366218586185200,2.988185302734375,-0.0013828231021761894,0.0024259653873741627,0.0010154061019420624
1772366218596256300,2.99825634765625,-0.0009614448063075542,-0.0023248805664479733,0.002786695957183838
1772366218606326000,3.008325927734375,0.00046281423419713974,-0.0014002311509102583,-0.0007033767178654671
1772366218616396300,3.018396240234375,0.0011524348519742489,0.003200337290763855,0.00022206176072359085
1772366218626467300,3.02846728515625,-0.000978626310825348,0.0009113498963415623,0.0003791879862546921
1772366218636537300,3.038537353515625,0.0011763377115130424,0.000463215634226799,0.0005299905315041542
1772366218646607000,3.048607177734375,0.000822936650365591,0.0008267369121313095,0.0006793942302465439
1772366218656682500,3.0586826171875,0.001137677114456892,-0.0014273009728640318,-0.00005825236439704895
1772366218666752300,3.068752197265625,-0.00022852467373013496,-0.003146637696772814,-0.0009408239275217056
1772366218676822500,3.078822509765625,0.0009355633519589901,-0.00003772042691707611,0.00029258616268634796
1772366218686892500,3.088892578125,0.0010812380351126194,-0.0008593057282269001,0.001875036396086216
1772366218696963300,3.09896337890625,0.0001428886316716671,-0.000820232555270195,-0.0009567784145474434
1772366218707033300,3.109033447265625,0.00015647057443857193,-0.0006644376553595066,0.002121036872267723
1772366218717103400,3.119103271484375,0.0015603755600750446,-0.000791934784501791,0.00007221661508083344
1772366218727174400,3.12917431640625,0.00013425294309854507,0.00020861485973000526,-0.00020155590027570724
1772366218737244400,3.139244384765625,-0.0015451801009476185,0.003589545376598835,-0.0010738261044025421
1772366218747314400,3.149314453125,-0.00022824713960289955,0.001700032502412796,0.0012567061930894852
1772366218757384400,3.159384521484375,-0.002434179186820984,0.002334694843739271,0.0021112216636538506
1772366218767455200,3.169455322265625,0.001848716288805008,-0.0015884079039096832,0.0016084164381027222
1772366218777525500,3.179525390625,0.001764015294611454,0.0010464107617735863,-0.0000815223902463913
1772366218787595500,3.189595458984375,-0.0008458821102976799,0.0027151471003890038,0.0002449816092848778
1772366218797666300,3.199666259765625,-0.0006944104097783566,0.0003391033969819546,-0.0007528821006417274
1772366218807736300,3.209736328125,-0.001732510980218649,-0.0007485314272344112,-0.0020205462351441383
1772366218817806600,3.219806640625,-0.0008059097453951836,-0.0018444601446390152,-0.001596083864569664
1772366218827876400,3.22987646484375,0.00032247183844447136,0.0008003250695765018,-0.001355600543320179
1772366218837947400,3.239947509765625,-0.001135293859988451,-0.0005566244944930077,0.0009812097996473312
1772366218848017400,3.250017333984375,-0.0006844210438430309,0.0008135717362165451,0.0005258088931441307
1772366218858087400,3.26008740234375,0.0008829506114125252,-0.00005365489050745964,0.0006377901881933212
1772366218868158500,3.270158447265625,-0.000013203360140323639,-0.003608974628150463,0.0002740025520324707
1772366218878228500,3.280228515625,0.002758881077170372,0.002438632771372795,0.001582091674208641
1772366218888298500,3.290298583984375,-0.0012177503667771816,-0.0005387812852859497,-0.00045735668390989304
1772366218898369300,3.300369384765625,0.0005889744497835636,-0.00022945739328861237,0.001892109401524067
1772366218908439300,3.310439208984375,0.00030028773471713066,-0.0009383908472955227,-0.0007747793570160866
1772366218918509600,3.320509521484375,-0.002944712992757559,-0.001002294011414051,0.0009908787906169891
1772366218928579300,3.330579345703125,0.000583442859351635,0.0005846838466823101,0.0017671901732683182
1772366218938650400,3.340650390625,-0.0018754256889224052,-0.001210393849760294,0.0016458844766020775
1772366218948720400,3.350720458984375,-0.0011385288089513779,0.001274868380278349,0.0013332301750779152
1772366218958790700,3.360790771484375,0.0002189422957599163,-0.0038172644563019276,0.0017955582588911057
1772366218968861400,3.370861328125,-0.0009754858911037445,-0.0024827546440064907,0.0005135126411914825
1772366218978931500,3.380931396484375,0.000825357623398304,0.0006788303144276142,0.004116596654057503
1772366218989001500,3.39100146484375,0.001632029190659523,0.001219185534864664,0.0030369507148861885
1772366218999071200,3.4010712890625,-0.0003055068664252758,0.0018330416642129421,0.0007743015885353088
1772366219009142300,3.411142333984375,-0.0033300593495368958,-0.00029295962303876877,0.00004752539098262787
1772366219019212500,3.421212646484375,-0.0017871465533971786,-0.002316652098670602,-0.0003333110362291336
1772366219029282300,3.4312822265625,-0.0011618360877037048,-0.0004798700101673603,-0.00021160487085580826
1772366219039353300,3.441353271484375,0.0007455763407051563,-0.0017345445230603218,0.0007142620161175728
1772366219049423400,3.45142333984375,-0.0014645811170339584,-0.000054356176406145096,-0.0007270406931638718
1772366219059493600,3.46149365234375,0.0003700200468301773,-0.0002927989698946476,-0.001578385941684246
1772366219069563400,3.4715634765625,-0.0007628891617059708,-0.002418001415207982,-0.00024067983031272888
1772366219079634400,3.481634521484375,0.0008297143504023552,0.0011999374255537987,0.0013308441266417503
1772366219089704400,3.491704345703125,-0.0002547251060605049,0.002969341818243265,0.00007756054401397705
1772366219099774500,3.5017744140625,-0.0006197136826813221,0.00036944029852747917,0.00014831218868494034
1772366219109845500,3.511845458984375,-0.0010711201466619968,-0.002468690276145935,0.0017499374225735664
1772366219119915500,3.52191552734375,0.001655785832554102,-0.00039869174361228943,-0.000029602088034152985
1772366219129985300,3.5319853515625,-0.0006422554142773151,0.0031534326262772083,0.0034788455814123154
1772366219140055300,3.54205517578125,-0.00047702202573418617,-0.00038002245128154755,0.0003631254658102989
1772366219150126300,3.552126220703125,-0.00029965583235025406,0.00023703183978796005,-0.0010536760091781616
1772366219160196600,3.562196533203125,0.0002070344053208828,0.0012558507733047009,0.0012501617893576622
1772366219170266400,3.572266357421875,0.00023499736562371254,-0.0004158155061304569,0.001050957478582859
1772366219180337400,3.58233740234375,0.000386933796107769,0.0009768428280949593,-0.0005610277876257896
1772366219190407400,3.592407470703125,0.000976824201643467,-0.0006783115677535534,-0.00011121947318315506
1772366219200477400,3.6024775390625,0.0007181596010923386,-0.0005565802566707134,0.0011715563014149666
1772366219210548500,3.612548583984375,0.00012720422819256783,-0.0037020398303866386,0.0006953831762075424
1772366219220618500,3.622618408203125,0.0013821180909872055,-0.0022038579918444157,0.0001938510686159134
1772366219230688300,3.632688232421875,-0.00030579324811697006,0.002376246266067028,0.0029560811817646027
1772366219240758500,3.642758544921875,-0.0008517862297594547,-0.0033854327630251646,-0.00020697526633739471
1772366219250829600,3.65282958984375,0.0013884645886719227,-0.004241372924298048,0.0004641413688659668
1772366219260899600,3.662899658203125,0.0017163003794848919,0.0013290843926370144,-0.0002252664417028427
1772366219270969300,3.67296923828125,-0.00009704567492008209,-0.0019609848968684673,-0.0004005022346973419
1772366219281040400,3.683040283203125,-0.0011946763843297958,0.0026005562394857407,-0.00047478359192609787
1772366219291110400,3.6931103515625,-0.00024792272597551346,-0.001197910401970148,-0.0012420397251844406
1772366219301180400,3.703180419921875,-0.0008765175007283688,0.0005836253985762596,-0.0029975222423672676
1772366219311250400,3.71325048828125,-0.002477610018104315,-0.0015074885450303555,0.0023876558989286423
1772366219321321500,3.723321533203125,0.0016521569341421127,-0.0018896048422902822,-0.0018417155370116234
1772366219331391200,3.73339111328125,0.0016193999908864498,-0.0006283316761255264,-0.00003502704203128815
1772366219341461500,3.74346142578125,0.0006418456323444843,-0.000661209225654602,0.0008415458723902702
1772366219351532500,3.753532470703125,0.002493541222065687,0.00012495601549744606,0.0006753643974661827
1772366219361602300,3.763602294921875,0.001470587681978941,-0.003594269510358572,0.0015528816729784012
1772366219371672300,3.77367236328125,0.0008524679578840733,0.0013328450731933117,0.0013813739642500877
1772366219381743400,3.783743408203125,0.0018446366302669048,0.00010180985555052757,0.0011105993762612343
1772366219391813600,3.793813720703125,0.0009090681560337543,-0.003480407875031233,0.0013500181958079338
1772366219401883400,3.80388330078125,0.0009749056771397591,-0.0018219593912363052,-0.0005186833441257477
1772366219411953400,3.813953369140625,-0.0009071500971913338,0.00033972831442952156,0.0014880085363984108
1772366219422024400,3.8240244140625,-0.0018539256416261196,-0.0006531393155455589,0.0017215339466929436
1772366219432094200,3.83409423828125,-0.0020944089628756046,0.0012496896088123322,-0.000791424885392189
1772366219442164500,3.84416455078125,-0.0012321840040385723,-0.001497606746852398,-0.0004607122391462326
1772366219452235500,3.854235595703125,0.000335086602717638,0.0006275959312915802,0.0008727330714464188
1772366219462305300,3.86430517578125,-0.00048572057858109474,-0.00004373257979750633,-0.0000684903934597969
1772366219472375300,3.874375244140625,-0.0022117155604064465,-0.0029654866084456444,0.00018291175365447998
1772366219482445600,3.884445556640625,0.0017496016807854176,-0.001350583042949438,-0.0020122211426496506
1772366219492516600,3.8945166015625,-0.001805984415113926,0.0022010086104273796,0.000604068860411644
1772366219502586400,3.90458642578125,-0.0015671341679990292,0.0015235664322972298,-0.0000060889869928359985
1772366219512656400,3.914656494140625,0.0011681988835334778,0.0023795063607394695,-0.0003270003944635391
1772366219522727400,3.9247275390625,-0.0003622770309448242,0.0003717956133186817,-0.00038559548556804657
1772366219532797400,3.93479736328125,0.0013181776739656925,-0.002241830574348569,0.000025063753128051758
1772366219542867500,3.944867431640625,-0.0019989670254290104,-0.0006372244097292423,0.00020884163677692413
1772366219552937500,3.9549375,-0.0011467556469142437,-0.0023677465505898,0.00020804256200790405
1772366219563008300,3.96500830078125,0.0016308696940541267,0.0002840678207576275,-0.0009279763326048851
1772366219573078300,3.975078369140625,0.0007365802302956581,-0.004148230887949467,-0.002692054957151413
1772366219583148500,3.9851484375,-0.0011074352078139782,-0.004157990217208862,-0.0007008705288171768
1772366219593219600,3.995219482421875,-0.000883729662746191,0.0022546350955963135,-0.0010662563145160675
1772366219603287600,4.00528759765625,0.0022851205430924892,0.0002747373655438423,0.0014630584046244621
1772366219613357300,4.015357421875,0.0016187974251806736,0.0017551886849105358,0.00014266371726989746
1772366219623427300,4.02542724609375,0.0009822831489145756,-0.00048347003757953644,0.0008428953588008881
1772366219633497600,4.03549755859375,0.0005316766910254955,-0.00002833595499396324,-0.000143539160490036
1772366219643568600,4.045568603515625,0.000529363751411438,-0.0012255306355655193,-0.0005222838371992111
1772366219653638400,4.055638427734375,0.001058533787727356,-0.00008543161675333977,-0.0020458782091736794
1772366219663704300,4.065704345703125,0.0003951224498450756,-0.00021511688828468323,0.0018165027722716331
1772366219673775400,4.075775390625,-0.0008179475553333759,0.0010126004926860332,0.0006700120866298676
1772366219683845600,4.085845703125,-0.002005429472774267,0.0021062660962343216,-0.0004575876519083977
1772366219693915400,4.095915283203125,0.0012753186747431755,0.00024658069014549255,-0.0011050021275877953
1772366219703985400,4.1059853515625,0.0019232816994190216,0.0011195088736712933,0.0005672071129083633
1772366219714056400,4.116056396484375,0.00020474381744861603,0.0015096617862582207,-0.00006156507879495621
1772366219724126500,4.12612646484375,0.0012991889379918575,0.0013340618461370468,0.0001964392140507698
1772366219734196500,4.136196533203125,-0.0012326785363256931,-0.001140813808888197,0.001953592523932457
1772366219744267500,4.146267578125,-0.002383558079600334,-0.0038836034946143627,-0.0008273869752883911
1772366219754337300,4.156337158203125,-0.00005222717300057411,0.0018642973154783249,0.002409685403108597
1772366219764407300,4.1664072265625,-0.00014686305075883865,-0.0008172942325472832,-0.0004067886620759964
1772366219774477600,4.1764775390625,-0.000509318895637989,-0.001661249902099371,-0.00023421645164489746
1772366219784548600,4.186548583984375,0.0005379333160817623,0.000056844670325517654,0.002538512460887432
1772366219794618400,4.196618408203125,0.0014548595063388348,0.00041024619713425636,0.0018705911934375763
1772366219804688400,4.2066884765625,0.0014221416786313057,-0.00001643318682909012,-0.0002133166417479515
1772366219814759400,4.216759521484375,-0.0020532836206257343,-0.0032673536334186792,0.0007073376327753067
1772366219824829400,4.226829345703125,0.0005497671663761139,-0.0015538684092462063,0.0007199505344033241
1772366219834899500,4.2368994140625,0.0007859896868467331,0.00018544215708971024,-0.0005514426156878471
1772366219844969500,4.246969482421875,-0.0008825990371406078,0.0013827458024024963,0.001761377789080143
1772366219855040300,4.257040283203125,-0.001184601802378893,-0.000141914002597332,0.000462554395198822
1772366219865110300,4.2671103515625,-0.0015863650478422642,-0.00028578517958521843,-0.0006459830328822136
1772366219875180500,4.2771806640625,0.001863227691501379,0.0033523589372634888,0.0007361974567174911
1772366219885251600,4.28725146484375,0.0010873237624764442,-0.0011855540797114372,0.001466953195631504
1772366219895321300,4.2973212890625,-0.0002511809580028057,-0.00015544332563877106,-0.0007557207718491554
1772366219905391400,4.307391357421875,0.0006404765881597996,0.0003989436663687229,0.0006753746420145035
1772366219915462400,4.31746240234375,0.00020957691594958305,-0.0034093766007572412,0.0003968076780438423
1772366219925532400,4.327532470703125,0.0026729265227913857,-0.00014131469652056694,0.0014313478022813797
1772366219935602400,4.3376025390625,-0.00021047797054052353,-0.00287558208219707,0.0007378607988357544
1772366219945672400,4.34767236328125,-0.0022501260973513126,-0.0016707063186913729,0.0019727349281311035
1772366219955743200,4.3577431640625,-0.0009718085639178753,0.0004928456619381905,0.0003181127831339836
1772366219965813500,4.3678134765625,0.00022796634584665298,-0.000717302318662405,0.0007595894858241081
1772366219975883500,4.377883544921875,0.00021145492792129517,0.0006454372778534889,0.001054667867720127
1772366219985953300,4.387953369140625,0.0016590063460171223,-0.0034579846542328596,0.00044720713049173355
1772366219996024300,4.3980244140625,0.0017692609690129757,-0.000856342725455761,0.0002999342978000641
1772366220006094300,4.40809423828125,-0.001841831486672163,-0.0006078160367906094,0.0007051974534988403
1772366220016164600,4.41816455078125,-0.000006647314876317978,-0.0033016037195920944,-0.00006525497883558273
1772366220026235400,4.4282353515625,-0.0008799657225608826,0.0003702668473124504,0.0011328868567943573
1772366220036305400,4.438305419921875,0.0005972897633910179,-0.0010630465112626553,0.0009975982829928398
1772366220046375400,4.44837548828125,0.0006704041734337807,-0.0019686161540448666,0.0015125442296266556
1772366220056446200,4.4584462890625,0.0015668240375816822,0.0017483578994870186,0.0016403766348958015
1772366220066516500,4.4685166015625,-0.0012367619201540947,-0.00022339774295687675,-0.0011843563988804817
1772366220076586500,4.47858642578125,0.001194970216602087,0.0005856705829501152,0.00017199106514453888
1772366220086656300,4.48865625,-0.0028443550691008568,0.0017748158425092697,0.000832672230899334
1772366220096727300,4.498727294921875,0.0007767453789710999,0.00028557609766721725,-0.001279214397072792
1772366220106797600,4.508797607421875,0.0015405667945742607,0.002018643543124199,-0.0009185420349240303
1772366220116867600,4.51886767578125,0.001427914947271347,-0.001202982384711504,0.00039040204137563705
1772366220126938400,4.5289384765625,-0.000021665822714567184,-0.0020678816363215446,0.00039203744381666183
1772366220137008400,4.53900830078125,-0.0032134647481143475,0.0008416217751801014,0.0005006948485970497
1772366220147078400,4.549078369140625,0.00047289347276091576,-0.00012992043048143387,0.0005277693271636963
1772366220157148400,4.5591484375,-0.002818507142364979,-0.0005616191774606705,-0.0008099367842078209
1772366220167219500,4.569219482421875,-0.0017655366100370884,-0.0015727018471807241,-0.0008529704064130783
1772366220177291500,4.57929150390625,-0.0006307638250291348,-0.0035618168767541647,0.00042774342000484467
1772366220187361500,4.589361572265625,0.00035092467442154884,0.0008356403559446335,-0.00021266378462314606
1772366220197431300,4.599431396484375,0.0007828893139958382,-0.0024067582562565804,0.001956747844815254
1772366220207501300,4.609501220703125,0.0007806150242686272,0.000895272009074688,-0.00011924188584089279
1772366220217572400,4.619572265625,-0.0012548393569886684,-0.002158042276278138,-0.0011727884411811829
1772366220227642600,4.629642578125,-0.0021992260590195656,-0.000305691733956337,0.0010315477848052979
1772366220237712400,4.63971240234375,0.0015904521569609642,0.000056498218327760696,-0.0006078947335481644
1772366220247783400,4.649783447265625,0.0015107193030416965,0.0010512582957744598,0.0007644146680831909
1772366220257853400,4.659853515625,-0.0009306007996201515,-0.0015674280002713203,-0.000798327848315239
1772366220267923500,4.66992333984375,-0.00018996605649590492,-0.0031329982448369265,-0.0007595494389533997
1772366220277993500,4.679993408203125,-0.0005244589410722256,0.0020947870798408985,0.00023008137941360474
1772366220288064500,4.690064453125,-0.0008903779089450836,-0.0035854214802384377,-0.0009044110774993896
1772366220298134300,4.70013427734375,7.157213985919952e-7,0.001063925214111805,-0.0006293058395385742
1772366220308204300,4.710204345703125,0.000046677421778440475,-0.00020558014512062073,0.0008098715916275978
1772366220318275300,4.720275390625,-0.0021219351328909397,-0.001235690899193287,0.002220282331109047
1772366220328345600,4.730345703125,-0.002204819582402706,0.0015312046743929386,-0.00007536448538303375
1772366220338415400,4.740415283203125,0.00017151888459920883,0.00008590705692768097,-0.0010436894372105598
1772366220348485400,4.7504853515625,0.0009168079122900963,0.000878653023391962,0.0016523515805602074
1772366220358556400,4.760556396484375,-0.0010901507921516895,-0.00019140494987368584,0.0002994658425450325
1772366220368626400,4.77062646484375,0.0017363387160003185,-0.0016451207920908928,-0.001189407892525196
1772366220378696400,4.780696533203125,0.0003451034426689148,0.0006523882038891315,-0.0018251044675707817
1772366220388767500,4.790767578125,-0.0004676743410527706,-0.0013558338396251202,0.0018031774088740349
1772366220398837200,4.800837158203125,0.001402929425239563,0.0008881459943950176,0.001809569075703621
1772366220408907500,4.810907470703125,0.0004461640492081642,0.001590376254171133,0.0005405014380812645
1772366220418977500,4.8209775390625,-0.0003698286600410938,0.003178685437887907,-0.0018936283886432648
1772366220429048600,4.831048583984375,-0.0013940315693616867,-0.0008377009071409702,0.0004505598917603493
1772366220439118300,4.841118408203125,-0.00003954768180847168,0.0009527425281703472,0.001217016950249672
1772366220449188400,4.851188232421875,0.0006784582510590553,0.002555067650973797,-0.00010577123612165451
1772366220459259400,4.86125927734375,-0.0010909461416304111,-0.0020974744111299515,-0.0006117718294262886
1772366220469329400,4.871329345703125,-0.0010523493401706219,0.0011783610098063946,0.0008968859910964966
1772366220479399400,4.8813994140625,0.00045180413872003555,-0.002936755307018757,0.0005538705736398697
1772366220489469400,4.891469482421875,-0.0009391652420163155,-0.003436458297073841,-0.0004291404038667679
1772366220499540200,4.901540283203125,0.00177060067653656,-0.001034020446240902,-0.00042567867785692215
1772366220509610500,4.911610595703125,-0.001861470751464367,-0.0034095104783773422,-0.001126130111515522
1772366220519680500,4.921680419921875,-0.0010763714089989662,-0.002280862769111991,-0.0011000307276844978
1772366220529751600,4.93175146484375,-0.00027244165539741516,-0.0009668972343206406,-0.0020799506455659866
1772366220539821300,4.9418212890625,0.001020256895571947,-0.0002534366212785244,-0.00019336678087711334
1772366220549891600,4.9518916015625,-0.001823880709707737,0.0012834379449486732,0.0016702832654118538
1772366220559962600,4.961962646484375,-0.000018790364265441895,0.0023055593483150005,0.00047132838517427444
1772366220570032400,4.972032470703125,-0.0003947676159441471,0.0015873326919972897,-0.00028296932578086853
1772366220580102400,4.982102294921875,0.00020124809816479683,0.0042699347250163555,-0.000935177318751812
1772366220590172400,4.99217236328125,0.0028851740062236786,0.00032807281240820885,0.000694851391017437
1772366220600243500,5.002243408203125,0.0007509165443480015,-0.000175530556589365,0.0016807541251182556
1772366220610313500,5.0123134765625,0.00041608745232224464,-0.0013299998827278614,-0.000909232534468174
1772366220620383500,5.022383544921875,0.0007567056454718113,0.0013715103268623352,0.0008375346660614014
1772366220630454500,5.03245458984375,0.001341173890978098,0.0015285415574908257,-0.0018616626039147377
1772366220640524300,5.042524169921875,-0.0015337085351347923,-0.003052628133445978,0.00011520180851221085
1772366220650594600,5.052594482421875,-0.0009870133362710476,-0.004596897400915623,-0.0018751472234725952
1772366220660665000,5.0626650390625,0.0012822658754885197,-0.0011443756520748138,0.0014133239164948463
1772366220670736100,5.072736083984375,0.00015566637739539146,-0.001021276693791151,-0.00017894618213176727
1772366220680806100,5.08280615234375,0.0010355748236179352,-0.0012444495223462582,0.0015691518783569336
1772366220690876000,5.0928759765625,0.00025713397189974785,0.0012416490353643894,0.0016454299911856651
1772366220700947000,5.102947021484375,0.0011801854707300663,-0.0002521178685128689,-0.00017936807125806808
1772366220711017200,5.113017333984375,-0.001556281466037035,-0.00018608849495649338,-0.00044313352555036545
1772366220721087000,5.1230869140625,0.0014727977104485035,-0.003497196827083826,-0.0004162350669503212
1772366220731157000,5.133156982421875,0.0012494660913944244,-0.0010264832526445389,-0.0017091361805796623
1772366220741228000,5.14322802734375,0.0014595896936953068,-0.0021415487863123417,0.00009488873183727264
1772366220751298300,5.15329833984375,-0.0012198630720376968,-0.0005859490483999252,0.0010295109823346138
1772366220761368000,5.1633681640625,0.00007869396358728409,0.0020971857011318207,-0.0005468139424920082
1772366220771439000,5.173439208984375,0.0011677262373268604,0.00041061919182538986,-0.00014199316501617432
1772366220781509000,5.183509033203125,-0.0020853248424828053,-0.000644258689135313,-0.0001928592100739479
1772366220791579100,5.1935791015625,-0.0006212517619132996,-0.0009756777435541153,0.0003108922392129898
1772366220801650000,5.20364990234375,0.00008262181654572487,-0.0005969763733446598,0.0017322208732366562
1772366220811720200,5.21372021484375,-0.0011055059731006622,0.00034625688567757607,0.001576135866343975
1772366220821790000,5.2237900390625,0.0017472724430263042,0.0018546711653470993,0.001057618297636509
1772366220831860000,5.23385986328125,-0.0007276399992406368,0.000189861748367548,-0.0010265959426760674
1772366220841931000,5.243930908203125,0.0012870412319898605,-0.0009614224545657635,0.0006234990432858467
1772366220852001300,5.254001220703125,-0.0004990315064787865,-0.001285770907998085,0.001727113500237465
1772366220862071000,5.264071044921875,0.002053875010460615,0.002103101462125778,0.0007041934877634048
1772366220872142000,5.27414208984375,0.000008540693670511246,-0.002103084232658148,-0.00001145433634519577
1772366220882212000,5.284212158203125,-0.0003336761146783829,0.0009377133101224899,-0.001011737622320652
1772366220892282000,5.2942822265625,0.0012628594413399696,0.005484328139573336,-0.0003711329773068428
1772366220902352100,5.30435205078125,-0.000015457626432180405,-0.00021776603534817696,0.000023281201720237732
1772366220912423200,5.314423095703125,0.001238805241882801,-0.0010536368936300278,-0.001597435213625431
1772366220922493000,5.324492919921875,0.00028992118313908577,0.0034140823408961296,-0.0028049126267433167
1772366220932563000,5.33456298828125,0.001038768794387579,0.001862941775470972,0.003178670071065426
1772366220942634000,5.344634033203125,-0.0009884298779070377,-0.003477495163679123,-0.0006008874624967575
1772366220952704300,5.354704345703125,0.0002554268576204777,-0.0006439695134758949,-0.002159157767891884
1772366220962774000,5.36477392578125,0.00047833332791924477,-0.00136568583548069,0.00013701897114515305
1772366220972844000,5.374843994140625,0.0005852514877915382,0.0017060316167771816,-0.0001487135887145996
1772366220982915000,5.3849150390625,-0.0016273027285933495,-0.0009312969632446766,-0.00042994413524866104
1772366220992985000,5.394985107421875,0.0004746303893625736,-0.0007590283639729023,0.002685416489839554
1772366221003055000,5.40505517578125,-0.00041593052446842194,-0.0019872779957950115,0.0009133489802479744
1772366221013126100,5.415126220703125,-0.0009527942165732384,0.000283803790807724,0.00027611851692199707
1772366221023196000,5.42519580078125,0.000020058825612068176,-0.000056548044085502625,-0.0006424058228731155
1772366221033266200,5.43526611328125,0.00028384383767843246,-0.0012653493322432041,0.0015997886657714844
1772366221043337200,5.445337158203125,0.0018836050294339657,0.0011733071878552437,0.001964109018445015
1772366221053407200,5.4554072265625,-0.0001555429771542549,-0.001019179355353117,0.0006072977557778358
1772366221063477000,5.46547705078125,0.0006825537420809269,0.0025284173898398876,-0.0005186861380934715
1772366221073547000,5.475547119140625,0.0007122526876628399,0.00021714717149734497,0.001516241580247879
1772366221083618000,5.4856181640625,0.00023048697039484978,-0.0021216408349573612,-0.0004965756088495255
1772366221093688000,5.49568798828125,0.0037841007579118013,-0.0001400429755449295,-0.00028189457952976227
1772366221103758000,5.505758056640625,0.0005693989805877209,-0.0010353978723287582,0.000006792135536670685
1772366221113829000,5.5158291015625,-0.0006662220694124699,-0.000032791867852211,-0.0006870049983263016
1772366221123899000,5.52589892578125,-0.0013104402460157871,-0.0014575831592082977,0.0008911844342947006
1772366221133969200,5.53596923828125,0.00044513167813420296,0.000054751522839069366,0.0011846302077174187
1772366221144039200,5.5460390625,-0.0020166942849755287,-0.00013699568808078766,-0.002878820523619652
1772366221154110200,5.556110107421875,0.0006789136677980423,0.0007250197231769562,0.00046360306441783905
1772366221164180000,5.566179931640625,-0.0005772989243268967,0.001091737300157547,-0.0012232428416609764
1772366221174250200,5.576250244140625,-0.0007375222630798817,0.0019593043252825737,0.00034105125814676285
1772366221184321300,5.5863212890625,-0.0015335413627326488,0.0007196031510829926,-0.0020427443087100983
1772366221194391000,5.59639111328125,0.0008980771526694298,-0.0006274236366152763,0.00016068480908870697
1772366221204461000,5.6064609375,-0.000013789162039756775,0.0001906994730234146,0.0004933131858706474
1772366221214532000,5.616531982421875,0.0017100567929446697,-0.0030835489742457867,0.00012713391333818436
1772366221224602000,5.62660205078125,0.00031216396018862724,-0.0007697944529354572,-0.0012537147849798203
1772366221234672000,5.636672119140625,0.0010031047277152538,-0.00139596126973629,0.0011319676414132118
1772366221244742100,5.6467421875,-0.0005167615599930286,-0.0014122063294053078,-0.0008891057223081589
1772366221254813200,5.656813232421875,0.001425581518560648,0.0020251013338565826,0.000126006081700325
1772366221264883000,5.666883056640625,-0.0032661091536283493,0.001139067579060793,0.0008969912305474281
1772366221274953200,5.676953125,0.0011917962692677975,0.0010377084836363792,0.0011409521102905273
1772366221285024300,5.687024169921875,0.0011680941097438335,-0.003107235301285982,-0.00224179495126009
1772366221295094000,5.697093994140625,0.0011211391538381577,-0.004219221416860819,0.00039682537317276
1772366221305164000,5.7071640625,0.0014700130559504032,-0.00004098797217011452,0.00018936488777399063
1772366221315234300,5.717234375,-0.0006611868739128113,-0.00037901196628808975,0.0002000723034143448
1772366221325305000,5.72730517578125,0.00045734085142612457,0.0013475152663886547,0.001747901551425457
1772366221335375000,5.737375,-0.001103993970900774,-0.00005040457472205162,-0.0007108841091394424
1772366221345445000,5.747445068359375,0.0015264102257788181,0.003745398949831724,-0.001075204461812973
1772366221355516200,5.75751611328125,0.0024903351441025734,0.0009782998822629452,0.0009025642648339272
1772366221365586000,5.7675859375,0.0010594185441732407,-0.002461705356836319,-0.0004817461594939232
1772366221375656200,5.77765625,-0.0019786376506090164,-0.00026717549189925194,-0.0019165324047207832
1772366221385726000,5.787725830078125,0.0012802723795175552,0.0005030110478401184,-0.00015245471149683
1772366221395797000,5.797796875,0.0017841397784650326,-0.003047863021492958,-0.00042584165930747986
1772366221405867000,5.807866943359375,-0.00048673711717128754,-0.0015373181086033583,-0.001228518784046173
1772366221415937300,5.817937255859375,0.0002593160606920719,-0.0016439559403806925,-0.0012902235612273216
1772366221426008000,5.828008056640625,0.0003109816461801529,-0.0001366068609058857,-0.000721905380487442
1772366221436078000,5.838078125,0.000701352022588253,-0.000050780829042196274,0.00010908767580986023
1772366221446148000,5.848148193359375,-0.0019378410652279854,-0.0006515900604426861,-0.0011476585641503334
1772366221456218000,5.858218017578125,0.0006020376458764076,0.0002670814283192158,-0.001346847042441368
1772366221466289200,5.8682890625,-0.000007826369255781174,0.0011065099388360977,0.0006976621225476265
1772366221476359200,5.878359130859375,-0.0009024422615766525,0.0026504299603402615,-0.0010291654616594315
1772366221486429000,5.888428955078125,0.0019498029723763466,0.0017910278402268887,0.001006821170449257
1772366221496500000,5.8985,-0.0012018200941383839,0.0021785488352179527,-0.0010072123259305954
1772366221506570000,5.908570068359375,0.00019846949726343155,0.002648863010108471,0.0011864332482218742
1772366221516640300,5.91864013671875,0.00019929511472582817,0.0012257113121449947,-0.0010215137153863907
1772366221526711000,5.9287109375,-0.0007128380239009857,0.0009474107064306736,-0.00016903597861528397
1772366221536781000,5.938781005859375,0.001876502763479948,0.0019601276144385338,0.0001550735905766487
1772366221546851000,5.94885107421875,0.0003486471250653267,0.000848257914185524,-0.00038022175431251526
1772366221556921000,5.958921142578125,-0.000033868011087179184,0.000539691187441349,0.000015764497220516205
1772366221566992100,5.9689921875,-0.0011654454283416271,-0.0005010724999010563,0.00021416973322629929
1772366221577062100,5.979062255859375,0.0017540529370307922,0.001321740448474884,0.0027203578501939774
1772366221587132000,5.9891318359375,-0.0003000432625412941,0.0005347765982151031,-0.0004701092839241028
1772366221597203000,5.999202880859375,-0.0010920069180428982,0.00048584025353193283,0.0016359956935048103
1772366221607273200,6.009273193359375,-0.00017854291945695877,-0.004685752093791962,0.00043384451419115067
1772366221617343200,6.01934326171875,0.000026785768568515778,0.004375355783849955,-0.002235628664493561
1772366221627413000,6.0294130859375,0.0024406746961176395,-0.013283532112836838,0.0014347406104207039
1772366221637484000,6.039484130859375,-0.0015750229358673096,0.0062057035975158215,-0.0022498155012726784
1772366221647554000,6.049553955078125,0.00014990614727139473,0.00069029675796628,0.001271948218345642
1772366221657624000,6.0596240234375,0.0014562723226845264,0.011321444064378738,-0.0009018788114190102
1772366221667698400,6.069698486328125,0.0004943381063640118,0.0046454318799078465,-0.0012595411390066147
1772366221677768200,6.079768310546875,0.000051184557378292084,-0.003265440696850419,0.000363900326192379
1772366221687838200,6.089838134765625,-0.0007235296070575714,0.00025818776339292526,0.0025253212079405785
1772366221697908500,6.099908447265625,-0.002596029080450535,0.003263250458985567,-0.001189766451716423
1772366221707979300,6.109979248046875,0.000542239286005497,-0.0005197692662477493,0.0005617951974272728
1772366221718049300,6.12004931640625,0.00011315243318676949,0.0028216023929417133,0.00012849364429712296
1772366221728119300,6.130119384765625,0.0012210276909172535,-0.004316202364861965,-0.0006544757634401321
1772366221738190300,6.1401904296875,0.0003131069242954254,-0.0025622218381613493,0.00020109117031097412
1772366221748260400,6.15026025390625,-0.0019252798520028591,0.0002577994018793106,-0.00048280786722898483
1772366221758330400,6.160330322265625,0.00009402865543961525,-0.0019021464977413416,0.00005890894681215286
1772366221768401400,6.1704013671875,0.0005118786357343197,0.00101827597245574,0.0005614468827843666
1772366221778471200,6.18047119140625,-0.0003847614862024784,-0.0015454543754458427,-0.001084175892174244
1772366221788541400,6.19054150390625,0.0024858596734702587,0.001466847024857998,0.001467665657401085
1772366221798611500,6.200611572265625,0.00039357831701636314,0.00009739818051457405,-0.0017205160111188889
1772366221808682200,6.21068212890625,0.0016529872082173824,-0.001737519633024931,-0.0006983950734138489
1772366221818752300,6.220752197265625,0.00040242262184619904,0.0022137686610221863,0.0004461323842406273
1772366221828822300,6.230822265625,0.0005318522453308105,-0.0014499416574835777,-0.002342729829251766
1772366221838893300,6.240893310546875,-0.0008199131116271019,0.0008427281863987446,0.0007773302495479584
1772366221848963300,6.25096337890625,0.0011923713609576225,-0.0026087285950779915,0.0016628308221697807
1772366221859033300,6.261033447265625,0.0006710253655910492,0.0022476078011095524,0.000970255583524704
1772366221869104400,6.2711044921875,0.0019378908909857273,-0.0025881598703563213,0.000680769793689251
1772366221879174100,6.281174072265625,0.000542929396033287,0.0017764265649020672,0.0012475717812776566
1772366221889244400,6.291244384765625,-0.001046178862452507,0.0022890851832926273,-0.0014299703761935234
1772366221899314400,6.301314453125,-0.0012049581855535507,0.00048590032383799553,-0.00039949454367160797
1772366221909385200,6.31138525390625,0.0028497041203081608,-0.0001436709426343441,-0.0016301404684782028
1772366221919455200,6.321455322265625,0.002385297790169716,-0.0015943374019116163,-0.0016247080639004707
1772366221929525200,6.331525146484375,-0.00018065748736262321,-0.003254019422456622,0.00010901037603616714
1772366221939596300,6.34159619140625,0.0012015290558338165,0.0008784085512161255,0.0015903199091553688
1772366221949666300,6.351666259765625,-0.001383601687848568,-0.0019618526566773653,-0.0030502378940582275
1772366221959736300,6.361736328125,0.00027070101350545883,0.00013955309987068176,0.00014022551476955414
1772366221969807400,6.371807373046875,0.0014928258024156094,-0.0017787215765565634,-0.00018681026995182037
1772366221979877000,6.381877197265625,0.0006789066828787327,0.0012832903303205967,-0.0011581303551793098
1772366221989947400,6.391947509765625,-0.0003288332372903824,-0.0013806698843836784,0.00033963192254304886
1772366222000017400,6.402017333984375,0.0018884064629673958,-0.002181270159780979,-0.0013013137504458427
1772366222010088200,6.412088134765625,0.0004090205766260624,-0.00021319417282938957,-0.0009519066661596298
1772366222020158200,6.422158203125,-0.0010739341378211975,0.00044235680252313614,0.0003319140523672104
1772366222030228500,6.432228515625,0.0010840254835784435,0.0009659342467784882,-0.0007139090448617935
1772366222040299500,6.442299560546875,0.0007876143790781498,-0.0010409606620669365,-0.00116806011646986
1772366222050369300,6.452369384765625,-0.001053960993885994,-0.0036908057518303394,0.002399509772658348
1772366222060439300,6.462439208984375,0.0006470521911978722,0.0012087030336260796,0.0004953537136316299
1772366222070510300,6.47251025390625,-0.0006088945083320141,-0.0015229014679789543,-0.000322769396007061
1772366222080580400,6.482580322265625,0.0005156560800969601,-0.0013722130097448826,-0.0017551286146044731
1772366222090650400,6.492650390625,-0.0015435004606842995,0.0007316842675209045,-0.0013961344957351685
1772366222100720400,6.502720458984375,0.0022476683370769024,0.0003950074315071106,0.0007142489776015282
1772366222110791200,6.512791259765625,0.0025097234174609184,0.000779035035520792,-0.00015740375965833664
1772366222120861200,6.522861083984375,0.00007298355922102928,0.0021306811831891537,-0.0005675265565514565
1772366222130931500,6.532931396484375,0.00143013009801507,-0.002786845900118351,0.0016716588288545609
1772366222141002500,6.54300244140625,0.002193070948123932,0.0004947376437485218,0.002459520474076271
1772366222151072300,6.553072265625,0.0015933266840875149,0.0001514563336968422,-0.0010151052847504616
1772366222161142300,6.563142333984375,0.0007373308762907982,-0.0004793512634932995,-0.00014370214194059372
1772366222171213300,6.57321337890625,0.0009389319457113743,-0.003738527884706855,-0.0002984320744872093
1772366222181283300,6.583283447265625,-0.00022033927962183952,-0.0005748160183429718,-0.002544112503528595
1772366222191353300,6.593353271484375,0.0009549134410917759,-0.00014072097837924957,0.0015528947114944458
1772366222201424400,6.60342431640625,-0.001396654173731804,-0.0017638446297496557,0.00048814062029123306
1772366222211494100,6.613494140625,-0.0004853205755352974,0.00002260366454720497,0.0013198461383581161
1772366222221564400,6.623564453125,0.0011116722598671913,-0.0013938522897660732,0.002553681842982769
1772366222231634400,6.633634521484375,0.001480786595493555,-0.000679326243698597,-0.0014884639531373978
1772366222241705500,6.64370556640625,0.0009821867570281029,-0.0012552621774375439,0.0006655165925621986
1772366222251775200,6.653775146484375,-0.0008721724152565002,-0.0012400820851325989,-0.0021859295666217804
1772366222261845200,6.66384521484375,0.0022676042281091213,-0.0037328284233808517,0.00015704333782196045
1772366222271916300,6.673916259765625,0.0008372203446924686,0.0008978759869933128,0.0009440071880817413
1772366222281986300,6.683986328125,0.0010997476056218147,0.0011103111319243908,-0.0004407912492752075
1772366222292056300,6.694056396484375,0.000023564323782920837,-0.0023976045195013285,0.0018444666638970375
1772366222302127400,6.70412744140625,-0.0016400269232690334,0.00044996198266744614,0.0013358276337385178
1772366222312197000,6.714197021484375,0.0025909366086125374,-0.001351932529360056,0.0004322165623307228
1772366222322267400,6.724267333984375,-0.00203251326456666,0.0016625318676233292,0.0006967782974243164
1772366222332337400,6.73433740234375,0.0017779376357793808,-0.0017199490685015917,0.0027071991935372353
1772366222342408400,6.744408447265625,0.0007743760943412781,-0.00237932987511158,-0.0009353021159768105
1772366222352478200,6.754478271484375,0.0016561485826969147,0.0035595190711319447,0.0010700579732656479
1772366222362548200,6.76454833984375,-0.002127265091985464,0.0005269241519272327,-0.0004583597183227539
1772366222372619300,6.774619384765625,-0.0007730484940111637,-0.002619866980239749,-0.0017007244750857353
1772366222382689300,6.784689208984375,0.00025186873972415924,-0.0013528135605156422,0.0012271152809262276
1772366222392759300,6.79475927734375,0.0007413574494421482,0.0010901037603616714,0.0005714446306228638
1772366222402830300,6.804830322265625,0.002719258889555931,0.003709722775965929,-0.001123771071434021
1772366222412900000,6.814900146484375,-0.000787592027336359,-0.000002723652869462967,0.0006701340898871422
1772366222422970400,6.824970458984375,-0.0011843708343803883,-0.003073878353461623,-0.002175813540816307
1772366222433041400,6.83504150390625,-0.003317828755825758,0.00008756015449762344,0.001124110072851181
1772366222443111200,6.845111083984375,-0.0006115706637501717,-0.00014637643471360207,-0.0006802110001444817
1772366222453181200,6.85518115234375,-0.0003929249942302704,-0.001782356295734644,0.0002540256828069687
1772366222463251500,6.86525146484375,-0.0007200776599347591,0.00362433772534132,0.003273104317486286
1772366222473322500,6.875322509765625,-0.00004310254007577896,-0.0006023654714226723,-0.001438293606042862
1772366222483392300,6.885392333984375,0.0008804122917354107,0.0007921112701296806,0.0007591769099235535
1772366222493462300,6.895462158203125,0.0018644500523805618,-0.0002632993273437023,0.00011735502630472183
1772366222503533300,6.905533203125,0.0011527305468916893,-0.001726306974887848,0.000022221356630325317
1772366222513603300,6.915603271484375,0.0027362462133169174,0.0015155589208006859,0.0007260954007506371
1772366222523673300,6.92567333984375,0.00039705587550997734,-0.004588483367115259,0.00035164784640073776
1772366222533744400,6.935744384765625,-0.0010383878834545612,0.000014523975551128387,-0.0012310687452554703
1772366222543814100,6.945814208984375,-0.0011356500908732414,-0.0026784460060298443,-0.0011820662766695023
1772366222553884200,6.95588427734375,0.0003961999900639057,-0.0012046527117490768,-0.000705360434949398
1772366222563955200,6.965955078125,0.002131745219230652,-0.002182009629905224,-0.0021587125957012177
1772366222574025500,6.976025390625,-0.0006941352039575577,0.00008886773139238358,-0.0011762725189328194
1772366222584095200,6.98609521484375,0.0005469205789268017,-0.0006937263533473015,0.0018383674323558807
1772366222594165200,6.996165283203125,-0.0005947761237621307,-0.0012580505572259426,0.0010889535769820213
1772366222604236300,7.006236328125,-0.00018758373335003853,0.0017052516341209412,-0.0017943978309631348
1772366222614306300,7.016306396484375,0.0007812739349901676,-0.002293484751135111,-0.0003099516034126282
1772366222624376300,7.026376220703125,0.0003001573495566845,0.0005303891375660896,-0.0005356473848223686
1772366222634447400,7.036447265625,0.0003646058030426502,-0.0002784128300845623,-0.0004983628168702126
1772366222644517000,7.04651708984375,0.0005775983445346355,-0.0015537766739726067,0.00029359012842178345
1772366222654587400,7.05658740234375,0.002036211546510458,-0.0006725369021296501,0.000380941666662693
1772366222664654800,7.06665478515625,-0.0003895452246069908,0.002056429162621498,0.00036225561052560806
1772366222674724900,7.076724853515625,0.002544458955526352,0.0017504319548606873,0.00004933401942253113
1772366222684795000,7.086794921875,-0.002329893410205841,-0.00028276024386286736,-0.00002705492079257965
1772366222694864600,7.09686474609375,0.000012090429663658142,-0.0030993192922323942,0.00004671420902013779
1772366222704935700,7.106935791015625,0.0005803289823234081,0.0014667734503746033,-0.00042349938303232193
1772366222715006000,7.117005859375,-0.0009749568998813629,-0.0008808029815554619,-0.00009806081652641296
1772366222725075700,7.12707568359375,0.0018408768810331821,-0.001514144940301776,-0.0010839849710464478
1772366222735146800,7.137146728515625,0.001845670398324728,-0.002159961499273777,0.0007107192650437355
1772366222745216800,7.147216796875,-0.0021431990899145603,-0.0016550207510590553,0.0017408384010195732
1772366222755286800,7.157286865234375,-0.0017666281200945377,-0.00023076217621564865,-0.00005519762635231018
1772366222765357800,7.16735791015625,0.0005907043814659119,-0.0005898852832615376,0.0025850804522633553
1772366222775427800,7.177427734375,0.002720966935157776,0.0015710038132965565,-0.0002133697271347046
1772366222785497900,7.187497802734375,0.0006341035477817059,-0.002924207132309675,-0.0010529998689889908
1772366222795568600,7.197568603515625,0.00015260418877005577,0.002633277326822281,-0.00020718015730381012
1772366222805639000,7.207638916015625,-0.000023010186851024628,0.0005134772509336472,-0.00004017353057861328
1772366222815709000,7.217708984375,0.001175146084278822,0.005381735507398844,0.0006218887865543365
1772366222825778700,7.22777880859375,-0.00012167124077677727,0.001257175114005804,0.002238466404378414
1772366222835849700,7.237849609375,-0.0000955723226070404,0.0014625047333538532,-0.002545369789004326
1772366222845919700,7.247919677734375,-0.0021681077778339386,-0.0011680219322443008,-0.00029514729976654053
1772366222855989800,7.25798974609375,-0.0011901948601007462,-0.0006255363114178181,0.0006257742643356323
1772366222866060800,7.268060791015625,-0.00255501177161932,0.0010494175367057323,0.0027013514190912247
1772366222876130800,7.278130859375,0.0016455920413136482,-0.0034361446741968393,0.0027865730226039886
1772366222886200800,7.288200927734375,0.0038535697385668755,0.0016818959265947342,-0.00031850580126047134
1772366222896271600,7.298271728515625,0.00032514752820134163,0.008469227701425552,-0.002308686263859272
1772366222906342000,7.308341796875,0.0030465293675661087,0.0131143219769001,0.00010810140520334244
1772366222916412000,7.318411865234375,-0.0006792326457798481,-0.0019650282338261604,0.0009515248239040375
1772366222926481700,7.328481689453125,0.001101277768611908,-0.0028621265664696693,-0.000969812273979187
1772366222936552700,7.338552734375,-0.00015120673924684525,-0.0005691447295248508,-0.0005370480939745903
1772366222946623000,7.348623046875,0.0017405771650373936,0.000669888686388731,0.001768563874065876
1772366222956692700,7.358692626953125,0.0009056758135557175,0.0008579078130424023,-0.0005803443491458893
1772366222966763800,7.368763671875,0.000014374032616615295,-0.000783778727054596,0.0007928423583507538
1772366222976833800,7.378833740234375,-0.000931047834455967,0.002677265554666519,0.0006231982260942459
1772366222986903800,7.38890380859375,-0.0009377282112836838,-0.0002514920197427273,0.001160603016614914
1772366222996974600,7.398974609375,0.00011342205107212067,-0.0006927778013050556,0.0018423721194267273
1772366223007044900,7.409044921875,-0.0026493952609598637,-0.0005789413116872311,0.0019562114030122757
1772366223017115000,7.419114990234375,0.00068275211378932,-0.001345931552350521,0.0009729722514748573
1772366223027184600,7.4291845703125,-0.00016286922618746758,-0.0018129299860447645,-0.00004400871694087982
1772366223037255700,7.439255615234375,-0.00042013078927993774,-0.00041263969615101814,0.00016052182763814926
1772366223047326000,7.449325927734375,-0.00036548543721437454,-0.000883862841874361,0.001358121633529663
1772366223057395700,7.459395751953125,-0.0008507128804922104,-0.0029073324985802174,-0.0020693670958280563
1772366223067466800,7.469466796875,0.0029598986729979515,-0.0013668129686266184,0.0008265096694231033
1772366223077536800,7.479536865234375,0.00016038352623581886,-0.00032232142984867096,-0.0005074674263596535
1772366223087606800,7.489606689453125,0.0009285490959882736,0.0013857525773346424,-0.00032554473727941513
1772366223097677800,7.499677734375,-0.0014451267197728157,-0.0022880781907588243,0.0014153635129332542
1772366223107747800,7.509747802734375,0.0010754447430372238,0.000829826109111309,-0.00014786608517169952
1772366223117817900,7.51981787109375,-0.0024439222179353237,0.0017701881006360054,0.000763733871281147
1772366223127889000,7.529888916015625,0.00025284895673394203,0.000054543837904930115,0.00017611775547266006
1772366223137958700,7.539958740234375,0.0016832328401505947,-0.0002144351601600647,0.0003249887377023697
1772366223148029000,7.55002880859375,-0.0008065551519393921,-0.00011276779696345329,0.000521722249686718
1772366223158100000,7.560099853515625,-0.0006046881899237633,0.0006622117944061756,-0.0014431579038500786
1772366223168169700,7.570169677734375,-0.0006337696686387062,0.0008472739718854427,0.0008187396451830864
1772366223178239700,7.58023974609375,-0.00016105826944112778,0.0010946816764771938,-0.0002502528950572014
1772366223188310000,7.59031005859375,-0.00037182169035077095,0.0017929086461663246,0.0003888029605150223
1772366223198380800,7.600380859375,-0.0006232247687876225,0.0014464310370385647,0.0012276992201805115
1772366223208450800,7.610450927734375,0.00043320003896951675,-0.00004829280078411102,0.0015421081334352493
1772366223218520800,7.620520751953125,0.00006328709423542023,-0.0015231515280902386,-0.00026697758585214615
1772366223228591600,7.630591552734375,0.000567577313631773,-0.00015728455036878586,-0.00015681050717830658
1772366223238662000,7.640661865234375,-0.002027672715485096,-0.0011586332693696022,0.0020269816741347313
1772366223248732000,7.65073193359375,-0.00011653127148747444,-0.0001545138657093048,0.00024242233484983444
1772366223258803000,7.660802978515625,-0.0004126746207475662,-0.003375341184437275,-0.00038475170731544495
1772366223268872700,7.670872802734375,0.0006752749904990196,-0.0008256188593804836,-0.0002200547605752945
1772366223278942700,7.680942626953125,-0.0003612274304032326,0.0011810730211436749,0.00284604262560606
1772366223289013800,7.691013671875,0.0001901630312204361,0.002407925669103861,-0.000911216251552105
1772366223299083800,7.701083740234375,0.0013528992421925068,0.0014358721673488617,0.000020624138414859772
1772366223309153800,7.71115380859375,0.0011490038596093655,-0.00003793323412537575,0.0005291914567351341
1772366223319223800,7.721223876953125,0.0009071887470781803,0.003193279728293419,-0.0009025242179632187
1772366223329294600,7.731294677734375,0.0005490477196872234,-0.0009644203819334507,0.0021017901599407196
1772366223339364900,7.74136474609375,0.002797021996229887,0.00017061876133084297,0.0035500163212418556
1772366223349435000,7.751434814453125,-0.0015202336944639683,0.0031496193259954453,0.001739606261253357
1772366223359506000,7.761505859375,0.0013623721897602081,0.0006696842610836029,0.0009835343807935715
1772366223369575700,7.77157568359375,-0.00010465551167726517,0.0023446031846106052,-0.0009141918271780014
1772366223379646000,7.78164599609375,-0.0008327635005116463,0.0010713455267250538,0.001308482140302658
1772366223389716700,7.791716796875,-0.0003819451667368412,0.00123590137809515,-0.0032671578228473663
1772366223399786800,7.801786865234375,-0.0005529201589524746,0.0007333629764616489,0.00395932886749506
1772366223409856800,7.811856689453125,0.0024065962061285973,0.0025451439432799816,-0.002865721471607685
1772366223419927800,7.821927734375,-0.002319982275366783,0.00022499822080135345,0.0003314036875963211
1772366223429997600,7.83199755859375,0.0016179843805730343,0.0009584841318428516,-0.0012900354340672493
1772366223440067800,7.84206787109375,-0.001256898045539856,-0.0029872553423047066,0.0022240057587623596
1772366223450139000,7.852138916015625,-0.0008849608711898327,-0.0024512801319360733,0.0009996592998504639
1772366223460209000,7.862208984375,-0.0016833771951496601,-0.0014014621265232563,-0.00030688755214214325
1772366223470278700,7.872278564453125,-0.0011585275642573833,-0.0010373438708484173,-0.00001531466841697693
1772366223480349000,7.882348876953125,0.0023757540620863438,-0.0005505182780325413,0.001469130627810955
1772366223490420000,7.892419921875,0.0012723039835691452,0.0024694199673831463,0.0005356641486287117
1772366223500489700,7.90248974609375,0.0011945394799113274,0.0013953670859336853,0.0014123767614364624
1772366223510559700,7.912559814453125,-0.0013011572882533073,-0.0011195498518645763,0.00002854224294424057
1772366223520630800,7.922630859375,0.0004168474115431309,0.00015823496505618095,0.0011827563866972923
1772366223530700800,7.93270068359375,0.0006863204762339592,-0.0006360975094139576,0.0009694993495941162
1772366223540770800,7.942770751953125,-0.00012567732483148575,0.0020779301412403584,0.0011340826749801636
1772366223550841900,7.952841796875,0.0009941975586116314,-0.0006023775786161423,-0.0017557349056005478
1772366223560912000,7.962911865234375,0.000536932609975338,0.00011454522609710693,0.0017465883865952492
1772366223570981600,7.972981689453125,0.0010297070257365704,0.002255203202366829,0.001421542838215828
1772366223581052700,7.983052734375,-0.00024514785036444664,-0.0032008145935833454,-0.00004159752279520035
1772366223591123000,7.993123046875,0.0012853490188717842,-0.0018966030329465866,-0.000580858439207077
1772366223601191700,8.003191650390624,-0.0023109838366508484,0.0020704418420791626,0.0003613680601119995
1772366223611262000,8.013261962890626,-0.0011368119157850742,0.0007044486701488495,-0.000025748275220394135
1772366223621331700,8.023331787109376,0.0014198226854205132,-0.0006023645401000977,-0.0032343240454792976
1772366223631402800,8.03340283203125,-0.0003140936605632305,-0.0007005035877227783,0.0007006730884313583
1772366223641472800,8.04347265625,-0.0000022370368242263794,0.0017788992263376713,0.000517713837325573
1772366223651542800,8.053542724609375,-0.00042040692642331123,0.0013465243391692638,0.0008946051821112633
1772366223661613800,8.06361376953125,-0.00006487499922513962,-0.005103651434183121,-0.0013453802093863487
1772366223671683800,8.073683837890625,-0.0021642111241817474,-0.002302610781043768,0.000024165958166122437
1772366223681753600,8.083753662109375,0.001909093465656042,0.000020198523998260498,0.0007821014150977135
1772366223691823600,8.09382373046875,-0.000003307126462459564,-0.0023792055435478687,0.0016806377097964287
1772366223701894700,8.103894775390625,0.0002366439439356327,-0.0006580045446753502,0.00014798808842897415
1772366223711964700,8.113964599609375,-0.0013867421075701714,-0.0003037150017917156,-0.0013410793617367744
1772366223722034700,8.12403466796875,0.0004098261706531048,-0.0034268037416040897,0.0028520673513412476
1772366223732105700,8.134105712890625,0.0014432701282203197,0.001991715282201767,-0.0010675042867660522
1772366223742175500,8.144175537109374,-0.0007501090876758099,-0.000187017023563385,-0.0011785579845309258
1772366223752245800,8.154245849609374,-0.00018264958634972572,0.0008873529732227325,-0.000733712688088417
1772366223762316800,8.16431689453125,0.0018243086524307728,0.00124741205945611,0.0023741964250802994
1772366223772386800,8.17438671875,0.000730226282030344,0.00029536522924900055,0.0015161912888288498
1772366223782456600,8.18445654296875,0.0016333041712641716,0.001681806519627571,0.0008871527388691902
1772366223792527600,8.194527587890626,-0.0019104033708572388,0.004195032641291618,-0.0010368302464485168
1772366223802598000,8.204597900390626,-0.0011886870488524437,-0.0009030560031533241,0.0006212536245584488
1772366223812667600,8.214667724609376,-0.0008619860745966434,-0.004354357253760099,0.0017290804535150528
1772366223822738700,8.22473876953125,-0.0006944728083908558,-0.004466476384550333,0.0003085499629378319
1772366223832808700,8.23480859375,-0.001977641601115465,0.0016919909976422787,-0.0003704586997628212
1772366223842878500,8.24487841796875,0.0012013735249638557,-0.0010545267723500729,-0.0002604704350233078
1772366223852948700,8.25494873046875,0.000753333792090416,-0.0015229401178658009,0.0006563933566212654
1772366223863019800,8.265019775390625,-0.00034415489062666893,0.0006374162621796131,-0.0020816028118133545
1772366223873089800,8.27508984375,0.001257574651390314,-0.0005341186188161373,0.0013829944655299187
1772366223883159600,8.28515966796875,-0.00019997358322143555,0.000402781181037426,0.0016756756231188774
1772366223893230600,8.295230712890625,0.00031603453680872917,0.0028486037626862526,0.0006748298183083534
1772366223903300900,8.30530078125,0.0007141772657632828,-0.0023325758520513773,-0.00004608742892742157
1772366223913370600,8.31537060546875,-0.0004162099212408066,-0.002137028379365802,0.0008982326835393906
1772366223923441700,8.325441650390625,0.0005454574711620808,-0.0024981528986245394,-0.00013773608952760696
1772366223933511700,8.33551171875,0.0013502780348062515,-0.0010209344327449799,-0.0011560339480638504
1772366223943581700,8.345581787109374,0.0009201774373650551,0.002248628530651331,-0.001088390126824379
1772366223953652700,8.35565283203125,-0.0006398172117769718,-0.0020240701269358397,0.000576317310333252
1772366223963722800,8.36572265625,0.00022011715918779373,0.0007701185531914234,0.0002958867698907852
1772366223973792800,8.375792724609376,-0.0008631334640085697,-0.001980331726372242,0.0017943140119314194
1772366223983862500,8.385862548828126,0.0005776365287601948,-0.0007315757684409618,0.00036978907883167267
1772366223993933600,8.39593359375,-0.0015872502699494362,-0.00048005441203713417,0.0021902676671743393
1772366224004003800,8.40600390625,0.0024064257740974426,-0.0027120495215058327,0.00013883505016565323
1772366224014073600,8.416073486328125,-0.002078888937830925,-0.002808455377817154,-0.0006133690476417542
1772366224024144600,8.42614453125,-0.00021387729793787003,-0.0037373658269643784,-0.00008659623563289642
1772366224034214700,8.436214599609375,-0.0010707275941967964,-0.0007951171137392521,0.0008115386590361595
1772366224044284700,8.44628466796875,-0.0011426331475377083,0.0006475169211626053,0.0000874251127243042
1772366224054355700,8.456355712890625,0.0017139753326773643,-0.0018923815805464983,0.00043256860226392746
1772366224064425700,8.46642578125,-0.0019255001097917557,0.0009121932089328766,0.0008072759956121445
1772366224074495700,8.476495849609375,-0.0000022780150175094604,-0.002252675127238035,0.000502394512295723
1772366224084566500,8.48656640625,0.001723982859402895,-0.0009306818246841431,0.00295197032392025
1772366224094636800,8.49663671875,-0.0002390565350651741,0.0011884295381605625,0.0018898313865065575
1772366224104706800,8.506706787109374,0.000021134037524461746,-0.0002472805790603161,0.0002722274512052536
1772366224114776600,8.516776611328124,0.0013881400227546692,0.0024272738955914974,-0.0009524822235107422
1772366224124847600,8.52684765625,0.00030023884028196335,0.0025857319124042988,-0.0007026772946119308
1772366224134917600,8.536917724609374,-0.0004072641022503376,-0.0007735886611044407,0.0008442364633083344
1772366224144987600,8.546987548828126,-0.0007217829115688801,0.020101599395275116,0.0007278565317392349
1772366224155058700,8.55705859375,-0.00020234473049640656,0.01172496285289526,0.0019413288682699203
1772366224165128700,8.567128662109376,-0.00010647065937519073,-0.007660187780857086,-0.002232643775641918
1772366224175198700,8.57719873046875,0.000745109748095274,0.0008308188989758492,-0.00041786767542362213
1772366224185269500,8.58726953125,0.00033844495192170143,0.004532879218459129,0.0001627020537853241
1772366224195339800,8.59733984375,0.0021483125165104866,-0.002256730804219842,-0.00008143484592437744
1772366224205409800,8.607409912109375,-0.00002642488107085228,0.0003795321099460125,0.0007255030795931816
1772366224215480600,8.61748046875,0.0013472125865519047,0.0012473543174564838,-0.0008792644366621971
1772366224225550600,8.627550537109375,-0.001623277086764574,0.000060117337852716446,0.00265288632363081
1772366224235620900,8.637620849609375,-0.0011087837629020214,-0.0013553071767091751,-0.001407514326274395
1772366224245690600,8.647690673828125,-0.000536737497895956,0.0017161164432764053,-0.0009499825537204742
1772366224255761700,8.65776171875,0.00255183270201087,0.0017118602991104126,-0.001995811238884926
1772366224265831700,8.667831787109375,0.0004109176807105541,0.001603203359991312,-0.0014203023165464401
1772366224275901400,8.6779013671875,-0.00015681656077504158,-0.00035262200981378555,0.0010596532374620438
1772366224285972500,8.687972412109374,0.002368126530200243,0.0019257119856774807,0.001480698585510254
1772366224296042800,8.698042724609374,-0.00007802899926900864,0.0034696944057941437,-0.0003501744940876961
1772366224306112800,8.70811279296875,0.0009835069067776203,-0.0019961772486567497,-0.0008015800267457962
1772366224316183600,8.71818359375,-0.00156486127525568,-0.002032529329881072,-0.0019931327551603317
1772366224326253600,8.728253662109376,0.0017640902660787106,-0.001231983071193099,-0.0013126954436302185
1772366224336323800,8.73832373046875,-0.002218876499682665,-0.0005562393926084042,-0.0016356110572814941
1772366224346395000,8.748394775390626,-0.0016042194329202175,0.000002225395292043686,-0.0007636928930878639
1772366224356464600,8.758464599609376,-0.004478681366890669,-0.0004636072553694248,-0.0017073806375265121
1772366224366534700,8.76853466796875,0.0012260759249329567,0.0006221635267138481,0.0024040071293711662
1772366224376605700,8.778605712890625,0.0012989365495741367,-0.00041651399806141853,0.0006641605868935585
1772366224386675700,8.78867578125,-0.0021067135967314243,0.0014876462519168854,-0.0014975275844335556
1772366224396745700,8.798745849609375,-0.0011011958122253418,-0.0018385234288871288,0.0007098028436303139
1772366224406815700,8.808815673828125,0.00035741738975048065,0.002510152291506529,-0.0003674458712339401
1772366224416886500,8.818886474609375,0.001448377501219511,-0.001837956253439188,0.001414869911968708
1772366224426956500,8.82895654296875,0.0006680712103843689,0.0007738056592643261,-0.0006317691877484322
1772366224437026800,8.83902685546875,0.00030111055821180344,0.0014844504185020924,-0.000477498397231102
1772366224447097900,8.849097900390625,0.000175409484654665,-0.0014460920356214046,0.0008895024657249451
1772366224457167600,8.859167724609375,-0.00011981185525655746,0.0017724214121699333,0.000015892088413238525
1772366224467237600,8.869237548828124,0.00049591064453125,0.0005116811953485012,-0.001629142090678215
1772366224477308700,8.87930859375,0.000606597401201725,-0.0015229103155434132,0.0018399935215711594
1772366224487378700,8.889378662109374,0.0007261731661856174,0.0009093545377254486,0.0011984379962086678
1772366224497448700,8.89944873046875,-0.0014146426692605019,0.00009999610483646393,-0.0026457905769348145
1772366224507519700,8.909519775390624,0.0010929903946816921,0.0024188105016946793,-0.002012224867939949
1772366224517589500,8.919589599609376,-0.0012932303361594677,0.0004346943460404873,-0.0004367837682366371
1772366224527659800,8.92965966796875,0.0012873727828264236,-0.0022686803713440895,0.001392541453242302
1772366224537730800,8.939730712890626,-0.0021418756805360317,-0.003352320520207286,0.000025258399546146393
1772366224547800800,8.94980078125,-0.001173549797385931,-0.0017277924343943596,0.0007895855233073235
1772366224557870600,8.95987060546875,0.0029459036886692047,0.0005946643650531769,0.0025809165090322495
1772366224567941600,8.969941650390625,-0.0009652148000895977,-0.00010095350444316864,-0.0004897089675068855
1772366224578011600,8.98001171875,0.0005739293992519379,0.0014099725522100925,-0.0009810421615839005
1772366224588081700,8.99008154296875,0.0006330516189336777,0.0002405783161520958,-0.0006167218089103699
1772366224598151700,9.000151611328125,0.000697258859872818,-0.001955031417310238,0.0003942567855119705
1772366224608222700,9.01022265625,0.0016053966246545315,-0.003798737656325102,-0.0009562326595187187
1772366224618292500,9.02029248046875,-0.0013893991708755493,0.0018373248167335987,-0.000521012581884861
1772366224628362800,9.03036279296875,0.001358449924737215,0.0013749999925494194,-0.00340308528393507
1772366224638433800,9.040433837890625,-0.0019065975211560726,-0.0024413098581135273,-0.00049559585750103
1772366224648503800,9.05050390625,0.0005134171806275845,-0.001857278635725379,-0.0020820414647459984
1772366224658573600,9.060573486328124,-0.0015876023098826408,0.0005587111227214336,0.0008294787257909775
1772366224668645000,9.07064501953125,-0.0001311195082962513,-0.004389708396047354,0.0018247021362185478
1772366224678715100,9.080715087890624,-0.002151708584278822,0.00019063008949160576,0.00004499126225709915
1772366224688785200,9.09078515625,-0.0007652663625776768,0.003384026698768139,-0.0009465031325817108
1772366224698856200,9.100856201171876,-0.00047154538333415985,-0.00009962683543562889,0.00007953494787216187
1772366224708926200,9.11092626953125,0.0005447166040539742,0.0016037309542298317,0.0018297648057341576
1772366224718996200,9.120996337890626,0.0018522152677178383,-0.0011523696593940258,0.0014048833400011063
1772366224729067000,9.13106689453125,0.0002260892651975155,0.0004697619006037712,-0.0004508066922426224
1772366224739137300,9.14113720703125,0.0007745241746306419,0.00018001021817326546,0.0004611499607563019
1772366224749207300,9.151207275390625,-0.0014260453172028065,-0.0018410629127174616,-0.0016893530264496803
1772366224759278000,9.161278076171875,-0.0012070187367498875,-0.0017732426058501005,0.0006676129996776581
1772366224769348000,9.17134814453125,0.0019203312695026398,0.001113890204578638,0.0038471613079309464
1772366224779418000,9.181418212890625,0.000016645528376102448,0.002561515662819147,-0.0004799524322152138
1772366224789488000,9.191488037109375,-0.0021064262837171555,0.001808107364922762,0.0011269981041550636
1772366224799559200,9.20155908203125,-0.0001910771243274212,0.00044460082426667213,0.0006430456414818764
1772366224809629200,9.211629150390625,-0.0009090653620660305,0.00022489018738269806,0.00286145880818367
1772366224819699200,9.22169921875,-0.000305818859487772,-0.0032022022642195225,0.0012778649106621742
1772366224829770000,9.23177001953125,-0.000281317625194788,-0.0045050205662846565,0.00041473470628261566
1772366224839840300,9.24184033203125,0.00042005814611911774,-0.000011671334505081177,0.0007089702412486076
1772366224849910300,9.25191015625,0.002822762355208397,-0.0019938619807362556,-0.00318856630474329
1772366224859981000,9.26198095703125,0.00009239185601472855,-0.002135132672265172,-0.0017583034932613373
1772366224870051000,9.272051025390626,0.00008546793833374977,-0.005391379818320274,-0.0004794532433152199
1772366224880121300,9.282121337890626,-0.0012516044080257416,-0.0035149836912751198,0.001503249630331993
1772366224890192400,9.2921923828125,0.0013553635217249393,0.0017897668294608593,-0.0009077098220586777
1772366224900262100,9.30226220703125,-0.0005028564482927322,0.0017172624357044697,-0.0005213618278503418
1772366224910332200,9.312332275390625,0.001601307187229395,-0.003053257940337062,-0.00030378159135580063
1772366224920403200,9.3224033203125,-0.00003132689744234085,0.00047632260248064995,-0.0017398260533809662
1772366224930473200,9.33247314453125,0.0009377971291542053,-0.0008981348946690559,-0.00012728199362754822
1772366224940543200,9.342543212890625,0.0012411144562065601,0.0024413284845650196,0.001505078747868538
1772366224950614300,9.3526142578125,-0.0011011362075805664,0.00003436347469687462,0.0005804290995001793
1772366224960684000,9.36268408203125,-0.00029164133593440056,0.0013007628731429577,0.00011932756751775742
1772366224970754000,9.372754150390625,0.0020410213619470596,-0.004010379314422607,0.0025617126375436783
1772366224980824300,9.38282421875,-0.0012628133408725262,0.0014934870414435863,-0.0004081018269062042
1772366224990895400,9.392895263671875,0.0011116606183350086,-0.0002460898831486702,0.0006643533706665039
1772366225000965000,9.402965087890625,-0.00012690434232354164,-0.003088715486228466,0.0017927475273609161
1772366225011035100,9.41303515625,-0.001883259043097496,-0.0011701744515448809,-0.0010954514145851135
1772366225021106200,9.423106201171874,-0.0006028749048709869,0.00041591422632336617,-0.0016396231949329376
1772366225031176200,9.43317626953125,-0.00026065902784466743,-0.0013186028227210045,-0.0020553432404994965
1772366225041246200,9.44324609375,-0.002276516053825617,0.0002130581997334957,0.0009357035160064697
1772366225051317200,9.453317138671874,-0.0008234945125877857,0.0023619630374014378,0.00048403069376945496
1772366225061387000,9.463386962890626,-0.00023283623158931732,0.0008511547930538654,-0.0009918399155139923
1772366225071457000,9.47345703125,-0.0022491151466965675,0.002320953644812107,-0.0006994251161813736
1772366225081528000,9.483528076171876,0.0004053981974720955,0.0007847342640161514,-0.0011048372834920883
1772366225091598300,9.493598388671876,-0.0005568019114434719,0.0013967286795377731,0.0000019725412130355835
1772366225101668000,9.503668212890625,-0.00027981167659163475,0.0006999657489359379,0.00063359085470438
1772366225111739100,9.5137392578125,-0.0006499909795820713,0.0008480376563966274,-0.0007682973518967628
1772366225121809200,9.52380908203125,-0.0005462043918669224,0.002928009256720543,0.0016530230641365051
1772366225131879200,9.533879150390625,0.0005052117630839348,-0.00004647485911846161,-0.0014191996306180954
1772366225141950200,9.5439501953125,-0.0009186672978103161,-0.0026737379375845194,-0.0013011554256081581
1772366225152020200,9.554020263671875,0.0007274323143064976,-0.002226859563961625,-0.000045474618673324585
1772366225162090000,9.564090087890625,-0.0009795376099646091,-0.003103869967162609,-0.0014045480638742447
1772366225172160300,9.57416015625,-0.0002998989075422287,-0.0019509876146912575,0.001560349017381668
1772366225182231300,9.584231201171875,0.0007689702324569225,-0.0027336287312209606,-0.0009222077205777168
1772366225192301300,9.59430126953125,-0.000699763186275959,-0.0000717993825674057,-0.00024150311946868896
1772366225202371000,9.60437109375,0.0006870413199067116,-0.0014208354987204075,-0.0006308136507868767
1772366225212442000,9.614442138671874,-0.0006336201913654804,-0.0029644034802913666,-0.000511770136654377
1772366225222512000,9.62451220703125,0.00047817686572670937,0.00022454047575592995,0.0003242986276745796
1772366225232582100,9.63458203125,0.0005396958440542221,-0.0027792388573288918,-0.002031000331044197
1772366225242653200,9.644653076171876,-0.0012749978341162205,0.0015593250282108784,-0.0020743338391184807
1772366225252723200,9.65472314453125,0.00042862677946686745,-0.0009251381270587444,0.000932641327381134
1772366225262793000,9.66479296875,-0.0006996691226959229,0.0005093342624604702,0.0010289642959833145
1772366225272864000,9.674864013671876,-0.0016006166115403175,0.0025940570048987865,0.0006121797487139702
1772366225282934300,9.684934326171875,0.0014390605501830578,0.0035786726512014866,0.0010083606466650963
1772366225293004300,9.69500439453125,0.0014963182620704174,-0.0018144953064620495,0.002461647614836693
1772366225303074000,9.705073974609375,-0.0004891972057521343,0.0004036654718220234,0.00023104343563318253
1772366225313145000,9.71514501953125,-0.0006236867047846317,0.0013349726796150208,-0.0010667145252227783
1772366225323215400,9.72521533203125,-0.00014489749446511269,0.0017275088466703892,0.0003891363739967346
1772366225333285000,9.73528515625,-0.0008445093408226967,0.0013663843274116516,0.00048740673810243607
1772366225343356200,9.745356201171875,-0.0010778545401990414,0.000577213242650032,-0.0006831390783190727
1772366225353426200,9.75542626953125,0.0033887987956404686,0.002376178279519081,-0.0013542557135224342
1772366225363496200,9.76549609375,0.0013447771780192852,0.002132080029696226,0.00112257432192564
1772366225373567200,9.775567138671875,-0.001815596129745245,-0.0002621021121740341,-0.0011059595271945
1772366225383637200,9.78563720703125,0.00007396284490823746,-0.0005553248338401318,-0.00016581546515226364
1772366225393707300,9.795707275390624,-0.0010962304659187794,0.00009475275874137878,0.000360158272087574
1772366225403778000,9.805778076171874,0.0006536454893648624,0.004587624222040176,0.001560973934829235
1772366225413848000,9.81584814453125,0.000991067849099636,0.0018733306787908077,0.0012326063588261604
1772366225423918300,9.82591845703125,0.000045777298510074615,0.0013324855826795101,-0.002526935189962387
1772366225433989400,9.8359892578125,0.0011925343424081802,0.00270055141299963,-0.0031839367002248764
1772366225444059100,9.84605908203125,-0.0004955912008881569,0.0036354069598019123,-0.0023962873965501785
1772366225454129200,9.856129150390625,-0.0016798991709947586,0.0009099277667701244,0.0011853976175189018
1772366225464199200,9.86619921875,0.0003018537536263466,0.0002879239618778229,0.0012962790206074715
1772366225474270200,9.876270263671875,0.0018896306864917278,0.002633103635162115,0.001485896296799183
1772366225484340200,9.88634033203125,-0.0005101403221487999,-0.0013232340570539236,0.00047413259744644165
1772366225494410200,9.89641015625,-0.0012475689873099327,-0.0015826260205358267,-0.0005344068631529808
1772366225504481000,9.90648095703125,0.002664404921233654,0.003390332218259573,-0.0014582434669137
1772366225514551000,9.916551025390625,-0.00012019602581858635,-0.002753580454736948,0.0008451249450445175
1772366225524621300,9.926621337890625,0.00041942670941352844,0.0003200927749276161,-0.0008208835497498512
1772366225534692400,9.9366923828125,-0.0029803644865751266,0.0005184984765946865,-0.0025170501321554184
1772366225544762000,9.94676220703125,0.0006377198733389378,0.000035814475268125534,-0.0001962166279554367
1772366225554832100,9.95683203125,-0.001566312275826931,0.0027154870331287384,-0.0009174002334475517
1772366225564903200,9.966903076171874,-0.0020290385000407696,0.001783538144081831,0.00034822989255189896
1772366225574973200,9.97697314453125,0.00008710939437150955,-0.00044472841545939445,-0.001232622191309929
1772366225585043200,9.987043212890624,0.0006318879313766956,0.0011102529242634773,-0.000977647490799427
1772366225595114200,9.9971142578125,0.002068929374217987,0.023086924105882645,0.0132018206641078
1772366225605184000,10.00718408203125,-0.000053738243877887726,0.017467599362134933,0.012802707962691784
1772366225615254300,10.017254150390626,-0.0006452263332903385,0.014300568029284477,0.008817021735012531
1772366225625324300,10.02732421875,-0.0004690028727054596,0.0027892966754734516,0.004504491575062275
1772366225635395300,10.037395263671876,0.0013659149408340454,-0.0010350029915571213,0.006270700134336948
1772366225645465000,10.047465087890625,0.0006575924344360828,0.0007987013086676598,0.0014896159991621971
1772366225655535000,10.05753515625,0.0009244410321116447,-0.007573744282126427,-0.004498767666518688
1772366225665605400,10.06760546875,-0.0012855622917413712,-0.012506095692515373,-0.005060689989477396
1772366225675675400,10.07767529296875,0.00022231973707675934,-0.015188964083790779,-0.006247394718229771
1772366225685745400,10.087745361328125,0.0015793545171618462,-0.01991320587694645,-0.004762866534292698
1772366225695816400,10.09781640625,-0.001989547163248062,-0.010370034724473953,-0.007686484605073929
1772366225705886500,10.107886474609375,-0.001225319691002369,0.0011373949237167835,-0.0036310264840722084
1772366225715956500,10.11795654296875,0.0003707124851644039,-0.0039202142506837845,-0.002834741957485676
1772366225726027500,10.128027587890625,0.0014217011630535126,-0.005685386247932911,-0.003611939027905464
1772366225736097300,10.13809716796875,0.0006541782058775425,-0.0025748140178620815,-0.0018984610214829445
1772366225746167300,10.148167236328124,0.0025965073145926,0.0022321632131934166,0.0010112235322594643
