time,seconds_elapsed,z,y,x
1772569013154576000,0.108575927734375,-0.047209494942426676,0.002279699301859364,-0.000698284462466836
1772569013164648000,0.11864794921875,-0.03598959726989269,0.004063851905427873,0.004583418800123035
1772569013174719700,0.1287197265625,-0.04452537042498588,0.004705054152105003,-0.004949201638903469
1772569013184791800,0.138791748046875,-0.04631576097309589,-0.001252776540070772,0.006492668221239
1772569013194863900,0.14886376953125,-0.040030981615185736,0.004154023540066555,0.009185743230115622
1772569013204934700,0.1589345703125,-0.052152796563506125,0.005214885104075074,0.006249653245601803
1772569013215006500,0.16900634765625,-0.053800563770532606,-0.011346565392659977,0.006694163876399398
1772569013225078800,0.179078857421875,-0.05006137724220752,0.0028575539887417106,0.000291712955571711
1772569013235150800,0.18915087890625,-0.035841713231801985,0.0065237209466286,0.004861906947940588
1772569013245223000,0.199222900390625,-0.041081367450952526,-0.008305982987210154,-0.0005658537218347191
1772569013255294700,0.209294677734375,-0.050204585105180735,0.0005288096470758318,0.005415248248074204
1772569013265366800,0.21936669921875,-0.04272913465797901,-0.00030016569008585063,0.00671058528823778
1772569013275438800,0.22943896484375,-0.052311201995611185,-0.0008859388219425455,0.003756283793598413
1772569013285510700,0.2395107421875,-0.05081891761124134,0.0061621073928894475,0.0019125556230545043
1772569013295583700,0.249583740234375,-0.04603869759738445,0.010858078622817992,0.0007681896272115409
1772569013305655800,0.25965576171875,-0.05291793571710586,-0.0010877221714705228,0.008088120719138532
1772569013315727600,0.2697275390625,-0.04992635268568992,0.013060210043285041,0.012019907210115343
1772569013325799700,0.279799560546875,-0.03256780612766742,0.004680454000388272,-0.0028785693773068486
1772569013335871700,0.289871826171875,-0.038707039535045625,-0.0012743581842165439,0.002207392117474228
1772569013345943800,0.29994384765625,-0.045295185753703116,-0.005387821385031566,0.00738101362939924
1772569013356015600,0.310015625,-0.045447161445021624,-0.005446853529312647,0.005786620577424764
1772569013366087700,0.320087646484375,-0.042454993891716,0.0017860933989053591,0.005968607814516871
1772569013376159700,0.33015966796875,-0.050985506349802014,0.0027614549368154256,0.007942282507661729
1772569013386231600,0.3402314453125,-0.04530570714771747,0.0007272959278197959,0.004348422734159976
1772569013396303600,0.3503037109375,-0.04052373356819153,0.005470923958066851,0.012059435502905398
1772569013406375700,0.360375732421875,-0.044261166530847544,0.004062244470231235,0.0024687282010912893
1772569013416447700,0.37044775390625,-0.039026773008704184,-0.0043038209740305314,0.0019435170168988405
1772569013426519600,0.38051953125,-0.04636135368049144,-0.0043037753082579,0.002933039510902017
1772569013436591600,0.390591552734375,-0.05175356811285019,0.009296071736793964,0.007002864499390125
1772569013446663700,0.40066357421875,-0.05070785845220089,0.0024133721515070647,-0.0027924619964323936
1772569013456735500,0.410735595703125,-0.04098842847049236,0.005123964550765231,0.004547178442962468
1772569013466807600,0.4208076171875,-0.05266133060753345,0.0068968377084936945,0.006238656927552074
1772569013476879600,0.430879638671875,-0.046830724757909774,0.000725177035969682,0.0016847564828582108
1772569013486951700,0.44095166015625,-0.04982113874554634,-0.0012329073623986915,0.006056998484022915
1772569013497023700,0.451023681640625,-0.05146890595257282,-0.005881020862609148,0.007926007226295769
1772569013507095800,0.461095703125,-0.04862871409058571,0.006238346400298178,-0.0028258528093807397
1772569013517167900,0.47116796875,-0.04458908331096172,-0.0007483387158485129,-0.0018749452927149832
1772569013527239700,0.48123974609375,-0.05177168829143047,0.0013807777007576077,0.003188457310386002
1772569013537311700,0.491311767578125,-0.03291910378336906,-0.0013441720174159854,0.00010771642448380589
1772569013547383800,0.5013837890625,-0.040104631373286244,0.0038412129975389686,-0.0024341683443635702
1772569013557456000,0.511455810546875,-0.05028115747272968,-0.0040959595101652665,-0.002469495386071503
1772569013567527700,0.521527587890625,-0.0477402408182621,-0.00009750555772334336,-0.00455368124898523
1772569013577599700,0.531599853515625,-0.05283434908688068,0.0019626509756315498,0.0070878211027942594
1772569013587671800,0.541671875,-0.05433364773392677,0.008925247396714985,0.00261927912030369
1772569013597743900,0.551743896484375,-0.05598141494095325,0.002853868760890327,0.0076382032608613365
1772569013607815700,0.561815673828125,-0.05583469994664192,-0.0005825217288453131,0.002291636334825307
1772569013617887700,0.5718876953125,-0.054339492952823636,-0.006856875590863638,0.002702135098166764
1772569013627959800,0.581959716796875,-0.04955108963251113,-0.0003220350285992026,0.005960534105915576
1772569013638031600,0.592031494140625,-0.044314358022809024,0.00009184756849426775,0.0021015023238956927
1772569013648103700,0.602103759765625,-0.03413783192336559,-0.002443840355006978,0.0009104293758049606
1772569013658175700,0.61217578125,-0.049852118405699725,0.007400951305730268,0.007085994471888989
1772569013668247800,0.622247802734375,-0.04012567416131496,0.006818438710039481,0.00867306273393333
1772569013678319600,0.632319580078125,-0.049101007777452466,0.006437983458512462,0.004145191779639572
1772569013688392700,0.642392822265625,-0.0547854831546545,0.013066881812666542,0.0037868250623345374
1772569013698464500,0.652464599609375,-0.054635845550894735,0.014566235258639789,0.008649426130019127
1772569013708536600,0.66253662109375,-0.044911739394068714,0.004457025074632838,0.004990300834272056
1772569013718608600,0.672608642578125,-0.05314180760085582,-0.006578118014987558,0.005117288214806467
1772569013728680700,0.6826806640625,-0.052094344374537464,-0.001071497122454457,0.008697356924973428
1772569013738752500,0.69275244140625,-0.05224398197829723,0.0036979001032887023,0.004293039285112172
1772569013748824600,0.702824462890625,-0.04117255286574364,-0.00013944043673109262,-0.003584014232922345
1772569013758896600,0.712896728515625,-0.04640928447544575,-0.004938849208247847,0.012291034035384655
1772569013768968700,0.72296875,-0.052696986442804336,-0.000598797010211274,-0.0016363507638685404
1772569013779040800,0.733040771484375,-0.04401508281528949,0.004995693962019868,-0.006633921589143573
1772569013789112800,0.74311279296875,-0.046260231393575664,-0.00994791867507156,0.0006810593330301344
1772569013799185000,0.753184814453125,-0.05284603952467441,0.0016773449279600754,0.004973002639599144
1772569013809256700,0.763256591796875,-0.04282032007277012,0.005056301575456746,0.001066916845459491
1772569013819328800,0.773328857421875,-0.04147650424838066,-0.005179160770145245,0.0010818221536464988
1772569013829400800,0.78340087890625,-0.06317161870598792,0.004262224021740257,0.0049279761877842245
1772569013839473000,0.793472900390625,-0.0503062919139862,0.0021554336013738067,-0.0011547960583120583
1772569013849544700,0.803544677734375,-0.04970715697705745,-0.008314759948709978,-0.0030362624233588576
1772569013859616800,0.81361669921875,-0.060928808215260505,-0.00007459047301672399,0.001493033303041011
1772569013869688800,0.823688720703125,-0.05389584083855152,0.010773907470703125,0.002462444590777159
1772569013879760600,0.8337607421875,-0.04805997429192066,-0.0006620167058426886,0.007983180773630737
1772569013889832700,0.843832763671875,-0.05120002588331699,-0.0042724668545415624,0.0068889557961374515
1772569013899904800,0.85390478515625,-0.05688859291374683,0.0024624171913135797,0.00587793385637924
1772569013909976800,0.863976806640625,-0.05494622667431831,0.00022807313483208416,0.0021660737263970078
1772569013920048600,0.874048583984375,-0.06063479370474815,-0.0023444442342966795,-0.004800842676777392
1772569013930120700,0.88412060546875,-0.054496729341149325,0.0030413724233163517,-0.002112918767053634
1772569013940192800,0.89419287109375,-0.03758475750684738,-0.0021230063362279905,0.00022949790693819523
1772569013950264600,0.9042646484375,-0.048207858330011365,0.0005663012464065104,0.012059709497541189
1772569013960336600,0.914336669921875,-0.05494447310864925,0.007012107251770794,0.0049577868041582405
1772569013970408700,0.92440869140625,-0.046264323046803474,-0.004114011190086603,-0.005577836664952337
1772569013980480800,0.934480712890625,-0.05135317061841488,0.007954753830167464,0.0033635033500380813
1772569013990552600,0.944552490234375,-0.05449439125359058,-0.008741762322280555,0.0007366985104046761
1772569014000624600,0.954624755859375,-0.05000175600945949,-0.004931323488918133,0.005647248639352619
1772569014010696700,0.96469677734375,-0.03788111010491848,0.00025094712034333497,0.004026807830668985
1772569014020768800,0.974768798828125,-0.03653203358352184,0.002838333265041001,0.0014083141616545616
1772569014030840600,0.984840576171875,-0.04595861809849739,-0.000696731826197356,0.00708168362295255
1772569014040912600,0.99491259765625,-0.04206628683507442,-0.0021871667467756196,0.004161284397915005
1772569014050984700,1.004984619140625,-0.05523556500971317,0.0005178589947987348,0.008365403290558605
1772569014061056500,1.015056396484375,-0.05238777436316013,0.004647665975638665,0.0075903455311432475
1772569014071128600,1.025128662109375,-0.04984276605546474,0.003215514280670322,0.0007701441222801804
1772569014081200600,1.03520068359375,-0.05119008901119232,0.0015934477704809978,-0.0005372304155491293
1772569014091272700,1.045272705078125,-0.05284019430577755,0.008736834985413588,0.005859119558054953
1772569014101344800,1.0553447265625,-0.05508475836217403,0.005189284871937707,0.003590626636799425
1772569014111416800,1.065416748046875,-0.051048634713888166,0.01028008693861775,0.001816657500527799
1772569014121489000,1.075489013671875,-0.04670914420485496,-0.003328427470079623,0.00421741676563397
1772569014131560700,1.085560791015625,-0.04476736248731613,-0.0011518734488636254,0.0021607399641536177
1772569014141632800,1.0956328125,-0.05703939956128597,0.00695070048731286,0.0035712095502763983
1772569014151704800,1.105704833984375,-0.06541852084994315,0.001193762662098743,0.0019834471684880553
1772569014161777000,1.11577685546875,-0.061975686919689174,0.0016110656255623325,0.011295556724630295
1772569014171848700,1.1258486328125,-0.04536299029290676,-0.0007373378312215209,0.01165001445179805
1772569014181920800,1.135920654296875,-0.04356967713534832,-0.0026021453224122524,-0.000007635317184031009
1772569014191992800,1.145992919921875,-0.04476560892164707,0.0010591582306893543,0.006750204912573099
1772569014202064600,1.156064697265625,-0.05389174918532371,-0.004291235487093217,0.007585797220189124
1772569014212137200,1.16613720703125,-0.060925885605812066,-0.002788479941058904,0.006203128956444561
1772569014222209300,1.176209228515625,-0.04940203655064106,-0.0020832862471928818,0.0040237573570571835
1772569014232281300,1.18628125,-0.05314122307896614,0.0017832895204657688,0.008265504846349359
1772569014242353400,1.196353515625,-0.05972586216628551,0.0026114976726472378,0.004936835347674787
1772569014252425500,1.206425537109375,-0.05793430257439613,-0.00073076652653981,-0.0006486731670796871
1772569014262497500,1.21649755859375,-0.05075345115959644,0.0004654346878174692,0.005925444526225328
1772569014272569300,1.2265693359375,-0.06242576877474784,0.004147918026265688,0.004522500659432262
1772569014282642400,1.236642333984375,-0.053746203234791755,0.0038751974655315278,0.01009312213230878
1772569014292714200,1.24671435546875,-0.05419628508985042,-0.0013504419279983266,0.008439856766257435
1772569014302786300,1.256786376953125,-0.053747372278571126,-0.0010920832527568562,0.0023558058785274625
1772569014312858400,1.2668583984375,-0.050455344995856286,0.0008336926114745438,0.009028872167970985
1772569014322930400,1.276930419921875,-0.05300152234733104,0.007228357518068515,0.00921685075443238
1772569014333002200,1.287002197265625,-0.05988192951083183,0.0070717695837141945,0.005309394987113774
1772569014343074300,1.29707421875,-0.06182546479403972,0.0053304195088334375,-0.004487959069013595
1772569014353146400,1.307146484375,-0.05149754752516746,0.0070003528818953775,0.0027741591547615825
1772569014363218400,1.317218505859375,-0.04760813887119293,0.0007256473934277892,0.007367423495464026
1772569014373290200,1.327290283203125,-0.039378655186295505,-0.0019115738089429213,0.005818312623631209
1772569014383362300,1.3373623046875,-0.049398529419302936,0.00587037160443142,-0.0002620484696701169
1772569014393434400,1.347434326171875,-0.056280690148472784,-0.00533821465622168,0.0047200873244553805
1772569014403506200,1.357506103515625,-0.044759763702750206,-0.0009140369718428701,0.0037650150893256064
1772569014413578200,1.367578125,-0.050149640047550195,0.0007439730679849162,0.003937193318456411
1772569014423650300,1.377650390625,-0.04924889181554317,0.0036805379765341055,0.004492690043058246
1772569014433722400,1.387722412109375,-0.05119359614253044,-0.002211296541034244,0.004348514065705239
1772569014443794200,1.397794189453125,-0.059119128444790836,0.006032170003443024,0.0030169732009992
1772569014453866200,1.4078662109375,-0.045807226929068565,0.0012914234834490344,0.011040522517636417
1772569014463938300,1.417938232421875,-0.05613222158849239,-0.013496350137959233,0.006553056638967245
1772569014474010000,1.428010009765625,-0.052689972180128095,0.0035380059669958427,0.0002871281119994819
1772569014484082200,1.438082275390625,-0.04071370318233967,0.014739194372482597,0.001978442199807614
1772569014494154200,1.448154296875,-0.04430208306312561,0.0048298815415939314,0.007329210376925766
1772569014504226600,1.4582265625,-0.05567570999264717,0.004213918767450377,0.006240885417256504
1772569014514298400,1.46829833984375,-0.042212417307496065,0.0003491193983471021,0.011921177809685468
1772569014524370400,1.478370361328125,-0.05732523076534271,0.0026436555097345263,0.004467683465965092
1772569014534442500,1.4884423828125,-0.04999357270300388,0.001666983364149928,0.006070205025468021
1772569014544514300,1.498514404296875,-0.04760170913040638,0.005918229334149509,0.0039025421301834284
1772569014554586400,1.50858642578125,-0.05074176072180271,0.002702066599507816,0.003807630388345569
1772569014564658400,1.518658447265625,-0.047449733439087864,-0.00303172324555926,0.00017546616476029155
1772569014574730500,1.52873046875,-0.05806991165280342,-0.005634475922747515,0.01571850599972531
1772569014584802300,1.53880224609375,-0.04460544992387294,-0.009937940703751518,0.002461549541633576
1772569014594874400,1.548874267578125,-0.04625613974034786,0.004862642166879959,0.006144037446659058
1772569014604946400,1.558946533203125,-0.054037879657745355,0.01005775399140548,0.01090025553042069
1772569014615018200,1.569018310546875,-0.04341477883458137,0.00487290783256758,0.01953700484195724
1772569014625090300,1.57909033203125,-0.042669513425230975,-0.001941484890016727,0.001892024291679263
1772569014635162400,1.589162353515625,-0.05000000244379043,0.0011984890695661305,0.005712441096361726
1772569014645234400,1.599234375,-0.05299450808465481,0.00560591654854361,-0.00003689794428646564
1772569014655306200,1.60930615234375,-0.035335517275333406,0.004625641373498365,0.006647822250332683
1772569014665378300,1.61937841796875,-0.03398410266637802,0.0022672416790854182,0.0031101861760951576
1772569014675450400,1.629450439453125,-0.038027240577340124,0.00972717033016961,0.0037299072433263063
1772569014685522400,1.6395224609375,-0.040570495319366455,0.003845551245938986,0.011676445800997316
1772569014695594200,1.64959423828125,-0.034737551382184026,-0.011287578914151527,0.004212704057898372
1772569014705666300,1.659666259765625,-0.032492987325787544,0.002164703753218055,0.0026041728827171026
1772569014715738400,1.66973828125,-0.03533668631911278,0.002910553684458136,0.002463522303011268
1772569014725810200,1.67981005859375,-0.04895429278314113,0.006540640115388669,0.011733089625369756
1772569014735882200,1.68988232421875,-0.025464111602306366,0.002543565269280225,0.007250573916453867
1772569014745954300,1.699954345703125,-0.04192658610343933,0.00861367439662572,0.009820552268624305
1772569014756026400,1.7100263671875,-0.03323942177891731,0.005883893239707685,0.0020645130480639634
1772569014766098200,1.72009814453125,-0.036680502143502235,0.004024821369559504,-0.002872632826864719
1772569014776170200,1.730170166015625,-0.03248948019444942,0.0031920877393102273,0.009136880853399634
1772569014786242300,1.7402421875,-0.04101531647741794,0.0027770589313236994,0.004301770580839365
1772569014796314000,1.750314208984375,-0.03518003445267677,0.004888667090702801,0.014167897290550171
1772569014806386200,1.76038623046875,-0.04206336422562599,-0.002818742648581974,0.0009719137720763683
1772569014816458200,1.770458251953125,-0.04101356291174888,0.009374653398338704,0.002694792041927576
1772569014826530300,1.7805302734375,-0.041914895665645595,0.0021927562373457474,0.013768047785386442
1772569014836602400,1.790602294921875,-0.03981821564733982,-0.0008562058373820037,0.011576985748205332
1772569014846674400,1.80067431640625,-0.03502805876135826,0.009661658212752082,0.0066751486486755305
1772569014856746500,1.81074658203125,-0.037570728981494904,0.0007057462497148662,0.0027012217827141285
1772569014866818300,1.820818359375,-0.03891746741533279,-0.007702208407782018,-0.002260620142053813
1772569014876890400,1.830890380859375,-0.02979483428299427,0.004767187002347782,-0.0011196151470765471
1772569014886962400,1.84096240234375,-0.03653028001785278,0.0032174961752025407,0.004240377516113222
1772569014897034500,1.851034423828125,-0.03293313230872154,0.003604193937848322,0.004309204968623817
1772569014907106300,1.861106201171875,-0.031737785044312475,0.00627854597994592,0.0033855873176828026
1772569014917178400,1.871178466796875,-0.031740123131871224,-0.004760506099811755,0.003734071961790323
1772569014927250400,1.88125048828125,-0.028296120157837865,-0.00071174673223868,0.003950929582864046
1772569014937322500,1.891322509765625,-0.03548457035720348,-0.006240757553093135,0.008694982304796576
1772569014947394300,1.901394287109375,-0.03204290547072887,-0.005363097935728729,0.005379555880185217
1772569014957466400,1.91146630859375,-0.027850129956007,0.0036690165020991116,0.0022273937258869407
1772569014967538400,1.921538330078125,-0.022463760742545125,-0.007999337323987856,0.0029703393139876425
1772569014977610200,1.9316103515625,-0.03278524827063083,0.0016578228101599961,-0.0003546586565673351
1772569014987682300,1.941682373046875,-0.037572482547163964,0.005940518797771074,0.005159172861464321
1772569014997754400,1.95175439453125,-0.043106151276826855,0.0027796527472091835,0.0031906675337813792
1772569015007826400,1.961826416015625,-0.035920623686909674,-0.0032307849150383845,0.0023877171204425393
1772569015017898200,1.971898193359375,-0.032927287089824675,-0.0036605044020805505,0.013499167716130614
1772569015027970300,1.98197021484375,-0.03487608307003975,0.010923841901984997,0.00892723842440173
1772569015038042400,1.99204248046875,-0.030839959421753882,0.008109679530397988,0.005979147474840283
1772569015048114200,2.0021142578125,-0.035031565892696376,-0.00043584783372934907,0.0034457565397024155
1772569015058186200,2.012186279296875,-0.02679799055457115,0.012898411644273437,0.0007458133986219764
1772569015068259300,2.02225927734375,-0.03293137874305248,-0.004416893993644044,0.0027791093245148656
1772569015078331100,2.0323310546875,-0.03472527642250061,-0.00981581672800239,0.005403868337534368
1772569015088403200,2.0424033203125,-0.03801438109576702,-0.007818377566779963,0.004734389844443649
1772569015098475300,2.052475341796875,-0.02694353650510311,0.001113345236494206,0.002419537030812353
1772569015108547300,2.06254736328125,-0.03337795346677303,0.010288617304945364,0.0001911386579275131
1772569015118619400,2.072619384765625,-0.03801730370521545,-0.00043919970144052056,0.008264354068879038
1772569015128691500,2.08269140625,-0.04146481381058693,0.00015434117834083736,0.0051927280711941415
1772569015138763500,2.092763427734375,-0.03024433161616325,0.013468790844175963,0.007075600942037999
1772569015148835300,2.10283544921875,-0.029497312641143796,0.005367280920501798,0.010200783757865428
1772569015158907400,2.112907470703125,-0.026206454402208326,0.0016819343381095676,0.00563570433203131
1772569015168979500,2.1229794921875,-0.040570495319366455,0.008806995878485031,0.0008790843894705176
1772569015179051500,2.133051513671875,-0.043561493828892704,0.0030646345678949725,0.002778141210135072
1772569015189123300,2.143123291015625,-0.039817046603560446,0.00800733796735294,0.015357052276190369
1772569015199195400,2.1531953125,-0.02784545378088951,0.00401782993976958,0.013147340337466448
1772569015209268000,2.16326806640625,-0.03428045526444912,0.0021136631191475317,0.002071381180267781
1772569015219339800,2.17333984375,-0.04161328237056732,0.0023734328667633234,0.009806286281254142
1772569015229411800,2.183411865234375,-0.039519524961709976,0.009954480846598744,0.005004932147823274
1772569015239484000,2.19348388671875,-0.03517769636511803,0.010783127390197477,0.006008428368251771
1772569015249555700,2.2035556640625,-0.038167525830864905,-0.0027813149813329797,0.004603913598880171
1772569015259627800,2.213627685546875,-0.03921148192584514,0.002200875611719675,0.005033336258400231
1772569015269699800,2.223699951171875,-0.03711597095131874,0.012139405403938144,0.009354396061599254
1772569015279772000,2.23377197265625,-0.0293359845995903,0.00592211092482321,0.011884827854670583
1772569015289843700,2.24384375,-0.038465047472715376,0.011369274981389753,0.003412566656153649
1772569015299915800,2.253915771484375,-0.02739537192583084,0.0029480589835206043,0.000871047213487327
1772569015309987800,2.26398779296875,-0.03563011630773544,0.008261385793657972,0.009073752489313483
1772569015320060000,2.274059814453125,-0.03877484407424926,0.009377311146305873,0.00960840735528618
1772569015330131700,2.284131591796875,-0.03383563410639763,0.004182066891039721,0.0021926329397596415
1772569015340203800,2.294203857421875,-0.04056581914424896,-0.0029942910117330026,0.003977342665754258
1772569015350275800,2.30427587890625,-0.042353871604800225,-0.0013427700781961903,0.006480101000610738
1772569015360347600,2.31434765625,-0.04160568358600139,0.001360182437300682,0.010835611062683164
1772569015370419700,2.324419677734375,-0.04145370789468288,0.003524666994810104,0.008924845537915825
1772569015380492800,2.334492919921875,-0.04145195432901382,-0.00044610436626244334,0.009856664761621505
1772569015390564900,2.34456494140625,-0.031573534393310544,0.008719883850612677,0.011165610202029348
1772569015400637000,2.354636962890625,-0.04938216280639171,-0.0040939684824785215,0.005574548729322851
1772569015410709000,2.364708984375,-0.03531447448730469,0.002764103551628068,0.008625606863014399
1772569015420780800,2.37478076171875,-0.05326864885091781,0.00031997093567624687,0.01143911164747551
1772569015430852900,2.384852783203125,-0.033822190102934836,0.0027133323456160724,0.005694759309198707
1772569015440925000,2.394925048828125,-0.03277706496417522,0.006609531499980948,0.002603022105246782
1772569015450997000,2.4049970703125,-0.04250117112100124,0.00013690141977276652,0.005684000453166664
1772569015461068800,2.41506884765625,-0.042350364473462104,0.0040249492337228725,0.002729808556381613
1772569015471140900,2.425140869140625,-0.04549567676186561,-0.0006182186633115634,0.013341693865787237
1772569015481213000,2.435212890625,-0.04684650684893131,0.005530823752027936,0.014265384581964462
1772569015491284700,2.44528466796875,-0.03831891700029373,-0.0030527477672789246,0.009539031913504003
1772569015501356800,2.455356689453125,-0.030085926184058188,0.010159940290823578,0.0021866415903903542
1772569015511428900,2.465428955078125,-0.044003392377495766,0.0037826192446751518,0.005508625619951636
1772569015521501000,2.4755009765625,-0.03756605280637741,0.007820464492589234,0.005629786047898233
1772569015531572700,2.48557275390625,-0.04295359106361866,0.006527127613266929,0.005465809391532093
1772569015541644800,2.495644775390625,-0.03532324231564998,-0.0007602026835782453,0.004198237141128629
1772569015551716900,2.505716796875,-0.043398412221670145,0.00006212828366551547,0.012800956318899989
1772569015561788700,2.51578857421875,-0.043102644145488735,0.0003110661100130528,0.008509250474348664
1772569015571860700,2.52586083984375,-0.04849544309973716,0.001902454354148358,0.0012551146276295183
1772569015581932800,2.535932861328125,-0.03996785325109958,-0.0004191067614825442,0.010328574855998158
1772569015592004900,2.5460048828125,-0.04505494725704193,-0.0042191520649939775,-0.0005274031412787735
1772569015602076700,2.55607666015625,-0.05253975005447864,0.0031529065063921734,0.007143405481241643
1772569015612148700,2.566148681640625,-0.04371113143265247,0.00005218227838631719,0.006858085733838379
1772569015622220800,2.576220703125,-0.03937280996739864,0.004542082142736763,0.010393931709788739
1772569015632292900,2.58629296875,-0.05209317533075809,0.004952781835477799,0.014574852389935403
1772569015642366000,2.596365966796875,-0.05014730195999145,0.003363521616347134,0.009972801954578607
1772569015652438000,2.60643798828125,-0.0405728334069252,0.013664715275075286,0.006430270509514957
1772569015662509800,2.616509765625,-0.04596270975172519,0.007647071553906425,0.003792304955050349
1772569015672582000,2.626581787109375,-0.04671148229241371,0.00462531714651268,0.005013937438186258
1772569015682654000,2.636654052734375,-0.047912090253829955,0.0020389265156583857,0.001614522524550557
1772569015692726000,2.64672607421875,-0.0431260250210762,-0.0007970138628967106,0.011248721908219158
1772569015702797800,2.6567978515625,-0.047317631492018696,0.005098382584936917,0.01074289127793163
1772569015712870000,2.666869873046875,-0.050312721654772755,-0.003716682435572147,0.0049032436053268605
1772569015722942000,2.67694189453125,-0.04417874894440174,0.009036091926624067,0.002474957012478262
1772569015733013800,2.687013671875,-0.04268821812570095,0.007301852012542076,0.00735549559565261
1772569015743085800,2.6970859375,-0.046427989175915715,0.002964608259522356,0.011593553290516137
1772569015753158000,2.707157958984375,-0.045379356905817986,0.004611731579154729,0.005357252716831863
1772569015763230000,2.71722998046875,-0.058847325766086575,0.0003414018827723339,0.0029477438896894454
1772569015773301800,2.7273017578125,-0.050017538100481033,0.009920149318734183,0.007801997254136949
1772569015783373800,2.737373779296875,-0.04253507339060306,0.00040845293672755356,0.012015943421050905
1772569015793446000,2.74744580078125,-0.04941840316355228,0.012176627575210295,0.004720744911581277
1772569015803517700,2.757517578125,-0.045526656422019,0.003766480960627086,0.007445384102500975
1772569015813589800,2.76758984375,-0.04911737439036369,0.007520061340485699,0.00867616800647229
1772569015823661800,2.777661865234375,-0.0474742833584547,0.003284533529425971,0.005564502259343862
1772569015833734000,2.78773388671875,-0.04717325458526611,0.0040100530586903915,0.010851904610358178
1772569015843805700,2.7978056640625,-0.0416360787242651,0.010429665176873095,0.00787740057790652
1772569015853877800,2.807877685546875,-0.04881868370473384,0.008109697796707041,0.005313851966522634
1772569015863949800,2.81794970703125,-0.05046177473664284,0.0013650047428905962,0.009872428586333989
1772569015874022000,2.82802197265625,-0.051956981730461115,0.0025106128477491436,0.0037187099958769974
1772569015884093700,2.83809375,-0.048965983220934865,0.005234265657979994,0.005611647603008895
1772569015894165800,2.848165771484375,-0.047019525328278536,0.0040873241125605995,0.011662216346245258
1772569015904238800,2.85823876953125,-0.030258944663405417,0.0024170984785538167,0.0034772293902002272
1772569015914311000,2.868310791015625,-0.04746902266144752,0.013451826009643264,0.005330017650034278
1772569015924383000,2.878383056640625,-0.05210895742177963,0.015464471873152068,0.01378200324550271
1772569015934455000,2.888455078125,-0.05615092628896236,0.0037344235882395874,0.006960851988568902
1772569015944526800,2.89852685546875,-0.0492693500816822,0.008841765797766856,0.0062926704034209245
1772569015954599000,2.908598876953125,-0.051667058873176575,0.0014676477000350131,0.006442819463834166
1772569015964671000,2.9186708984375,-0.04433598533272743,0.00690841854843311,0.006949033686611801
1772569015974742800,2.92874267578125,-0.03909866920113563,0.011961012063152155,0.00155486475918442
1772569015984814800,2.93881494140625,-0.04867547584176063,-0.0029542512622894716,0.0064802288647741076
1772569015994887000,2.948886962890625,-0.042538580521941184,0.005295444093574769,0.00819733498096466
1772569016004959000,2.958958984375,-0.04597732279896736,0.004383777175331488,0.010352978644892572
1772569016015030800,2.96903076171875,-0.048071080207824704,0.005293434799578972,0.007760770194604992
1772569016025102800,2.979102783203125,-0.05241115523874759,0.004277211528318003,0.011346172667015344
1772569016035175000,2.9891748046875,-0.04388239634633064,0.0013900158865610137,0.007268821959197521
1772569016045246700,2.999246826171875,-0.04343465257883072,0.0031281008586985987,0.0015109525522217153
1772569016055318800,3.00931884765625,-0.0492693500816822,0.0038632284665247422,0.008893500551581382
1772569016065390800,3.019390869140625,-0.04747369883656501,0.0017967517902376128,0.003795410227589309
1772569016075463000,3.029462890625,-0.05241115523874759,0.0031489153178641573,0.008123922684881836
1772569016085534700,3.03953466796875,-0.050616088515520095,0.005216871565184556,0.011245726233534514
1772569016095606800,3.049606689453125,-0.05884440315663814,-0.0016281902902992441,0.0060930196454748505
1772569016105678800,3.059678955078125,-0.04522679669260978,0.01299522764883004,0.006254822611063718
1772569016115751000,3.0697509765625,-0.04761982930898666,0.01052425725830253,0.0019335801447741686
1772569016125822700,3.07982275390625,-0.05180851317048073,0.004960385186620988,0.010504150618612765
1772569016135894800,3.089894775390625,-0.04881342300772667,0.006332390492456034,0.0007369177061133086
1772569016145966800,3.099966796875,-0.04491933817863464,0.0010035236198920757,-0.0009105207073502242
1772569016156038700,3.11003857421875,-0.04252221390902996,0.007097182586183771,0.0012960676925256847
1772569016166110700,3.12011083984375,-0.046866380593180657,0.0043736485069617624,0.00876589211653918
1772569016176184000,3.13018408203125,-0.03894026376903057,-0.004745733222365379,0.007685513001307845
1772569016186256000,3.140255859375,-0.04881693013906479,0.0076209781314246355,0.010344758805818855
1772569016196328000,3.150327880859375,-0.05495324093699455,0.005832190451934002,0.01008994379453361
1772569016206399200,3.160399169921875,-0.04777355856597423,-0.001431334277638234,0.004259502341691404
1772569016216471300,3.17047119140625,-0.031013562422990797,0.006909217699454165,0.003041705783456564
1772569016226543000,3.180543212890625,-0.04208791414499283,0.007391790751740336,0.0055415049762465056
1772569016236615200,3.190615234375,-0.0542103136152029,0.0052151362658245486,0.006975227573793381
1772569016246687200,3.200687255859375,-0.054961424243450165,0.007198208974977024,0.00014633140182122588
1772569016256759000,3.210759033203125,-0.05062193373441696,0.005126357437251135,0.005385273234918713
1772569016266831000,3.2208310546875,-0.05047463421821594,-0.002414618827099912,0.009309643604420124
1772569016276903200,3.230903076171875,-0.051072015589475626,-0.0017690920317545533,0.006337514192145318
1772569016286975200,3.240975341796875,-0.06004968729317188,0.008116492863674647,0.005477390231471508
1772569016297047000,3.251047119140625,-0.05256722258329391,-0.00003943239466752857,0.00502339938627556
1772569016307119000,3.261119140625,-0.050177112576365465,-0.00113447022291366,0.00787369251716882
1772569016317191200,3.271191162109375,-0.049883098065853115,0.005291005380474962,0.007505553324520587
1772569016327263200,3.28126318359375,-0.05572188722193241,0.006432380268210545,0.00875104160727933
1772569016337335000,3.2913349609375,-0.04854162032902241,0.004967668877355754,0.007317739134840667
1772569016347407000,3.301406982421875,-0.045099955442547794,0.0035527423118241128,0.005267601672001182
1772569016357479200,3.311479248046875,-0.05183364761173725,-0.0018298686085501685,0.008047806975059212
1772569016367551200,3.32155126953125,-0.05437982496321201,-0.0005387876183958724,0.005144468482676893
1772569016377623300,3.331623291015625,-0.045103462573885915,-0.002002795756352134,-0.002711176921147853
1772569016387695400,3.3416953125,-0.054531800654530525,-0.003134617364453152,0.006481872832588851
1772569016397767400,3.351767333984375,-0.04675064525902271,0.007095995276095345,0.010852178604993969
1772569016407839200,3.361839111328125,-0.05961889466047287,0.011463241441734134,0.003237739812210202
1772569016417911300,3.371911376953125,-0.04360416392683983,0.012088912759139201,0.010577709045168011
1772569016427983400,3.3819833984375,-0.0444984824180603,0.0056595464319223535,0.00427979621104896
1772569016438055200,3.39205517578125,-0.04330138158798218,0.00010505410993937403,0.009222476777620612
1772569016448127200,3.402127197265625,-0.04195288958847523,0.006293149894033559,0.007311291127745062
1772569016458199300,3.41219921875,-0.04389642487168312,-0.0005268505854299292,0.007075326947402209
1772569016468271400,3.422271240234375,-0.05706161139309406,-0.0039943485994823275,0.012105046476610004
1772569016478343200,3.43234326171875,-0.054071197405457495,0.0048177207463420925,0.006926986251585185
1772569016488415200,3.442415283203125,-0.04898585696518421,0.001905614425614476,0.005959291996899992
1772569016498488000,3.452488037109375,-0.05332651651799678,-0.0019718708951259032,0.008606317640654742
1772569016508560100,3.46256005859375,-0.049587914511561394,0.002281489400146529,0.00503812203137204
1772569016518632200,3.472632080078125,-0.05407821166813373,0.006912053543934598,-0.0029355785278603434
1772569016528704300,3.482704345703125,-0.055123921328783035,0.003144248275901191,0.004599456619471311
1772569016538776000,3.492776123046875,-0.04719312832951546,0.010632517105480655,0.007890260059479624
1772569016548848000,3.50284814453125,-0.05722410847842693,0.006096905802725814,0.0006432846059091389
1772569016558920200,3.512920166015625,-0.058869537597894664,0.004313894843473099,0.0054461365766823285
1772569016568992300,3.5229921875,-0.05767535937726497,-0.004725083159981295,0.004606379550602287
1772569016579064000,3.53306396484375,-0.05932721823751926,-0.001855167446588166,0.0015863010770641266
1772569016589136100,3.54313623046875,-0.050794952213764184,0.003119383262703195,0.008565711635630578
1772569016599208200,3.553208251953125,-0.04331073393821716,0.002032798168971203,0.0007105411558412015
1772569016609280000,3.563280029296875,-0.056930678489804265,-0.0022446919205598532,-0.004963138832710683
1772569016619352000,3.57335205078125,-0.05648351924419403,0.0024052482105558735,-0.00802364064818248
1772569016629424000,3.583424072265625,-0.047505847540497775,-0.0005707490926608443,0.006760799371823668
1772569016639496400,3.593496337890625,-0.054387423747777934,0.007489328275504522,0.008779226522147654
1772569016649568300,3.603568359375,-0.05154138666689396,-0.00244726528795436,0.007826894233375787
1772569016659640300,3.613640380859375,-0.05543313340842723,0.006210170618584379,0.008258910708781332
1772569016669712400,3.62371240234375,-0.058873044729232785,0.012868409231654368,0.005475344404857605
1772569016679784200,3.6337841796875,-0.058873044729232785,0.0008713349078549071,0.001670216500852257
1772569016689856300,3.643856201171875,-0.0501975708425045,0.01391850737305358,0.0028805421386845407
1772569016699928300,3.65392822265625,-0.05499123485982418,0.011968099391064605,0.005520973644871264
1772569016710000400,3.66400048828125,-0.049457566130161286,0.013242302311654202,0.007057170236203819
1772569016720072200,3.674072265625,-0.04421849643290043,0.008223857661709189,0.004617869058996439
1772569016730144300,3.684144287109375,-0.046615036180615424,-0.0009412172397132962,0.005253299152012914
1772569016740216300,3.69421630859375,-0.05230301868915557,0.0018482262491481378,-0.0021238420198671517
1772569016750288100,3.7042880859375,-0.05304828409850597,0.010198167109093628,0.004724690434336662
1772569016760360200,3.714360107421875,-0.05140285497903824,0.0003098514004610479,0.008638685540296136
1772569016770432300,3.724432373046875,-0.05634148042500019,0.009202224007458425,0.003094933808036148
1772569016780504300,3.73450439453125,-0.0602320581227541,0.005102734533068724,0.006420132707990705
1772569016790576000,3.744576171875,-0.05843757592141628,-0.0022590629392070694,-0.0032199118945747613
1772569016800648200,3.754648193359375,-0.051257309028506275,-0.006416566211148165,0.003717614017333835
1772569016810720300,3.76472021484375,-0.045722471255064005,0.0032318352278089147,0.005654281168337911
1772569016820792300,3.774792236328125,-0.05140577758848667,0.007901521239010617,0.004107289188355207
1772569016830864100,3.784864013671875,-0.049609541821479794,0.0049922735956497485,0.010249700933508575
1772569016840936200,3.794936279296875,-0.052154550129175185,-0.0015416993169346824,0.010900949650164693
1772569016851008300,3.80500830078125,-0.055744683575630186,0.0021067493211710826,0.008340506311319768
1772569016861080000,3.815080078125,-0.04586801720559597,0.0065312055667629465,0.0050462870715186
1772569016871152000,3.825152099609375,-0.05829202997088432,0.005572626200295053,0.006824384393636137
1772569016881224200,3.83522412109375,-0.06069032328426838,0.004411541965091601,0.005167082173284143
1772569016891296300,3.845296142578125,-0.050367082190513605,0.0032165371939772737,0.005236969071719795
1772569016901368000,3.8553681640625,-0.04886953710913658,0.0007948173392331227,0.00019944982854649423
1772569016911440100,3.865440185546875,-0.05276011480689048,0.0018162967409240081,-0.00036326208813115953
1772569016921513200,3.87551318359375,-0.05201134226620197,0.013835605729417874,0.006407273226417601
1772569016931585300,3.885585205078125,-0.057846624290943144,0.01704391851774417,0.0026586795489303766
1772569016941657300,3.8956572265625,-0.06083820732235908,-0.005026166732097044,0.009425579867977648
1772569016951729400,3.9057294921875,-0.05485387221574783,-0.0008186685722786932,0.0037958668853156265
1772569016961801200,3.91580126953125,-0.05694587605893611,0.004607215234241448,-0.002167681161593646
1772569016971873300,3.925873291015625,-0.05934007771909237,0.002720958529645577,0.0033955241898074745
1772569016981945300,3.9359453125,-0.05918927107155323,0.0055446239485172555,0.005822513874713331
1772569016992017200,3.94601708984375,-0.04407938022315502,-0.0001614467725623399,0.0052288040315732354
1772569017002089200,3.956089111328125,-0.04946224230527878,0.00031908045310992747,0.0021103066848590967
1772569017012161300,3.966161376953125,-0.052449733683466906,-0.00384466532994993,0.0015500607199035584
1772569017022233300,3.9762333984375,-0.047807460835576056,-0.003835290146828629,0.006623856852855533
1772569017032305200,3.98630517578125,-0.058880058991909026,0.000030285540409386158,0.00503824989553541
1772569017042377200,3.996377197265625,-0.048857846671342846,-0.0022622960759093986,0.0025437113997526465
1772569017052449300,4.00644921875,-0.05319733718037605,-0.0011949225727235899,0.006284231368638575
1772569017062521300,4.016521240234375,-0.05693652370870113,0.007164863827801309,0.009947119524050503
1772569017072593200,4.02659326171875,-0.05813537810444831,0.007189272183272987,0.008084631854109466
1772569017082665200,4.036665283203125,-0.05589081404805183,0.005415759704727679,0.007930391140468418
1772569017092737300,4.0467373046875,-0.04990238728821277,0.00028375341140199453,0.0026529621941968795
1772569017102809000,4.05680908203125,-0.050500937703251834,0.004333115567173808,0.008336323326546699
1772569017112881200,4.066881103515625,-0.05573825383484363,0.0050397659991867835,0.006079977500811219
1772569017122953200,4.076953125,-0.051098319074511525,-0.00043394813758786767,0.007747618452087044
1772569017133025300,4.087025390625,-0.04930266782939434,0.008433312861039302,0.00641962125133723
1772569017143097000,4.09709716796875,-0.04825578912496566,0.0012416843238985166,0.006841207664273679
1772569017153169200,4.107169189453125,-0.047207156854867934,0.0037016309969127178,0.011404752720147371
1772569017163241200,4.1172412109375,-0.05214344421327114,0.0024815739829326046,0.0029311580810695887
1772569017173313000,4.12731298828125,-0.04825578912496566,0.004459778720722534,0.008370572656020522
1772569017183385000,4.137385009765625,-0.05034603940248489,0.009236181075987405,0.005250687069818377
1772569017193457200,4.14745703125,-0.051397594282031056,0.011014725922676733,-0.00031134923780336976
1772569017203529200,4.157529296875,-0.050049686804413795,0.004475633876980282,0.006589132599346339
1772569017213604900,4.16760498046875,-0.05842997713685035,0.002327461133454926,0.00581440363349393
1772569017223677000,4.177677001953125,-0.05618541308045387,0.005657646735780872,0.005978544686641544
1772569017233749000,4.1877490234375,-0.04556640391051769,0.0067069548593135546,0.01129396755574271
1772569017243820800,4.19782080078125,-0.053643327382206916,0.012248432436096482,-0.005511128104291856
1772569017253892900,4.207892822265625,-0.05588847596049309,0.0007349997436627746,0.0046377062706276775
1772569017263965000,4.21796484375,-0.04436579594910144,0.0003028691038256511,0.002575841837376356
1772569017274037000,4.228037109375,-0.060226212903857226,0.0010816349239787086,0.0033352636362425983
1772569017284108800,4.23810888671875,-0.059927522218227385,0.002667132283444516,0.009326594739221036
1772569017294180900,4.248180908203125,-0.048103813433647155,0.0010812558980658649,0.005208126569725573
1772569017304253000,4.2582529296875,-0.05677753375470638,0.004616873545153066,0.0033012883014045652
1772569017314324700,4.26832470703125,-0.048396658900380134,0.00014647753229364753,0.0009559855505824089
1772569017324396800,4.278396728515625,-0.057521045598387714,0.0069399598975898695,-0.0002681311505846679
1772569017334468900,4.28846875,-0.047048751422762866,0.00035087296401616183,0.007572371483035385
1772569017344541000,4.298541015625,-0.04884089553654194,0.0022602456827182323,0.006757073044776916
1772569017354612700,4.30861279296875,-0.056174307164549825,0.008128087403345852,0.006227788473665714
1772569017364684800,4.318684814453125,-0.0501888030141592,0.011709969044686295,0.007872687870170921
1772569017374756900,4.3287568359375,-0.05662321997582912,0.007051283918111584,0.0068238546706736085
1772569017384829000,4.338828857421875,-0.053629298856854433,-0.0076578212767839425,0.006737509827781468
1772569017394900700,4.348900634765625,-0.04629530270695686,0.0015779305409407242,0.009229417975060642
1772569017404972800,4.358972900390625,-0.04779343231022358,0.003974255659524351,0.00965431058993563
1772569017415044900,4.369044921875,-0.047345688542723655,0.009851422330923378,0.009336056687310338
1772569017425116700,4.37911669921875,-0.059168812805414195,-0.0031546966046793385,0.0025186865563504397
1772569017435188700,4.389188720703125,-0.05318740030825138,0.004004755829065107,0.009690331751387565
1772569017445260800,4.3992607421875,-0.053037178182601924,0.002024327168148011,0.010437515123188496
1772569017455332900,4.409332763671875,-0.05752689081728458,0.004145310510648414,0.0048922655535861845
1772569017465404700,4.41940478515625,-0.06501052457094192,0.0013763663871213794,0.005546674341708422
1772569017475476700,4.429476806640625,-0.04825111294984817,0.003426873742719181,-0.00359444429539144
1772569017485548800,4.439548828125,-0.05229191277325153,0.007847895922209136,0.0032423246557824314
1772569017495620600,4.44962060546875,-0.05857201595604419,0.005940874990797602,0.00580623859334737
1772569017505692700,4.459692626953125,-0.05408054975569248,-0.002882355069858022,0.00888632189212367
1772569017515765000,4.469764892578125,-0.03955985697209835,-0.00016429631677456199,0.003305580884031951
1772569017525837000,4.479837158203125,-0.04524550139307976,0.0011760717417811973,0.00585444338293746
1772569017535908900,4.489908935546875,-0.047046413335204124,-0.00023681356371380388,0.008227419591974467
1772569017545981000,4.49998095703125,-0.04674480004012584,0.016010342252883128,0.006792820211593061
1772569017556053000,4.510052978515625,-0.04314940589666366,0.01288852500449866,-0.0017537117995321749
1772569017566124800,4.520124755859375,-0.05496668494045734,-0.0015375893973978236,0.008820289184898137
1772569017576196900,4.53019677734375,-0.04538812473416328,0.004800728512345813,0.006912281872797757
1772569017586269000,4.54026904296875,-0.05226794737577438,0.005585526781063527,0.007941168262809514
1772569017596341000,4.550341064453125,-0.05047288065254688,0.00029084073931444435,0.009825027514342218
1772569017606414800,4.560414794921875,-0.06438800875842571,-0.008614331983751616,0.009409889108501374
1772569017616487000,4.57048681640625,-0.05900163954496383,0.0028327255081618203,0.006261051422450691
1772569017626558700,4.580558837890625,-0.04808043255805969,0.0008430221288232132,0.009290829306095838
1772569017636630800,4.590630859375,-0.0621446137458086,0.009588857838022522,0.008750822411570698
1772569017646702800,4.600702880859375,-0.04478489814400673,0.013687023005005903,0.01616148226056248
1772569017656774700,4.610774658203125,-0.05032324304878712,0.0014492535268189385,0.013873901046346872
1772569017666846700,4.6208466796875,-0.05615969411730766,0.007544693458243273,0.008280464953463525
1772569017676918800,4.630918701171875,-0.05032324304878712,0.00292927665123716,0.006785312758572399
1772569017686990800,4.640990966796875,-0.05076689516305923,0.006021493345801718,0.011877503064740448
1772569017697062700,4.651062744140625,-0.04911737439036369,0.007180458689155057,0.014357739040534943
1772569017707134700,4.661134765625,-0.0455225647687912,0.0025651880126213653,0.0036887715153396125
1772569017717206800,4.671206787109375,-0.0536000727623701,-0.005533709828858264,0.003351283189281821
1772569017727278800,4.68127880859375,-0.045216859820485115,0.0034370435102842748,0.0034912579155527055
1772569017737351000,4.691350830078125,-0.041776363977789874,0.0002959690055809915,0.010443159412685782
1772569017747423000,4.701423095703125,-0.04731353983879089,0.0002132591581903398,0.014886548687610775
1772569017757495800,4.711495849609375,-0.05419628508985042,0.0004327973601175472,0.006095047205779701
1772569017767566800,4.72156689453125,-0.048209611895680425,0.0029651882148347794,0.010618515979591757
1772569017777639000,4.731638916015625,-0.056442602711915965,-0.0002996085676597431,0.007367861886881291
1772569017787711700,4.741711669921875,-0.06272738206982613,-0.003233990652277134,0.003938910351507365
1772569017797783800,4.75178369140625,-0.05165595295727252,0.006770590113475919,0.012242975376266986
1772569017807854800,4.761854736328125,-0.05898819554150104,0.011175126949045806,0.009732782653626053
1772569017817927000,4.771927001953125,-0.05405190818309784,0.003552509416383691,0.006954002122674137
1772569017827999700,4.781999755859375,-0.0483674328058958,-0.0016215185209177434,0.007754943242017179
1772569017838071800,4.79207177734375,-0.03834405144155025,0.0018584371159086003,0.0022823387835174797
1772569017848144000,4.802143798828125,-0.05121230084300041,0.005075051941699348,0.006525638909079134
1772569017858216000,4.8122158203125,-0.047321723145246505,0.003348748738900758,0.01069969145702198
1772569017868287000,4.822286865234375,-0.05046703543365001,0.0022353213040158153,0.009802596486825495
1772569017878359800,4.83235986328125,-0.05151508318185806,-0.0033784680237295105,0.005277209750562906
1772569017888431900,4.842431884765625,-0.058097968703508376,-0.008356950556044466,0.005661423295177519
1772569017898503700,4.852503662109375,-0.04702303245961666,-0.0008562834691954776,0.008669391205813734
1772569017908574700,4.86257470703125,-0.052560208320617675,-0.0018500848460942505,0.006130995301995426
1772569017918647800,4.872647705078125,-0.05345686489939689,-0.002398736271378584,0.0009591273557394743
1772569017928720000,4.882719970703125,-0.0548030188113451,0.004045918956515379,0.006069383041560649
1772569017938791700,4.892791748046875,-0.04552373381257057,-0.00021417247364297507,0.008805968398600816
1772569017948862700,4.90286279296875,-0.04746726909577846,0.00022091730826068667,0.01028174003958702
1772569017958934800,4.912934814453125,-0.05435118339061737,-0.0029717869189800693,-0.000977028338611126
1772569017969007600,4.923007568359375,-0.05659165579378605,-0.0018991070530144497,0.0069740585300140075
1772569017979079700,4.93307958984375,-0.05689210004508495,-0.0013745351896388455,0.0064704015905037516
1772569017989150700,4.943150634765625,-0.05435235243439674,0.0004411724628182128,0.00241796612823382
1772569017999222800,4.953222900390625,-0.0531605123013258,-0.0027060166888404637,0.0030982034773565825
1772569018009294800,4.963294921875,-0.0597439823448658,0.010330355821130796,0.0029622108064591883
1772569018019366700,4.97336669921875,-0.0365513228058815,0.008763033439172431,0.010726031474675983
1772569018029438700,4.983438720703125,-0.04598082993030548,0.003486714171175845,0.012560626490693538
1772569018039511800,4.99351171875,-0.05585632725656032,-0.0029246963742421937,0.006323339536320418
1772569018049582600,5.00358251953125,-0.053012628263235086,0.0038412084309617056,0.004843074383307248
1772569018059655000,5.013655029296875,-0.0474742833584547,0.00024024762981571257,0.004315835638809949
1772569018069727000,5.02372705078125,-0.054657472860813135,0.003046450457233004,0.008024882757198065
1772569018079799000,5.033799072265625,-0.06153904906809329,-0.0010235343614593147,0.0035920696752145885
1772569018089870800,5.043870849609375,-0.05645137054026127,0.002957383934292011,0.005943400308024138
1772569018099943000,5.05394287109375,-0.04268471099436283,0.0009551772664068266,0.012648980627581477
1772569018110015000,5.064014892578125,-0.0572036502122879,-0.002694746376154944,0.007125413166824728
1772569018120086800,5.074086669921875,-0.05271978279650211,-0.0003054081207839772,0.005547825119178742
1772569018130158800,5.084158935546875,-0.05421791239976883,-0.002727278672577813,0.010874627898819744
1772569018140231000,5.09423095703125,-0.05690963570177555,0.0033540094359079376,0.010464969385694712
1772569018150303000,5.104302978515625,-0.04897592009305954,-0.0000840478545287624,0.007262319153174757
1772569018160374800,5.114374755859375,-0.05226911641955375,-0.00946843719559256,0.007469258168432861
1772569018170446800,5.12444677734375,-0.05032207400500774,-0.002642326635750942,0.006930968306958675
1772569018180519000,5.134518798828125,-0.06603402239978313,-0.002819820360816084,0.010827592153009026
1772569018190591000,5.144591064453125,-0.058850832897424696,-0.004475748041411862,0.011449048519600182
1772569018200662800,5.154662841796875,-0.057204819256067276,-0.004071724684629589,0.00424138216311112
1772569018210731300,5.164731201171875,-0.052119478815793985,0.010610821296903303,0.0005498889677226543
1772569018220803300,5.17480322265625,-0.05600888746976852,0.009168006644025445,0.0013238690149039029
1772569018230875100,5.184875244140625,-0.054363458350300785,-0.0035273430090863255,0.01078366167973727
1772569018240947200,5.194947265625,-0.0584060117393732,0.00416270003686659,0.005319952913746238
1772569018251019300,5.205019287109375,-0.04463818314969539,0.0026771056881872935,-0.000579772649332881
1772569018261091300,5.21509130859375,-0.05885667811632156,-0.004125203870958648,0.0015788849555887282
1772569018271163100,5.2251630859375,-0.059010407373309134,0.004843855268019251,0.012471359038352966
1772569018281235200,5.235235107421875,-0.04853577511012554,-0.003489157290011644,0.00709700905624777
1772569018291307300,5.245307373046875,-0.0471913747638464,-0.006893198146414942,0.007760112607479095
1772569018301379300,5.25537939453125,-0.05257949754297733,0.0012537857536459342,0.016080854772403834
1772569018311451100,5.265451171875,-0.04525193113386631,0.0022599260223098096,0.002308569203317165
1772569018321523200,5.275523193359375,-0.05423252544701099,-0.0029765224596019833,0.007178312397841364
1772569018331595300,5.28559521484375,-0.046453123617172236,0.01151014475680422,0.0012723945559933781
1772569018341667000,5.2956669921875,-0.04735036471784115,0.0056725566105451436,0.0038390667062252757
1772569018351739100,5.3057392578125,-0.04959668233990669,0.004664708441984839,0.008619852975662798
1772569018361811200,5.315811279296875,-0.050201662495732303,-0.0046069732056465,0.007945552176982163
1772569018371883300,5.32588330078125,-0.048857262149453164,0.008660436147800646,0.00384476579464972
1772569018381955000,5.335955078125,-0.05334814382791519,0.002773707063612528,0.00918181597366929
1772569018392027100,5.346027099609375,-0.04736030158996582,0.01203880827340763,0.014654822290968149
1772569018402099200,5.35609912109375,-0.050201662495732303,-0.00471700945138,0.0033675584706477817
1772569018412171000,5.3661708984375,-0.05244271942079067,0.005372888677380979,0.00815446395361796
1772569018422243000,5.3762431640625,-0.05079787482321262,0.008406360922032036,0.006034658788051456
1772569018432315100,5.386315185546875,-0.04750526301860809,-0.0008125082595506683,-0.0005180507910437881
1772569018442387200,5.39638720703125,-0.04211655571758747,0.0038082879754714667,0.0092868655170314
1772569018452459000,5.406458984375,-0.04495733210146427,-0.004244181474973447,0.006636917263828218
1772569018462531000,5.416531005859375,-0.03777297355532646,-0.006944001318467781,0.009118340549711137
1772569018472603400,5.426603271484375,-0.053636313119530675,0.0038414824255974963,0.01667489340910688
1772569018482675200,5.43667529296875,-0.05213584542870521,0.006734920578473247,0.011990699381940067
1772569018492747300,5.446747314453125,-0.05377776741683483,0.002757482014596462,0.0061385392876341935
1772569018502819300,5.4568193359375,-0.05767243676781654,0.004328864083741791,0.004793718816246837
1772569018512891400,5.466891357421875,-0.04226268619000911,0.0019451472849817946,0.0036795287629589435
1772569018522963200,5.476963134765625,-0.0498924504160881,0.008823631919454783,0.0019588972491212187
1772569018533035300,5.48703515625,-0.050939329120516776,0.0005637165636755525,0.007642641973961144
1772569018543107300,5.497107421875,-0.049741059246659274,-0.006356570519064552,0.004351162680517882
1772569018553179400,5.507179443359375,-0.05198328521549701,-0.007365779527649283,0.005161310019623488
1772569018563251200,5.517251220703125,-0.059015083548426626,-0.0039896632912103085,0.008069032426178456
1772569018573323300,5.5273232421875,-0.03971300170719623,-0.0007257752575911582,-0.0008107501273043453
1772569018583395300,5.537395263671875,-0.04555003729760647,0.002878921003756113,0.010066599451564252
1772569018593467100,5.547467041015625,-0.041811435291171074,0.003933567456109449,0.006638762161042541
1772569018603539200,5.557539306640625,-0.05183773926496506,0.005683566628326662,0.002404449059534818
1772569018613611300,5.567611328125,-0.061118193307518956,0.000716532505210489,0.00841740747243166
1772569018623683300,5.577683349609375,-0.04615326388776302,0.0005786401381716132,0.005934614213369787
1772569018633755100,5.587755126953125,-0.0458534041583538,0.0022788133858703077,0.005959456393681466
1772569018643827200,5.5978271484375,-0.045106969705224036,0.0006639255351386964,0.006507189936935901
1772569018653899300,5.607899169921875,-0.05438157852888107,0.0023734922322677446,0.002154255424439907
1772569018663971000,5.61797119140625,-0.05991933891177177,0.00497137237151619,0.0035032771469093857
1772569018674043100,5.628043212890625,-0.053930912151932714,0.007099940798850729,0.003747936090361327
1772569018684115200,5.638115234375,-0.04405599934756756,0.009063158030062914,0.009701656863000244
1772569018694187300,5.648187255859375,-0.06754793409407138,0.002388361007836647,0.005666190801840275
1772569018704259000,5.658259033203125,-0.050637715825438495,0.0014001536880852653,0.0061934295463375744
1772569018714331100,5.6683310546875,-0.053629298856854433,-0.007140542237297632,0.009363419618271291
1772569018724403200,5.6784033203125,-0.04988777424097061,-0.001123081179219298,0.01205952683445066
1772569018734475000,5.68847509765625,-0.04510053996443748,-0.005764111918094568,0.003929174408782273
1772569018744547000,5.698547119140625,-0.044506081202626224,-0.0118953172826441,0.0030030908061191436
1772569018754619100,5.708619140625,-0.05333060817122459,-0.00027312698611058295,0.0048161681100726125
1772569018764691200,5.718691162109375,-0.050338440617918964,0.0026260604875395074,0.004965568251814693
1772569018774763000,5.728762939453125,-0.04944178403913974,-0.0007093995115254074,0.012966704807244241
1772569018784835000,5.7388349609375,-0.04839315176904201,-0.0010661587936338036,0.00747755107274279
1772569018794907100,5.7489072265625,-0.05003741184473037,0.002487460301024839,0.005295640456397086
1772569018804979200,5.758979248046875,-0.05467500851750374,-0.008355850010924041,-0.001367507227230817
1772569018815051300,5.76905126953125,-0.05856500169336795,0.0006124784756917506,0.004032488652784377
1772569018825123300,5.779123291015625,-0.06380173330307007,-0.0017950849895365536,0.009595365210622549
1772569018835195400,5.7891953125,-0.04674538456201553,-0.004482766870665364,-0.00022739728139713406
1772569018845266200,5.79926611328125,-0.04494914879500866,0.0017066532208351417,0.0044443025903776285
1772569018855338000,5.809337890625,-0.05467559303939342,0.0060722736849682405,0.003406337844766676
1772569018865410000,5.81941015625,-0.049288054782152174,-0.00022009989093057809,0.0058168513189069924
1772569018875482400,5.829482421875,-0.04854220485091209,-0.00230319890845567,0.009920468979142606
1772569018885554400,5.839554443359375,-0.054530047088861465,0.003673067056131549,0.010052315197885036
1772569018895626200,5.849626220703125,-0.049293315479159355,0.0005832889138255268,0.005720332141872495
1772569018905698300,5.8596982421875,-0.051989714956283566,0.00564946342932526,0.011557952254172414
1772569018915770400,5.869770263671875,-0.045558220604062075,-0.002140076202037744,0.012248181274347007
1772569018925842200,5.87984228515625,-0.050047348716855046,-0.00011739756828173994,0.007129468287434429
1772569018935914200,5.889914306640625,-0.06201601893007755,0.0017639272328699006,0.010052643991447984
1772569018945986300,5.899986328125,-0.05483399847149849,0.010177124321064912,0.008951185555569827
1772569018956058400,5.910058349609375,-0.04989654206931591,0.005399694485915824,0.004884995562583208
1772569018966130200,5.920130126953125,-0.04795125322043895,-0.000990486041805707,0.008289050118718297
1772569018976202200,5.9302021484375,-0.04346212510764599,-0.004198675532545894,0.008567337337136268
1772569018986274300,5.9402744140625,-0.04660334574282169,0.00023359869332052765,0.00816242806436494
1772569018996346000,5.95034619140625,-0.050046179673075675,0.005971183364093303,0.009724562814552336
1772569019006418200,5.960418212890625,-0.05632686737775802,0.006821375019219703,0.007331731127575039
1772569019016490200,5.970490234375,-0.05842179383039474,0.0029111838721204548,0.00912659692140296
1772569019026562300,5.980562255859375,-0.05123860432803631,0.01096545255400706,0.012133395788259803
1772569019036634000,5.990634033203125,-0.05602233147323131,-0.0007527363297529518,0.005290124031063169
1772569019046706200,6.0007060546875,-0.04913783265650272,-0.007715136388014071,0.008740410615410655
1772569019056778200,6.0107783203125,-0.04674304647445678,0.0056187623303849245,0.016854506026022134
1772569019066850300,6.020850341796875,-0.06245616391301155,0.0033921266563236713,0.003800798788759857
1772569019076922000,6.030922119140625,-0.046747722649574275,-0.004307478802418336,-0.0020607319220900533
1772569019086994200,6.040994140625,-0.05438274757266044,-0.0009823529676999897,0.006735865859966724
1772569019097066200,6.051066162109375,-0.06141571494936943,-0.005812522203661501,0.011368128770496696
1772569019107138000,6.061137939453125,-0.044508419290184974,-0.00147928790547885,0.004567198317684233
1772569019117210000,6.071210205078125,-0.04271101447939873,-0.0008753945950418711,0.011570629072654992
1772569019127282200,6.0812822265625,-0.04765022444725037,-0.005091971110459417,0.016452007906045764
1772569019137354200,6.091354248046875,-0.04854980363547802,0.0013926827676827088,0.005457662617694586
1772569019147426000,6.101426025390625,-0.050344285836815834,-0.0033295371483545748,0.004739997601322829
1772569019157498000,6.111498046875,-0.055879708132147786,0.0015017097998410462,0.009289276669826358
1772569019167570200,6.121570068359375,-0.05079144508242607,-0.005026573157473467,0.0018413170177489517
1772569019177642000,6.13164208984375,-0.05842413191795349,-0.002570562874060124,0.0038842210222035643
1772569019187714000,6.141714111328125,-0.056629065194725985,0.001938662745268084,0.010983111508283764
1772569019197786000,6.1517861328125,-0.04749941779971122,0.00008308430672623216,0.009286481924541293
1772569019207859200,6.161859130859375,-0.05677928732037544,0.007030076733301393,0.01131502861008048
1772569019217931300,6.17193115234375,-0.04824643677473068,0.008860698827099986,0.014010715701151638
1772569019228002300,6.182002197265625,-0.05857026239037513,-0.0027830639804247766,0.0035999972533434627
1772569019238074400,6.192074462890625,-0.04809270751774311,-0.005415038185520097,0.009974208460375666
1772569019248146200,6.202146240234375,-0.05332476295232773,0.005651445323857479,0.0056972069946117695
1772569019258218200,6.21221826171875,-0.06724164462387561,0.0074734320200514045,0.009524400599952786
1772569019268290300,6.222290283203125,-0.06140636259913444,-0.0056685562888626004,0.0014238587906584142
1772569019278362400,6.2323623046875,-0.05167933383285999,0.0031616104026557876,0.0026460757956840095
1772569019288434200,6.24243408203125,-0.05033610253036022,-0.005746841122885234,0.008057652515638619
1772569019298506200,6.25250634765625,-0.05512801298201084,-0.005797603195742703,0.018123448249604553
1772569019308578300,6.262578369140625,-0.052585927283763885,-0.002560991328116506,0.004863897975627332
1772569019318650400,6.272650390625,-0.054529462566971776,-0.0008919941033935174,0.009875442527327687
1772569019328722200,6.28272216796875,-0.050937575554847715,-0.008409977651224471,0.007663502098899334
1772569019338794200,6.292794189453125,-0.05871873095035553,-0.002303500302555039,0.015280717370659112
1772569019348866300,6.3028662109375,-0.057822074371576306,-0.004478273358638398,0.002325776066444814
1772569019358938000,6.312938232421875,-0.052587096327543256,0.0028475075187627224,0.008236589279118925
1772569019369010400,6.323010498046875,-0.04854980363547802,0.002495899335807189,0.0054363641013391315
1772569019379082500,6.33308251953125,-0.0650111090928316,-0.0005600724350195378,0.005567114341538399
1772569019389154600,6.343154541015625,-0.05738017582297325,-0.001137004673294723,0.009438603746332227
1772569019399226400,6.353226318359375,-0.05394260258972645,-0.0021262257731985298,-0.0007313099492341279
1772569019409298400,6.36329833984375,-0.06157061325013637,-0.005334100170107558,0.010474851458892225
1772569019419370500,6.37337060546875,-0.06396423038840293,0.0045490279067540535,0.0044981151368469
1772569019429442300,6.3834423828125,-0.06112462304830551,-0.0017000271172262727,0.007401398830302059
1772569019439514400,6.393514404296875,-0.05529284815490246,-0.0011134365680394694,0.010570055461674928
1772569019449586400,6.40358642578125,-0.05514437959492206,0.002369414278771728,0.007555676076561212
1772569019459658500,6.413658447265625,-0.054847442474961275,-0.001884516838658601,0.012868011939432471
1772569019469730300,6.423730224609375,-0.05709434461891651,-0.005514233376830816,0.008603723824769259
1772569019479802400,6.43380224609375,-0.059036126336455344,-0.0012910581572679802,0.006556198444124311
1772569019489874400,6.44387451171875,-0.059036710858345026,-0.007293641306622885,0.008230068206787108
1772569019499946200,6.4539462890625,-0.05439736061990261,0.004042905015521682,0.01291471889168024
1772569019510018300,6.464018310546875,-0.056790393236279484,-0.009262110101687721,0.014306739505659787
1772569019520089300,6.47408935546875,-0.05634674112200737,0.0010143646743148566,0.007099730736296624
1772569019530161400,6.484161376953125,-0.04841945525407791,-0.00031442711087875067,0.0053108014929108315
1772569019540233500,6.4942333984375,-0.05574935975074768,-0.005783273276290856,0.008820891973096876
1772569019550305300,6.50430517578125,-0.04527589653134346,0.00596886354284361,0.010142514231987297
1772569019560377300,6.51437744140625,-0.050665772876143454,0.001554325903067365,0.00900972907608375
1772569019570449400,6.524449462890625,-0.069669164031744,0.006556550070573575,0.012181947637721895
1772569019580521500,6.534521484375,-0.057848962378501886,0.009305168358702213,0.004080382915120572
1772569019590593300,6.54459326171875,-0.04962123225927353,-0.0042026301884558045,0.005956077126506715
1772569019600665300,6.554665283203125,-0.04961947869360447,-0.003408379104803316,0.00615660466728732
1772569019610737400,6.5647373046875,-0.048722822114825245,0.001609060898143798,0.011773494700994341
1772569019620809200,6.574809326171875,-0.05246610029637813,0.0073306945145362986,0.009297916634008288
1772569019630881300,6.58488134765625,-0.050963879039883614,0.005580622277082875,0.010703819642867892
1772569019640953300,6.594953369140625,-0.04812251813411712,-0.006284016739507205,0.005072517491318285
1772569019651025400,6.605025390625,-0.05830021327733993,0.00044893564416561275,0.0030298692151904103
1772569019661097200,6.61509716796875,-0.056357262516021724,0.0016839025329099967,0.00953009968837723
1772569019671169300,6.625169189453125,-0.04947334822118282,0.000968128079525195,0.01270443714186549
1772569019681241300,6.635241455078125,-0.04752864389419555,0.008182662568218074,0.01116387490266934
1772569019691313200,6.645313232421875,-0.053960722768306726,0.008112752836896105,0.008533836926333607
1772569019701385200,6.65538525390625,-0.053358665221929544,-0.004918486840231343,0.01571107161194086
1772569019711457300,6.665457275390625,-0.05380640898942947,0.001687998752715066,0.0063255862923339
1772569019721529300,6.675529296875,-0.054555181530117985,0.0010799270240822807,0.0054218423856422305
1772569019731601200,6.68560107421875,-0.05410626871883869,0.005966050531249493,0.007780296878982335
1772569019741673200,6.695673095703125,-0.0386947645753622,0.00022955270586535334,0.00637371801668778
1772569019751745300,6.705745361328125,-0.055609659019112585,-0.001635903239296749,0.007223210985492915
1772569019761817300,6.7158173828125,-0.06324293037652969,0.010792109847674146,0.010432930279616266
1772569019771888400,6.725888427734375,-0.05561082806289196,-0.0007538049088325351,0.0094120810655877
1772569019781960200,6.735960205078125,-0.044836336070299146,0.0031115835487376896,0.004494169614091516
1772569019792032300,6.7460322265625,-0.054262920585274696,0.005987075052969157,0.006753036190476268
1772569019802104300,6.756104248046875,-0.06010054069757461,0.00508071906408295,0.011367982640024274
1772569019812176100,6.766176025390625,-0.05680851341485977,0.00547888806881383,0.004779069236386567
1772569019822248200,6.776248291015625,-0.05411386750340461,0.0050878063919954,0.0035899507833644746
1772569019832320500,6.786320556640625,-0.06847849294245242,0.0026290744285332036,0.015283566914871333
1772569019842392300,6.796392333984375,-0.05740589478611946,0.009488365738769062,0.004164462735690176
1772569019852464400,6.80646435546875,-0.05157353537082672,0.010100921846274286,0.008075736161600799
1772569019862536400,6.816536376953125,-0.04857727616429328,0.010748978525423444,0.012870971081499009
1772569019872608500,6.8266083984375,-0.0488730442404747,-0.0044972566203214225,0.014357099719718098
1772569019882680300,6.836680419921875,-0.06863105315566062,-0.00410177276302129,0.0021719189452938732
1772569019892752400,6.84675244140625,-0.047535073634982106,0.008514949562773108,0.00811314556254074
1772569019902824400,6.856824462890625,-0.04918459440767765,0.006623057701834477,-0.003243018775526434
1772569019912896500,6.866896484375,-0.06280103182792664,0.0006380010760156438,0.0039684835058636965
1772569019922968300,6.87696826171875,-0.05277765046358108,0.002749906062916852,0.0008444332011975348
1772569019933040400,6.887040283203125,-0.0497837293446064,0.006269581788778305,0.0019550795905292034
1772569019943112400,6.897112548828125,-0.05637012199759483,0.005968667180021293,0.00006696428898721933
1772569019953184300,6.907184326171875,-0.04649579371511936,-0.0006217988598858937,0.010166278700064868
1772569019963256300,6.91725634765625,-0.046048634469509124,0.0021709462643368167,0.014428922846913337
1772569019973328400,6.927328369140625,-0.06325695890188217,0.005135992915276438,0.0073706383658573025
1772569019983399400,6.9373994140625,-0.06250760183930397,-0.0061545862401369954,0.0014589849029667675
1772569019993471500,6.947471435546875,-0.05083762231171131,0.002213451965502463,0.009969897611439228
1772569020003543300,6.957543212890625,-0.054876668569445605,0.006538562322733923,0.012143862383347004
1772569020013615400,6.967615478515625,-0.05428045624196529,0.005006585248792544,0.003207216809783131
1772569020023687400,6.9776875,-0.05966624093353748,-0.0036015544561902057,0.009229582371842116
1772569020033759200,6.98775927734375,-0.05891513030529022,0.008981156002148055,0.01004471641331911
1772569020043831300,6.997831298828125,-0.04948620770275593,0.007758053081133402,0.01116866067564115
1772569020053903400,7.0079033203125,-0.05427636458873748,0.007087359878490678,0.005521229373198002
1772569020063975400,7.017975341796875,-0.057418169745802876,0.005272620340413414,0.005139883639104664
1772569020074047200,7.028047119140625,-0.05876432365775108,0.008241676446190104,0.010854096567444503
1772569020084119300,7.038119384765625,-0.054125557941198346,0.0016861629886552691,0.005456237845588475
1772569020094191400,7.04819140625,-0.05966156475841999,0.00525992068904452,0.003992193175014108
1772569020104263400,7.058263427734375,-0.053529930135607716,0.0036178251709789036,0.006249397517275065
1772569020114335200,7.068335205078125,-0.049340661752223965,0.010194828941114247,0.007257843907456845
1772569020124407300,7.0784072265625,-0.05053659353852272,0.003495029908372089,0.00207441338757053
1772569020134479400,7.088479248046875,-0.05577332514822483,0.014786937937769107,0.004488178264722227
1772569020144551200,7.09855126953125,-0.05562134945690632,0.009672430768515913,0.0018796945330686865
1772569020154623200,7.108623291015625,-0.0539794274687767,-0.0019087379644624888,0.00498525933297351
1772569020164695300,7.1186953125,-0.05592062466442585,0.004498498729337007,0.005590367352962493
1772569020174767400,7.128767333984375,-0.05307809471487999,0.009165568091766909,0.00033016353612765666
1772569020184838400,7.13883837890625,-0.056525604820251464,-0.002958735641161911,0.0032475853527896103
1772569020194910200,7.14891015625,-0.0547287845313549,0.001801775025227107,0.010001480059791356
1772569020204982300,7.158982177734375,-0.05907119764983654,-0.0021295091422507536,-0.0005849968137219548
1772569020215053000,7.169052978515625,-0.04665069201588631,0.0005924677341245115,0.003171122583094984
1772569020225125000,7.179125,-0.06251169349253177,0.005400849829963408,-0.0006880187967792153
1772569020235197200,7.189197265625,-0.05383388151824474,0.007858111355546862,0.00512048481889069
1772569020245269000,7.19926904296875,-0.05592822344899177,0.0016885193425230682,0.0004911627841182053
1772569020255341000,7.209341064453125,-0.05488368283212185,0.004649250577948987,0.003206650554202497
1772569020265413000,7.2194130859375,-0.04844985039234161,-0.006360369911347515,0.01128026782395318
1772569020275485000,7.22948486328125,-0.04979249717295169,-0.007642742438660934,0.004999068662617356
1772569020285557000,7.239556884765625,-0.04874386490285396,-0.003447774966852739,0.005043419260997325
1772569020295629000,7.249629150390625,-0.04814239187836647,0.0010793059695744886,0.0015895890126936137
1772569020305701000,7.259701171875,-0.04994213477671146,0.0023380327598191797,0.004425177764799446
1772569020315773000,7.26977294921875,-0.050691491839289664,0.007155744373006746,0.007240070788748562
1772569020325845000,7.279844970703125,-0.05712766236662865,0.009321356875100172,0.005977795767970383
1772569020335917000,7.2899169921875,-0.0596738397181034,0.0014576423292513936,0.011291483337711542
1772569020345988900,7.29998876953125,-0.04935118314623833,0.00623303090436384,0.008201938090845943
1772569020356061000,7.31006103515625,-0.05025368494391441,-0.0032981601959792897,0.0018868001272901891
1772569020366132000,7.320132080078125,-0.05459434449672699,0.004266343074431643,-0.00011367124123498796
1772569020376204000,7.3302041015625,-0.059685530155897136,0.0017158822734840214,0.0019962883837521075
1772569020386276000,7.340276123046875,-0.06342588572800159,-0.0017942310395883394,0.003332468890957534
1772569020396348000,7.350347900390625,-0.05893968022465706,0.0014359830532921477,0.0026117534009739755
1772569020406420000,7.360419921875,-0.05011164612472057,0.0038383177875541147,0.0069258354741148645
1772569020416492000,7.370491943359375,-0.06642565206587314,0.0052718531554332,0.005420910803880542
1772569020426564000,7.380564208984375,-0.05984101297855377,0.00716375871610362,0.007516330446861684
1772569020436636000,7.390635986328125,-0.05939268468916416,0.005805005617486312,0.003484060989785939
1772569020446708000,7.4007080078125,-0.06462941629886627,0.0018673008423764257,0.010387885561492293
1772569020456780300,7.4107802734375,-0.05176233594119548,-0.004306830348446965,0.00956540846377611
1772569020466852000,7.42085205078125,-0.04248772711753845,-0.0068803295316873115,0.003596015197969973
1772569020476924200,7.430924072265625,-0.05805237599611282,0.006278806274849921,0.004389686326310038
1772569020486996200,7.440996337890625,-0.05221650944948196,0.00296012844722718,0.008074841112457215
1772569020497068300,7.451068359375,-0.05805003790855407,0.006407446756353601,0.007548716612812131
1772569020507140000,7.46114013671875,-0.06029343292117118,-0.00009200283212121575,0.0032624541283585128
1772569020517212200,7.471212158203125,-0.048021395847201345,0.00393132526667323,-0.000701134006679058
1772569020527284200,7.4812841796875,-0.05400689999759197,-0.0026927873145090415,-0.002094469794910401
1772569020537356000,7.49135595703125,-0.05400573095381259,0.004103718124935403,0.001849500324204564
1772569020547427000,7.501427001953125,-0.05669453164637089,0.011107011882588266,0.0072565652658231556
1772569020557499100,7.5114990234375,-0.05325052867233753,0.004750222167815081,0.0021038586777634917
1772569020567571200,7.5215712890625,-0.05100187296271324,-0.00011199987395666539,0.002590235688909888
1772569020577643300,7.531643310546875,-0.05294190111458301,-0.004997684989706613,0.009710168963018804
1772569020587715000,7.541715087890625,-0.05667991859912872,-0.007472418239898979,0.0016042020599357782
1772569020597787100,7.551787109375,-0.053985857209563254,-0.006126186696137301,0.0030127719499170777
1772569020607859200,7.561859130859375,-0.05129705651700496,0.0009522592235356569,0.0015372195046395062
1772569020617931000,7.571930908203125,-0.064318450653553,0.003065187123743817,0.0056281786127015945
1772569020628003000,7.582003173828125,-0.06117430740892887,-0.007241349430382251,0.005061521173268556
1772569020638075100,7.5920751953125,-0.05488718996345997,-0.0017158640071749686,0.003645863955374807
1772569020648147200,7.602147216796875,-0.056084875315427773,0.005744105743104592,0.0028602665356360375
1772569020658219000,7.612218994140625,-0.05953121637701988,0.0020569005637662485,0.005232292896602302
1772569020668291000,7.622291015625,-0.05788637177944183,0.007954461569222622,0.008064228386897593
1772569020678363100,7.632363037109375,-0.05504559539556503,-0.006248616632563062,0.00018120178580284117
1772569020688435200,7.642435302734375,-0.05324877510666847,-0.0019944389199605212,0.005338091358635574
1772569020698507000,7.652507080078125,-0.048907531031966205,0.0036282780663343143,0.010515037338808179
1772569020708578000,7.662578125,-0.05653846430182457,0.004769315027352422,0.005922795911412686
1772569020718650000,7.672650146484375,-0.050854573446512216,0.008066388377943075,0.007797156682237983
1772569020728722200,7.68272216796875,-0.05878302835822105,0.0017213302001589908,0.000535568181425333
1772569020738794000,7.6927939453125,-0.04770633854866028,0.00035323845103848723,0.0038199053480289873
1772569020748866000,7.702865966796875,-0.042920273315906525,0.006448847345821559,0.008050345992017536
1772569020758938000,7.712938232421875,-0.05384031125903129,0.0017992086088052018,0.011768544531241059
1772569020769010200,7.72301025390625,-0.058927405264973635,0.005798479978577234,0.004936196026857942
1772569020779082000,7.73308203125,-0.06656009210050105,0.005116420565126464,0.004607000605110078
1772569020789154000,7.743154052734375,-0.05219488213956356,-0.00023200952443294226,0.00912612199736759
1772569020799226000,7.75322607421875,-0.05578618462979793,0.0024506445551291107,0.005980955839436501
1772569020809298000,7.7632978515625,-0.052642041385173796,0.0020404426193097605,0.0009209325035102665
1772569020819370000,7.773369873046875,-0.055336102774739264,0.010635430581774562,0.007155424712598324
1772569020829442000,7.783442138671875,-0.04949906718432903,0.009130958002689295,0.005249189232476055
1772569020839514000,7.79351416015625,-0.04860416417121887,-0.00005670318987686187,0.012762432673107832
1772569020849586000,7.8035859375,-0.04860474869310855,0.0019682587325107305,0.003323847193084657
1772569020859657000,7.813656982421875,-0.059230772125720976,0.0021497208132175726,0.012988807041198015
1772569020869729000,7.82372900390625,-0.053393736535310744,0.00023253468081820754,0.008862356494646518
1772569020879801000,7.833801025390625,-0.049349429580569266,0.0011657741100527346,0.003448642616532743
1772569020889873200,7.843873046875,-0.06101765554249286,0.0012760112851858138,0.0025288060915656385
1772569020899945000,7.853945068359375,-0.0466553681910038,-0.003709353079064749,0.004402217014320194
1772569020910017000,7.86401708984375,-0.05473521427214145,0.009170449762861244,0.0032220855853520333
1772569020920089000,7.874089111328125,-0.049047816285490986,0.01087134452976752,0.005933262506499886
1772569020930161000,7.884160888671875,-0.04755144024789333,0.00018880513694602996,0.009516619152296334
1772569020940233000,7.89423291015625,-0.04799801497161388,0.007298011521063744,0.005383738864958286
1772569020950305000,7.904304931640625,-0.047996261405944825,0.0032698154509067535,0.006024721915926784
1772569020960377000,7.914377197265625,-0.0384159476339817,-0.001161413028766401,0.008081471782643347
1772569020970449000,7.924448974609375,-0.05861468605399132,-0.0023245430905837563,0.002040584183204919
1772569020980521200,7.934521240234375,-0.055924131795763964,0.003565323232184164,0.007327584675420076
1772569020990593300,7.94459326171875,-0.0466466003626585,-0.002671931756148115,0.008102898163162172
1772569021000665000,7.9546650390625,-0.05113280586600304,0.01169532859798055,-0.001807780074328184
1772569021010737200,7.964737060546875,-0.05008475811779499,-0.001793390789371915,0.008245028313901274
1772569021020808000,7.974807861328125,-0.04828735330700874,0.010181152042211032,0.0058627910861745475
1772569021030878000,7.9848779296875,-0.04724398173391819,-0.0030871021280298007,-0.0004287650723941624
1772569021040950000,7.994949951171875,-0.05278174211680889,-0.002000603799265809,0.005532243957556784
1772569021051022000,8.00502197265625,-0.05233107573986053,0.0016140384673606603,0.0036208025793544947
1772569021061094100,8.01509423828125,-0.055770987060666084,-0.006906888745049945,-0.0015463891917839646
1772569021071166000,8.025166015625,-0.0467903927475214,0.008047395983105525,0.006917761765513569
1772569021081238000,8.035238037109375,-0.046344402545690534,0.003161094379425049,0.011121971989702432
1772569021091310000,8.04531005859375,-0.04185410538911819,0.0037451641779625787,0.014858217642270027
1772569021101382100,8.055382080078125,-0.05307867923676967,0.008093130254396237,0.004168061198573559
1772569021111454000,8.065453857421875,-0.041110593545436856,-0.006477904476947151,0.0046761020522564645
1772569021121526000,8.075526123046876,-0.036923663249611854,-0.006698337728017941,0.00009962444957345723
1772569021131598000,8.08559814453125,-0.04335808021128178,-0.0058290029810043045,-0.00005932897180318832
1772569021141670000,8.095669921875,-0.046503392499685284,0.000599573328346014,0.009893471374362707
1772569021151742000,8.105741943359375,-0.05054945302009582,0.0015198847773484885,0.005765358593687415
1772569021161814000,8.11581396484375,-0.039026188486814495,0.005159871547785588,0.004619732222519815
1772569021171885000,8.125885009765625,-0.04516308380663395,0.0025339023917913435,0.002481478084810078
1772569021181957000,8.13595703125,-0.053395490100979805,0.0002508101230254397,0.010938103322777896
1772569021192029000,8.14602880859375,-0.0521972202271223,0.009284609627863392,0.009473364532459526
1772569021202101000,8.15610107421875,-0.043673137509822844,0.01190241831028834,0.005691489639878273
1772569021212173600,8.166173583984374,-0.04352174634039402,-0.0014760045364266262,0.0048965581362135704
1772569021222245400,8.176245361328125,-0.036038697108626366,-0.0049079563130624585,0.010328666187543422
1772569021232317400,8.1863173828125,-0.0556394696354866,-0.0044443254232639446,0.00831621212027967
1772569021242389500,8.196389404296875,-0.0463590155929327,0.0044674368707928805,0.0057164414180442685
1772569021252461300,8.20646142578125,-0.04261573741137981,0.0017811660620383918,0.007313136024959385
1772569021262533400,8.216533447265626,-0.044407297003269196,0.004398814914259128,0.0077845346626825625
1772569021272605400,8.22660546875,-0.049345922449231146,0.0023741361196618527,-0.002097940393630415
1772569021282677500,8.236677490234374,-0.037678281009197234,-0.005886094329948537,0.005529686674289405
1772569021292749300,8.246749267578124,-0.045907764694094653,-0.003828020155825652,0.005241024192329496
1772569021302821400,8.2568212890625,-0.05114683439135551,0.00311399926810991,0.0029019502528943118
1772569021312893400,8.2668935546875,-0.03753039697110653,0.003159162717242725,-0.0005512954735197126
1772569021322964500,8.276964599609375,-0.04964753574430942,-0.0019688843535957856,0.0036126740718260405
1772569021333036500,8.28703662109375,-0.0482978747010231,0.00776995358148124,0.005679360810667276
1772569021343108400,8.2971083984375,-0.050690907317399975,0.004219403226743452,0.004653871954139322
1772569021353180400,8.307180419921876,-0.04919862293303012,0.008077074168738908,0.010759184825606644
1772569021363252500,8.31725244140625,-0.04665712175667286,0.006203188321948982,0.0067536207123659545
1772569021373324300,8.32732421875,-0.05353694439828396,0.00005328282350674271,0.0021886874170042574
1772569021383396400,8.337396240234375,-0.05189034623503685,0.0068075108906487,0.005978690817113965
1772569021393468400,8.347468505859375,-0.04769698619842529,-0.0030815628698095676,0.00072261518612504
1772569021403540500,8.35754052734375,-0.05054068519175052,0.003241653368924744,0.004008797249943017
1772569021413612300,8.3676123046875,-0.04590075043141842,-0.0007928400112781674,0.010632635836489499
1772569021423684400,8.377684326171876,-0.046055064210295676,-0.004096000609360635,0.01043660180773586
1772569021433756400,8.38775634765625,-0.04575637352466583,-0.0027679942754562942,0.008029741595406086
1772569021443828200,8.397828125,-0.04021861314177513,-0.001173217630991712,0.007048676402494311
1772569021453900300,8.407900390625,-0.05623159030973911,-0.011595790913375094,0.004892119423113763
1772569021463971300,8.417971435546875,-0.05114391178190708,-0.005469645316433161,-0.0037817287621088325
1772569021474043400,8.42804345703125,-0.042615152889490124,0.0026528343300335107,0.006074899466894566
1772569021484115500,8.438115478515625,-0.04172141892015934,0.0030833210020558906,0.007906991998571903
1772569021494187300,8.448187255859375,-0.04576397230923176,-0.0021798647897318005,0.004794778262171894
1772569021504259300,8.45825927734375,-0.04606558560431003,0.007425903083896264,0.003515241579338908
1772569021514331400,8.468331298828126,-0.05115560221970081,0.00797435814635828,-0.000020513065066188574
1772569021524403500,8.478403564453124,-0.050854573446512216,-0.0017547529791481793,0.0010380560771562158
1772569021534475300,8.488475341796875,-0.050558805370330806,-0.0017044932297896594,0.015741211021877824
1772569021544547300,8.49854736328125,-0.04128361202478409,-0.0013437381925759837,0.006073255499079823
1772569021554619400,8.508619384765625,-0.04741524664759636,0.0031997824219986795,-0.0010876308399252594
1772569021564691200,8.518691162109375,-0.047860652327537535,-0.00039217308878432955,0.00414281715946272
1772569021574763300,8.52876318359375,-0.04112520659267902,-0.00043972485782578583,-0.005099953487515449
1772569021584835300,8.53883544921875,-0.044566286957263945,0.0033303043333347887,0.0055720462449826294
1772569021594907400,8.548907470703124,-0.054290393114089966,-0.0005988655088702216,0.009394545408897101
1772569021604979200,8.558979248046874,-0.0529424856364727,0.003949418045789935,0.010757376461010425
1772569021615051300,8.56905126953125,-0.05803191772997379,0.0026730186015367506,0.010358111477736383
1772569021625124400,8.579124267578125,-0.044865562164783476,-0.003963332406710833,0.012031488050054759
1772569021635196400,8.589196533203125,-0.047560792598128315,-0.002542971614236012,0.006560746755078435
1772569021645268500,8.5992685546875,-0.052794017076492304,0.0002353568255668506,0.009232998171634971
1772569021655340500,8.609340576171874,-0.04830255087614059,0.007509845907147973,0.003795848619006574
1772569021665412400,8.619412353515624,-0.05114508082568645,0.00324915168879088,0.006938439227361232
1772569021675484400,8.629484375,-0.04785188449919223,0.011000519300810993,0.0074589377038180825
1772569021685556500,8.639556396484375,-0.049797757869958874,0.0006989785822108387,0.008938892329577355
1772569021695628300,8.649628173828125,-0.05084522109627723,-0.00915478640284855,0.0017696217547170817
1772569021705700400,8.659700439453125,-0.055037996610999104,-0.0017247642662608996,0.00656989817591384
1772569021715772400,8.6697724609375,-0.04276829762458801,0.0005360065728425979,0.005659304403327405
1772569021725844500,8.679844482421874,-0.043967152020335194,0.0014927136426325887,0.002766560370195657
1772569021735916300,8.689916259765624,-0.054286885982751845,0.010623635112703778,0.00023505086489021776
1772569021745988400,8.69998828125,-0.053986441731452936,-0.00012171298379544168,0.000993230554740876
1772569021756060400,8.710060302734375,-0.05114566534757614,0.00246530783472117,0.00041787835219874976
1772569021766131500,8.72013134765625,-0.05637888982594013,0.002363354430743493,0.00263811168493703
1772569021776203500,8.73020361328125,-0.06071896485686302,-0.0013787775399163365,0.0022235030020587147
1772569021786275300,8.740275390625,-0.04785129997730255,0.000852849403093569,0.005213825658150017
1772569021796347400,8.750347412109376,-0.05773147347867488,-0.0020466211983468383,0.007223028322402387
1772569021806419500,8.76041943359375,-0.053093292284011835,0.0011670618848409503,0.0050934872141107914
1772569021816491300,8.7704912109375,-0.0506985061019659,-0.001746341343829408,0.0020933738163672385
1772569021826563300,8.780563232421875,-0.050994858700037,-0.002818847679859027,-0.00034236543057486414
1772569021836635400,8.790635498046875,-0.053090369674563404,0.012544995096721686,0.00515950165502727
1772569021846707500,8.80070751953125,-0.06102116267383098,0.010343772425130009,-0.003963478537183255
1772569021856779300,8.810779296875,-0.049203883630037304,-0.0008207965972833335,0.0027878040876239537
1772569021866851300,8.820851318359376,-0.04935293671190739,-0.006387856139894574,0.002142144861537963
1772569021876923400,8.83092333984375,-0.05294599276781082,0.007214470556611194,0.007603168480098247
1772569021886995200,8.8409951171875,-0.047858314239978786,-0.0048224151877686375,0.00030322073027491567
1772569021897067300,8.8510673828125,-0.051447278642654415,-0.006407579187094233,0.005606514770165085
1772569021907139300,8.861139404296875,-0.05324351440966129,0.0007597003600792959,0.012017349926847963
1772569021917210400,8.87121044921875,-0.05129764103889465,0.00259076997844968,0.010806786826997995
1772569021927282400,8.881282470703125,-0.04860357964932918,0.002735114919161424,0.0006590666969306766
1772569021937354200,8.891354248046875,-0.05937573355436325,0.002882615364762023,0.003877663417253643
1772569021947426300,8.90142626953125,-0.05279284803271293,-0.002574933088500984,0.013970383690763264
1772569021957498400,8.911498291015626,-0.049501405271887775,0.00164790877092164,0.006475223896093666
1772569021967570400,8.9215703125,-0.05608779792487621,0.006413154977932572,0.01061813238710165
1772569021977642200,8.931642333984374,-0.05564122320115566,0.0036224556803237645,0.001854706222284585
1772569021987714300,8.94171435546875,-0.051452539339661596,0.0004619047235930338,0.007053955365810543
1772569021997786400,8.951786376953125,-0.052497664478421205,-0.0006918455885257572,0.006399656175542622
1772569022007858200,8.961858154296875,-0.046211716076731676,-0.0021286734586115925,0.003466945458203554
1772569022017930200,8.97193017578125,-0.053097383937239645,0.0035855212034191933,0.0023289726705290376
1772569022028002300,8.982002197265626,-0.05564180772304535,0.005299307417939417,0.0031905762022361155
1772569022038074400,8.992074462890624,-0.04816168110072613,0.00550791323389858,0.01026581181809306
1772569022048146400,9.002146484375,-0.05594517458379268,-0.00009717676416039466,0.0003333236075937748
1772569022058217200,9.01221728515625,-0.04712006309330463,0.001563641720684245,0.003184712717030197
1772569022068289300,9.022289306640625,-0.037545010018348694,-0.000526768387039192,0.0010217990620993078
1772569022078361300,9.032361328125,-0.059541737771034234,-0.002428514921711758,0.0031157026014290747
1772569022088433200,9.04243310546875,-0.05594634362757206,0.009885315467370674,0.006901614348310977
1772569022098505200,9.052505126953125,-0.05175590620040893,0.009724914441001601,0.00541488292189315
1772569022108577500,9.06257763671875,-0.04412555745244026,0.0009484187320573255,0.0013046711240895092
1772569022118649600,9.072649658203124,-0.04427811766564846,0.004482383278175257,0.002860156937781721
1772569022128721400,9.082721435546874,-0.06253156723678112,-0.004512810382479801,0.0010076609388925135
1772569022138793500,9.09279345703125,-0.05011164612472057,-0.007852608629944734,0.00009686623690649867
1772569022148865500,9.102865478515625,-0.05609773479700088,0.0013483093364164232,0.00020456439508125185
1772569022158937300,9.112937255859375,-0.05400222382247448,-0.00547868713941425,0.010809471974428742
1772569022169009400,9.123009521484375,-0.05295768320560455,0.0029564523525303227,0.004721292900852859
1772569022179081500,9.13308154296875,-0.05280921464562416,0.00342659974808339,0.008291260342113672
1772569022189152500,9.143152587890626,-0.04996083947718143,0.00164480349838268,0.007111238510999828
1772569022199224600,9.153224609375,-0.050556467282772063,-0.0016430225332500412,0.0043493908485397696
1772569022209296400,9.16329638671875,-0.050855157968401905,-0.002220411429251544,0.008550313137099147
1772569022219372500,9.17337255859375,-0.04935936645269394,0.0053034127708990126,0.004806961890310049
1772569022229444600,9.183444580078126,-0.04621756129562855,0.0010621356390649451,0.008057232390530408
1772569022239516400,9.193516357421874,-0.05504793348312378,0.000478732560807839,0.007842037003580481
1772569022249588500,9.20358837890625,-0.06237666893601417,0.0033398621795466166,-0.0012860029562376438
1772569022259660500,9.21366064453125,-0.05848609123826026,0.001675390432891436,0.003044865854922682
1772569022269732400,9.223732421875,-0.05370119504928589,0.0015309998264070599,0.009638966890331358
1772569022279804400,9.233804443359375,-0.05489712683558464,0.004195131868589669,0.009526976149529218
1772569022289876500,9.24387646484375,-0.043678398206830026,0.009781275137583725,0.0064896177476271985
1772569022299948500,9.253948486328126,-0.045918286088109016,0.0007739435145631432,0.005174425229523331
1772569022310020400,9.264020263671876,-0.06117956810593605,-0.00322925511165522,-0.00011953472644090652
1772569022320092400,9.274092529296874,-0.06551555148363113,-0.0032078332977136595,-0.0000807736186310649
1772569022330163500,9.28416357421875,-0.05623685100674629,-0.005423993243533186,0.006993274687137454
1772569022340235500,9.294235595703125,-0.05878185931444168,0.005101633987948298,0.0017283946951851248
1772569022350307600,9.3043076171875,-0.05249883352220058,-0.0010804704467765986,0.0074844192049466065
1772569022360379400,9.31437939453125,-0.04666472054123878,0.006929201041557826,0.006693561088200658
1772569022370451500,9.324451416015625,-0.047262686434388156,0.008346369796525687,0.008220478394534438
1772569022380523500,9.3345234375,-0.05145487742722034,0.0052300141745479775,0.010240640844218432
1772569022390595300,9.34459521484375,-0.04636836794316768,0.004105206829123199,0.0043693559243343765
1772569022400667400,9.35466748046875,-0.050256023031473154,0.000395497557031922,0.004058043219149113
1772569022410739500,9.364739501953125,-0.05249707995653152,-0.0043415135027607904,0.0019138525309972463
1772569022420811500,9.3748115234375,-0.05249707995653152,0.0022581633234862236,0.001771649315021932
1772569022430883300,9.38488330078125,-0.05518997230231762,-0.0019550887236837295,0.006739573920704424
1772569022440955400,9.394955322265625,-0.06072597911953926,-0.0002640212310478091,-0.0019475721375085413
1772569022451026400,9.4050263671875,-0.05294365468025207,0.000457146350084804,0.014540091603808104
1772569022461098500,9.415098388671876,-0.052496495434641834,-0.005011667849286459,0.009401468340028077
1772569022471170300,9.42517041015625,-0.05279693968594074,-0.0005021956347860396,-0.00306753434445709
1772569022481242400,9.435242431640624,-0.052501756131649015,0.005473294011666439,0.006640862786583602
1772569022491314400,9.445314453125,-0.043971243673563004,0.002736247430322692,0.005073083746898919
1772569022501386500,9.455386474609375,-0.059384501382708545,0.00046753987993579355,0.002505571346450597
1772569022511458300,9.465458251953125,-0.06207797825038433,0.005019910521246493,0.004271521573048085
1772569022521530400,9.4755302734375,-0.04561784183681011,0.0016695589137263596,0.002459704644419253
1772569022531602400,9.4856025390625,-0.0459188706099987,-0.004180569053697399,0.002843351933453232
1772569022541674500,9.495674560546876,-0.04741933830082416,-0.0034785582641838116,-0.0012287198110483585
1772569022551746600,9.50574658203125,-0.06088789168298244,0.0005233160546282306,0.007097557045519351
1772569022561818600,9.515818603515624,-0.05639817904829979,-0.009648319240566342,0.0011286569700576364
1772569022571890700,9.525890625,-0.05893968022465706,-0.0016493107101414352,0.003634246582817286
1772569022581961500,9.53596142578125,-0.0522106642305851,0.0020023116991622373,0.008357694908138364
1772569022592033300,9.546033203125,-0.05131693026125431,-0.001791810753638856,-0.0018004918170161544
1772569022602105600,9.556105712890625,-0.055061377486586564,0.0010729173279833048,0.01329297761954367
1772569022612177700,9.566177734375,-0.0552080924808979,0.005417312340997159,0.005335972466785461
1772569022622249700,9.576249755859376,-0.04413432528078556,-0.0070423197269439694,0.0071317698423750695
1772569022632321500,9.586321533203124,-0.04039104709923267,0.0015876390842022373,0.00717133466778323
1772569022642393600,9.5963935546875,-0.04398351863324642,0.009948512330115773,0.006816950005851686
1772569022652465700,9.606465576171875,-0.051014147922396655,-0.0027965719159692526,0.01064412534488365
1772569022662537500,9.616537353515625,-0.051012978878617284,-0.00028302732561714944,0.0069489788876846426
1772569022672609500,9.626609619140625,-0.050264790859818456,0.004225042949663475,0.004563727718964219
1772569022682681600,9.636681640625,-0.053107905331254,0.008153153345943428,-0.002049278946314007
1772569022692753700,9.646753662109376,-0.05175882880985737,0.003827221004804596,0.008366316606011242
1772569022702824700,9.65682470703125,-0.050857496055960655,-0.004036091682245023,-0.0004090557249262929
1772569022712896500,9.666896484375,-0.05564882198572158,-0.0031340374091407283,0.00341156200915575
1772569022722968600,9.676968505859374,-0.05983809036910533,0.003931233935127966,0.005232530358619988
1772569022733040600,9.68704052734375,-0.05206044210493564,0.003872589949914254,-0.0031663185438141226
1772569022743112400,9.697112548828125,-0.043084523966908456,0.004420035798801109,0.009937127852998674
1772569022753184500,9.7071845703125,-0.060147886970639226,-0.003611372597306035,0.008279314175993204
1772569022763256600,9.717256591796875,-0.054763855844736094,0.004140191377536393,0.00531065536243841
1772569022773328600,9.72732861328125,-0.04893032738566398,-0.0039825531304115425,0.0036749987183138724
1772569022783400400,9.737400390625,-0.05087035553753376,-0.00035035237420815975,0.004475519712548703
1772569022793472500,9.747472412109374,-0.060146133404970166,0.004790467413235455,0.003982091906107962
1772569022803544600,9.757544677734375,-0.055957449543476104,0.008048322998289949,-0.0007254464640282094
1772569022813616600,9.76761669921875,-0.054014498782157895,0.00353770000631921,0.006241780466400087
1772569022823687700,9.777687744140625,-0.06254676480591297,-0.00388356800165493,0.007900032534822821
1772569022833759500,9.787759521484375,-0.06179974583089351,0.00639168749821838,0.005450630088709295
1772569022843831600,9.79783154296875,-0.054019759479165076,0.00009641871233470737,0.00454557100776583
1772569022853903600,9.807903564453126,-0.06748305216431617,0.003605472579482011,0.008610244897101074
1772569022863975400,9.817975341796876,-0.05356383240520954,-0.0010693553977180273,0.004828114276193082
1772569022874047500,9.828047607421874,-0.04892682025432586,0.0005194801297271624,0.00399206531085074
1772569022884119600,9.83811962890625,-0.05520984604656696,0.00808254036172293,0.0033106954505667087
1772569022894191600,9.848191650390625,-0.060897828555107114,0.002681174508528784,0.007127404194511472
1772569022904263400,9.858263427734375,-0.0546112956315279,-0.0011602028857916594,0.018130882637389004
1772569022914335500,9.86833544921875,-0.0523673160970211,0.002651468923431821,0.0010607428329996763
1772569022924407600,9.878407470703126,-0.04892389764487743,0.0073079209937248375,-0.004590396530181169
1772569022934479400,9.888479248046876,-0.04652969598472118,0.003105669831181876,0.00842369108274579
1772569022944550400,9.89855029296875,-0.061496378970146176,0.0035813062526052816,0.008158847867790609
1772569022954622500,9.90862255859375,-0.04967851540446281,0.0009700049427803605,-0.003031841976568103
1772569022964694500,9.918694580078125,-0.0430956298828125,0.003039801520737819,0.007540423708502203
1772569022974766600,9.9287666015625,-0.061651861792802805,0.0030069860965246335,0.0030466742195188997
1772569022984838400,9.93883837890625,-0.06269874049723148,-0.0018055881172418593,0.006656042089406401
1772569022994910500,9.948910400390625,-0.05297346529662609,0.0010991568809375167,0.01047724434537813
1772569023004982500,9.958982421875,-0.05551788908243179,0.0015833145355340092,0.00667777899717912
1772569023015054600,9.9690546875,-0.05043430220782757,0.006642346924194135,0.0036667971455492075
1772569023025126400,9.97912646484375,-0.05178104064166546,0.009097923382767475,0.006511025861836969
1772569023035198500,9.989198486328124,-0.045945758616924286,0.007449357024719938,0.006488594834320247
1772569023045270500,9.9992705078125,-0.055526072388887404,-0.001709639762365259,0.0063762387673370535
1772569023055341600,10.009341552734375,-0.05702127938270569,-0.00018751736215781418,0.006444847024139016
1772569023065413400,10.019413330078125,-0.05133212783038616,0.0058368437941651785,0.00563928452860564
1772569023075485400,10.0294853515625,-0.054770285585522646,0.0022584236183902247,0.001435421364288777
1772569023085557500,10.0395576171875,-0.06105389589965343,0.005103962942352518,0.0035755569318309424
1772569023095629600,10.049629638671876,-0.05491700057983398,0.0023959049934754147,0.0024495485765859484
1772569023105701400,10.059701416015624,-0.04878478143513203,-0.0038249879485229028,-0.005621073018480092
1772569023115773400,10.0697734375,-0.048935588082671164,0.0001001541725359857,-0.004624645859654992
1772569023125845500,10.079845458984375,-0.058664370414614676,0.003156062011281028,0.009370653076656162
1772569023135917300,10.089917236328125,-0.05148234995603561,0.005091806713677942,0.007598528837598859
1772569023145989400,10.0999892578125,-0.06359948872923851,0.0037590831054607403,0.00011463935561478137
1772569023156061400,10.1100615234375,-0.06015256314575672,0.000029043431393802163,0.0030129911456257103
1772569023166132500,10.120132568359375,-0.06075228260457515,0.003084649876039475,0.0053849261750467114
1772569023176204500,10.13020458984375,-0.05446633420288562,0.011770197632210329,0.00628980259289965
1772569023186276400,10.1402763671875,-0.06449146913290023,-0.0010028751659207046,-0.002579951756913215
1772569023196348400,10.150348388671874,-0.06104746615886688,0.0006761045966995879,0.007392375273630023
1772569023206420500,10.16042041015625,-0.04892682025432586,-0.013554587697796524,0.015321725234482437
1772569023216489000,10.170489013671874,-0.04982406135499477,-0.00015313560194335878,0.008454506346117704
1772569023226561000,10.18056103515625,-0.057606970316171645,0.0018050538277020677,0.014168719274457543
1772569023236633000,10.190633056640625,-0.052069209933280944,0.007829451516643167,0.007355550394579768
1772569023246705200,10.200705078125,-0.05057283389568329,0.00430679381582886,0.006884444017801433
1772569023256777000,10.21077685546875,-0.054909401795268056,0.00756806520067621,0.0023443163701333102
1772569023266849000,10.22084912109375,-0.052068040889501566,-0.00016942001646384595,0.004247190849389881
1772569023276920000,10.230920166015625,-0.057903322914242744,-0.0015494990309001878,-0.002439081981498748
1772569023286992100,10.2409921875,-0.05296645103394985,0.002860618162085302,0.008745214654691517
1772569023297064200,10.251064208984374,-0.05356441692709923,0.007622571866889484,0.0016301402187906206
1772569023307136000,10.261135986328124,-0.047727381336688995,0.011259014973370358,-0.0005511310767382383
1772569023317208000,10.2712080078125,-0.061041620939970016,0.0008364188581006601,0.004543981838878244
1772569023327280000,10.281280029296875,-0.06343699164390564,-0.005184626963129267,0.007617507532704621
1772569023337352000,10.29135205078125,-0.05086567936241627,0.00647771724727936,0.005438574324734509
1772569023347424000,10.301424072265625,-0.05729834275841712,0.0036576639910228547,0.011847180991712957
1772569023357496000,10.31149609375,-0.05026771346926689,0.004539008836238645,0.01054826375497505
1772569023367568100,10.321568115234374,-0.05580664289593696,-0.0017536707003368063,0.002341247630212456
1772569023377640000,10.331639892578124,-0.048775429084897036,-0.0007584125852910801,0.005388159311749041
1772569023387711000,10.3417109375,-0.053117257681488984,0.005244056399632245,0.0056073732866905625
1772569023397783000,10.351782958984375,-0.06164893918335437,0.007368336810916662,0.006576620177645236
1772569023407855000,10.361855224609375,-0.050446577167510984,0.007318150126794353,0.001296177290380001
1772569023417927000,10.371927001953125,0.01926291887462139,0.0032078104648273435,-0.019458934637065977
1772569023427999000,10.3819990234375,-0.149228438436985,-0.0002017650832189247,0.03608536752825603
1772569023438071000,10.392071044921876,-0.033113749572634694,0.011553545507113449,-0.009587163637857884
1772569023448143000,10.40214306640625,-0.07994915050566195,-0.008176333292131311,0.02040160404834896
1772569023458215000,10.41221484375,-0.046879824596643443,0.0068434544202871615,-0.00908014569748193
1772569023468287000,10.422286865234375,-0.0564542931497097,-0.0062201166238635775,0.010599719947576523
1772569023478359000,10.432359130859375,-0.055253685188293454,-0.0004954599333228543,-0.0027722959912382067
1772569023488430000,10.44243017578125,-0.0663227762132883,-0.000829011869779788,0.0026311887538060545
1772569023498502100,10.452502197265625,-0.05853811368644237,-0.0052206207251176235,0.014580880271922796
1772569023508574000,10.462573974609375,-0.0444721789330244,0.001776905445451848,0.0031502259255386886
1772569023518646000,10.47264599609375,-0.06600947248041629,0.008804803921398706,0.007470482011139392
1772569023528718000,10.482718017578126,-0.015896072790026663,-0.002517006055917591,-0.006005268296785653
1772569023538790000,10.492789794921874,-0.06946341232657433,-0.001998142414120957,0.00351275736130774
1772569023548862000,10.502862060546875,-0.07963584677278995,-0.001874684997810982,0.007074285767786204
1772569023558934000,10.51293408203125,-0.0534434208959341,0.006383641189080662,0.009503339545615016
1772569023569006000,10.523006103515625,-0.04162847993969917,-0.002456165547040291,0.0004294774584472179
1772569023579078000,10.533077880859375,-0.04074351379871368,0.004979532845085487,0.000552519316226244
1772569023589149000,10.54314892578125,-0.055713119393587106,-0.0013109958335990085,0.007031177278421819
1772569023599221000,10.553220947265626,-0.06364157430529593,0.0008357156052021309,0.012492328761145472
1772569023609293000,10.56329296875,-0.0697737934499979,0.003753740210062824,0.010648253530729561
1772569023619364900,10.57336474609375,-0.06393617333769798,0.0007955890907905995,0.008137896411307155
1772569023629437000,10.58343701171875,-0.0464373415261507,0.00413098515777383,0.0048122408536262805
1772569023639509000,10.593509033203125,-0.04450140502750873,0.003818133516050875,0.009962737218290567
1772569023649581000,10.6035810546875,-0.058573184999823565,-0.00116270537013188,0.0033291626890189943
1772569023659652900,10.61365283203125,-0.0617132365912199,0.005469060794543475,-0.0015348631507717072
1772569023669725000,10.623724853515625,-0.05273673393130302,-0.00030786950592882927,0.0010516462110914289
1772569023679797000,10.633796875,-0.06755261026918888,-0.0028691941941855472,-0.0005034012111835182
1772569023689868800,10.643868896484374,-0.04466624020040035,0.004085903907031752,0.0011210947181098162
1772569023699939800,10.65393994140625,-0.03675298285782337,-0.002594468906032853,-0.0034445509633049365
1772569023710012000,10.664011962890624,-0.04679156179130077,-0.003245247265230864,-0.0015661168055608869
1772569023720084000,10.674083984375,-0.06954232278168201,-0.0004946744820335879,0.001320453215111047
1772569023730156000,10.684156005859375,-0.06954232278168201,-0.0027938776353839782,0.00787456930000335
1772569023740227800,10.694227783203125,-0.04679389987885952,-0.002976832986855879,-0.001557842167560011
1772569023750300000,10.7042998046875,-0.05486906978487968,-0.0030863166767405342,0.0031430289997719228
1772569023760372000,10.7143720703125,-0.03482756775319576,0.00599882485626731,-0.005905442917812615
1772569023770444000,10.724444091796874,-0.043511224946379656,0.00834061134259682,0.002292640981823206
1772569023780515800,10.734515869140624,-0.0439624758452177,0.005928892292059026,0.005340374647267163
1772569023790587000,10.7445869140625,-0.04995207164883613,-0.005924649941781535,0.0003676825349219143
1772569023800659000,10.754658935546875,-0.0628197365283966,-0.00011612349322531371,0.0046106356006115675
1772569023810731000,10.76473095703125,-0.04546820423305034,0.0006213878679322078,0.003478672428615391
1772569023820802800,10.774802734375,-0.04233808951377868,-0.006667138872155919,0.008846227343752979
1772569023830875000,10.784875,-0.05132862069904804,0.00020552794288378206,0.0006216755622997879
1772569023840947000,10.794947021484376,-0.05866963111162185,-0.001870826240023598,0.004780603606346995
1772569023851019000,10.80501904296875,-0.0663011489033699,-0.000008868293045088648,0.011592238116264343
1772569023861090800,10.8150908203125,-0.07885843265950679,-0.0057717700681649145,0.011865410768147558
1772569023871163000,10.825162841796875,-0.0407166257917881,0.003411557442578487,-0.00505141990436241
1772569023881235000,10.83523486328125,-0.013947861331701278,0.002342412107414566,-0.001648424794152379
1772569023891306000,10.845305908203125,-0.05081482595801353,-0.0026383856795728204,0.0029510866242460905
1772569023901377800,10.855377685546875,0.06387655210494994,0.003458063465426676,-0.02661408535502851
1772569023911449900,10.865449951171875,-0.12515899606347083,-0.002843173836939968,0.02885316951870918
1772569023921522000,10.87552197265625,-0.09824000947773456,-0.0007627371339593083,-0.00110633554039523
1772569023931594000,10.885593994140624,-0.12006722588241099,-0.009412144997669384,0.01665500139854848
1772569023941665800,10.895665771484374,-0.07994330528676509,-0.007355559527734294,0.003762567403912544
1772569023951737900,10.90573779296875,-0.06868950534462928,0.0019108248902717604,0.0014718261182308195
1772569023961810200,10.91581005859375,-0.06177753399908542,-0.0027991931313183158,0.003332450624648481
1772569023971882000,10.925882080078125,-0.05470540365576744,0.00016424608442466704,0.004818487931322306
1772569023981954000,10.9359541015625,-0.05243804324567318,-0.005212971708201803,0.004392663734685629
1772569023992024800,10.94602490234375,-0.043594227054715155,-0.002110461948486045,-0.004498736191354691
