time,seconds_elapsed,z,y,x
1772366586550005200,0.111005126953125,-0.0008573438972234726,-0.0006779800169169903,0.0005467841401696205
1772366586560075300,0.1210751953125,-0.000997692346572876,0.002493844833225012,-0.0011256812140345573
1772366586570145000,0.13114501953125,0.0007588439621031284,-0.00007667113095521927,-0.0010291561484336853
1772366586580215300,0.14121533203125,0.0021088002249598503,-0.004164889920502901,-0.0008195657283067703
1772366586590285300,0.151285400390625,-0.00029477663338184357,0.001025242730975151,-0.00102279894053936
1772366586600355000,0.16135498046875,0.00035503460094332695,0.0025179442018270493,0.0023200009018182755
1772366586610425300,0.17142529296875,0.0014019077643752098,0.0039028110913932323,-0.0005802279338240623
1772366586620495400,0.181495361328125,0.0011073620989918709,0.0017033065669238567,-0.0010113930329680443
1772366586630565000,0.191565185546875,-0.0019696149975061417,0.0010085622780025005,0.0006783660501241684
1772366586640635100,0.20163525390625,-0.00024947943165898323,0.002142269629985094,-0.00014668144285678864
1772366586650705400,0.211705322265625,-0.002039331942796707,0.00274533499032259,0.003041910007596016
1772366586660775200,0.221775146484375,-0.0018441220745444298,-0.0006768270395696163,0.001664256677031517
1772366586670845200,0.23184521484375,0.0024713492020964622,-0.001030993415042758,-0.00035880133509635925
1772366586680915200,0.241915283203125,-0.000686893705278635,-0.00007598381489515305,-0.001410217024385929
1772366586690985200,0.251985107421875,0.00038183294236660004,-0.001004628138616681,-0.0019471105188131332
1772366586701055200,0.26205517578125,-0.001190763432532549,0.004251120612025261,-0.0007351059466600418
1772366586711125200,0.272125244140625,-0.00292711379006505,-0.0005609933286905289,-0.0009246263653039932
1772366586721195300,0.2821953125,-0.000696184579282999,-0.00026245322078466415,-0.0019001420587301254
1772366586731265300,0.292265380859375,-0.0008636391721665859,-0.0003299717791378498,0.0007550176233053207
1772366586741335000,0.3023349609375,-0.0007493901066482067,0.0003810920752584934,-0.001168849878013134
1772366586751405300,0.3124052734375,0.0017200363799929619,0.000680058728903532,-0.001334632746875286
1772366586761475300,0.322475341796875,0.0010039121843874454,-0.00032874662429094315,0.0006757872179150581
1772366586771546000,0.332546142578125,0.00013963831588625908,-0.0012290745507925749,0.0016079070046544075
1772366586781616000,0.3426162109375,0.002332485280930996,0.0014372821897268295,0.0004816567525267601
1772366586791686400,0.352686279296875,-0.0010569770820438862,0.0005929344333708286,-0.0007867943495512009
1772366586801756200,0.362756103515625,0.001254113856703043,-0.0006651426665484905,0.000015350058674812317
1772366586811826200,0.372826171875,0.0000067534856498241425,0.003644630778580904,-0.00225111935287714
1772366586821896200,0.382896240234375,0.0028211819007992744,0.00032579945400357246,0.001191016286611557
1772366586831966200,0.39296630859375,0.0023189964704215527,0.0012076073326170444,-0.0001729121431708336
1772366586842036200,0.4030361328125,0.000621497631072998,0.004030558280646801,0.0003767646849155426
1772366586852106200,0.413106201171875,-0.0010737120173871517,0.0015872428193688393,-0.0005277311429381371
1772366586862176300,0.42317626953125,-0.0006065941415727139,0.003551856614649296,-0.00008884165436029434
1772366586872246300,0.433246337890625,0.0015763561241328716,0.003197239711880684,-0.0015117069706320763
1772366586882316000,0.44331591796875,0.000971019733697176,-0.00474111083894968,0.0013440009206533432
1772366586892386300,0.45338623046875,0.0007222876884043217,-0.0006306669674813747,-0.00047424715012311935
1772366586902456300,0.463456298828125,-0.0021315556950867176,-0.0005531688220798969,-0.001843377947807312
1772366586912526000,0.473526123046875,-0.00062538031488657,0.0008877362124621868,-0.0017411988228559494
1772366586922596000,0.48359619140625,0.0008540055714547634,0.0007577738724648952,-0.000529194250702858
1772366586932666400,0.493666259765625,0.0005502402782440186,-0.0004411707632243633,-0.00039264652878046036
1772366586942736100,0.503736083984375,0.0021888832561671734,-0.0011748718097805977,-0.00018891412764787674
1772366586952806100,0.51380615234375,-0.0021591666154563427,0.0020064297132194042,0.0037350235506892204
1772366586962876400,0.52387646484375,0.00043981242924928665,0.0006117322482168674,0.0011102110147476196
1772366586972946200,0.5339462890625,-0.002172929234802723,-0.0017432679887861013,0.0005918387323617935
1772366586983016200,0.54401611328125,-0.00086265429854393,0.0008394652977585793,-0.00047688838094472885
1772366586993086500,0.55408642578125,-0.001227059867233038,0.002098042517900467,-0.0012850360944867134
1772366587003157200,0.5641572265625,0.0013197208754718304,-0.0006018700078129768,0.0017690770328044891
1772366587013227300,0.574227294921875,0.0002495544031262398,0.001053293701261282,-0.00020200852304697037
1772366587023297300,0.58429736328125,-0.00039546284824609756,0.0005443636327981949,-0.0008515538647770882
1772366587033367000,0.594366943359375,0.00026662321761250496,0.0010475609451532364,-0.0009676190093159676
1772366587043437300,0.604437255859375,-0.0007126214914023876,0.00029974523931741714,0.001568509265780449
1772366587053507300,0.61450732421875,-0.002422007266432047,0.0020450400188565254,0.0002407655119895935
1772366587063577000,0.6245771484375,0.00038469815626740456,0.0009102672338485718,-0.001002931036055088
1772366587073647400,0.6346474609375,0.0016643377020955086,-0.0006587509997189045,0.0004972703754901886
1772366587083717400,0.64471728515625,-0.0023093647323548794,-0.00004968605935573578,0.0023596184328198433
1772366587093787100,0.654787109375,0.0005956650711596012,-0.00055274972692132,0.0015261955559253693
1772366587103857200,0.664857177734375,-0.0013471106067299843,0.0022603473626077175,-0.0008951500058174133
1772366587113927200,0.67492724609375,-0.0010088644921779633,0.0027735610492527485,0.0041998764500021935
1772366587123997200,0.6849970703125,0.00028223544359207153,-0.0028198761865496635,-0.00021191686391830444
1772366587134067200,0.695067138671875,-0.000047709327191114426,-0.0029069148004055023,-0.0005441438406705856
1772366587144137200,0.70513720703125,0.0008343295194208622,-0.000597687903791666,0.0013291239738464355
1772366587154207200,0.715207275390625,0.0016130879521369934,-0.0004909825511276722,0.0014059701934456825
1772366587164277200,0.72527734375,-0.0005627144128084183,-0.0008198833093047142,0.0008829254657030106
1772366587174347300,0.73534716796875,-0.0005768262781202793,-0.0020828736014664173,-0.0016714418306946754
1772366587184417300,0.745417236328125,-0.00023700715973973274,-0.0009321216493844986,-0.0021726489067077637
1772366587194487300,0.7554873046875,0.0010352376848459244,-0.0027973807882517576,-0.0010851090773940086
1772366587204558000,0.76555810546875,0.00032816827297210693,-0.002221072791144252,0.0005743065848946571
1772366587214628000,0.775628173828125,0.0009084888733923435,-0.003280377946794033,-0.000056901946663856506
1772366587224698400,0.785698486328125,0.00027012918144464493,-0.004231392405927181,-0.0007626395672559738
1772366587234768100,0.79576806640625,0.0016276007518172264,-0.0008041295222938061,-0.00032394006848335266
1772366587244838100,0.805838134765625,-0.0005093198269605637,-0.00011144112795591354,-0.0003945138305425644
1772366587254908400,0.815908447265625,0.0012073246762156487,-0.0007147663272917271,0.001207270659506321
1772366587264978200,0.825978271484375,0.00184621661901474,-0.0037611559964716434,0.00018834508955478668
1772366587275048200,0.836048095703125,0.0008121347054839134,-0.002849620534107089,0.0007537389174103737
1772366587285118500,0.846118408203125,0.0006299745291471481,-0.005453126505017281,0.001798497512936592
1772366587295188200,0.856188232421875,-0.0003851708024740219,-0.009286044165492058,0.0005281856283545494
1772366587305258200,0.86625830078125,0.0015533440746366978,-0.005749099422246218,0.00031246989965438843
1772366587315328000,0.876327880859375,-0.0002000974491238594,-0.004931911360472441,-0.0005832342430949211
1772366587325398300,0.886398193359375,-0.00023099035024642944,-0.00468503637239337,0.0002977391704916954
1772366587335468300,0.89646826171875,-0.00532254483550787,-0.009176637977361679,-0.0034503228962421417
1772366587345538000,0.9065380859375,-0.0007317876443266869,-0.007126803044229746,-0.0008886279538273811
1772366587355608300,0.9166083984375,0.002729433588683605,-0.006727961823344231,0.0005282238125801086
1772366587365678300,0.92667822265625,-0.0002674213610589504,-0.007681107148528099,-0.001276068389415741
1772366587375748000,0.936748046875,0.002374436240643263,-0.006344039924442768,0.0016714781522750854
1772366587385818400,0.946818359375,-0.0015468024648725986,-0.004365577362477779,0.0002972865477204323
1772366587395888400,0.956888427734375,0.00017192121595144272,-0.0055195060558617115,0.0002998746931552887
1772366587405958100,0.966958251953125,-0.0017562070861458778,-0.006513930391520262,-0.0001227688044309616
1772366587416029200,0.977029296875,-0.0010033599101006985,-0.007876456715166569,-0.0013095596805214882
1772366587426099200,0.98709912109375,-0.0028987317346036434,-0.0077193304896354675,-0.0007534921169281006
1772366587436169200,0.997169189453125,0.0011155884712934494,-0.0110941706225276,-0.0004652971401810646
1772366587446239200,1.0072392578125,0.00027509452775120735,-0.004147048573940992,-0.002803020179271698
1772366587456309200,1.017309326171875,-0.00030980492010712624,-0.006592045072466135,-0.00510897021740675
1772366587466379300,1.027379150390625,-0.0010496308095753193,-0.00714731402695179,-0.0009307367727160454
1772366587476449300,1.03744921875,-0.00012921076267957687,-0.003928060177713633,-0.001870446838438511
1772366587486519300,1.047519287109375,-0.0010972702875733376,-0.0042199427261948586,-0.00315728597342968
1772366587496589000,1.057589111328125,0.0002531795762479305,-0.0041557010263204575,-0.00009158905595541
1772366587506659300,1.067659423828125,0.000012696254998445511,0.0013277474790811539,-0.0009624427184462547
1772366587516729000,1.07772900390625,-0.0020466577261686325,-0.002198753645643592,-0.0012903250753879547
1772366587526799000,1.087799072265625,-0.002176353707909584,-0.00007142079994082451,-0.0011968472972512245
1772366587536869400,1.097869384765625,0.001618524082005024,-0.0034479787573218346,-0.0014695515856146812
1772366587546939100,1.107939208984375,-0.0008257250301539898,-0.001185090746730566,0.001198137179017067
1772366587557009200,1.118009033203125,-0.0011206995695829391,-0.0014995234087109566,-0.002059166319668293
1772366587567079400,1.128079345703125,0.001232203096151352,-0.0026026046834886074,0.0018495544791221619
1772366587577149200,1.138149169921875,-0.0011372873559594154,-0.0021410295739769936,-0.00015155505388975143
1772366587587219200,1.14821923828125,-0.0008765636011958122,-0.0017966828308999538,-0.0004394426941871643
1772366587597289200,1.158289306640625,0.0018170932307839394,-0.0002504470758140087,0.0007865726947784424
1772366587607359200,1.168359130859375,0.0023340126499533653,-0.0011713679414242506,-0.0002539241686463356
1772366587617429200,1.17842919921875,-0.0029563112184405327,0.0021621575579047203,0.002690696157515049
1772366587627499300,1.188499267578125,0.00010978616774082184,-0.0037932030390948057,-0.0033618705347180367
1772366587637570000,1.198570068359375,0.002299266867339611,-0.0004511619918048382,-0.0008160416036844254
1772366587647640300,1.208640380859375,0.0005546300671994686,0.001833563670516014,-0.0016386928036808968
1772366587657710300,1.21871044921875,0.0011933548375964165,0.0008295071311295033,-0.0019276263192296028
1772366587667780000,1.228780029296875,-0.0022618304938077927,-0.0023894556798040867,-0.00005382578819990158
1772366587677850400,1.238850341796875,0.0016712946817278862,0.0015369690954685211,-0.00014160294085741043
1772366587687920400,1.24892041015625,0.0011415919288992882,-0.004779782611876726,-0.00022815540432929993
1772366587697990100,1.258990234375,0.0017212177626788616,-0.002868494251742959,-0.0005389759317040443
1772366587708060200,1.26906005859375,0.001567020546644926,-0.001255683833733201,0.0015044678002595901
1772366587718130200,1.279130126953125,0.0006295866332948208,0.0016027162782847881,-0.0009995196014642715
1772366587728200200,1.2892001953125,-0.0014617941342294216,0.00018351757898926735,-0.0007710205391049385
1772366587738270200,1.299270263671875,-0.0012006349861621857,-0.0002741590142250061,-0.0002881912514567375
1772366587748340200,1.30934033203125,0.002852962352335453,0.001048367004841566,-0.0002514394000172615
1772366587758410200,1.31941015625,-0.0000095306895673275,-0.0012423680163919926,-0.0004813624545931816
1772366587768480300,1.329480224609375,0.0007745041511952877,-0.00008921930566430092,-0.0051176599226891994
1772366587778550300,1.33955029296875,0.0015314100310206413,-0.0006838645786046982,-0.0010905424132943153
1772366587788620300,1.349620361328125,-0.00003958866000175476,-0.0010681587737053633,-0.001214912161231041
1772366587798690300,1.359690185546875,-0.0006628688424825668,-0.00014396430924534798,0.0012590941041707993
1772366587808760000,1.369760009765625,0.002851172350347042,-0.0009684788528829813,-0.00009405799210071564
1772366587818830300,1.379830322265625,-0.0003827107138931751,0.0005544521845877171,0.0012313434854149818
1772366587828900400,1.389900390625,0.0023704650811851025,-0.0021390689071267843,-0.0002352595329284668
1772366587838970000,1.39997021484375,0.0020508193410933018,-0.002063144464045763,0.0005860691890120506
1772366587849040400,1.410040283203125,-0.0008967667818069458,-0.0003307582810521126,-0.00016440916806459427
1772366587859111400,1.420111328125,0.0014395546168088913,0.0005353018641471863,0.0017864154651761055
1772366587869181200,1.43018115234375,-0.0010089557617902756,-0.0005342233926057816,0.001248723827302456
1772366587879251200,1.440251220703125,0.0007579503580927849,-0.0005009486339986324,-0.00012642238289117813
1772366587889321200,1.4503212890625,-0.0011182460002601147,0.00000345427542924881,0.0004882346838712692
1772366587899391200,1.46039111328125,0.0012113554403185844,-0.0009669777937233448,-0.000987163744866848
1772366587909461200,1.470461181640625,0.00044250115752220154,-0.0007328861393034458,0.00003415904939174652
1772366587919531300,1.48053125,0.00024674274027347565,0.0005404776893556118,0.0010086307302117348
1772366587929601300,1.490601318359375,0.0007205191068351269,-0.0009346471633762121,0.0016158316284418106
1772366587939671300,1.50067138671875,-0.00022556865587830544,-0.00015116948634386063,-0.0005700411275029182
1772366587949741000,1.510740966796875,0.000435694120824337,0.00007200334221124649,0.0005463557317852974
1772366587959811300,1.520811279296875,-0.0007950505241751671,-0.0024616792798042297,-0.0019304826855659485
1772366587969881300,1.53088134765625,0.00041509000584483147,-0.0030502378940582275,-0.0002934373915195465
1772366587979951000,1.540951171875,-0.001023375429213047,-0.001455716323107481,0.00009246915578842163
1772366587990021000,1.551021240234375,-0.0005551911890506744,-0.0017851493321359158,-0.0013528289273381233
1772366588000091400,1.56109130859375,-0.00017015403136610985,-0.003705288516357541,-0.0015179449692368507
1772366588010161200,1.5711611328125,0.0005496982485055923,-0.001182742416858673,-0.0008279196918010712
1772366588020231200,1.581231201171875,-0.0007075434550642967,-0.0020816412288695574,0.0000755060464143753
1772366588030301400,1.591301513671875,-0.0007584104314446449,-0.00005311146378517151,-0.0012856358662247658
1772366588040371500,1.601371337890625,0.0009053372777998447,-0.002947484143078327,0.00018372945487499237
1772366588050441200,1.611441162109375,-0.0020736749283969402,-0.0019011280965059996,0.00015416834503412247
1772366588060511200,1.62151123046875,0.0005873064510524273,0.003007293213158846,0.0010442333295941353
1772366588070582300,1.631582275390625,-0.00019939104095101357,-0.0020002485252916813,0.00022291485220193863
1772366588080652300,1.64165234375,0.0005106944590806961,0.0008207852952182293,-0.0007865335792303085
1772366588090722300,1.651722412109375,-0.000047237612307071686,0.0027989810332655907,0.0007133586332201958
1772366588100792300,1.661792236328125,-0.0023590694181621075,-0.001151092117652297,-0.0010865656659007072
1772366588110862300,1.6718623046875,-0.00020936550572514534,0.0003410768695175648,-0.00023941416293382645
1772366588120932400,1.681932373046875,-0.0034183640964329243,0.0008457312360405922,-0.001704406924545765
1772366588131002400,1.69200244140625,0.00015613017603754997,-0.003519988851621747,-0.0010186424478888512
1772366588141072400,1.702072265625,0.00022193649783730507,-0.0007817037403583527,0.0013559125363826752
1772366588151142400,1.712142333984375,-0.00006461935117840767,-0.0003342926502227783,0.000769750215113163
1772366588161212400,1.72221240234375,0.001910397782921791,-0.0008230498060584068,0.0007935473695397377
1772366588171282200,1.7322822265625,0.000623025931417942,-0.00017590168863534927,-0.000036559998989105225
1772366588181352400,1.7423525390625,0.000028831884264945984,0.0001584184356033802,-0.00011861510574817657
1772366588191422500,1.75242236328125,-0.0023331250995397568,-0.001882894430309534,-0.0007417947053909302
1772366588201492200,1.7624921875,0.00030003907158970833,-0.0013764859177172184,-0.0010434025898575783
1772366588211562500,1.7725625,-0.00218602130189538,-0.00010802224278450012,-0.0016996059566736221
1772366588221632300,1.78263232421875,-0.0014017093926668167,-0.0025780147407203913,-0.0003107180818915367
1772366588231702300,1.792702392578125,-0.0008799964562058449,-0.002821694128215313,-0.00006331037729978561
1772366588241772300,1.802772216796875,-0.000747370533645153,0.0031271912157535553,0.0008835792541503906
1772366588251843300,1.81284326171875,-0.00040435511618852615,0.002149811014533043,0.0014945082366466522
1772366588261913300,1.822913330078125,0.00013509532436728477,0.0011605541221797466,0.0020884377881884575
1772366588271983400,1.8329833984375,-0.00004573352634906769,-0.002209676196798682,0.0006862841546535492
1772366588282053400,1.843053466796875,0.0024456693790853024,0.00218023220077157,-0.0021493136882781982
1772366588292123400,1.853123291015625,0.00039610080420970917,-0.0016912051942199469,0.0020622089505195618
1772366588302193400,1.863193359375,-0.001743127591907978,0.0005173096433281898,0.0019627101719379425
1772366588312263200,1.87326318359375,0.000031070318073034286,-0.000040356069803237915,-0.0021984782069921494
1772366588322333400,1.88333349609375,0.0015407674945890903,0.001225023064762354,-0.00044452305883169174
1772366588332403500,1.893403564453125,-0.0019841929897665977,-0.0023971423506736755,-0.00032441504299640656
1772366588342473200,1.90347314453125,0.0006535826250910759,0.0010930290445685387,0.00018744450062513351
1772366588352543200,1.913543212890625,0.0005111037753522396,0.0006307042203843594,-0.0016248365864157677
1772366588362613500,1.923613525390625,-0.0012050485238432884,-0.0007488192059099674,-0.00004060007631778717
1772366588372683300,1.933683349609375,0.0005470453761518002,-0.00015839654952287674,-0.0012246407568454742
1772366588382753300,1.943753173828125,0.0027755936607718468,-0.00002026418223977089,-0.0017086416482925415
1772366588392823600,1.953823486328125,0.0003627697005867958,0.001973644830286503,0.0001475820317864418
1772366588402893300,1.963893310546875,0.00031561823561787605,0.0018464508466422558,-0.0008723344653844833
1772366588412963300,1.97396337890625,0.0008639632724225521,-0.00015438208356499672,0.0008187731727957726
1772366588423033300,1.984033447265625,-0.0003293328918516636,0.0003634733147919178,0.0016523795202374458
1772366588433103400,1.994103271484375,-0.0010614357888698578,0.0019746855832636356,0.0011471780017018318
1772366588443173400,2.00417333984375,-0.0016200831159949303,-0.0001581357792019844,-0.0008750623092055321
1772366588453244400,2.014244384765625,-0.0006405720487236977,-0.0008039523381739855,-0.0012268656864762306
1772366588463314200,2.024314208984375,0.0007024421356618404,-0.0019458173774182796,-0.0005687829107046127
1772366588473384400,2.034384521484375,-0.0012605739757418633,0.0002611442469060421,-0.0003956770524382591
1772366588483454500,2.044454345703125,-0.00015201233327388763,0.00039434758946299553,-0.00010902248322963715
1772366588493524200,2.054524169921875,-0.0012886496260762215,-0.0006562694907188416,-0.0003795996308326721
1772366588503594500,2.064594482421875,0.0023647090420126915,0.002056586556136608,-0.000600762665271759
1772366588513664300,2.074664306640625,0.001993464305996895,-0.0008907339069992304,0.0005060471594333649
1772366588523734300,2.084734375,0.0003736056387424469,-0.0009298068471252918,-0.0012008175253868103
1772366588533804500,2.094804443359375,0.0005496405065059662,-0.0002973061054944992,-0.0012314440682530403
1772366588543874300,2.104874267578125,-0.0011879191733896732,-0.001378629356622696,0.00019722431898117065
1772366588553944300,2.1149443359375,0.0017460854724049568,0.0016336720436811447,-0.0004765558987855911
1772366588564014300,2.125014404296875,-0.00004362408071756363,0.0005586505867540836,-0.0015275701880455017
1772366588574084400,2.13508447265625,-0.001057756133377552,0.0031794668175280094,-0.0008508609607815742
1772366588584154400,2.145154296875,0.0002602068707346916,-0.0012067912612110376,-0.0013280333951115608
1772366588594224400,2.155224365234375,0.001727342139929533,0.0017644977197051048,-0.0006981957703828812
1772366588604294400,2.16529443359375,-0.000982188619673252,0.0019126469269394875,0.0017881309613585472
1772366588614364400,2.175364501953125,-0.002310306765139103,-0.0017436067573726177,-0.0015269722789525986
1772366588624434400,2.185434326171875,0.001078485045582056,0.0016494574956595898,0.0003614034503698349
1772366588634504200,2.195504150390625,-0.0007729441858828068,-0.0014571198262274265,0.0012034950777888298
1772366588644574500,2.205574462890625,-0.0000868532806634903,0.0004005739465355873,0.0003588525578379631
1772366588654645500,2.2156455078125,-0.0021595917642116547,0.0003004390746355057,-0.00034821685403585434
1772366588664715300,2.22571533203125,0.0009117275476455688,-0.0000992361456155777,-0.0004074862226843834
1772366588674785300,2.235785400390625,-0.00196981243789196,-0.0002955114468932152,0.000038593076169490814
1772366588684855600,2.24585546875,-0.00014180131256580353,-0.002871341537684202,0.0005751000717282295
1772366588694925300,2.25592529296875,0.0013551614247262478,-0.0027893162332475185,0.0011130580678582191
1772366588704995300,2.265995361328125,-0.0005153128877282143,0.0015840628184378147,-0.0032037002965807915
1772366588715065300,2.2760654296875,-0.0006703091785311699,0.0009675412438809872,0.00011593010276556015
1772366588725135400,2.28613525390625,-0.0007030470296740532,0.0008398126810789108,-0.0010991515591740608
1772366588735205400,2.296205322265625,0.0011952538043260574,-0.0017961838748306036,-0.00010339543223381042
1772366588745275100,2.306275146484375,0.0005450272001326084,0.0008012433536350727,-0.00023366976529359818
1772366588755345400,2.316345458984375,0.0018228120170533657,0.002573577221482992,-0.000201445072889328
1772366588765415400,2.32641552734375,-0.0005257432349026203,0.0018184292130172253,-0.0008593965321779251
1772366588775485200,2.336485107421875,-0.00121736666187644,0.0007675462402403355,-0.0008138567209243774
1772366588785555500,2.346555419921875,0.0009820731356739998,-0.0015023418236523867,0.0027145082131028175
1772366588795625500,2.35662548828125,0.0003053639084100723,0.0003456259146332741,0.0019501810893416405
1772366588805695200,2.3666953125,0.002620479092001915,0.0016525611281394958,0.0009742863476276398
1772366588815765500,2.376765625,-0.00103444280102849,-0.0014012858737260103,-0.001347990706562996
1772366588825835500,2.38683544921875,0.0009478665888309479,-0.002271811943501234,-0.00005009211599826813
1772366588835905300,2.3969052734375,-0.0003794524818658829,0.001131175085902214,0.0015347553417086601
1772366588845975300,2.406975341796875,0.0007020253688097,-0.0000798199325799942,-0.0004622461274266243
1772366588856045300,2.41704541015625,-0.0004548518918454647,0.0005116681568324566,0.0016368571668863297
1772366588866115300,2.427115234375,0.0006578355096280575,0.0006439187563955784,-0.0018904302269220352
1772366588876186400,2.437186279296875,0.002039749640971422,-0.0029377667233347893,0.0015977779403328896
1772366588886256400,2.44725634765625,-0.0016446267254650593,0.0009201406501233578,0.0011668158695101738
1772366588896326400,2.457326416015625,0.00026912055909633636,0.0007121474482119083,-0.000028677284717559814
1772366588906396400,2.467396484375,-0.0019428553059697151,-0.0019446720834821463,0.001771649345755577
1772366588916466200,2.477466064453125,0.0011008717119693756,-0.0006754095666110516,-0.00009176507592201233
1772366588926536400,2.487536376953125,-0.0012049917131662369,0.001932038925588131,-0.0009404746815562248
1772366588936606500,2.4976064453125,-0.00149580929428339,0.002145091537386179,0.000006279908120632172
1772366588946676200,2.50767626953125,-0.0011341944336891174,0.00037157535552978516,-0.003039749339222908
1772366588956746200,2.517746337890625,-0.0013578999787569046,0.0006394893862307072,0.0008628470823168755
1772366588966816500,2.52781640625,0.0028981855139136314,-0.0016081894282251596,0.00025359727442264557
1772366588976886300,2.53788623046875,0.00033356156200170517,0.001237131655216217,-0.000012451782822608948
1772366588986956300,2.547956298828125,0.0007669762708246708,-0.000916388351470232,-0.00006125494837760925
1772366588997026600,2.558026611328125,-0.003761995118111372,-0.0017744586803019047,0.0006559351459145546
1772366589007096300,2.568096435546875,0.0007583070546388626,0.0008463393896818161,-0.0011515747755765915
1772366589017166300,2.578166259765625,-0.0006784684956073761,-0.0006628739647567272,0.00017174985259771347
1772366589027236400,2.588236328125,-0.000183184165507555,0.0001925760880112648,-0.00019567832350730896
1772366589037306400,2.598306396484375,-0.00040156347677111626,-0.0011206287890672684,-0.00014907307922840118
1772366589047379700,2.608379638671875,-0.0011018742807209492,0.00012978073209524155,0.003132827579975128
1772366589057449700,2.61844970703125,0.0027216263115406036,-0.0004244232550263405,-0.0011444753035902977
1772366589067519700,2.628519775390625,0.000032605137676000595,-0.0026483095716685057,0.002913261763751507
1772366589077589800,2.63858984375,0.00010743970051407814,0.0010473588481545448,0.00043732114136219025
1772366589087659800,2.64865966796875,0.00004362128674983978,-0.00032479362562298775,-0.00193729717284441
1772366589097730600,2.65873046875,0.0020143603906035423,0.0017769727855920792,0.0009351884946227074
1772366589107800800,2.66880078125,0.000780825037509203,0.0007481235079467297,0.000290457159280777
1772366589117870800,2.678870849609375,0.00018001580610871315,-0.017507046461105347,-0.0034608710557222366
1772366589127940600,2.688940673828125,-0.0016323360614478588,-0.010004961863160133,-0.002258916385471821
1772366589138010600,2.6990107421875,-0.00047199660912156105,0.0012154681608080864,0.0022077374160289764
1772366589148081000,2.709080810546875,0.0013594436459243298,-0.0005227923393249512,-0.0010324418544769287
1772366589158150700,2.719150634765625,-0.0023117242380976677,-0.00469543319195509,0.0009854352101683617
1772366589168220700,2.729220703125,0.002040124498307705,0.004501561168581247,-0.0010654395446181297
1772366589178291000,2.739291015625,-0.0005399454385042191,-0.0017707159277051687,-0.0005258824676275253
1772366589188360700,2.749360595703125,-0.0013311607763171196,-0.00038568535819649696,-0.0016402145847678185
1772366589198430700,2.7594306640625,-0.001749277114868164,-0.0013896971940994263,-0.00035843532532453537
1772366589208500700,2.769500732421875,0.00008732452988624573,-0.000039921142160892487,-0.0013084132224321365
1772366589218570800,2.77957080078125,0.0005019786767661572,-0.0005603027530014515,0.002288452349603176
1772366589228640800,2.789640869140625,-0.0007840981706976891,0.0010277614928781986,-0.0012900056317448616
1772366589238710500,2.79971044921875,-0.0001318897120654583,-0.0020151662174612284,0.0006847288459539413
1772366589248780800,2.80978076171875,0.0003548809327185154,-0.0019890572875738144,0.00027737393975257874
1772366589258850800,2.819850830078125,0.001243311446160078,0.0020240601152181625,0.00030507054179906845
1772366589268920600,2.829920654296875,0.0005515147931873798,-0.0003568665124475956,-0.00005603674799203873
1772366589278990800,2.839990966796875,-0.0016940627247095108,-0.0004910901188850403,0.00012292806059122086
1772366589289060900,2.850060791015625,0.0013717967085540295,0.0022310460917651653,0.00032355543226003647
1772366589299131600,2.860131591796875,0.0007134629413485527,0.0010169106535613537,0.001390949822962284
1772366589309201700,2.87020166015625,0.0003200145438313484,0.0018146838992834091,-0.000589439645409584
1772366589319271700,2.880271728515625,-0.00003072340041399002,-0.0017550173215568066,-0.00006106868386268616
1772366589329341700,2.890341796875,0.0016594212502241135,0.001631414983421564,0.0004370054230093956
1772366589339411700,2.90041162109375,0.0011598123237490654,-0.002274643164128065,-0.0004719318822026253
1772366589349481700,2.910481689453125,0.001213965006172657,0.00213180435821414,0.000007113441824913025
1772366589359551700,2.9205517578125,0.001490667462348938,0.0018835975788533688,-0.0010035568848252296
1772366589369621800,2.930621826171875,-0.0019368687644600868,-0.0002992069348692894,-0.0002716723829507828
1772366589379691800,2.94069189453125,0.0017244452610611916,-0.00034980708733201027,0.00038959085941314697
1772366589389761800,2.95076171875,-0.0005250205285847187,-0.003927457612007856,0.00008805189281702042
1772366589399831800,2.960831787109375,0.001619888935238123,-0.00018864590674638748,-0.0004443144425749779
1772366589409901600,2.970901611328125,0.00270262872800231,-0.00046830903738737106,-0.0007827673107385635
1772366589419971600,2.9809716796875,-0.000968271866440773,-0.0017919002566486597,0.00037277862429618835
1772366589430041900,2.991041748046875,0.0010424116626381874,0.0008645276539027691,-0.0025261081755161285
1772366589440111600,3.001111572265625,0.0025276564992964268,0.0016443012282252312,-0.002396145835518837
1772366589450181600,3.011181640625,0.002117648720741272,0.0007092333398759365,-0.001689692959189415
1772366589460252000,3.021251953125,-0.0014943969435989857,-0.0003845272585749626,0.0005913041532039642
1772366589470322700,3.03132275390625,0.0009349402971565723,0.00005092564970254898,-0.00007509533315896988
1772366589480392700,3.041392822265625,-0.0030459524132311344,-0.0016367195639759302,0.001283649355173111
1772366589490462700,3.051462646484375,-0.0010359319858253002,-0.0007219887338578701,-0.0007703220471739769
1772366589500532700,3.06153271484375,0.003651764476671815,-0.0004972182214260101,0.0013386346399784088
1772366589510602800,3.071602783203125,-0.0010889689438045025,0.0006711771711707115,-0.0009794989600777626
1772366589520672800,3.0816728515625,0.0014679324813187122,0.00011138059198856354,-0.000466042198240757
1772366589530742500,3.091742431640625,0.0013080318458378315,0.0011457591317594051,0.0018139295279979706
1772366589540812800,3.101812744140625,0.0009730057790875435,-0.00016851071268320084,-0.0001775827258825302
1772366589550882800,3.1118828125,-0.0009817029349505901,0.0004322235472500324,-0.0019093547016382217
1772366589560952600,3.12195263671875,-0.0008554686792194843,-0.0007717916741967201,-0.0011897683143615723
1772366589571022800,3.13202294921875,-0.00004263129085302353,0.0007114559412002563,0.00016471091657876968
1772366589581092900,3.1420927734375,-0.0011576968245208263,-0.0008361069485545158,0.0007426170632243156
1772366589591162600,3.15216259765625,0.0000499882735311985,0.001775412354618311,0.0003637997433543205
1772366589601232600,3.162232666015625,-0.0006504231132566929,-0.0004477943293750286,-0.0017946921288967133
1772366589611302700,3.172302734375,0.0017635859549045563,-0.0007157488726079464,0.0010982928797602654
1772366589621373700,3.182373779296875,0.0003422568552196026,-0.0019831473473459482,-0.0009728474542498589
1772366589631443700,3.192443603515625,-0.00029116636142134666,-0.0010772524401545525,0.0009114854037761688
1772366589641513700,3.202513671875,-0.0010075569152832031,0.0016583465039730072,0.0015889937058091164
1772366589651583700,3.212583740234375,0.0009919386357069016,-0.0007130419835448265,0.001911783590912819
1772366589661653800,3.22265380859375,0.0005831434391438961,0.0010217414237558842,-0.00096922367811203
1772366589671723800,3.232723876953125,-0.001384072471410036,0.0002775769680738449,-0.0014440668746829033
1772366589681793800,3.242793701171875,0.0009712274186313152,0.001079188659787178,-0.0012837443500757217
1772366589691863800,3.25286376953125,0.00040152017027139664,0.0007915124297142029,0.0007436526939272881
1772366589701933600,3.26293359375,-0.00044270139187574387,-0.002189630176872015,0.0019524618983268738
1772366589712003600,3.273003662109375,-0.0010667410679161549,0.00009389035403728485,0.0005598040297627449
1772366589722073900,3.283073974609375,0.000614512711763382,0.0006632744334638119,-0.0005443422123789787
1772366589732143600,3.2931435546875,0.00026339851319789886,0.0020051212050020695,0.00019189156591892242
1772366589742213600,3.303213623046875,0.0004559452645480633,0.00007113348692655563,-0.0008350228890776634
1772366589752284000,3.313283935546875,0.002832206431776285,-0.002925239037722349,0.002324099652469158
1772366589762353700,3.323353759765625,-0.0003119218163192272,-0.000787519384175539,0.0014228858053684235
1772366589772424700,3.3334248046875,0.0012407335452735424,0.0020591840147972107,0.00013234000653028488
1772366589782494700,3.34349462890625,-0.001291399821639061,0.0001949714496731758,-0.0021819472312927246
1772366589792564700,3.353564697265625,-0.0007853852584958076,-0.00014703767374157906,0.00011740997433662415
1772366589802634800,3.363634765625,0.0000026444904506206512,0.001957658678293228,0.0008369963616132736
1772366589812704800,3.373704833984375,0.001073119230568409,-0.00035535451024770737,-0.0018673138692975044
1772366589822774500,3.3837744140625,-0.00026804907247424126,0.0011005955748260021,-0.0006425259634852409
1772366589832844800,3.3938447265625,-0.00009923288598656654,0.002182949334383011,-0.0008592559024691582
1772366589842914800,3.403914794921875,0.000827547162771225,-0.000056502874940633774,0.0012465054169297218
1772366589852984600,3.413984619140625,0.00062599778175354,-0.0012693339958786964,-0.0009084679186344147
1772366589863054800,3.424054931640625,0.002744276076555252,-0.0006514806300401688,0.001735517755150795
1772366589873124900,3.434124755859375,-0.0010431786067783833,0.002561159897595644,-0.00183887779712677
1772366589883194600,3.444194580078125,0.0013701780699193478,-0.0007960209622979164,0.0019236356019973755
1772366589893265000,3.454264892578125,-0.0008758129552006721,0.000553447287529707,0.0005766041576862335
1772366589903336000,3.4643359375,0.0008136960677802563,0.002350015565752983,0.0025800997391343117
1772366589913405700,3.47440576171875,-0.000494781881570816,-0.0009994842112064362,-0.0015783244743943214
1772366589923475700,3.484475830078125,0.0005627591162919998,-0.0011225221678614616,-0.00014554429799318314
1772366589933545700,3.494545654296875,0.0000028382055461406708,0.0018551279790699482,-0.0009068408980965614
1772366589943615700,3.50461572265625,0.00008086906746029854,0.0006804075092077255,-0.0005771415308117867
1772366589953685800,3.514685791015625,0.0016885912045836449,-0.00045734457671642303,-0.0005954382941126823
1772366589963755800,3.524755859375,-0.0008858861401677132,-0.0015463109593838453,-0.0005304571241140366
1772366589973825800,3.53482568359375,0.0020093857310712337,0.0018010549247264862,0.0007462659850716591
1772366589983895800,3.544895751953125,-0.000681738369166851,-0.0007012509740889072,-0.0004377756267786026
1772366589993965600,3.554965576171875,-0.001643138937652111,0.00193482032045722,0.002124202437698841
1772366590004035600,3.56503564453125,0.001075949054211378,-0.002087351633235812,0.0010573407635092735
1772366590014105900,3.57510595703125,0.001412264071404934,0.0008038845844566822,-0.0009571835398674011
1772366590024175600,3.585175537109375,-0.0012916428968310356,0.0006086751818656921,-0.000641864724457264
1772366590034246700,3.59524658203125,-0.0002132439985871315,-0.0005194037221372128,0.0010760128498077393
1772366590044313600,3.605313720703125,0.0005433596670627594,0.0007626418955624104,0.0014997217804193497
1772366590054383600,3.615383544921875,0.001010336447507143,0.0020215255208313465,0.0016194675117731094
1772366590064453600,3.62545361328125,-0.0004014051519334316,-0.00296684168279171,-0.001377919688820839
1772366590074523600,3.635523681640625,-0.0014378190971910954,0.0016280654817819595,0.003949401900172234
1772366590084593400,3.645593505859375,0.0012061670422554016,-0.004021564498543739,0.0013528196141123772
1772366590094663700,3.65566357421875,-0.001398282591253519,-0.002669977257028222,0.00047080591320991516
1772366590104733700,3.665733642578125,0.0005852398462593555,0.0005649644881486893,-0.0008349418640136719
1772366590114803500,3.675803466796875,-0.001271896529942751,-0.0013651209883391857,0.0005165655165910721
1772366590124873700,3.685873779296875,-0.003191236872226,0.00023410702124238014,-0.0009276671335101128
1772366590134943500,3.695943603515625,-0.00011057266965508461,-0.003509144764393568,-0.00002677086740732193
1772366590145013500,3.706013427734375,0.001039912924170494,0.0004962491802871227,0.002860095351934433
1772366590155083800,3.716083740234375,-0.00035233423113822937,-0.0019516854081302881,0.0030689099803566933
1772366590165153500,3.726153564453125,-0.0035428013652563095,0.00020920345559716225,0.0014262720942497253
1772366590175224600,3.736224609375,-0.0007688705809414387,-0.0009914666879922152,-0.0023484788835048676
1772366590185294600,3.746294677734375,0.003485795110464096,-0.001952601596713066,-0.00036282651126384735
1772366590195364600,3.756364501953125,-0.0002817269414663315,0.0009658858180046082,-0.0008550109341740608
1772366590205434600,3.7664345703125,0.001273825764656067,-0.002672791015356779,0.0012888330966234207
1772366590215504600,3.776504638671875,-0.0001574968919157982,-0.00269429967738688,0.0004819342866539955
1772366590225574400,3.786574462890625,-0.0011982605792582035,0.0021598441526293755,0.0011722259223461151
1772366590235644700,3.796644775390625,-0.0008467822335660458,-0.00007429160177707672,0.00013710930943489075
1772366590245714700,3.806714599609375,-0.00003265403211116791,0.0002567390911281109,-0.0010578511282801628
1772366590255784400,3.816784423828125,-0.00036798976361751556,-0.0002060295082628727,0.0010240357369184494
1772366590265854700,3.826854736328125,-0.0005288450047373772,0.004166614729911089,0.0015191175043582916
1772366590275924700,3.8369248046875,0.0013296413235366344,-0.000052099116146564484,0.0004699612036347389
1772366590285994500,3.846994384765625,-0.0014381823129951954,-0.0008204211480915546,0.0002691587433218956
1772366590296064500,3.857064453125,0.00038956012576818466,0.0018863133154809475,0.0022782394662499428
1772366590306135600,3.867135498046875,0.0005285772494971752,-0.0008064089342951775,-0.00042966194450855255
1772366590316205600,3.87720556640625,-0.00020063761621713638,0.0009552282281219959,-0.0017315354198217392
1772366590326275600,3.887275634765625,0.0002632848918437958,-0.0000775456428527832,0.0021537505090236664
1772366590336345600,3.897345703125,-0.002311699092388153,-0.000032623764127492905,-0.0006188666447997093
1772366590346415600,3.90741552734375,-0.0018829302862286568,0.00043236417695879936,0.0016773110255599022
1772366590356485600,3.917485595703125,-0.0007203565910458565,-0.0028742672875523567,0.001116645522415638
1772366590366555600,3.9275556640625,-0.001181350089609623,0.0008831867016851902,-0.0005528898909687996
1772366590376625700,3.937625732421875,-0.0006430372595787048,0.0003748643212020397,0.00012547988444566727
1772366590386695700,3.94769580078125,0.0005929358303546906,0.00025582127273082733,0.0023353705182671547
1772366590396765700,3.957765625,-0.0005410835146903992,0.0006281412206590176,-0.0002100914716720581
1772366590406835500,3.96783544921875,0.00097318971529603,-0.0005068979226052761,-0.00009451061487197876
1772366590416905700,3.97790576171875,0.00008201831951737404,-0.0014692097902297974,-0.00047757290303707123
1772366590426976800,3.987976806640625,0.0010487460531294346,-0.002354710828512907,-0.0021769357845187187
1772366590437043700,3.998043701171875,-0.001439032144844532,-0.0009880217257887125,-0.0005819834768772125
1772366590447113500,4.008113525390625,-0.0014254506677389145,-0.0001475280150771141,-0.0019061071798205376
1772366590457183500,4.01818359375,0.0025726482272148132,0.0001820400357246399,0.0013600429520010948
1772366590467254500,4.028254638671875,0.00029697688296437263,-0.0027117507997900248,-0.0008064387366175652
1772366590477324500,4.038324462890625,0.0005111051723361015,0.0005825483240187168,-0.0000942302867770195
1772366590487394600,4.04839453125,-0.0016236845403909683,-0.00027951691299676895,-0.00013124756515026093
1772366590497464600,4.058464599609375,0.0009520072489976883,-0.0006273211911320686,-0.0026375260204076767
1772366590507534600,4.06853466796875,-0.001125791110098362,0.0005828193388879299,0.0004924871027469635
1772366590517604600,4.0786044921875,-0.0012998487800359726,-0.0006883274763822556,-0.00015731342136859894
1772366590527674600,4.088674560546875,0.0026501514948904514,0.0015053185634315014,0.00106720719486475
1772366590537744600,4.09874462890625,-0.0010183821432292461,0.00136563740670681,0.0013451594859361649
1772366590547814700,4.108814697265625,0.00022957520559430122,0.00017200829461216927,0.0005880221724510193
1772366590557884700,4.118884765625,-0.0021172151900827885,0.0009145680814981461,-0.00044692959636449814
1772366590567954400,4.128954345703125,-0.0002724430523812771,-0.0010883952490985394,0.002138732932507992
1772366590578024700,4.139024658203125,0.0003224201500415802,0.003950439393520355,-0.0016835732385516167
1772366590588095700,4.149095703125,0.0005005858838558197,-0.0010381939355283976,0.0005822442471981049
1772366590598165500,4.15916552734375,0.002410478889942169,0.0023417333140969276,-0.0008135512471199036
1772366590608235500,4.169235595703125,-0.0014335280284285545,0.00006339931860566139,-0.0007027639076113701
1772366590618305800,4.179305908203125,0.00016890186816453934,-0.0002020220272243023,-0.0005127759650349617
1772366590628375600,4.18937548828125,-0.0014995685778558254,0.0012009311467409134,-0.00033008307218551636
1772366590638445600,4.199445556640625,0.0010270671918988228,0.0006430777721107006,0.001542363315820694
1772366590648515600,4.209515625,0.00034636352211236954,0.0036564446054399014,-0.0011631418019533157
1772366590658585600,4.219585693359375,0.0005194549448788166,0.001873016357421875,0.0010976996272802353
1772366590668655600,4.229655517578125,0.0030095106922090054,0.00106021948158741,0.0028979964554309845
1772366590678725600,4.2397255859375,-0.00045817112550139427,0.0009649223648011684,0.0002697715535759926
1772366590688795600,4.249795654296875,0.001361300703138113,-0.0023046403657644987,0.000988558866083622
1772366590698865700,4.25986572265625,0.0006314958445727825,0.0013714125379920006,0.0005031824111938477
1772366590708935400,4.269935302734375,0.0022043585777282715,0.00021746475249528885,0.0018933527171611786
1772366590719006500,4.28000634765625,0.0006699063815176487,-0.0002010846510529518,-0.0013615293428301811
1772366590729076700,4.29007666015625,0.0020552827045321465,-0.0011185435578227043,-0.0007255664095282555
1772366590739146800,4.300146728515625,0.0010543400421738625,0.0020346599631011486,0.0017710831016302109
1772366590749216500,4.310216552734375,-0.0014197370037436485,-0.000490815844386816,0.0006901063024997711
1772366590759286500,4.32028662109375,0.0005678976885974407,-0.0005989219062030315,0.0008281916379928589
1772366590769356500,4.3303564453125,-0.0003591487184166908,-0.0010386095382273197,0.0014103585854172707
1772366590779426600,4.340426513671875,0.0013784253969788551,-0.0009803776629269123,-0.00009998958557844162
1772366590789496600,4.35049658203125,0.0005712211132049561,0.001372259110212326,-0.0012214463204145432
1772366590799566600,4.360566650390625,-4.461035132408142e-7,0.00012580957263708115,0.0002282075583934784
1772366590809636600,4.37063671875,0.00043604616075754166,0.0037650191225111485,-0.00040748901665210724
1772366590819706600,4.38070654296875,-0.0002462407574057579,-0.0008018421940505505,0.0015846369788050652
1772366590829776600,4.390776611328125,-0.00001933937892317772,-0.0003368542529642582,-0.00001352652907371521
1772366590839847700,4.40084765625,-0.000642185565084219,0.00012900354340672493,-0.0004967600107192993
1772366590849917700,4.410917724609375,-0.0017995950765907764,-0.0021109809167683125,0.0007341532036662102
1772366590859987500,4.420987548828125,-0.000311543233692646,0.0009596440941095352,-0.00022243335843086243
1772366590870057500,4.431057373046875,0.0015372228808701038,0.0008038491941988468,-0.002038177102804184
1772366590880127700,4.441127685546875,0.0009578792378306389,-0.0015547273214906454,-0.00014157220721244812
1772366590890197500,4.451197509765625,-0.00035718968138098717,0.00007592607289552689,-0.0007445123046636581
1772366590900267500,4.461267578125,-0.0007438226602971554,0.0020433985628187656,-0.000387437641620636
1772366590910337800,4.471337890625,-0.000006127636879682541,-0.0017627913039177656,-0.00020660925656557083
1772366590920407600,4.481407470703125,-0.0037101958878338337,0.0005508391186594963,-0.001133982092142105
1772366590930477600,4.4914775390625,-0.001961031462997198,0.0020912112668156624,0.000009579584002494812
1772366590940547600,4.501547607421875,0.00037847552448511124,-0.0008904174901545048,0.00004276074469089508
1772366590950617600,4.51161767578125,-0.000661755446344614,-0.00001876475289463997,-0.0005553849041461945
1772366590960688600,4.521688720703125,0.001826111227273941,-0.0007552700117230415,0.0025080693885684013
1772366590970758700,4.531758544921875,0.00011929124593734741,0.0013507576659321785,0.001622036099433899
1772366590980828400,4.541828369140625,0.000687470193952322,-0.00044885650277137756,0.0005879150703549385
1772366590990898700,4.551898681640625,0.00007307901978492737,-0.000909583643078804,0.000009209848940372467
1772366591000968700,4.56196875,-0.00046265264973044395,0.0005144504830241203,0.00007305480539798737
1772366591011038500,4.57203857421875,0.00042338063940405846,0.0002888808958232403,-0.000017493031919002533
1772366591021108700,4.582108642578125,-0.0010438887402415276,-0.00046149082481861115,-0.0009040655568242073
1772366591031178800,4.5921787109375,-0.0001677083782851696,-0.0014708286616951227,-0.0012348294258117676
1772366591041248500,4.60224853515625,-0.0013612136244773865,0.0012795450165867805,0.0040887994691729546
1772366591051318500,4.612318603515625,-0.0005159256979823112,0.00003451714292168617,0.00045997556298971176
1772366591061388500,4.622388427734375,0.0000711735337972641,0.00046235788613557816,0.001050436869263649
1772366591071458600,4.63245849609375,0.00004933588206768036,-0.0021491379011422396,0.0014110291376709938
1772366591081529600,4.642529541015625,0.0009392634965479374,0.0010692467913031578,0.00016730371862649918
1772366591091599600,4.652599609375,0.0002764025703072548,0.0006948062218725681,0.00015931390225887299
1772366591101669600,4.662669677734375,0.0011170227080583572,0.0016811746172606945,-0.0013041412457823753
1772366591111739600,4.67273974609375,-0.00021349266171455383,-0.00025520985946059227,-0.0014847032725811005
1772366591121809700,4.6828095703125,-0.0010019149631261826,-0.00045368727296590805,-0.0006360374391078949
1772366591131879700,4.692879638671875,0.00034031830728054047,0.0001801452599465847,-0.0027111731469631195
1772366591141949700,4.70294970703125,0.0011589922942221165,0.0014116805978119373,0.00012265238910913467
1772366591152019500,4.71301953125,-0.0001217215321958065,0.0008098063990473747,0.0020366664975881577
1772366591162089500,4.72308935546875,0.0008899164386093616,-0.0003711818717420101,-0.0009156512096524239
1772366591172159700,4.73315966796875,-0.0013322248123586178,-0.0006121979095041752,-0.0002197669818997383
1772366591182229500,4.7432294921875,0.0026836837641894817,-0.0017027382273226976,-0.000010067597031593323
1772366591192299500,4.753299560546875,-0.0013526026159524918,-0.0002081720158457756,0.0027622831985354424
1772366591202369800,4.763369873046875,0.0002539358101785183,0.00009177858009934425,-0.0016739843413233757
1772366591212440600,4.773440673828125,0.00007310742512345314,-0.0011577766854315996,-0.0008848896250128746
1772366591222510600,4.783510498046875,-0.0002523590810596943,-0.0022771714720875025,0.0010906150564551353
1772366591232580600,4.79358056640625,-0.0023314887657761574,0.0024089268408715725,0.00025651324540376663
1772366591242650600,4.803650634765625,0.00022915564477443695,0.0001839357428252697,0.002368418499827385
1772366591252720600,4.813720703125,-0.0007173316553235054,0.0013341549783945084,-0.0006838301196694374
1772366591262790700,4.823790771484375,0.002443268895149231,-0.000026454217731952667,-0.0020224861800670624
1772366591272860400,4.8338603515625,-0.0019424250349402428,-0.0003915736451745033,0.0016119303181767464
1772366591282930700,4.8439306640625,-0.0007149013690650463,-0.0005706334486603737,0.00031815841794013977
1772366591293000700,4.854000732421875,-0.0008115735836327076,-0.002059340476989746,-0.00022033322602510452
1772366591303070500,4.864070556640625,0.0007306779734790325,-0.0009273719042539597,0.0005064103752374649
1772366591313140700,4.874140625,-0.0008656210266053677,0.0012558875605463982,0.0003823069855570793
1772366591323210800,4.884210693359375,-0.002226507756859064,0.0011854926124215126,0.0005844663828611374
1772366591333280500,4.894280517578125,0.0016984585672616959,-0.00018230685964226723,-0.003336505964398384
1772366591343350500,4.9043505859375,-0.0008194032125174999,-0.0020479587838053703,-0.00041085947304964066
1772366591353421600,4.914421630859375,-0.001006356906145811,-0.0011520714033395052,0.00008821673691272736
1772366591363491600,4.92449169921875,0.0003305980935692787,-0.0019940794445574284,0.0003029750660061836
1772366591373561600,4.9345615234375,0.0016914731822907925,-0.001862519420683384,-0.002234218642115593
1772366591383631600,4.944631591796875,-0.0008899811655282974,0.00052676722407341,0.0008067283779382706
1772366591393701600,4.95470166015625,0.00024239486083388329,0.0022279946133494377,-0.00010993145406246185
1772366591403771600,4.964771728515625,0.0013978099450469017,0.00034882593899965286,-0.00025156233459711075
1772366591413841400,4.97484130859375,-0.0012078271247446537,-0.0008464003913104534,-0.00016287900507450104
1772366591423911700,4.98491162109375,0.0015573063865303993,-0.0004304582253098488,0.0007150359451770782
1772366591433981700,4.994981689453125,-0.0011833528988063335,0.0004933923482894897,0.0008085127919912338
1772366591444051500,5.005051513671875,-0.00009878585115075111,-0.0032394432928413153,0.002422555349767208
1772366591454121500,5.01512158203125,-0.002082308754324913,-0.0005840053781867027,0.0005713924765586853
1772366591464191700,5.025191650390625,0.0012191543355584145,-0.0017944988794624805,-0.0013385163620114326
1772366591474261500,5.035261474609375,-0.00014837877824902534,-0.0016834449488669634,-0.00014036055654287338
1772366591484332500,5.04533251953125,0.0004847901873290539,-0.0032607740722596645,0.000021403655409812927
1772366591494402600,5.055402587890625,0.0012808088213205338,0.001966212410479784,0.0011260826140642166
1772366591504472600,5.06547265625,-0.00043716002255678177,-0.0014194224495440722,-0.001000409945845604
1772366591514542600,5.07554248046875,0.0012198593467473984,0.0015534642152488232,0.0006747180595993996
1772366591524612600,5.085612548828125,-0.001911007333546877,-0.00140607007779181,0.00034220609813928604
1772366591534682600,5.0956826171875,-0.0001352117396891117,-0.00027742236852645874,-0.0016692792996764183
1772366591544752600,5.105752685546875,0.0024519627913832664,-0.0011396135669201612,0.002318589948117733
1772366591554822700,5.11582275390625,0.00033528218045830727,-0.003912496846169233,0.0003095008432865143
1772366591564892400,5.125892333984375,0.0005393344908952713,0.0025374130345880985,-0.0011621685698628426
1772366591574962700,5.135962646484375,-0.0012859958223998547,0.0015965183265507221,-0.0011070407927036285
1772366591585032700,5.14603271484375,0.0011374624446034431,0.0016118255443871021,0.000482877716422081
1772366591595102500,5.1561025390625,-0.000951521098613739,-0.0011820965446531773,0.0009172391146421432
1772366591605172700,5.1661728515625,0.0002081603743135929,-0.0002601286396384239,-0.00004754215478897095
1772366591615242800,5.17624267578125,-0.0003764037974178791,0.0008946177549660206,-0.0033738305792212486
1772366591625312500,5.1863125,0.00013289647176861763,-0.0013935903552919626,-0.0004208264872431755
1772366591635383600,5.196383544921875,0.0008013499900698662,-0.0009946487843990326,0.0009214067831635475
1772366591645453600,5.20645361328125,-0.0007634437642991543,-0.00036829523742198944,-0.0010452847927808762
1772366591655523600,5.216523681640625,0.00013590557500720024,0.0017656958661973476,0.0017771339043974876
1772366591665593600,5.226593505859375,-0.00014434568583965302,-0.0002548759803175926,0.0015461994335055351
1772366591675663600,5.23666357421875,0.00010066526010632515,-0.0019308032933622599,-0.0012482553720474243
1772366591685733600,5.246733642578125,-0.00011554639786481857,0.0017078896053135395,0.0004399232566356659
1772366591695803600,5.2568037109375,-0.0010162279941141605,-0.0005235732533037663,-0.0007920553907752037
1772366591705873400,5.266873291015625,0.0005063391290605068,-0.003285505110397935,-0.0009680083021521568
1772366591715943700,5.276943603515625,-0.00045772548764944077,0.0018562600016593933,0.0007201693952083588
1772366591726013700,5.287013671875,0.0032734922133386135,0.00021676067262887955,-0.00028160493820905685
1772366591736083500,5.29708349609375,-0.0005052671767771244,0.0012117172591388226,-0.00008532963693141937
1772366591746153500,5.307153564453125,0.00007700547575950623,-0.0005905218422412872,-0.000814434140920639
1772366591756223700,5.3172236328125,-0.0016183634288609028,-0.000944189727306366,0.0015581762418150902
1772366591766293500,5.32729345703125,-0.0012959209270775318,-0.003954614046961069,-0.002233714796602726
1772366591776363500,5.337363525390625,-0.0010588993318378925,-0.0027061242144554853,-0.0011170506477355957
1772366591786434600,5.3474345703125,-0.0009616399183869362,0.001358245499432087,0.00044011324644088745
1772366591796504600,5.357504638671875,0.0006069624796509743,-0.000780805479735136,-0.0010206298902630806
1772366591806574600,5.36757470703125,-0.0004698340781033039,-0.00100219389423728,-0.0005821045488119125
1772366591816644600,5.37764453125,0.0015959800221025944,-0.00047329021617770195,0.0002642478793859482
1772366591826714600,5.387714599609375,0.0026810825802385807,-0.002131873043254018,0.00016206596046686172
1772366591836784600,5.39778466796875,0.0016243401914834976,0.0009062611497938633,0.002535741776227951
1772366591846854700,5.407854736328125,0.000001632142812013626,0.0006730719469487667,-0.0025845803320407867
1772366591856924400,5.41792431640625,-0.0003325948491692543,0.0020382083021104336,0.0014719460159540176
1772366591866994700,5.42799462890625,-0.0020464318804442883,-0.0022059467155486345,-0.0012359404936432838
1772366591877064700,5.438064697265625,-0.0017620059661567211,-0.0005752933211624622,-0.00014164764434099197
1772366591887134500,5.448134521484375,-0.000058117322623729706,-0.0005303304642438889,0.0006829351186752319
1772366591897204700,5.458204833984375,-0.0022767968475818634,0.00006302166730165482,0.0018086526542901993
1772366591907274500,5.4682744140625,0.0016157585196197033,0.002521967049688101,0.0011177752166986465
1772366591917344500,5.478344482421875,-0.0012047956697642803,0.0011967779137194157,-0.0007357848808169365
1772366591927414500,5.48841455078125,-0.0002047717571258545,-0.0009379186667501926,0.0008753892034292221
1772366591937485600,5.498485595703125,0.0016107051633298397,0.0004189619794487953,0.0008394364267587662
1772366591947555600,5.5085556640625,0.00012727687135338783,-0.0012777650263160467,-0.0008954759687185287
1772366591957625600,5.51862548828125,-0.00032066646963357925,-0.003207758069038391,0.00020867027342319489
1772366591967695600,5.528695556640625,0.00043919961899518967,0.00039496924728155136,-0.0009602727368474007
1772366591977765600,5.538765625,-0.00032592611387372017,0.001294584944844246,-0.0001410841941833496
1772366591987835600,5.548835693359375,-0.0020220731385052204,-0.00201776041649282,-0.00011956878006458282
1772366591997905400,5.558905517578125,-0.00012270687147974968,0.0009380821138620377,0.00013955682516098022
1772366592007975700,5.5689755859375,-0.0012962240725755692,-0.0031513189896941185,-0.00089286919683218
1772366592018045700,5.579045654296875,0.00004813913255929947,-0.0007800403982400894,0.0003340495750308037
1772366592028115500,5.589115478515625,-0.002288559451699257,0.0008155121468007565,0.0010545477271080017
1772366592038185500,5.599185546875,-0.00020676665008068085,0.0006759627722203732,0.00015759561210870743
1772366592048255700,5.609255859375,0.000055400654673576355,0.0024273963645100594,0.0021857284009456635
1772366592058328000,5.619328125,0.00005140574648976326,0.00416164705529809,0.001485583372414112
1772366592068398300,5.6293984375,0.0005163317546248436,-0.0009952965192496777,0.003129073418676853
1772366592078468400,5.63946826171875,-0.0013494784943759441,-0.000584104098379612,0.000699738971889019
1772366592088538000,5.6495380859375,0.0006038034334778786,0.0012441547587513924,0.0016734888777136803
1772366592098609200,5.659609130859375,-0.0015099472366273403,0.001268921885639429,-0.0004858020693063736
1772366592108679200,5.66967919921875,-0.0000877799466252327,-0.0008119251579046249,-0.000652804970741272
1772366592118749200,5.679749267578125,-0.0011099008843302727,0.0006371010094881058,-0.0009758463129401207
1772366592128819200,5.689819091796875,-0.000459255650639534,0.0015271804295480251,-0.0007897317409515381
1772366592138889200,5.69988916015625,0.0009138705208897591,-0.0002925577573478222,0.0028782403096556664
1772366592148959200,5.709959228515625,0.0010211742483079433,-0.000869459006935358,-0.00044153910130262375
1772366592159029200,5.720029296875,0.00034925900399684906,-0.0010675981175154448,-0.003529474139213562
1772366592169099300,5.730099365234375,0.0007605333812534809,-0.00036996882408857346,0.000004772096872329712
1772366592179169300,5.740169189453125,-0.0005673184059560299,0.00253900233656168,0.002865539863705635
1772366592189239300,5.7502392578125,-0.0012110448442399502,-0.0012125892098993063,0.00029822252690792084
1772366592199309000,5.76030908203125,-0.0008190278895199299,-0.00025038933381438255,-0.0004903394728899002
1772366592209379000,5.770379150390625,0.0014552725479006767,-0.0008273660205304623,-0.0023437896743416786
1772366592219449300,5.780449462890625,-0.0004512844607234001,0.001234985888004303,0.0007273685187101364
1772366592229519000,5.79051904296875,-0.0005101929418742657,0.002303989138454199,-0.00044265855103731155
1772366592239589000,5.800589111328125,0.0017753317952156067,0.0005465690046548843,-0.0012517273426055908
1772366592249659400,5.810659423828125,0.0029154010117053986,0.00035185879096388817,0.001189274713397026
1772366592259729200,5.820729248046875,-0.0018601794727146626,0.00018567731603980064,-0.00031993817538022995
1772366592269799200,5.830799072265625,0.0008151382207870483,-0.0007860693149268627,-0.0005510346964001656
1772366592279870200,5.8408701171875,-0.00022535910829901695,-0.0012316163629293442,0.002428775653243065
1772366592289940200,5.850940185546875,-0.0006668819114565849,0.001441693864762783,0.0007133390754461288
1772366592300010200,5.86101025390625,0.00016881804913282394,0.000975640956312418,-0.0016643311828374863
1772366592310080300,5.871080322265625,-0.0007900609634816647,-0.0007118596695363522,0.0019693290814757347
1772366592320150000,5.88114990234375,0.0008203522302210331,-0.0001430083066225052,0.00023481156677007675
1772366592330220300,5.89122021484375,0.0017817029729485512,0.0010944916866719723,0.0015736380591988564
1772366592340290300,5.901290283203125,0.0007057860493659973,-0.00047890376299619675,0.00023699738085269928
1772366592350360000,5.911360107421875,0.0005388841964304447,0.0007430426776409149,-0.0001847958192229271
1772366592360430300,5.921430419921875,0.0000845487229526043,0.0010948460549116135,0.002629365772008896
1772366592370500400,5.931500244140625,0.0000032400712370872498,-0.0007936800830066204,0.0016838135197758675
1772366592380570000,5.941570068359375,-0.0018772180192172527,0.0018503060564398766,-0.0009447261691093445
1772366592390640400,5.951640380859375,0.00023675616830587387,0.00034114718437194824,0.000786258839070797
1772366592400710400,5.96171044921875,-0.0008506127633154392,-0.0001928163692355156,0.0014861375093460083
1772366592410780200,5.9717802734375,0.0016963421367108822,0.002784088719636202,-0.000034341588616371155
1772366592420850200,5.98185009765625,0.0007581105455756187,-0.0005286172963678837,0.00004608556628227234
1772366592430920200,5.991920166015625,0.0006895423866808414,-0.00022955285385251045,0.00009446218609809875
1772366592440990200,6.001990234375,-0.00042206142097711563,0.00045993924140930176,-0.0014501707628369331
1772366592451060200,6.012060302734375,-0.0007430547848343849,0.0036067944020032883,-0.0009169066324830055
1772366592461130200,6.022130126953125,0.0012180972844362259,-0.0001490619033575058,0.00036966707557439804
1772366592471201300,6.032201171875,-0.0002458509989082813,-0.002253444166854024,0.00244784913957119
1772366592481271300,6.042271240234375,-0.0004136296920478344,0.0007061269134283066,0.00007950048893690109
1772366592491341000,6.052341064453125,-0.000596857164055109,0.001162408385425806,-0.0008545117452740669
1772366592501411000,6.0624111328125,-0.0005531818605959415,-0.00019047735258936882,0.0013375366106629372
1772366592511481300,6.0724814453125,0.0009291917085647583,0.0015725982375442982,0.0014989282935857773
1772366592521551000,6.082551025390625,-0.0009459401480853558,0.000855941791087389,0.001310110092163086
1772366592531621000,6.09262109375,-0.0009099394083023071,0.0025272094644606113,0.0006864583119750023
1772366592541691400,6.10269140625,0.0011409609578549862,0.00044887885451316833,0.000751173123717308
1772366592551761200,6.11276123046875,-0.00010922132059931755,0.0006150458939373493,-0.0015450771898031235
1772366592561831200,6.1228310546875,-0.00003971299156546593,-0.0021932574454694986,-0.001225232146680355
1772366592571901400,6.1329013671875,-0.0011074556969106197,-0.0004950268194079399,0.0017629070207476616
1772366592581971200,6.14297119140625,0.001291519496589899,-0.0011493656784296036,-0.0004893280565738678
1772366592592041200,6.153041259765625,0.0013600671663880348,-0.001118186628445983,0.00003087799996137619
1772366592602111200,6.163111328125,-0.00024049263447523117,0.00030340906232595444,0.0011571291834115982
1772366592612181200,6.17318115234375,0.0011217119172215462,-0.000558000523597002,-0.0008328184485435486
1772366592622251300,6.183251220703125,-0.00019522150978446007,0.000531765166670084,0.0002239244058728218
1772366592632321000,6.193321044921875,-0.00217818608507514,-0.00029510678723454475,-0.000529375858604908
1772366592642391300,6.203391357421875,0.00044236471876502037,0.001146196387708187,-0.0006233854219317436
1772366592652461300,6.21346142578125,-0.00015264889225363731,0.001383371651172638,0.00015734508633613586
1772366592662532400,6.223532470703125,0.00023803720250725746,-0.00046033458784222603,0.0013240762054920197
1772366592672602000,6.23360205078125,-0.0020720940083265305,0.0007847468368709087,-0.00006896909326314926
1772366592682672400,6.24367236328125,-0.0016073724254965782,-0.0009295297786593437,0.0011164043098688126
1772366592692742100,6.2537421875,-0.00045085465535521507,-0.0010224953293800354,-0.0009105196222662926
1772366592702812200,6.263812255859375,0.0008397125639021397,0.0008952468633651733,0.001650908961892128
1772366592712882200,6.273882080078125,0.001706599723547697,0.0012356783263385296,-0.00047378428280353546
1772366592722952200,6.2839521484375,-0.0008942433632910252,0.0013688364997506142,0.000516112893819809
1772366592733022200,6.294022216796875,0.0012092427350580692,-0.0005156341940164566,0.00006407033652067184
1772366592743092200,6.30409228515625,0.0007525105029344559,0.0013826671056449413,0.0001713959500193596
1772366592753162200,6.314162353515625,-0.0002633221447467804,-0.002768811536952853,-0.0023983586579561234
1772366592763232300,6.324232177734375,-0.0003283033147454262,-0.0007274984382092953,-0.0010177753865718842
1772366592773302300,6.33430224609375,0.0004708976484835148,-0.0011226788628846407,0.0005388623103499413
1772366592783372300,6.344372314453125,0.002004612237215042,0.000015556346625089645,0.000046710483729839325
1772366592793442300,6.3544423828125,0.0005888622254133224,-0.0018015613313764334,0.00012687407433986664
1772366592803512300,6.36451220703125,0.0013206987641751766,0.0004173843190073967,-0.0006406484171748161
1772366592813582000,6.37458203125,-0.00018360652029514313,0.001142954919487238,-0.0019465656951069832
1772366592823652400,6.38465234375,0.000013733748346567154,-0.001132449833676219,0.002211427316069603
1772366592833722000,6.39472216796875,0.0014151162467896938,-0.00017710449174046516,0.0003329068422317505
1772366592843792100,6.404792236328125,-0.0012509743683040142,-0.001216270262375474,-0.0013073338195681572
1772366592853862400,6.4148623046875,0.0002410723827779293,-0.0008760751225054264,-0.000534549355506897
1772366592863932200,6.42493212890625,-0.0006375042721629143,0.0007330067455768585,0.00015281233936548233
1772366592874003200,6.435003173828125,0.0007945778779685497,0.0013470533303916454,0.0005557620897889137
1772366592884073200,6.4450732421875,0.0020052511245012283,0.002604598179459572,0.0018929354846477509
1772366592894143200,6.455143310546875,-0.00028138235211372375,0.000543669331818819,0.0018293699249625206
1772366592904213200,6.465213134765625,0.0007298202253878117,-0.0004741908051073551,0.0011590523645281792
1772366592914283300,6.475283203125,0.0002223169431090355,0.0018828455358743668,-0.0022152140736579895
1772366592924353000,6.48535302734375,0.002289196476340294,0.0008609904907643795,0.0016892459243535995
1772366592934423300,6.49542333984375,0.000552093144506216,-0.0018231996800750494,-0.001605834811925888
1772366592944493300,6.505493408203125,-0.00002581300213932991,-0.0009014797396957874,0.0002847425639629364
1772366592954563000,6.51556298828125,-0.004203097894787788,0.000013647601008415222,-0.001419026404619217
1772366592964633300,6.52563330078125,0.0009077750146389008,0.0006498768925666809,-0.0012339362874627113
1772366592974703400,6.535703369140625,0.0005965186282992363,0.00029199104756116867,-0.0022286009043455124
1772366592984773000,6.545773193359375,-0.0021401457488536835,0.0022118641063570976,0.00014560669660568237
1772366592994843100,6.555843017578125,-0.00041788117960095406,-0.0009290724992752075,0.001795790158212185
1772366593004913400,6.565913330078125,0.0007949220016598701,-0.003857484320178628,0.0019513191655278206
1772366593014983200,6.575983154296875,0.0014480655081570148,0.0012607262469828129,-0.0021341610699892044
1772366593025053200,6.58605322265625,0.0012888084165751934,-0.0008772597648203373,-0.000940798781812191
1772366593035123200,6.596123291015625,0.00045265257358551025,0.0018239798955619335,0.0007737912237644196
1772366593045193200,6.606193115234375,-0.001895190216600895,0.0003882697783410549,0.0007684649899601936
1772366593055259600,6.616259765625,0.000737801194190979,0.0017292601987719536,0.0025047315284609795
1772366593065329700,6.62632958984375,-0.001076610293239355,0.00007623620331287384,0.0009246775880455971
1772366593075399700,6.636399658203125,0.000325965229421854,-0.00040736282244324684,-0.00023340433835983276
1772366593085469400,6.646469482421875,0.0010090661235153675,0.0018472694791853428,0.0003447672352194786
1772366593095540500,6.65654052734375,-0.001764967106282711,-0.00007340079173445702,-0.0012767249718308449
1772366593105610500,6.666610595703125,0.0002869982272386551,0.0010445942170917988,-0.0004151929169893265
1772366593115680800,6.6766806640625,0.0005392851307988167,0.0011453479528427124,-0.0022186757996678352
1772366593125750500,6.68675048828125,0.0016868412494659424,0.009724454954266548,0.001219465397298336
1772366593135820500,6.696820556640625,0.00020936131477355957,0.004880612250417471,0.0003976356238126755
1772366593145890800,6.706890869140625,0.0018613198772072792,0.0063773090951144695,0.0002519609406590462
1772366593155960600,6.716960693359375,0.0015686703845858574,0.005137482658028603,0.00023990031331777573
1772366593166030600,6.727030517578125,-0.000961066223680973,-0.0015395949594676495,0.0005046185106039047
1772366593176100600,6.7371005859375,0.0024356315843760967,0.00012979470193386078,-0.0014224322512745857
1772366593186170600,6.747170654296875,-0.0007431171834468842,0.0004919846542179585,0.0022471370175480843
1772366593196240600,6.75724072265625,0.0005378928035497665,-0.003074337262660265,0.0004443749785423279
1772366593206310400,6.767310302734375,0.00173285324126482,-0.0008487333543598652,-0.00110558420419693
1772366593216380700,6.777380615234375,-0.00007423665374517441,-0.0030852938070893288,-0.002173366956412792
1772366593226450700,6.78745068359375,-0.0010750526562333107,0.0014644507318735123,0.0009249551221728325
1772366593236520400,6.7975205078125,0.0005615339614450932,-0.002830062061548233,-0.0023350343108177185
1772366593246590700,6.8075908203125,0.0013367803767323494,0.0014946451410651207,-0.0016727056354284286
1772366593256660700,6.81766064453125,0.001285254955291748,-0.0016407524235546589,0.0008865520358085632
1772366593266730500,6.82773046875,-0.0009952099062502384,0.002694341354072094,0.0004359455779194832
1772366593276800500,6.837800537109375,-0.0008603758178651333,0.0019299802370369434,-0.00017707981169223785
1772366593286870800,6.847870849609375,0.0009899884462356567,0.0006615165621042252,-0.0010242322459816933
1772366593296940500,6.8579404296875,0.0013060001656413078,0.00009509595111012459,-0.00048053078353405
1772366593307010600,6.868010498046875,0.001511862501502037,0.0003763260319828987,-0.001736210659146309
1772366593317080600,6.87808056640625,0.000038234516978263855,0.0017362181097269058,0.0010246941819787025
1772366593327150600,6.888150634765625,0.00020707910880446434,0.0010435301810503006,0.001448403112590313
1772366593337221600,6.8982216796875,0.0009773531928658485,0.002450197469443083,-0.0009293835610151291
1772366593347291600,6.908291748046875,0.0004833368584513664,0.0023143761791288853,0.0013968879356980324
1772366593357361700,6.918361572265625,0.0002347719855606556,0.001471412368118763,-0.0007507503032684326
1772366593367431700,6.928431640625,-0.002252886537462473,-0.0003959960304200649,-0.0008905669674277306
1772366593377501400,6.93850146484375,0.0007427535019814968,0.0007193358615040779,0.0027262168005108833
1772366593387571500,6.948571533203125,0.0010034767910838127,-0.0013603265397250652,-0.00017076916992664337
1772366593397641700,6.958641845703125,-0.0005285344086587429,0.001057029701769352,-0.0011174026876688004
1772366593407711500,6.96871142578125,0.0009654988534748554,-0.0027305178809911013,0.00024800002574920654
1772366593417781500,6.978781494140625,-0.0011467626318335533,0.0005662092007696629,0.0012806551530957222
1772366593427851800,6.988851806640625,0.0017824484966695309,-0.0007725618779659271,-0.0003185737878084183
1772366593437921500,6.998921630859375,0.0002583651803433895,0.0004558088257908821,0.000002173706889152527
1772366593447991600,7.008991455078125,0.0008434616029262543,0.0015551620163023472,-0.0014132969081401825
1772366593458061600,7.0190615234375,0.0012387633323669434,0.006230500526726246,0.0018755001947283745
1772366593468131600,7.029131591796875,0.0001913420855998993,0.005416638217866421,-0.0005429163575172424
1772366593478201600,7.03920166015625,-0.003283186350017786,0.004677760414779186,-0.0004958407953381538
1772366593488271600,7.049271728515625,0.0005192756652832031,0.007301506586372852,0.001201924867928028
1772366593498341600,7.059341552734375,0.0005783899687230587,0.007421167101711035,0.0015556849539279938
1772366593508411600,7.06941162109375,-0.0016213813796639442,0.009595638141036034,0.001785515807569027
1772366593518481400,7.0794814453125,0.0015683462843298912,0.007280990947037935,-0.0004040859639644623
1772366593528551700,7.0895517578125,-0.002112674992531538,0.006597623694688082,0.002047087997198105
1772366593538621700,7.09962158203125,0.0015112711116671562,0.0015102853067219257,0.003879495896399021
1772366593548691500,7.10969140625,-0.0001955488696694374,0.0029174992814660072,0.0007851691916584969
1772366593558761500,7.119761474609375,-0.0001275395043194294,0.0003057424910366535,0.0011766422539949417
1772366593568831700,7.129831787109375,0.0005710073746740818,0.004925261717289686,0.0005151126533746719
1772366593578901500,7.139901611328125,-0.00075191305950284,0.0016731591895222664,0.0005118781700730324
1772366593588971500,7.149971435546875,0.0003879196010529995,0.0019373446702957153,0.0012868577614426613
1772366593599042600,7.16004248046875,-0.0009358893148601055,0.007446737959980965,-0.000024029985070228577
1772366593609112600,7.170112548828125,-0.0006863516755402088,0.0012759272940456867,0.0016444399952888489
1772366593619182600,7.1801826171875,-0.00016684969887137413,0.0004435442388057709,-0.00003071315586566925
1772366593629252600,7.190252685546875,0.00023741833865642548,0.006010616663843393,-0.0010959776118397713
1772366593639322600,7.200322509765625,0.002332353498786688,0.002554253675043583,0.0015803202986717224
1772366593649392600,7.210392578125,-0.0010368111543357372,0.005960170179605484,0.00038216356188058853
1772366593659462700,7.220462646484375,0.002184139098972082,0.005914737470448017,0.0012361053377389908
1772366593669532400,7.230532470703125,-0.0006774277426302433,0.001392157282680273,0.0011218562722206116
1772366593679602700,7.240602783203125,0.0012793652713298798,0.000985824503004551,0.0008243462070822716
1772366593689672700,7.250672607421875,0.001728906761854887,0.005225843749940395,-0.0002627559006214142
1772366593699742500,7.260742431640625,0.0013599907979369164,0.006275073159486055,-0.0009633330628275871
1772366593709812700,7.270812744140625,0.0009234989993274212,0.0045474800281226635,0.0012076757848262787
1772366593719882500,7.280882568359375,-0.0006206715479493141,0.0046927775256335735,-0.00016617123037576675
1772366593729952500,7.290952392578125,0.002201213501393795,0.004916483070701361,0.0011403756216168404
1772366593740022800,7.301022705078125,-0.0005976147949695587,0.002327777910977602,0.0021084584295749664
1772366593750092500,7.311092529296875,0.0007352973334491253,0.004176544491201639,0.0020072581246495247
1772366593760162600,7.32116259765625,-0.0007266653701663017,0.0014696884900331497,0.0009278375655412674
1772366593770232600,7.331232666015625,0.0023985542356967926,-0.001248333603143692,-0.0012980327010154724
1772366593780302600,7.341302490234375,0.00016389600932598114,0.00008511124178767204,-0.0010967114940285683
1772366593790372600,7.35137255859375,0.0006278185173869133,0.00006487127393484116,0.0005307458341121674
1772366593800442600,7.361442626953125,0.0029643182642757893,0.003045683726668358,0.00045160483568906784
1772366593810512600,7.3715126953125,-0.0005385377444326878,0.0029460815712809563,0.0013544168323278427
1772366593820582700,7.381582763671875,-0.000010306481271982193,0.00395338935777545,0.002200191840529442
1772366593830652700,7.391652587890625,-0.0017679929733276367,0.0000683697871863842,0.0018430622294545174
1772366593840722700,7.40172265625,-0.0007970505394041538,-0.0017753681167960167,0.0018656756728887558
1772366593850792700,7.411792724609375,-0.0002532331272959709,0.0005141515284776688,-0.0011199945583939552
1772366593860862500,7.421862548828125,-0.00009541958570480347,0.0007679872214794159,0.0028115035966038704
1772366593870932500,7.431932373046875,0.0002766242250800133,0.0013999557122588158,0.0005302401259541512
1772366593881002800,7.442002685546875,-0.0016852011904120445,0.005056676920503378,0.000059839338064193726
1772366593891073800,7.45207373046875,0.002127113752067089,0.0036763600073754787,-0.0003404337912797928
1772366593901143600,7.4621435546875,-0.00037964852526783943,0.007680469658225775,0.0025631915777921677
1772366593911213600,7.472213623046875,-0.001039579976350069,0.003158689010888338,0.0019107172265648842
1772366593921283800,7.482283935546875,0.00009251059964299202,0.0071320971474051476,0.000048199668526649475
1772366593931353600,7.492353515625,0.0015870765782892704,0.002424427308142185,-0.00010147038847208023
1772366593941423600,7.502423583984375,0.0007737884297966957,0.002465318888425827,0.00038295425474643707
1772366593951493400,7.512493408203125,0.00037404801696538925,0.0027843653224408627,0.0010569998994469643
1772366593961563600,7.522563720703125,-0.0016108392737805843,-0.0015313909389078617,0.0007494185119867325
1772366593971633700,7.532633544921875,-0.0005186763592064381,-0.00012231245636940002,-0.0014013499021530151
1772366593981703400,7.542703369140625,0.004087110515683889,-0.0005171741358935833,0.0010808836668729782
1772366593991773700,7.552773681640625,-0.002148947212845087,0.001567015890032053,0.001012439839541912
1772366594001843700,7.56284375,-0.0008443165570497513,-0.0007540369406342506,0.002826840616762638
1772366594011913500,7.57291357421875,-0.0023205066099762917,-0.005267562344670296,-0.0001625576987862587
1772366594021983700,7.582983642578125,-0.001247091218829155,0.0009167981334030628,0.0024573933333158493
1772366594032053800,7.5930537109375,0.000005393289029598236,-0.0007681841962039471,-0.000051837414503097534
1772366594042123500,7.60312353515625,-0.0014415248297154903,-0.000020051375031471252,0.0001684054732322693
1772366594052193500,7.613193603515625,0.0022477521561086178,0.002039104700088501,-0.0007075080648064613
1772366594062263800,7.623263916015625,-0.000993042252957821,0.0008266936056315899,0.001882624812424183
1772366594072333800,7.633333740234375,-0.00013603642582893372,0.0011827582493424416,0.0005830023437738419
1772366594082403600,7.643403564453125,-0.0020858380012214184,0.0027461969293653965,-0.00022833235561847687
1772366594092473900,7.653473876953125,0.000537375919520855,0.003702272195369005,0.00008618645370006561
1772366594102544000,7.6635439453125,0.001646143849939108,-0.0015555217396467924,0.0029379157349467278
1772366594112613600,7.673613525390625,0.001589951105415821,-0.0026559398975223303,-0.000513806939125061
1772366594122683600,7.68368359375,0.0005544070154428482,0.0024111345410346985,0.0012938324362039566
1772366594132753700,7.693753662109375,-0.0012080734595656395,0.0022358987480401993,0.00006744731217622757
1772366594142823700,7.70382373046875,0.0024528740905225277,0.003830739762634039,-0.0005341237410902977
1772366594152893700,7.713893798828125,-0.0006012390367686749,0.0011300276964902878,-0.0005511678755283356
1772366594162963700,7.723963623046875,5.2619725465774536e-8,0.003372801933437586,-0.0018300684168934822
1772366594173033700,7.73403369140625,0.001806208398193121,0.0029187328182160854,-0.002430344931781292
1772366594183103700,7.744103759765625,0.00040687061846256256,0.0046288566663861275,-0.0011145276948809624
1772366594193173800,7.754173828125,-0.0013265814632177353,-0.0014969469048082829,0.0005225175991654396
1772366594203243800,7.764243896484375,-0.0011142948642373085,0.0034024612978100777,0.0003946823999285698
1772366594213314800,7.774314697265625,0.0001025032252073288,0.00017976993694901466,-0.0012665968388319016
1772366594223384600,7.784384521484375,-0.002674213144928217,0.004445893224328756,0.0003001932054758072
1772366594233454600,7.79445458984375,0.0006691194139420986,0.0021358667872846127,0.0004181712865829468
1772366594243524900,7.80452490234375,0.0008512740023434162,0.006535951513797045,-0.0005372930318117142
1772366594253594600,7.8145947265625,0.00007735937833786011,0.0027896822430193424,-0.0019165445119142532
1772366594263664600,7.82466455078125,0.0011947569437325,0.00018962379544973373,0.0018449043855071068
1772366594273735000,7.83473486328125,-0.0003315005451440811,0.0017678127624094486,0.0012488886713981628
1772366594283804700,7.8448046875,0.00012676557525992393,-0.0016591567546129227,0.00040747132152318954
1772366594293874700,7.854874755859375,-0.00010892422869801521,0.003255440853536129,-0.0001286230981349945
1772366594303944700,7.86494482421875,-0.0018143504858016968,0.0005597593262791634,-0.00046179909259080887
1772366594314014700,7.8750146484375,0.0016922340728342533,0.0008090310730040073,0.0005818940699100494
1772366594324084700,7.885084716796875,0.0003239591605961323,0.0005346387624740601,0.0026633860543370247
1772366594334154800,7.89515478515625,-0.0012792637571692467,0.0025399988517165184,-0.0005606366321444511
1772366594344224800,7.905224853515625,-0.0009969486854970455,-0.0006031845696270466,-0.0017748596146702766
1772366594354294800,7.915294677734375,0.0008310452103614807,-0.001604533288627863,0.0007373001426458359
1772366594364364500,7.925364501953125,-0.000994628295302391,0.0006509753875434399,0.0017349030822515488
1772366594374434800,7.935434814453125,0.0031471201218664646,0.0017511271871626377,0.0011127879843115807
1772366594384504800,7.9455048828125,0.0022372095845639706,0.0017620893195271492,0.000015961937606334686
1772366594394574600,7.95557470703125,-0.00006243027746677399,-0.000777767039835453,-0.00034383125603199005
1772366594404644600,7.96564453125,-0.0017359964549541473,0.00048625608906149864,0.0018902048468589783
1772366594414715000,7.97571484375,-0.00015860656276345253,0.0007142229005694389,-0.0007220897823572159
1772366594424784600,7.98578466796875,0.0016552289016544819,0.0020193024538457394,-0.00008435267955064774
1772366594434854700,7.995854736328125,0.00104136997833848,0.0014808112755417824,0.00015586521476507187
1772366594444925000,8.005925048828125,0.001250355038791895,0.002212934195995331,-0.0003045136108994484
1772366594454994700,8.01599462890625,-0.0005627255886793137,0.0014427476562559605,0.0004164036363363266
1772366594465064700,8.026064697265625,0.00005902955308556557,0.0006371703930199146,0.00025692861527204514
1772366594475134700,8.036134765625,-0.0011987816542387009,-0.0014363669324666262,0.0017155418172478676
1772366594485205800,8.046205810546875,-0.0012410739436745644,-0.0006668870337307453,0.0004418613389134407
1772366594495275800,8.05627587890625,-0.0011270912364125252,-0.0010218862444162369,0.0003611678257584572
1772366594505345800,8.066345703125,-0.00007564062252640724,-0.0015471831429749727,0.00014982186257839203
1772366594515415600,8.07641552734375,-0.0012572850100696087,-0.003270780900493264,-0.0006595132872462273
1772366594525485800,8.08648583984375,0.001258700154721737,0.00031596003100275993,0.00166985671967268
1772366594535555800,8.096555908203126,0.001490661408752203,0.0015106541104614735,-0.0008271224796772003
1772366594545625600,8.10662548828125,0.0001236232928931713,-0.000997697003185749,-0.00024831853806972504
1772366594555695900,8.11669580078125,0.0012477436102926731,0.0012649246491491795,0.002471834421157837
1772366594565765600,8.126765625,0.0006595887243747711,-0.0022020689211785793,0.00011642463505268097
1772366594575835600,8.136835693359375,0.0016478877514600754,-0.0007461188361048698,-0.0013983817771077156
1772366594585905700,8.14690576171875,-0.0012808013707399368,0.0007369904778897762,-0.0005428055301308632
1772366594595975700,8.1569755859375,-0.0005859825760126114,-0.0013043226208537817,0.0007903724908828735
1772366594606045700,8.167045654296874,-0.00007702270522713661,-0.0018388137686997652,-0.0014941133558750153
1772366594616115700,8.17711572265625,-0.0019122068770229816,-0.0010545128025114536,0.00190647691488266
1772366594626185700,8.187185791015626,0.0006697317585349083,0.00036453548818826675,0.00032901763916015625
1772366594636255700,8.197255859375,0.0018609636463224888,0.0004995577037334442,-0.00044489651918411255
1772366594646325800,8.20732568359375,-0.00016803201287984848,0.0007177810184657574,-0.00040697213262319565
1772366594656395800,8.217395751953125,-0.00138056930154562,0.0023186071775853634,0.000475333072245121
1772366594666465800,8.2274658203125,-0.00047533726319670677,-0.0024604506324976683,-0.00014197267591953278
1772366594676535800,8.237535888671875,-0.0007552350871264935,-0.0021832154598087072,0.0005826735869050026
1772366594686606600,8.247606689453125,-0.002821895759552717,-0.0009754365310072899,-0.0018328763544559479
1772366594696676600,8.257676513671875,0.0019187978468835354,-0.000017231330275535583,-0.00048158783465623856
1772366594706747000,8.267746826171875,-0.0008835042826831341,0.001451099757105112,-0.0009614843875169754
1772366594716816600,8.277816650390625,-0.0005844314582645893,0.00023696478456258774,0.0006803544238209724
1772366594726886700,8.28788671875,0.0019247150048613548,0.0011097020469605923,-0.00010607857257127762
1772366594736957000,8.29795703125,-0.0012047654017806053,0.003101480659097433,0.00021962635219097137
1772366594747026700,8.308026611328126,0.0008995737880468369,0.002051517367362976,-0.0002325763925909996
1772366594757096700,8.3180966796875,0.0003666752018034458,0.003987635485827923,0.0000699581578373909
1772366594767166700,8.328166748046876,-0.0009154877625405788,-0.0030516318511217833,-0.00007431674748659134
1772366594777236700,8.33823681640625,-0.0018569151870906353,0.0011636195704340935,-0.0007068179547786713
1772366594787306800,8.348306640625,0.001535782590508461,-0.00003190338611602783,-0.00020519830286502838
1772366594797376500,8.35837646484375,0.0014484310522675514,0.0006858184933662415,0.0005535362288355827
1772366594807446800,8.36844677734375,-0.00017629889771342278,-0.00287331803701818,0.0013259034603834152
1772366594817516800,8.378516845703125,-0.0030993842519819736,0.003090298268944025,-0.001576942391693592
1772366594827586600,8.388586669921875,-0.0019358615390956402,-0.0019818004220724106,-0.0006029317155480385
1772366594837656800,8.39865673828125,0.001998959109187126,-0.0036007361486554146,-0.0005259662866592407
1772366594847726800,8.408726806640624,0.0004454595036804676,-0.0012644948437809944,0.001038169488310814
1772366594857796600,8.418796630859376,-0.001027268823236227,-0.0019673029892146587,-0.0007613282650709152
1772366594867867000,8.428866943359376,-0.000718757975846529,-0.001670969882979989,0.0018029585480690002
1772366594877937000,8.43893701171875,0.0012897979468107224,-0.0021146524231880903,-0.0006934879347681999
1772366594888007700,8.449007568359375,0.0006907861679792404,0.0023460625670850277,0.0010560117661952972
1772366594898077700,8.45907763671875,0.0009155566804111004,0.002745536621659994,0.00020060408860445023
1772366594908147700,8.469147705078125,0.00010621268302202225,-0.0008987244218587875,-0.0006716437637805939
1772366594918217700,8.4792177734375,-0.0009262948296964169,-0.0005024462006986141,-0.000806666910648346
1772366594928287700,8.489287841796875,-0.0006050132215023041,0.003739692736417055,0.00080147385597229
1772366594938357800,8.499357666015625,-0.0009810524061322212,0.0038424902595579624,-0.0010419655591249466
1772366594948427800,8.509427734375,-0.0002654450945556164,0.0004288163036108017,0.00033796951174736023
1772366594958497800,8.519497802734374,0.0008655996061861515,0.00008287141099572182,-0.0007579214870929718
1772366594968567600,8.529567626953124,0.001362442970275879,-0.000051734503358602524,-0.0011895354837179184
1772366594978637600,8.539637451171876,-0.002455731388181448,-0.0013359107542783022,0.0013732248917222023
1772366594988707800,8.549707763671876,-0.0011737514287233353,-0.0016000214964151382,0.0005514593794941902
1772366594998777600,8.559777587890625,-0.00008132262155413628,-0.000356325414031744,-0.00018863286823034286
1772366595008847600,8.56984765625,-0.003316120244562626,0.0033320928923785686,0.000045171938836574554
1772366595018920700,8.579920654296876,0.0015452136285603046,0.002984017599374056,0.0002616867423057556
1772366595028990700,8.58999072265625,-0.0004664771258831024,0.001258930191397667,0.0016659172251820564
1772366595039060700,8.600060791015625,-0.00047686323523521423,0.00031031202524900436,-0.0006246678531169891
1772366595049130500,8.610130615234375,0.0018497584387660027,-0.0002460046671330929,-0.000661039724946022
1772366595059200500,8.620200439453125,0.000012443400919437408,-0.00246228720061481,0.0017248857766389847
1772366595069270500,8.6302705078125,-0.001244573388248682,-0.0032178680412471294,-0.0010081790387630463
1772366595079340500,8.640340576171875,0.0007730373181402683,-0.0009911991655826569,-0.0010214950889348984
1772366595089410600,8.65041064453125,0.0002308380790054798,-0.002970885019749403,0.0017627142369747162
1772366595099480600,8.66048046875,-0.001999027095735073,0.0030419998802244663,0.00127322506159544
1772366595109550600,8.670550537109374,0.001160808838903904,0.0010524597018957138,0.0008968822658061981
1772366595119620600,8.68062060546875,-0.0015287171117961407,0.0012420769780874252,0.0003924798220396042
1772366595129690400,8.6906904296875,-0.00015850691124796867,0.0019758325070142746,0.0012576403096318245
1772366595139760400,8.700760498046876,-0.00162510946393013,0.0033929008059203625,0.0014131683856248856
1772366595149830700,8.71083056640625,0.0006870999932289124,0.004009976051747799,0.0000869622454047203
1772366595159900400,8.720900390625,0.0008594063110649586,0.0032898569479584694,-0.0012478148564696312
1772366595169970400,8.730970458984375,0.0003702137619256973,0.00037528015673160553,0.000026086345314979553
1772366595180040700,8.741040771484375,-0.00009983405470848083,0.0014711706899106503,0.0004519261419773102
1772366595190110500,8.7511103515625,0.0007285759784281254,0.002327953465282917,0.0016680499538779259
1772366595200180500,8.761180419921875,-0.00017556734383106232,0.0009700078517198563,0.0008584493771195412
1772366595210251500,8.77125146484375,-0.0024643754586577415,0.0015463815070688725,0.00008715223520994186
1772366595220321500,8.781321533203124,0.000534876249730587,-0.0007053213194012642,-0.0017469674348831177
1772366595230391600,8.7913916015625,-0.0009299782104790211,0.002399604767560959,-0.0005637956783175468
1772366595240461600,8.801461669921874,-0.0020114886574447155,0.0011798767372965813,0.00011078361421823502
1772366595250531300,8.81153125,-0.0003238525241613388,0.0025570313446223736,-0.00045702606439590454
1772366595260601600,8.8216015625,-0.001123333815485239,0.0020137466490268707,-0.00229593925178051
1772366595270671600,8.831671630859375,-0.0002957470715045929,0.0028335154056549072,-0.00015315599739551544
1772366595280741400,8.841741455078125,-0.002404438331723213,0.002853489015251398,-0.0015097707509994507
1772366595290811600,8.851811767578125,-0.0004999204538762569,0.0005069402977824211,-0.0003427201882004738
1772366595300881700,8.861881591796875,0.0023810872808098793,-0.003460637293756008,0.0013949917629361153
1772366595310951400,8.871951416015625,0.0018429430201649666,0.0019321385771036148,0.00030284933745861053
1772366595321021400,8.882021484375,0.00064452039077878,0.003085819538682699,-0.003276173025369644
1772366595331091500,8.892091552734374,-0.0024053803645074368,-0.0021514790132641792,-0.00112855713814497
1772366595341161500,8.902161376953124,-0.0002157292328774929,-0.0009637093171477318,-0.00227345060557127
1772366595351231500,8.9122314453125,-0.0008104653097689152,-0.0000720340758562088,-0.0004292130470275879
1772366595361301500,8.922301513671876,0.0005064681172370911,0.0009048134088516235,-0.00010643713176250458
1772366595371371500,8.93237158203125,0.001016346737742424,0.0015463964082300663,-0.0022109895944595337
1772366595381441500,8.942441650390625,0.0026901434175670147,-0.0016818875446915627,-0.00033079832792282104
1772366595391511600,8.952511474609375,-0.002023599110543728,0.0014056479558348656,0.0017208177596330643
1772366595401582600,8.96258251953125,0.0012622089125216007,-0.0015089157968759537,-0.0019258484244346619
1772366595411652600,8.972652587890625,-0.0008384506218135357,-0.0002617337740957737,0.0012662597000598907
1772366595421722400,8.982722412109375,0.0005202936008572578,-0.00034988438710570335,0.00011364370584487915
1772366595431792400,8.99279248046875,-0.00045853108167648315,0.00008509354665875435,0.0012812130153179169
1772366595441862700,9.002862548828125,-0.0019541624933481216,-0.0009894915856420994,-0.0002908511087298393
1772366595451932400,9.012932373046874,0.001572231762111187,-0.001437899423763156,0.0011849859729409218
1772366595462002400,9.02300244140625,-0.00047254282981157303,-0.0011193854734301567,0.0023208241909742355
1772366595472072700,9.03307275390625,-0.0007707467302680016,-0.0009998560417443514,-0.00041804928332567215
1772366595482142500,9.043142578125,-0.0030738478526473045,0.0003650141879916191,-0.0018508294597268105
1772366595492212500,9.05321240234375,-0.00020890822634100914,0.0027955155819654465,-0.001308457925915718
1772366595502282500,9.063282470703125,0.0009327889420092106,-0.000023174099624156952,0.0013115592300891876
1772366595512352500,9.0733525390625,-0.0005102711729705334,0.000606810674071312,0.00031297095119953156
1772366595522422500,9.083422607421875,0.0027696783654391766,0.0010118777863681316,-0.001387723721563816
1772366595532492500,9.093492431640625,-0.002153613604605198,-0.0031258193776011467,0.0012686075642704964
1772366595542562600,9.1035625,0.0007886462844908237,0.0000276295468211174,0.0014481041580438614
1772366595552632600,9.113632568359375,-0.0011275806464254856,-0.0010284483432769775,-0.002023101784288883
1772366595562702300,9.123702392578124,-0.0008040065877139568,0.00016917521134018898,-0.0034268544986844063
1772366595572772600,9.133772705078124,0.0002677761949598789,-0.00024228496477007866,-0.00028283149003982544
1772366595582842600,9.143842529296874,0.0016302494332194328,0.0015018191188573837,-0.0001470101997256279
1772366595592912400,9.153912353515626,-0.000785305630415678,-0.00012723729014396667,0.00014644954353570938
1772366595602983400,9.1639833984375,-0.00014002202078700066,-0.002508635865524411,0.002233303152024746
1772366595613053400,9.174053466796876,0.0007294914685189724,0.002054878044873476,0.0014359410852193832
1772366595623123500,9.18412353515625,0.0026637455448508263,0.002036502119153738,0.0021105194464325905
1772366595633193500,9.194193359375,-0.00044576171785593033,0.0005567502230405807,-0.0017981072887778282
1772366595643263500,9.204263427734375,-0.0012878533452749252,-0.00030185282230377197,-0.0015669455751776695
1772366595653333500,9.21433349609375,-0.000006235670298337936,-0.00035739829763770103,0.00016112159937620163
1772366595663403500,9.224403564453125,0.0016771480441093445,0.00042929966002702713,0.00022503826767206192
1772366595673473500,9.2344736328125,-0.0007263640873134136,-0.001751866890117526,-0.00029152631759643555
1772366595683543600,9.24454345703125,0.0017716805450618267,-0.0008860733360052109,0.000004883855581283569
1772366595693613600,9.254613525390624,0.0005631041713058949,-0.0003324514254927635,0.0002446351572871208
1772366595703683600,9.26468359375,0.0001196879893541336,0.0007716952823102474,-0.0009513907134532928
1772366595713753300,9.27475341796875,-0.0008724723011255264,0.003005518577992916,0.00043021608144044876
1772366595723823600,9.28482373046875,-0.0008458402007818222,0.0007322439923882484,-0.0005040206015110016
1772366595733893600,9.2948935546875,0.0016956673935055733,0.0015852432698011398,0.0010184310376644135
1772366595743963400,9.30496337890625,0.0005742101930081844,0.0037546539679169655,-0.0011765463277697563
1772366595754033700,9.31503369140625,0.002447705250233412,0.004542571492493153,-0.0004578670486807823
1772366595764103400,9.325103515625,0.000523571390658617,0.0007614158093929291,0.0009125955402851105
1772366595774173400,9.33517333984375,-0.001057725865393877,-0.0006236708723008633,-0.0015103351324796677
1772366595784243500,9.345243408203125,-0.0013727783225476742,-0.00047986023128032684,-0.0005087200552225113
1772366595794313500,9.3553134765625,0.0014256751164793968,0.00041875196620821953,-0.000028677284717559814
1772366595804383500,9.365383544921874,-0.002306744921952486,0.00034072110429406166,0.00031726714223623276
1772366595814453500,9.37545361328125,0.001646555494517088,0.000010348856449127197,0.0012892624363303185
1772366595824524300,9.385524169921876,0.0006372174248099327,-0.0006274781189858913,-0.0013049226254224777
1772366595834594600,9.395594482421876,-0.00346206221729517,0.00013059750199317932,-0.0007002530619502068
1772366595844664600,9.40566455078125,-0.000545102171599865,0.0027109342627227306,-0.00025017838925123215
1772366595854734300,9.415734375,0.0019125668331980705,-0.0006500533781945705,0.00012889597564935684
1772366595864804600,9.4258046875,-0.0005929353646934032,0.0019382727332413197,0.000653805211186409
1772366595874874600,9.43587451171875,0.0004186602309346199,-0.0006325631402432919,-0.0018952758982777596
1772366595884944400,9.4459443359375,0.0005270508117973804,0.001028184313327074,-0.0018244357779622078
1772366595895014400,9.456014404296875,0.0008859825320541859,-0.00008401786908507347,-0.0013231085613369942
1772366595905084700,9.466084716796875,0.0012401831336319447,-0.00018228823319077492,-0.001364387571811676
1772366595915154400,9.476154541015624,0.0015455810353159904,0.0006237011402845383,-0.00004100333899259567
1772366595925224400,9.486224365234374,-0.0014323652721941471,0.001780844759196043,0.000005602836608886719
1772366595935294700,9.496294677734374,-0.00028218328952789307,0.0007826997898519039,0.00017326604574918747
1772366595945364500,9.506364501953126,0.001534092240035534,0.0009864317253232002,-0.0003098314628005028
1772366595955434500,9.5164345703125,-0.0012062261812388897,0.001221606507897377,0.0009776968508958817
1772366595965504500,9.52650439453125,0.002031378448009491,-0.0003331471234560013,0.0008320221677422523
1772366595975574500,9.536574462890625,-0.0032186913304030895,0.0004817517474293709,0.0008546346798539162
1772366595985644500,9.54664453125,0.001431986689567566,-0.0005528861656785011,-0.0001794705167412758
1772366595995714300,9.55671435546875,-0.0031267828308045864,-0.0007422962225973606,0.002734331414103508
1772366596005784600,9.56678466796875,0.0006288066506385803,0.000979171134531498,-0.0005272421985864639
1772366596015854600,9.5768544921875,-0.0020938324742019176,-0.0021192869171500206,-0.00040940381586551666
1772366596025924400,9.58692431640625,-0.0006908788345754147,-0.001873743487522006,0.0003386782482266426
1772366596035994600,9.59699462890625,-0.0012947157956659794,0.0009547537192702293,0.0005529327318072319
1772366596046064600,9.607064697265624,-0.00017751939594745636,0.00004981132224202156,-0.0001322990283370018
1772366596056134400,9.617134521484376,0.002884856890887022,-0.001973499311134219,-0.000016784295439720154
1772366596066205400,9.627205322265626,-0.002272887621074915,-0.000830470584332943,-0.0029662353917956352
1772366596076275700,9.637275634765626,0.0001365477219223976,-0.001322007505223155,-0.00035763345658779144
1772366596086345500,9.647345458984375,-0.0012155394069850445,-0.0008692704141139984,-0.00011981278657913208
1772366596096415500,9.65741552734375,0.0010468191467225552,0.001734124030917883,-0.0002330690622329712
1772366596106485500,9.667485595703125,0.0005424167029559612,0.0005575395189225674,-0.00022055208683013916
1772366596116555500,9.677555419921875,-0.0019274232909083366,0.0014385608956217766,-0.002109149470925331
1772366596126625500,9.68762548828125,0.0007402645424008369,0.0024494966492056847,0.0017143506556749344
1772366596136695600,9.697695556640625,-0.001576150767505169,-0.002212071791291237,-0.0013395808637142181
1772366596146765600,9.707765625,0.00003133341670036316,0.000966943334788084,-0.0033707739785313606
1772366596156835600,9.717835693359374,-0.0018431334756314754,-0.0012802011333405972,-0.00020957458764314651
1772366596166905300,9.7279052734375,0.0004290756769478321,0.0012862873263657093,-0.0006468659266829491
1772366596176975600,9.7379755859375,0.0008121533319354057,0.00297207897529006,-0.0022925101220607758
1772366596187045600,9.748045654296876,-0.0018355613574385643,0.0011430196464061737,0.0008225897327065468
1772366596197115400,9.758115478515625,0.00007820688188076019,0.00010601663962006569,-0.0006421301513910294
1772366596207185400,9.768185302734375,-0.0003995639272034168,0.0004514283500611782,-0.0007848748937249184
1772366596217255700,9.778255615234375,-0.0008115433156490326,0.0010104579851031303,0.0005596913397312164
1772366596227325400,9.788325439453125,0.00042389705777168274,0.005529842805117369,-0.0010669678449630737
1772366596237395500,9.7983955078125,0.0002595549449324608,0.001647894736379385,-0.0003744550049304962
1772366596247465700,9.8084658203125,-0.00012447265908122063,0.0025427169166505337,-0.0002021482214331627
1772366596257535500,9.818535400390624,0.00027608778327703476,0.0010252506472170353,-0.0009289858862757683
1772366596267605500,9.82860546875,0.001983972731977701,-0.0002810298465192318,-0.0007910346612334251
1772366596277675500,9.838675537109374,-0.0022771679796278477,-0.002191247884184122,-0.0012657856568694115
1772366596287745500,9.84874560546875,-0.002026831265538931,0.001250887755304575,-0.0033164191991090775
1772366596297815600,9.858815673828126,-0.00003532459959387779,-0.0015748024452477694,-0.0007705371826887131
1772366596307885300,9.86888525390625,-0.0009434628300368786,0.0026124855503439903,0.0016193827614188194
1772366596317955600,9.87895556640625,-0.0011737095192074776,-0.000011335127055644989,-0.00009712390601634979
1772366596328025600,9.889025634765625,0.0016830633394420147,0.0003916011191904545,-0.003310759551823139
1772366596338095400,9.899095458984375,-0.0002001272514462471,0.0013365731574594975,-0.00022906437516212463
1772366596348165600,9.90916552734375,0.0012600841000676155,0.00171261141076684,0.0009701568633317947
1772366596358236700,9.919236572265625,0.0013867462985217571,0.00039447983726859093,0.00028044916689395905
1772366596368306700,9.929306640625,-0.0020202351734042168,0.00139582809060812,0.0028147129341959953
1772366596378376400,9.93937646484375,0.00031774677336215973,0.0021972572430968285,-0.0007736869156360626
1772366596388446500,9.949446533203124,-0.0023581977002322674,0.0006086817011237144,-0.00040430668741464615
1772366596398516500,9.9595166015625,-0.0011571231298148632,0.002719653770327568,-0.0017414726316928864
1772366596408586500,9.96958642578125,-0.0015451456420123577,-0.0009682914242148399,0.0011480571702122688
1772366596418656500,9.979656494140626,-0.0013032881543040276,0.0007494869641959667,0.0010496089234948158
1772366596428726500,9.9897265625,-0.00016159052029252052,0.000922059640288353,-0.00009688176214694977
1772366596438796500,9.999796630859375,0.0003737695515155792,0.00026500318199396133,-0.000901687890291214
1772366596448866600,10.009866455078125,0.0005500707775354385,-0.0022729893680661917,0.00044054538011550903
1772366596458936600,10.0199365234375,-0.0003069555386900902,-0.0003504161722958088,-0.000052412040531635284
1772366596469006600,10.030006591796875,0.000036059413105249405,-0.00047638406977057457,0.00042349472641944885
1772366596479076600,10.04007666015625,0.00041511887684464455,-0.00026065343990921974,0.00006598234176635742
1772366596489146400,10.050146484375,0.0006177853792905807,-0.0007062004879117012,-0.0010935580357909203
1772366596499216600,10.060216552734374,-0.0006914916448295116,0.0005100416019558907,-0.0014361152425408363
1772366596509286400,10.070286376953124,0.0012646005488932133,-0.00014802534133195877,0.0009135911241173744
1772366596519356400,10.0803564453125,0.001130419783294201,-0.0010654646903276443,-0.0004971502348780632
1772366596529426700,10.0904267578125,0.00023293448612093925,0.0008562724106013775,0.0008583990857005119
1772366596539496400,10.100496337890625,0.0015426557511091232,0.0008951504714787006,-0.001067054457962513
1772366596549566500,10.11056640625,0.0006401101127266884,0.00030366238206624985,0.002039790153503418
1772366596559636500,10.120636474609375,0.0006860271096229553,0.003326224163174629,0.0038526756688952446
1772366596569706500,10.13070654296875,0.0011677928268909454,-0.0022118189372122288,0.00032185669988393784
1772366596579776500,10.140776611328125,0.0014582551084458828,0.0005863402038812637,0.001503785140812397
1772366596589846500,10.150846435546875,-0.0010698838159441948,0.0002827397547662258,-0.0007146280258893967
1772366596599916500,10.16091650390625,-0.0022263797000050545,0.0010148673318326473,-0.00004822388291358948
1772366596609986600,10.170986572265624,0.0009201448410749435,0.0015315208584070206,0.0009067850187420845
1772366596620056600,10.181056640625,0.000039350707083940506,0.00026570260524749756,0.00011925678700208664
1772366596630126600,10.191126708984376,0.0003552013076841831,0.0007551913149654865,-0.0002487925812602043
1772366596640196600,10.201196533203126,8.21426510810852e-7,0.0007390649989247322,0.0012511182576417923
1772366596650266400,10.211266357421875,-0.00047561805695295334,0.0022101951763033867,0.002825845032930374
1772366596660336400,10.22133642578125,0.0016436949372291565,-0.001119045540690422,0.0015741894021630287
1772366596670406700,10.23140673828125,-0.0007020174525678158,-0.005477042403072119,-0.0009531509131193161
1772366596680476400,10.241476318359375,-0.0010133245959877968,0.0018681851215660572,0.0017287451773881912
1772366596690546400,10.25154638671875,-0.001231171190738678,0.003551835659891367,0.000597967766225338
1772366596700616700,10.26161669921875,-0.0005604545585811138,0.0025268462486565113,-0.000046525150537490845
1772366596710686500,10.2716865234375,-0.000205987598747015,0.0059785689227283,0.002581481821835041
1772366596720757500,10.281757568359374,-0.00043382029980421066,-0.0019479654729366302,-0.0012761764228343964
1772366596730827500,10.29182763671875,-0.0006937449797987938,0.014683474786579609,0.0076416851952672005
1772366596740897500,10.3018974609375,0.00013130484148859978,0.03202615678310394,0.02473144605755806
1772366596750967600,10.311967529296876,0.0025438624434173107,0.015491124242544174,0.010482204146683216
1772366596761037600,10.32203759765625,-0.000321356114000082,0.005163542926311493,0.008745161816477776
1772366596771107300,10.332107421875,0.001010756939649582,0.005820011720061302,0.005622604861855507
1772366596781177600,10.342177490234375,-0.00029528792947530746,-0.011454861611127853,-0.0037168608978390694
1772366596791247600,10.35224755859375,0.000643210019916296,-0.027352336794137955,-0.013658707961440086
1772366596801317400,10.3623173828125,0.0010491907596588135,-0.031240040436387062,-0.019900314509868622
1772366596811387600,10.3723876953125,0.00002600438892841339,-0.02238902635872364,-0.016903724521398544
1772366596821457700,10.382457763671875,-0.0003727702423930168,-0.008350939489901066,-0.010352730751037598
