time,seconds_elapsed,z,y,x
1772568080918406400,0.116406494140625,-0.0001470581628382206,0.00003916909918189049,-0.0025680065155029297
1772568080928478500,0.126478515625,-0.0015809042379260063,-0.0008063842542469501,0.0008365781977772713
1772568080938550500,0.136550537109375,0.00046227313578128815,-0.0008167708292603493,0.0012680105865001678
1772568080948622600,0.14662255859375,-0.0002830158919095993,0.0012332997284829617,-0.0005688201636075974
1772568080958694400,0.1566943359375,-0.0010649198666214943,0.0015001483261585236,0.0010320059955120087
1772568080968766500,0.166766357421875,-0.0000031767413020133972,-0.0002635517157614231,0.001881440170109272
1772568080978838500,0.176838623046875,0.000058342237025499344,0.0004626922309398651,0.0003956630825996399
1772568080988910300,0.186910400390625,0.0005582766607403755,0.002444505225867033,-0.0012700306251645088
1772568080998982400,0.196982421875,0.0004123356193304062,0.0010660532861948013,0.0007638251408934593
1772568081009055500,0.207055419921875,-0.0009341384284198284,0.0013910289853811264,0.00029035937041044235
1772568081019127300,0.217127197265625,0.000024333130568265915,-0.0007626693695783615,0.0008003544062376022
1772568081029199400,0.227199462890625,-0.00018822913989424706,-0.0005028853192925453,0.0005728332325816154
1772568081039271400,0.237271484375,-0.0007016868330538273,-0.001369744073599577,0.0017454233020544052
1772568081049343200,0.24734326171875,-0.0028546652756631374,0.00008251937106251717,-0.0017133820801973343
1772568081059415300,0.257415283203125,0.0009350129403173923,0.0006598928011953831,-0.00002866610884666443
1772568081069487400,0.2674873046875,0.0016147950664162636,0.0009418237023055553,-0.00004941783845424652
1772568081079559400,0.277559326171875,0.00004379637539386749,-0.002093381015583873,-0.0006251931190490723
1772568081089631200,0.28763134765625,0.000986059196293354,-0.001364122610539198,0.0004966044798493385
1772568081099703600,0.29770361328125,0.00005182204768061638,0.0025067818351089954,0.0008369563147425652
1772568081109775600,0.307775634765625,0.0012985561043024063,-0.00005051447078585625,0.003135768696665764
1772568081119848400,0.317848388671875,-0.00018988456577062607,-0.00004465552046895027,-0.0013029221445322037
1772568081129920500,0.32792041015625,0.00090774055570364,0.0018973806872963905,-0.00047149788588285446
1772568081139992600,0.33799267578125,0.0000994708389043808,0.0036915522068738937,0.00044010207056999207
1772568081150064400,0.348064453125,-0.00044737663120031357,0.0006741625256836414,-0.00033241603523492813
1772568081160136400,0.358136474609375,0.00202616723254323,-0.0011756690219044685,-0.0027055591344833374
1772568081170208500,0.36820849609375,0.0007909373380243778,-0.0016735144890844822,-0.000492568127810955
1772568081180280300,0.3782802734375,-0.0010762051679193974,0.0006263917312026024,0.0011735055595636368
1772568081190352400,0.388352294921875,-0.0018682954832911491,-0.0006993277929723263,-0.002073836512863636
1772568081200424400,0.398424560546875,0.00018446939066052437,0.001847719307988882,0.00042154546827077866
1772568081210496500,0.40849658203125,-0.0002886522561311722,0.0005266233347356319,0.0008734632283449173
1772568081220568300,0.418568359375,-0.00013472139835357666,0.00016629789024591446,0.0006002224981784821
1772568081230640400,0.428640380859375,-0.0013063116930425167,0.00023000361397862434,0.0011234069243073463
1772568081240713500,0.43871337890625,0.0001232731156051159,-0.002459522569552064,0.0005071507766842842
1772568081250785300,0.448785400390625,-0.00002245372161269188,0.0025684256106615067,0.0013262368738651276
1772568081260857300,0.458857421875,0.00027741817757487297,0.0012019574642181396,-0.00041227415204048157
1772568081270929400,0.468929443359375,0.00008718715980648994,0.0008427384309470654,-0.0003048377111554146
1772568081281001200,0.479001220703125,-0.0019464031793177128,-0.001440389547497034,-0.0008057784289121628
1772568081291073300,0.4890732421875,0.0012349681928753853,-0.0003694053739309311,0.0021297363564372063
1772568081301145600,0.4991455078125,-0.0012042215093970299,0.0015968065708875656,0.0012881774455308914
1772568081311217700,0.5092177734375,-0.0006433418020606041,-0.00020427489653229713,0.0014535840600728989
1772568081321293300,0.519293212890625,0.0010352488607168198,-0.0018618260510265827,-0.000013551674783229828
1772568081331365400,0.529365478515625,0.0004995642229914665,0.0005229366943240166,-0.0015176823362708092
1772568081341438200,0.539438232421875,0.001695855986326933,0.00020815106108784676,-0.002315298654139042
1772568081351510300,0.54951025390625,-0.0002507348544895649,0.0012201392091810703,0.0032356223091483116
1772568081361582300,0.559582275390625,-0.001073385588824749,0.0001844358630478382,-0.0005002608522772789
1772568081371654400,0.569654296875,-0.0020012524910271168,-0.0013088691048324108,-0.0002939067780971527
1772568081381726200,0.579726318359375,-0.0018585068173706532,0.0021729478612542152,0.000829680822789669
1772568081391798300,0.58979833984375,-0.000673904549330473,-0.00226535159163177,0.00037327036261558533
1772568081401870300,0.599870361328125,-0.0008334279991686344,-0.0022011692635715008,-0.000204368494451046
1772568081411942100,0.609942138671875,-0.0031171906739473343,0.0007772818207740784,0.0024822931736707687
1772568081422014200,0.62001416015625,-0.0007736086845397949,0.0011953976936638355,0.0010242126882076263
1772568081432086500,0.63008642578125,-0.0009003900922834873,-0.000843362882733345,-0.0025324607267975807
1772568081442158300,0.640158447265625,-0.0006974572315812111,-0.00024308636784553528,-0.0008703814819455147
1772568081452231400,0.6502314453125,0.000278557650744915,0.0014953408390283585,0.0028603626415133476
1772568081462303500,0.660303466796875,-0.0002703196369111538,0.0018221107311546803,-0.0017173457890748978
1772568081472375300,0.670375244140625,-0.0001481468789279461,-0.00037653883919119835,-0.001405881717801094
1772568081482447400,0.680447265625,0.00016317656263709068,0.00017100712284445763,0.000940629281103611
1772568081492519400,0.69051953125,-0.0022789333015680313,-0.00007319124415516853,0.0011262930929660797
1772568081502591500,0.700591552734375,0.002174670808017254,0.002397955860942602,-0.0010606953874230385
1772568081512663300,0.710663330078125,-0.0011445283889770508,-0.00012644007802009583,0.0001066010445356369
1772568081522735400,0.7207353515625,-0.0011101728305220604,-0.0017355219461023808,0.0008762544021010399
1772568081532807400,0.730807373046875,0.0007048556581139565,-0.00015320582315325737,-0.0005749408155679703
1772568081542879200,0.740879150390625,-0.0008626808412373066,-0.0006243190728127956,-0.00017360225319862366
1772568081552951300,0.750951416015625,-0.0016782577149569988,0.00036555295810103416,0.001400332897901535
1772568081563024400,0.7610244140625,-0.0001986054703593254,0.00038685835897922516,-0.0005866521969437599
1772568081573096200,0.77109619140625,-0.001078478991985321,0.0003676009364426136,0.0014141462743282318
1772568081583168300,0.781168212890625,-0.0001261322759091854,-0.0035965144634246826,0.002123611979186535
1772568081593240300,0.791240234375,-0.0018101856112480164,-0.0008667758665978909,-0.00003884918987751007
1772568081603312000,0.80131201171875,-0.00033665914088487625,0.00032765185460448265,-0.00039571337401866913
1772568081613384200,0.81138427734375,-0.0017153220251202583,0.00002785399556159973,0.0004887999966740608
1772568081623456300,0.821456298828125,-0.0006085117347538471,-0.00035883719101548195,0.00005763396620750427
1772568081633528600,0.831528564453125,0.0021891100332140923,0.0015501240268349648,-0.0027157245203852654
1772568081643600400,0.841600341796875,0.00028628110885620117,-0.00036096060648560524,-0.00005789007991552353
1772568081653672400,0.85167236328125,0.000524639617651701,0.00019784970209002495,0.0009460216388106346
1772568081663744500,0.86174462890625,0.0008061360567808151,-0.0006812596693634987,0.0020682774484157562
1772568081673816300,0.87181640625,0.0011493000201880932,-0.0010916702449321747,0.002106759697198868
1772568081683889400,0.881889404296875,0.0008646082133054733,0.0012774774804711342,0.003017027862370014
1772568081693961500,0.89196142578125,0.0013967291451990604,0.0006162994541227818,-0.000538763590157032
1772568081704033300,0.902033203125,-0.0007681543938815594,-0.0028239719104021788,-0.000015718862414360046
1772568081714105300,0.912105224609375,0.0006820866838097572,-0.0008649732917547226,0.0004510954022407532
1772568081724177400,0.922177490234375,0.001553739421069622,-0.0025315796956419945,0.0003914404660463333
1772568081734249500,0.93224951171875,0.0004373909905552864,0.0015968303196132183,0.0006504999473690987
1772568081744321300,0.9423212890625,0.0013567139394581318,0.0005635241977870464,0.00083878543227911
1772568081754393300,0.952393310546875,-0.001688788179308176,0.002255466766655445,0.0011327685788273811
1772568081764465400,0.96246533203125,-0.0007074135355651379,-0.0006721462123095989,0.000002789311110973358
1772568081774537200,0.972537109375,0.0007020500488579273,-0.0004995251074433327,-0.00020450353622436523
1772568081784609300,0.982609375,-0.0012162248603999615,0.002516771201044321,-0.0003650924190878868
1772568081794682400,0.992682373046875,0.0007242420688271523,0.0021681622602045536,-0.0001262407749891281
1772568081804754200,1.002754150390625,0.0012001488357782364,-0.0011317604221403599,0.0010087992995977402
1772568081814826200,1.012826171875,-0.0022649546153843403,-0.002317660953849554,-0.00156430434435606
1772568081824898300,1.022898193359375,-0.001705158967524767,0.0012887916527688503,-0.00004363898187875748
1772568081834970000,1.03297021484375,0.00012688059359788895,-0.0003112000413239002,-0.00003853160887956619
1772568081845042400,1.04304248046875,0.0004880051128566265,0.00016284268349409103,0.0013777371495962143
1772568081855114500,1.053114501953125,-0.001242069061845541,0.0008671805262565613,-0.002018144354224205
1772568081865186600,1.0631865234375,0.0004471740685403347,-0.000708612147718668,-0.0006735147908329964
1772568081875258400,1.07325830078125,-0.0008214809931814671,0.0027368240989744663,-0.0003314223140478134
1772568081885330400,1.083330322265625,-0.002650007139891386,-0.00011329073458909988,0.001035577617585659
1772568081895403300,1.0934033203125,0.0008305148221552372,-0.0005116639658808708,0.001750498078763485
1772568081905475300,1.103475341796875,0.0009490256197750568,-0.0002711806446313858,0.000054863281548023224
1772568081915547400,1.11354736328125,0.0006528738886117935,0.0012787235900759697,0.000394647940993309
1772568081925619500,1.123619384765625,-0.0028422591276466846,0.0016124173998832703,0.000586128793656826
1772568081935691300,1.133691162109375,0.000676990021020174,-0.00018782354891300201,-0.0009199967607855797
1772568081945763300,1.143763427734375,0.0021244180388748646,0.001124315895140171,-0.0006755180656909943
1772568081955835400,1.15383544921875,-0.0011192113161087036,-0.00007412396371364594,-0.0012470893561840057
1772568081965907500,1.163907470703125,0.0010669780895113945,0.001312317792326212,0.0016922419890761375
1772568081975979300,1.173979248046875,0.0013702879659831524,0.0020339246839284897,0.0011498667299747467
1772568081986051300,1.18405126953125,-0.0002955193631350994,0.000005927402526140213,0.0018638605251908302
1772568081996123400,1.194123291015625,0.00040064845234155655,0.002544115763157606,-0.0012849867343902588
1772568082006196200,1.2041962890625,0.0011945366859436035,-0.00141999963670969,-0.000013061799108982086
1772568082016268300,1.214268310546875,-0.00030476367101073265,-0.0005437349900603294,0.0008636591956019402
1772568082026340400,1.22434033203125,0.0005538393743336201,-0.00023560738191008568,0.0007936181500554085
1772568082036412200,1.234412109375,-0.00023083575069904327,-0.0014435234479606152,0.0011456292122602463
1772568082046484500,1.244484375,0.001271985936909914,0.002484639175236225,-0.0005057966336607933
1772568082056556500,1.254556640625,0.0002643042244017124,-0.0008238358423113823,-0.0011237869039177895
1772568082066628400,1.26462841796875,-0.0005676676519215107,0.0018148240633308887,-0.0004540020599961281
1772568082076700400,1.274700439453125,-0.00022919243201613426,-0.0006818021647632122,-0.0004605129361152649
1772568082086772500,1.2847724609375,0.0005828053690493107,0.0013754898682236671,0.001901710405945778
1772568082096844500,1.294844482421875,0.0003585102967917919,-0.0011317548342049122,-0.0005008028820157051
1772568082106916400,1.304916259765625,-0.0011531002819538116,0.00006720051169395447,0.0013748612254858017
1772568082116989400,1.314989501953125,-0.0012897984124720097,0.001659137662500143,0.00009189173579216003
1772568082127061200,1.325061279296875,-0.0004967092536389828,-0.0021116319112479687,-0.0009744381532073021
1772568082137133300,1.33513330078125,-0.0015336773358285427,0.0016160421073436737,-0.002732393331825733
1772568082147205400,1.345205322265625,0.0012171012349426746,-0.0009251460433006287,0.0005179950967431068
1772568082157277400,1.35527734375,-0.0015746182762086391,0.0012833364307880402,0.0008254265412688255
1772568082167349200,1.365349365234375,0.00047894474118947983,0.001528879627585411,-0.0023826174437999725
1772568082177421300,1.37542138671875,0.000020864419639110565,-0.0006745676510035992,-0.0013893330469727516
1772568082187493400,1.385493408203125,0.0011993134394288063,-0.0011145221069455147,0.0009531835094094276
1772568082197565400,1.3955654296875,-0.0007615471258759499,-0.0013140472583472729,-0.0016287416219711304
1772568082207637200,1.40563720703125,0.00020917505025863647,0.0012737461365759373,0.0009153764694929123
1772568082217710300,1.41571044921875,0.0008084881119430065,0.001211640890687704,0.001970706507563591
1772568082227782100,1.4257822265625,-0.0010349522344768047,0.00017913337796926498,-0.0015992606058716774
1772568082237854200,1.435854248046875,-0.000007236842066049576,0.0001789894886314869,0.00019276607781648636
1772568082247926300,1.44592626953125,-0.0000421241857111454,0.0021617128513753414,0.0005727997049689293
1772568082257998600,1.45599853515625,-0.0007410990074276924,0.0017169304192066193,-0.0001577623188495636
1772568082268070400,1.4660703125,-0.0012026247568428516,0.0011986792087554932,0.0012380005791783333
1772568082278142500,1.476142578125,0.0004905490204691887,0.002135314978659153,0.00031879451125860214
1772568082288214500,1.486214599609375,-0.0026682261377573013,0.00016084732487797737,0.002188066951930523
1772568082298286300,1.496286376953125,-0.0016365386545658112,-0.0006609829142689705,-0.001333027146756649
1772568082308358400,1.5063583984375,-0.00017712637782096863,-0.0011563310399651527,-0.0007548555731773376
1772568082318430500,1.516430419921875,0.001015172339975834,0.0014233915135264397,-0.001800253987312317
1772568082328499700,1.526499755859375,-0.0017593083903193474,0.0010265805758535862,-0.0011576330289244652
1772568082338571800,1.53657177734375,-0.0012125493958592415,-0.0010159430094063282,0.0006278445944190025
1772568082348643800,1.546643798828125,0.00031930068507790565,0.0020767860114574432,0.0014563538134098053
1772568082358715600,1.556715576171875,-0.002026838716119528,0.0004864265210926533,-0.00033605843782424927
1772568082368787700,1.56678759765625,-0.00008699251338839531,0.0010150643065571785,-0.0004481775686144829
1772568082378859800,1.57685986328125,-0.0015846239402890205,-0.0005010389722883701,-0.0009908415377140045
1772568082388931800,1.586931884765625,-0.0003286772407591343,-0.0020193071104586124,0.0011050663888454437
1772568082399003600,1.597003662109375,0.0022810231894254684,0.0024708653800189495,-0.0002684677019715309
1772568082409075700,1.60707568359375,0.0001851152628660202,0.0014032041653990746,0.0006596436724066734
1772568082419147800,1.617147705078125,0.0019232705235481262,0.0009083449840545654,0.0009011831134557724
1772568082429219800,1.6272197265625,-0.0007694517262279987,0.0006620027124881744,0.0031044166535139084
1772568082439292700,1.637292724609375,-0.0016175019554793835,0.0037282919511198997,-0.00008003972470760345
1772568082449364700,1.64736474609375,0.00009517697617411613,0.000011051539331674576,0.0007580574601888657
1772568082459436500,1.6574365234375,0.003372200531885028,0.00020414730533957481,-0.0018201544880867004
1772568082469508600,1.667508544921875,-0.00016314582899212837,0.004815943073481321,-0.0011394508183002472
1772568082479580700,1.67758056640625,0.0014858832582831383,-0.0020547453314065933,-0.0018126145005226135
1772568082489652700,1.68765283203125,-0.0014545125886797905,-0.0021173295099288225,0.00021431688219308853
1772568082499724500,1.697724609375,0.000957817304879427,-0.0018998594023287296,-0.0004692729562520981
1772568082509796600,1.707796630859375,0.0005620713345706463,0.0011204318143427372,-0.001496187411248684
1772568082519868700,1.71786865234375,-0.0016162367537617683,-0.0013693519867956638,-0.0009189294651150703
1772568082529940700,1.727940673828125,0.0013579819351434708,-0.0008010333403944969,-0.001837986521422863
1772568082540012800,1.7380126953125,0.0009283437393605709,0.0002370160073041916,0.00016639567911624908
1772568082550086000,1.7480859375,0.002208791673183441,0.0037475954741239548,-0.0012634554877877235
1772568082560157700,1.75815771484375,-0.0017204643227159977,-0.002488506492227316,0.0033696191385388374
1772568082570229800,1.768229736328125,0.000012454576790332794,0.0022588446736335754,-0.0007835812866687775
1772568082580301800,1.7783017578125,0.0026066526770591736,-0.0014511013869196177,-0.0022002914920449257
1772568082590373600,1.78837353515625,0.0012673493474721909,0.0010834289714694023,-0.00021037738770246506
1772568082600445700,1.79844580078125,0.0009600785560905933,0.0011956831440329552,-0.0022649038583040237
1772568082610517800,1.808517822265625,0.0001238458789885044,-0.0036134528927505016,-0.0017386628314852715
1772568082620589800,1.81858984375,-0.0023127789609134197,0.0005571618676185608,0.0004677809774875641
1772568082630661600,1.82866162109375,-0.001188925001770258,-0.0004282076843082905,0.0005335602909326553
1772568082640733700,1.838733642578125,0.0012018270790576935,0.0018550846725702286,-0.000798175111413002
1772568082650805800,1.8488056640625,-0.000004851259291172028,-0.0022094317246228456,0.0011230288073420525
1772568082660878600,1.858878662109375,-0.0010597193613648415,0.0007633180357515812,-0.00015706289559602737
1772568082670950700,1.86895068359375,0.0023539201356470585,-0.004104673862457275,0.0013353722169995308
1772568082681022700,1.879022705078125,0.0011864122934639454,0.000996386632323265,0.0012483559548854828
1772568082691094500,1.889094482421875,-0.00042080553248524666,-0.001432416494935751,0.0006382260471582413
1772568082701166600,1.89916650390625,-0.0016111191362142563,0.0016186730936169624,-0.0011426275596022606
1772568082711238700,1.90923876953125,-0.00046116625890135765,0.0014010928571224213,-0.0017170719802379608
1772568082721310700,1.919310791015625,-0.000996049027889967,0.0017405194230377674,-0.002046286128461361
1772568082731382800,1.9293828125,-0.000026125460863113403,0.002385004423558712,-0.0003874031826853752
1772568082741454800,1.939454833984375,0.001293946523219347,-0.001968403346836567,0.0010812310501933098
1772568082751527000,1.94952685546875,-0.0012419153936207294,-0.0007050000131130219,-0.00165543332695961
1772568082761598700,1.9595986328125,-0.0014409669674932957,-0.0017714507412165403,-0.00007322058081626892
1772568082771671800,1.969671875,0.0005385610274970531,0.0023679006844758987,-0.0004284866154193878
1772568082781743900,1.979743896484375,-0.001862410455942154,-0.0026135221123695374,-0.0019355816766619682
1772568082791815700,1.989815673828125,0.0009187287651002407,-0.0004635523073375225,0.0005139932036399841
1772568082801887700,1.9998876953125,-0.00035565346479415894,0.00048187142238020897,-0.001490098424255848
1772568082811959800,2.009959716796875,0.00047205714508891106,-0.0015266845002770424,-0.0015654657036066055
1772568082822031600,2.020031494140625,0.0023700306192040443,0.0011211666278541088,0.0007940800860524178
1772568082832103700,2.030103759765625,-0.000021487940102815628,-0.0010423855856060982,-0.0010179346427321434
1772568082842175700,2.04017578125,-0.0012519177980720997,-0.00048238225281238556,0.0012978920713067055
1772568082852247800,2.050247802734375,0.00010789278894662857,-0.001145775429904461,-0.0005812337622046471
1772568082862319600,2.060319580078125,-0.0006243614479899406,0.0021061189472675323,-0.0013280902057886124
1772568082872391700,2.0703916015625,-0.0014997422695159912,0.0022126454859972,-0.0012687016278505325
1772568082882464800,2.08046484375,-0.0007602004334330559,-0.0013701259158551693,0.0005892710760235786
1772568082892536600,2.09053662109375,0.00048722419887781143,0.002248843666166067,-0.0001942310482263565
1772568082902608600,2.100608642578125,0.00030390918254852295,0.001236999873071909,0.0012226738035678864
1772568082912680700,2.1106806640625,-0.0006114193238317966,-0.0015545256901532412,-0.0008138455450534821
1772568082922752500,2.12075244140625,0.0010205823928117752,-0.0008853357285261154,0.0008848709985613823
1772568082932824600,2.130824462890625,-0.00033816229552030563,0.0033797165378928185,-0.0010368665680289268
1772568082942897000,2.14089697265625,-0.000875469297170639,0.00023975269868969917,-0.000031910836696624756
1772568082952969000,2.150968994140625,-0.0011492427438497543,0.0008261809125542641,0.0012988708913326263
1772568082963040800,2.161040771484375,-0.00018805218860507011,-0.0019255662336945534,-0.000676511786878109
1772568082973112800,2.17111279296875,0.0010346053168177605,0.000908037181943655,-0.00020060408860445023
1772568082983185000,2.181184814453125,-0.0006455518305301666,-0.002599165076389909,0.0014933915808796883
1772568082993257700,2.1912578125,-0.00047457683831453323,0.0008773254230618477,-0.00010983087122440338
1772568083003329800,2.201329833984375,0.001089171040803194,-0.0010543516837060452,0.0003927750512957573
1772568083013401900,2.21140185546875,-0.002081055659800768,0.00012383097782731056,0.0008084941655397415
1772568083023473700,2.2214736328125,0.000568031333386898,0.0008955793455243111,0.0012432076036930084
1772568083033545700,2.231545654296875,-0.00034703081473708153,-0.0021550715900957584,0.001668514683842659
1772568083043617800,2.24161767578125,0.0012706113047897816,0.0015732422471046448,0.002337018959224224
1772568083053689600,2.251689697265625,-0.001098537351936102,-0.0022763570304960012,-0.0010736919939517975
1772568083063761700,2.26176171875,-0.00016176560893654823,-2.0954757928848267e-7,0.0004972871392965317
1772568083073833700,2.271833740234375,-0.0008624433539807796,-0.0014028968289494514,-0.0007970090955495834
1772568083083905800,2.28190576171875,-0.0004063365049660206,-0.0007595699280500412,-0.00040089525282382965
1772568083093977600,2.2919775390625,0.000048265326768159866,-0.0022842297330498695,-0.0009513711556792259
1772568083104050700,2.30205078125,-0.0028654788620769978,-0.0003245496191084385,-0.0020567141473293304
1772568083114122800,2.312122802734375,0.0023449957370758057,0.0009162169881165028,-0.0011757398024201393
1772568083124194600,2.322194580078125,0.0008490304462611675,-0.0004352126270532608,-0.0023173950612545013
1772568083134266600,2.3322666015625,0.0010586213320493698,-0.001131629105657339,0.0011074300855398178
1772568083144339000,2.3423388671875,-0.0007573803886771202,0.002482911106199026,0.00006481166929006577
1772568083154410800,2.35241064453125,0.0011750096455216408,-0.0009429794736206532,-0.0013463972136378288
1772568083164482800,2.36248291015625,0.00015245424583554268,0.0004361984319984913,0.0003040581941604614
1772568083174555000,2.372554931640625,0.0014070691540837288,-0.0005622203461825848,-0.0003766454756259918
1772568083184627000,2.382626953125,0.00014614779502153397,-0.001881762407720089,-0.00045798812061548233
1772568083194698800,2.39269873046875,0.0017078258097171783,-0.0009528519585728645,0.0002679899334907532
1772568083204771800,2.402771728515625,-0.001069752499461174,0.0007390016689896584,0.0007660612463951111
1772568083214843600,2.41284375,0.00001521967351436615,-0.00035662297159433365,0.0006805742159485817
1772568083224915700,2.422915771484375,0.00011737504974007607,-0.0025752170477062464,-0.0015006912872195244
1772568083234987800,2.43298779296875,-0.00009860750287771225,0.0034051770344376564,0.0008319709450006485
1772568083245059800,2.443059814453125,0.0004468914121389389,-0.0011247931979596615,0.0006516305729746819
1772568083255131600,2.453131591796875,-0.0007776301354169846,0.0013202549889683723,-0.0009880773723125458
1772568083265203700,2.46320361328125,0.00029428815469145775,0.00012999819591641426,0.0010172361508011818
1772568083275275800,2.47327587890625,0.0004221196286380291,0.001271695364266634,-0.0012496458366513252
1772568083285347600,2.48334765625,0.0012464458122849464,-0.0017115885857492685,-0.0017299773171544075
1772568083295419600,2.493419677734375,-0.0006750249303877354,-0.0034335884265601635,-0.0015379637479782104
1772568083305491700,2.50349169921875,0.0009566335938870907,-0.0004906286485493183,0.0004190625622868538
1772568083315564500,2.513564453125,0.00044930120930075645,-0.0029732275288552046,0.000612674281001091
1772568083325641700,2.523641845703125,0.00008290866389870644,0.0002798940986394882,0.0011741267517209053
1772568083335713500,2.533713623046875,0.002869374118745327,-0.0024389270693063736,-0.001681048423051834
1772568083345785600,2.54378564453125,-0.0016396120190620422,0.0015772199258208275,0.0009643817320466042
1772568083355857700,2.553857666015625,0.00015003280714154243,0.0015279515646398067,-0.001593584194779396
1772568083365929700,2.5639296875,-0.0014147525653243065,0.000746200792491436,0.0022629154846072197
1772568083376001500,2.57400146484375,-0.0009521618485450745,0.00016856100410223007,0.00003704521805047989
1772568083386073600,2.584073486328125,0.0010796915739774704,0.0006656586192548275,-0.0015895022079348564
1772568083396145700,2.594145751953125,0.0004951278679072857,-0.0011623348109424114,0.0004459517076611519
1772568083406217500,2.604217529296875,-0.000626817811280489,0.0007672412320971489,-0.0013423031195998192
1772568083416289500,2.61428955078125,0.0001588147133588791,0.001060189213603735,-0.0007060747593641281
1772568083426362600,2.624362548828125,-0.0016905395314097404,0.0009955242276191711,0.0005021654069423676
1772568083436434400,2.634434326171875,-0.0028508780524134636,-0.0000018295831978321075,-0.0026704585179686546
1772568083446506500,2.644506591796875,0.0014294618740677834,0.001409752294421196,-0.00030091404914855957
1772568083456578600,2.65457861328125,0.0008936338126659393,0.00140442606061697,-0.001044468954205513
1772568083466650400,2.664650390625,0.00020721741020679474,0.0009504766203463078,0.0002868175506591797
1772568083476722400,2.674722412109375,-0.0010263589210808277,-0.0006612683646380901,-0.0002791043370962143
1772568083486794500,2.68479443359375,0.001138370018452406,-0.000850318931043148,-0.0008525243028998375
1772568083496866600,2.694866455078125,0.0012289173901081085,-0.002217852044850588,-0.0008519915863871574
1772568083506938400,2.7049384765625,-0.001320850569754839,0.0016391463577747345,0.0003619939088821411
1772568083517010400,2.715010498046875,0.0018152878619730473,-0.0036229933612048626,-0.0026492420583963394
1772568083527082500,2.72508251953125,0.0020016892813146114,-0.002413839101791382,-0.0008024843409657478
1772568083537155600,2.735155517578125,0.001591030042618513,-0.0012159491889178753,-0.0015007657930254936
1772568083547227600,2.7452275390625,-0.0005813473835587502,0.0009383759461343288,-0.00034695398062467575
1772568083557299700,2.7552998046875,0.0008453079499304295,-0.0012531396932899952,-0.00181595329195261
1772568083567371500,2.76537158203125,-0.00013428134843707085,-0.000423165038228035,-0.0017096111550927162
1772568083577443600,2.775443603515625,0.001580262091010809,0.00010387459769845009,-0.001492563635110855
1772568083587515600,2.785515625,0.0003656921908259392,-0.0012575401924550533,-0.0016967207193374634
1772568083597587700,2.795587646484375,-0.0010934541933238506,0.0009171972051262856,-0.00024157017469406128
1772568083607659500,2.805659423828125,-0.0003681434318423271,-0.0010875011794269085,0.0003868201747536659
1772568083617731600,2.815731689453125,-0.00035908864811062813,0.0013567483983933926,0.00018122419714927673
1772568083627803600,2.8258037109375,-0.002581301610916853,0.0016837911680340767,-0.001559627242386341
1772568083637875500,2.83587548828125,-0.0007868637330830097,0.00022917240858078003,-0.0016776053234934807
1772568083647948500,2.845948486328125,-0.00042896298691630363,-0.00011648144572973251,-0.0007473276928067207
1772568083658020600,2.8560205078125,0.0007074079476296902,-0.0015167715027928352,-0.0006314804777503014
1772568083668092400,2.866092529296875,0.0010755294933915138,-0.0012347637675702572,-0.00007087830454111099
1772568083678164500,2.87616455078125,-0.00008108140900731087,0.0031320215202867985,0.00041115377098321915
1772568083688236500,2.886236572265625,0.0011656046845018864,-0.0006761765107512474,-0.0025497842580080032
1772568083698308400,2.896308349609375,0.00035493867471814156,0.001140365842729807,0.0008092606440186501
1772568083708380400,2.90638037109375,-0.0007772380486130714,0.00039047980681061745,-0.0017931768670678139
1772568083718452500,2.916452392578125,0.0002976139076054096,-0.00027744099497795105,0.0008257757872343063
1772568083728524500,2.926524658203125,-0.0006123529747128487,0.0005621202290058136,0.0011081928387284279
1772568083738596600,2.9365966796875,0.0015530632808804512,0.0000015245750546455383,-0.0012897178530693054
1772568083748668700,2.946668701171875,0.0013294834643602371,0.0014617741107940674,0.001360975205898285
1772568083758741500,2.956741455078125,-0.0011168960481882095,-0.0012543839402496815,0.001609181985259056
1772568083768813600,2.9668134765625,-0.001489143818616867,0.0008798642084002495,-0.00008250866085290909
1772568083778885600,2.9768857421875,0.00016654329374432564,0.0011240760795772076,-0.00047932006418704987
1772568083788957700,2.986957763671875,0.000860047060996294,-0.00011428538709878922,0.001358197070658207
1772568083799029500,2.997029541015625,-0.0005610156804323196,-0.0014352132566273212,-0.000494563952088356
1772568083809101600,3.0071015625,-0.00001574261114001274,-0.0003070002421736717,-0.0006180340424180031
1772568083819173600,3.017173583984375,-0.0017300192266702652,-0.002103035803884268,0.0013580312952399254
1772568083829245400,3.027245361328125,0.0007937927730381489,0.0008697975426912308,-0.0015611983835697174
1772568083839317500,3.0373173828125,0.001023357268422842,-0.002247432479634881,-0.0014557372778654099
1772568083849389600,3.0473896484375,-0.0015975474379956722,-0.00033193593844771385,-0.00008376501500606537
1772568083859461600,3.057461669921875,0.00009995186701416969,0.0006736735813319683,0.0007679145783185959
1772568083869534500,3.067534423828125,0.0008350228890776634,0.0016031432896852493,-0.0006541572511196136
1772568083879606500,3.0776064453125,-0.0013173436746001244,-0.0011686747893691063,0.0017602648586034775
1772568083889678600,3.0876787109375,-0.0016328822821378708,-0.002862108638510108,-0.00028522033244371414
1772568083899750400,3.09775048828125,-0.0012919977307319641,-0.0002540750429034233,0.0008436935022473335
1772568083909822500,3.107822509765625,-0.0015031774528324604,-0.0005016443319618702,-0.0007540136575698853
1772568083919894500,3.11789453125,0.0005314773879945278,0.002811061218380928,0.0013456232845783234
1772568083929966300,3.12796630859375,0.0005768444389104843,-0.0006447336636483669,0.00012316089123487473
1772568083940038700,3.13803857421875,-0.001443163026124239,0.0006780587136745453,0.00033594761043787
1772568083950110700,3.14811083984375,-0.0019266274757683277,0.000446998979896307,-0.00025247782468795776
1772568083960182800,3.158182861328125,-0.0008408566936850548,0.0025125467218458652,0.001100141555070877
1772568083970254600,3.168254638671875,0.0007988805882632732,0.001241347286850214,-0.000464094802737236
1772568083980327700,3.17832763671875,-0.0013731932267546654,-0.0014686856884509325,0.0015146341174840927
1772568083990399500,3.1883994140625,-0.0014184974133968353,0.0006888909265398979,-0.0012671584263443947
1772568084000471600,3.198471435546875,0.0007804743945598602,-0.0014674707781523466,-0.0014450578019022942
1772568084010543600,3.208543701171875,0.00015689246356487274,0.002342717256397009,-0.0003944737836718559
1772568084020615700,3.21861572265625,0.0008309385739266872,0.0010787812061607838,-0.0021257949993014336
1772568084030687500,3.2286875,0.0003195996396243572,-0.0019613562617450953,-0.001017492264509201
1772568084040759600,3.238759521484375,-0.001237550750374794,-0.00021139299497008324,0.0010901335626840591
1772568084050831600,3.24883154296875,0.0016214330680668354,0.0004758378490805626,-0.00008975807577371597
1772568084060903400,3.2589033203125,-0.0029200557619333267,-0.0017353850416839123,-0.0003773793578147888
1772568084070975500,3.2689755859375,0.0006640907377004623,0.001180528663098812,-0.00014453288167715073
1772568084081047600,3.279047607421875,-0.00044564856216311455,-0.0029335226863622665,-0.0001983288675546646
1772568084091120400,3.289120361328125,-0.0007160240784287453,-0.004232216626405716,-0.0009345356374979019
1772568084101192400,3.2991923828125,0.0007282081060111523,0.0004775836132466793,-0.0016794223338365555
1772568084111264500,3.309264404296875,-0.0017121704295277596,0.0001738094724714756,0.0006076954305171967
1772568084121336600,3.319336669921875,0.00006282608956098557,-0.001010232139378786,-0.0006674258038401604
1772568084131408400,3.329408447265625,-0.0017649740912020206,-0.0023593506775796413,0.00029087066650390625
1772568084141480400,3.33948046875,0.0013599786907434464,0.0011568209156394005,0.001715661957859993
1772568084151552800,3.349552734375,-0.002911526244133711,0.0005030939355492592,0.00015485286712646484
1772568084161624600,3.35962451171875,-0.001257969532161951,-0.005306059028953314,-0.0015908489003777504
1772568084171696600,3.369696533203125,-0.00010524829849600792,-0.0020513604395091534,0.0002633156254887581
1772568084181768700,3.379768798828125,0.0006236587651073933,0.0011172685772180557,0.0011008791625499725
1772568084191840800,3.3898408203125,-0.0002735103480517864,0.002615034580230713,-0.00030065514147281647
1772568084201912600,3.39991259765625,0.00027083978056907654,-0.0014082025736570358,0.00012917909771203995
1772568084211985700,3.409985595703125,-0.001518727745860815,-0.00006394833326339722,0.00035084597766399384
1772568084222057500,3.420057373046875,-0.00019034277647733688,-0.0011249519884586334,-0.00041348207741975784
1772568084232129500,3.430129638671875,0.000669633038341999,-0.001099888700991869,-0.002497022971510887
1772568084242201600,3.44020166015625,0.0003066440112888813,-0.0008602039888501167,0.0016769487410783768
1772568084252273700,3.450273681640625,0.0012142155319452286,-0.002216963330283761,0.0006199795752763748
1772568084262345500,3.460345458984375,0.0008855815976858139,-0.00025767553597688675,-0.0005755135789513588
1772568084272417500,3.47041748046875,0.0005284617654979229,0.0004853988066315651,-0.0025294777005910873
1772568084282489600,3.480489501953125,0.0014547090977430344,0.0011996589601039886,0.001613069325685501
1772568084292561400,3.4905615234375,0.001165145542472601,-0.001343719195574522,-0.0027515580877661705
1772568084302633500,3.500633544921875,-0.0008543292060494423,0.0010504629462957382,-0.0010066544637084007
1772568084312705500,3.51070556640625,-0.0011868108995258808,0.0022327015176415443,0.0017390642315149307
1772568084322772700,3.520772705078125,0.0022534606978297234,0.0010052509605884552,0.0012967130169272423
1772568084332845000,3.530844970703125,-0.0009764516726136208,-0.0024186912924051285,-0.0018310369923710823
1772568084342916900,3.540916748046875,0.003214831231161952,0.0029049678705632687,-0.002087499015033245
1772568084352989000,3.550989013671875,-0.0004548863507807255,-0.0008293851278722286,-0.0009836731478571892
1772568084363061000,3.56106103515625,0.00026629772037267685,0.0013354988768696785,0.0009532440453767776
1772568084373133000,3.571133056640625,-0.0007759267464280128,0.0013860673643648624,-0.000628170557320118
1772568084383204900,3.581204833984375,0.0014629927463829517,-0.0009734933264553547,-0.0005999412387609482
1772568084393277000,3.59127685546875,0.001751899253576994,-0.000141264870762825,0.00005753617733716965
1772568084403349000,3.601348876953125,0.0009263195097446442,-0.0014627252239733934,0.0009741960093379021
1772568084413420800,3.6114208984375,-0.0009384187869727612,0.00003888458013534546,0.00037240050733089447
1772568084423494000,3.621493896484375,-0.00009126728400588036,0.00475720688700676,0.0008483072742819786
1772568084433566000,3.63156591796875,0.002220327500253916,-0.00036964938044548035,-0.0011888546869158745
1772568084443637800,3.6416376953125,-0.000473992433398962,0.0007885592058300972,-0.002081546001136303
1772568084453709800,3.651709716796875,0.0013594157062470913,0.0004594651982188225,0.0003932137042284012
1772568084463782000,3.661781982421875,-0.0016278522089123726,-0.001567733008414507,0.0018536904826760292
1772568084473854000,3.67185400390625,0.0013273553922772408,0.0019844388589262962,0.0004325183108448982
1772568084483925800,3.68192578125,0.00008339248597621918,0.001224106177687645,-0.0026199975982308388
1772568084493997800,3.691997802734375,-0.00017749005928635597,0.0001162462867796421,-0.00047317985445261
1772568084504070000,3.70206982421875,0.0010600807145237923,-0.00044008810073137283,-0.0002846280112862587
1772568084514141700,3.7121416015625,-0.0015257145278155804,0.0020098802633583546,-0.0012800106778740883
1772568084524213800,3.7222138671875,-0.000497201457619667,0.00044074608013033867,-0.00005122832953929901
1772568084534285800,3.732285888671875,-0.0011673378758132458,0.00043803872540593147,-0.0015096552670001984
1772568084544359000,3.74235888671875,-0.0015561594627797604,0.0002244533970952034,0.0005766656249761581
1772568084554431000,3.752430908203125,-0.000511788297444582,0.0014223591424524784,0.0014968877658247948
1772568084564503000,3.7625029296875,0.0000674491748213768,0.0019557904452085495,0.0008758381009101868
1772568084574574800,3.772574951171875,-0.0010965736582875252,0.0005723284557461739,0.0004108436405658722
1772568084584647000,3.78264697265625,-0.0002773851156234741,0.0010016299784183502,-0.0011020982638001442
1772568084594719000,3.792718994140625,-0.0007046009413897991,-0.00022033322602510452,-0.00010037608444690704
1772568084604791000,3.802791015625,-0.00260503264144063,0.000944267027080059,0.001330273225903511
1772568084614862800,3.81286279296875,0.0031296417582780123,0.000263978261500597,0.0001853862777352333
1772568084624935000,3.822934814453125,0.0011106994934380054,0.0007593263871967793,0.0009371964260935783
1772568084635007000,3.833007080078125,-0.0000928104855120182,-0.0005945488810539246,0.001407848671078682
1772568084645079800,3.843079833984375,-0.001581784337759018,-0.0031679614912718534,0.0022896211594343185
1772568084655151900,3.85315185546875,0.0002027740702033043,-0.00013154419139027596,0.0013342462480068207
1772568084665224000,3.863223876953125,0.0005159620195627213,0.0011963075958192348,0.0012740585952997208
1772568084675295700,3.873295654296875,0.00015334738418459892,0.0009347326122224331,-0.0014708805829286575
1772568084685367800,3.883367919921875,-0.0008743666112422943,-0.0008455906063318253,-0.0014189491048455238
1772568084695440000,3.89343994140625,-0.00025293556973338127,0.00014085741713643074,0.0014639627188444138
1772568084705512000,3.903511962890625,-0.0004169861786067486,-0.0021973978728055954,-0.0011664414778351784
1772568084715583700,3.913583740234375,0.0008818488568067551,-0.000011514872312545776,0.0010025547817349434
1772568084725655800,3.92365576171875,0.001945515163242817,0.00009394623339176178,-0.0012118639424443245
1772568084735727900,3.933727783203125,-0.0009352797642350197,0.001161725725978613,0.002590530551970005
1772568084745799700,3.943799560546875,-0.0008370089344680309,0.0015686568804085255,0.0006344392895698547
1772568084755871700,3.953871826171875,-0.002686483319848776,0.0009935577400028706,0.000495394691824913
1772568084765944800,3.96394482421875,-0.00007152557373046875,0.0008436217904090881,0.0013848906382918358
1772568084776017000,3.974016845703125,0.002258569933474064,0.0034748567268252373,-0.0005315355956554413
1772568084786089000,3.9840888671875,-0.0015992848202586174,0.0016663041897118092,0.000961964949965477
1772568084796161000,3.9941611328125,0.0033754787873476744,-0.000026359688490629196,-0.000406007282435894
1772568084806232800,4.00423291015625,-0.000020584091544151306,0.00011585280299186707,0.001699754036962986
1772568084816305000,4.014304931640625,0.000974864698946476,-0.00099166389554739,0.0001754947006702423
1772568084826377000,4.024376953125,-0.0006504622288048267,0.000319410115480423,0.00010891538113355637
1772568084836449000,4.034448974609375,-0.001766873523592949,0.001485736109316349,0.00018662773072719574
1772568084846520800,4.044520751953125,0.0007056053727865219,-0.0023614661768078804,-0.0005478719249367714
1772568084856593000,4.054593017578125,-0.00023389095440506935,0.00006272457540035248,0.000006398186087608337
1772568084866665000,4.0646650390625,0.0002177809365093708,0.00014980975538492203,0.00011585373431444168
1772568084876736800,4.07473681640625,0.00033280299976468086,-0.0005042050033807755,-0.0015250490978360176
1772568084886809900,4.084809814453125,0.0010047187097370625,0.00104815186932683,0.0007578125223517418
1772568084896882000,4.0948818359375,-0.0017270729877054691,-0.001211230643093586,-0.0016579292714595795
1772568084906953700,4.10495361328125,0.0011534024961292744,-0.0013888636603951454,0.0001713959500193596
1772568084917025800,4.11502587890625,-0.0013599665835499763,0.0027877772226929665,-0.00036405399441719055
1772568084927097900,4.125097900390625,0.001451265998184681,-0.0009880522266030312,0.0004522046074271202
1772568084937169700,4.135169677734375,0.00029961857944726944,0.001179234590381384,0.00018215272575616837
1772568084947241700,4.14524169921875,-0.0016910945996642113,-0.0008988301269710064,0.0002926737070083618
1772568084957313800,4.155313720703125,-0.0021907640621066093,0.00012797070667147636,0.0011767465621232986
1772568084967385900,4.1653857421875,0.001908106729388237,0.0013743299059569836,-0.0009029163047671318
1772568084977457700,4.175457763671875,-0.001850414089858532,0.0019025877118110657,0.0027468279004096985
1772568084987529700,4.18552978515625,-0.0006980639882385731,0.000027189496904611588,0.001047997735440731
1772568084997602800,4.195602783203125,0.0017801630310714245,0.0005625560879707336,0.0006095347926020622
1772568085007675000,4.2056748046875,-0.001012161374092102,0.00150238536298275,-0.0008706506341695786
1772568085017747000,4.215746826171875,0.002198954578489065,0.0013079801574349403,-0.00030237622559070587
1772568085027819000,4.225819091796875,0.0011307606473565102,-0.0008316035382449627,-0.0005790786817669868
1772568085037890800,4.235890869140625,-0.0003252117894589901,-0.0021035876125097275,0.00003714580088853836
1772568085047963000,4.245962890625,0.0005967747420072556,0.0027393708005547523,0.0008488772436976433
1772568085058035000,4.256034912109375,-0.0019508367404341698,-0.004088851623237133,-0.0004137139767408371
1772568085068107000,4.26610693359375,0.00008514989167451859,0.0008587692864239216,-0.001158599741756916
1772568085078178800,4.2761787109375,0.0012274091131985188,0.0017938315868377686,-0.0012841550633311272
1772568085088251000,4.2862509765625,0.00012539280578494072,-0.00033829500898718834,0.0005267951637506485
1772568085098323000,4.296322998046875,0.0010307468473911285,0.002350039314478636,-0.000545501708984375
1772568085108394800,4.306394775390625,0.00045656925067305565,-0.001208476722240448,-0.00001553259789943695
1772568085118467800,4.3164677734375,-0.0002684597857296467,0.0013229814358055592,-0.0007837750017642975
1772568085128540000,4.326539794921875,0.0015590013936161995,0.002707558684051037,-0.0016114860773086548
1772568085138611700,4.33661181640625,-0.001535649411380291,0.000060409773141145706,0.001287580467760563
1772568085148683800,4.346683837890625,0.0011621322482824326,-0.0008493261411786079,0.0009371088817715645
1772568085158755800,4.356755859375,-0.0006321733817458153,-0.00018105050548911095,-0.0017171595245599747
1772568085168827600,4.36682763671875,0.0013311090879142284,-0.0022836162243038416,0.000025346875190734863
1772568085178899700,4.376899658203125,-0.003343090880662203,0.0016955239698290825,-0.00421046931296587
1772568085188971800,4.3869716796875,0.0009858771227300167,0.0003716666251420975,-0.00046659819781780243
1772568085199043800,4.3970439453125,0.001514699775725603,-0.0013255132362246513,0.00034390296787023544
1772568085209115600,4.40711572265625,-0.0002416549250483513,-0.00028901081532239914,-0.00027901027351617813
1772568085219187700,4.417187744140625,0.0005377759225666523,-0.00021680258214473724,0.00029438454657793045
1772568085229260000,4.427260009765625,-0.001765059307217598,-0.00039203884080052376,-0.001626553013920784
1772568085239332900,4.437332763671875,0.003707701340317726,0.0004969132132828236,-0.0009915558621287346
1772568085249405000,4.447405029296875,-0.0009296610951423645,0.00016242032870650291,0.00018209870904684067
1772568085259477000,4.45747705078125,0.0009626462124288082,-0.00035699084401130676,0.0009022457525134087
1772568085269548800,4.467548828125,0.0011685085482895374,0.0017865877598524094,-0.0015859454870224
1772568085279620900,4.477620849609375,-0.0004168841987848282,-0.0005345209501683712,0.00003207102417945862
1772568085289693000,4.48769287109375,0.0010297452099621296,-0.0013036420568823814,0.002555149607360363
1772568085299765000,4.497764892578125,0.000920100137591362,-0.0020668604411184788,-0.000889328308403492
1772568085309836800,4.5078369140625,0.0011813566088676453,0.0029723728075623512,0.0014649061486124992
1772568085319908900,4.517908935546875,0.000043508131057024,0.000668342225253582,-0.0003551207482814789
1772568085329981000,4.52798095703125,0.0002736053429543972,-0.0035527683794498444,-0.002527195028960705
1772568085340052700,4.538052734375,-0.0004410077817738056,-0.0003053275868296623,0.0008571362122893333
1772568085350124800,4.548124755859375,0.0019459831528365612,-0.0019508949480950832,-0.0005732476711273193
1772568085360196900,4.55819677734375,-0.0018007955513894558,0.0010057813487946987,0.0001179724931716919
1772568085370269700,4.568269775390625,-0.0007491130381822586,-0.001856051618233323,-0.0002982793375849724
1772568085380341800,4.578341796875,-0.00008730171248316765,-0.00028668995946645737,0.0008018547669053078
1772568085390413800,4.588413818359375,0.0016959509812295437,-0.0023383894003927708,0.00017601251602172852
1772568085400485600,4.598485595703125,-0.000491841696202755,-0.0034989744890481234,0.0010113967582583427
1772568085410557700,4.6085576171875,0.0011342843063175678,-0.0012318254448473454,0.00075520109385252
1772568085420629800,4.618629638671875,-0.00019374489784240723,-0.00020761974155902863,0.00038113631308078766
1772568085430701800,4.628701904296875,-0.001619867980480194,-0.00001880154013633728,0.0003859298303723335
1772568085440773600,4.638773681640625,-0.000711074098944664,-0.0011546825990080833,0.0013143280521035194
1772568085450845700,4.648845703125,0.00145008135586977,0.00004160962998867035,0.0005633169785141945
1772568085460917800,4.658917724609375,0.0018082424066960812,0.0007027424871921539,0.0009560296311974525
1772568085470989800,4.66898974609375,-0.00111777288839221,0.0002004699781537056,0.0012913215905427933
1772568085481061600,4.6790615234375,0.0006853616796433926,-0.0007134662009775639,0.0008679386228322983
1772568085491135000,4.689135009765625,0.0012683277018368244,0.001009865663945675,-0.0027161436155438423
1772568085501206800,4.699206787109375,0.0009068148210644722,-0.0002108183689415455,-0.000634094700217247
1772568085511278800,4.70927880859375,0.0009054830297827721,0.00023259781301021576,-0.000530497170984745
1772568085521351000,4.719350830078125,0.0006414609961211681,-0.002391541376709938,0.002919863909482956
1772568085531423000,4.729423095703125,0.0015530609525740147,-0.0011230777017772198,0.002180304378271103
1772568085541494800,4.739494873046875,-0.0007122145034372807,-0.0018458019476383924,-0.0012441948056221008
1772568085551566800,4.74956689453125,-0.00007651839405298233,0.000890596304088831,0.0021420149132609367
1772568085561639000,4.759638916015625,0.0011542383581399918,0.003490485716611147,0.0009771035984158516
1772568085571710700,4.769710693359375,0.00039869965985417366,-0.00020145438611507416,0.001148611307144165
1772568085581782800,4.77978271484375,0.0009128730744123459,-0.0002457844093441963,-0.0006118118762969971
1772568085591854800,4.789854736328125,0.00045614084228873253,-0.0003728172741830349,0.00008966494351625443
1772568085601927000,4.799927001953125,0.001281727571040392,0.0004106047563254833,0.0006607156246900558
1772568085611998700,4.809998779296875,-0.0006788917817175388,-0.0017340388149023056,0.0009976057335734367
1772568085622071800,4.82007177734375,0.001353883184492588,0.0015094727277755737,0.0014121439307928085
1772568085632143600,4.8301435546875,0.00011844281107187271,-0.0007664645090699196,0.0021455781534314156
1772568085642215700,4.840215576171875,0.0007855216972529888,-0.001057433895766735,0.0010959301143884659
1772568085652287700,4.850287841796875,-0.00009864801540970802,-0.0003863177262246609,-0.0001664087176322937
1772568085662359800,4.86035986328125,-0.00042151426896452904,0.0020947447046637535,0.0000463360920548439
1772568085672431600,4.870431640625,-0.001687580719590187,-0.001874696696177125,-0.0005619293078780174
1772568085682503700,4.880503662109375,0.0005777189508080482,0.00038849422708153725,-0.0004960093647241592
1772568085692575700,4.89057568359375,-0.000997008290141821,-0.00023441901430487633,0.0010259868577122688
1772568085702647800,4.900647705078125,-0.00002468656748533249,-0.00019112881273031235,-0.0005341945216059685
1772568085712720000,4.910719970703125,0.0032565942965447903,0.0006821216084063053,0.0003505079075694084
1772568085722792000,4.9207919921875,-0.001363945659250021,0.000020119361579418182,0.0005295677110552788
1772568085732864000,4.930864013671875,-0.00037617888301610947,0.001946916338056326,0.00046831555664539337
1772568085742935800,4.940935791015625,-0.0003377217799425125,-0.0016544535756111145,0.0004911739379167557
1772568085753009000,4.9510087890625,0.0016556545160710812,0.0007354672998189926,0.0019817454740405083
1772568085763081000,4.9610810546875,-0.002200004179030657,-0.002361101098358631,0.00023587793111801147
1772568085773152800,4.97115283203125,0.0022056628949940205,0.0008567962795495987,-0.0018413877114653587
1772568085783224800,4.981224853515625,0.0005663190968334675,0.0007665930315852165,-0.0014758827164769173
1772568085793297000,4.991296875,0.0008829687722027302,0.00020679645240306854,-0.001541130244731903
1772568085803368700,5.00136865234375,-0.0013426910154521465,-0.0005963682197034359,0.0007503749802708626
1772568085813440800,5.011440673828125,-0.002463082317262888,0.0023019500076770782,0.0017360104247927666
1772568085823512800,5.021512939453125,-0.0000749700702726841,0.0009523089975118637,0.00014661718159914017
1772568085833585000,5.0315849609375,-0.0013620760291814804,-0.0008306773379445076,0.0004851054400205612
1772568085843656700,5.04165673828125,0.0006076949648559093,0.0017197947017848492,-0.0003658086061477661
1772568085853728800,5.051728759765625,-0.0015223012305796146,-0.0017364555969834328,0.002491230145096779
1772568085863800800,5.06180078125,-0.0008494220674037933,0.0015104012563824654,0.00021888874471187592
1772568085873872600,5.07187255859375,-0.0015040268190205097,0.0006174431182444096,0.0011384785175323486
1772568085883944700,5.08194482421875,-0.0014056805521249771,-0.001416065264493227,-0.00021274946630001068
1772568085894017800,5.092017822265625,-0.001705818809568882,0.0016604182310402393,0.0013683689758181572
1772568085904089900,5.10208984375,0.001355102751404047,-0.001058126799762249,0.002193320542573929
1772568085914162000,5.112161865234375,-0.00012827804312109947,0.00035361479967832565,0.0006348388269543648
1772568085924234000,5.12223388671875,-0.0026292623952031136,-0.0003221719525754452,0.00032560713589191437
1772568085934305800,5.132305908203125,-0.0013623964041471481,0.0028584408573806286,-0.001223287545144558
1772568085944377900,5.1423779296875,0.000014729797840118408,0.00024809734895825386,0.00009188428521156311
1772568085954450000,5.152449951171875,0.000644034706056118,0.0008446457795798779,-0.0013744523748755455
1772568085964522000,5.16252197265625,-0.0017403759993612766,-0.0020304175559431314,0.0013354448601603508
1772568085974593800,5.17259375,0.0017414409667253494,-0.001229605171829462,0.0018465062603354454
1772568085984665900,5.182665771484375,-0.0006239558570086956,0.0015323548577725887,-0.0013531697914004326
1772568085994738000,5.192738037109375,-0.0003552427515387535,0.002039687242358923,0.0015906887128949165
1772568086004810000,5.20281005859375,-0.001094822771847248,-0.00022175954654812813,0.0008759591728448868
1772568086014881800,5.2128818359375,-0.0005209115333855152,-0.001352804247289896,-0.0010958453640341759
1772568086024953900,5.222953857421875,0.000009368639439344406,-0.001103064976632595,0.001224042847752571
1772568086035026700,5.233026611328125,0.000020287465304136276,0.0030269655399024487,-0.0007062163203954697
1772568086045098800,5.2430986328125,-0.0007779533043503761,-0.0010079150088131428,0.00008974038064479828
1772568086055170800,5.2531708984375,-0.0008328147232532501,0.001180937048047781,0.0002588508650660515
1772568086065243000,5.263242919921875,0.001355084590613842,0.0019412529654800892,0.00029920972883701324
1772568086075314700,5.273314697265625,0.0008003478869795799,-0.00016956869512796402,-0.0008835000917315483
1772568086085386800,5.28338671875,-0.00037363823503255844,0.00041557103395462036,-0.0005663540214300156
1772568086095458800,5.293458740234375,-0.002872215583920479,0.0010006674565374851,-0.0007908586412668228
1772568086105530600,5.303530517578125,-0.0027596503496170044,0.001556158997118473,0.0012796716764569283
1772568086115602700,5.313602783203125,-0.0002048797905445099,-0.00359972077421844,-0.0005853399634361267
1772568086125674800,5.3236748046875,-0.0018194378353655338,0.0007644305005669594,0.0008932836353778839
1772568086135746800,5.333746826171875,-0.0014327461831271648,-0.0009077684953808784,-0.0015834560617804527
1772568086145818600,5.343818603515625,-0.0005910336039960384,0.0008974019438028336,-0.000829196535050869
1772568086155890700,5.353890625,-0.00011619227007031441,0.00041377171874046326,0.0018515409901738167
1772568086165962800,5.363962646484375,0.001037405338138342,0.0011860993690788746,-0.0007072426378726959
1772568086176034800,5.374034912109375,-0.002396740484982729,-0.002137791831046343,-0.0004340019077062607
1772568086186108000,5.38410791015625,0.0007041986100375652,0.0015322668477892876,-0.0005170898512005806
1772568086196180000,5.394179931640625,-0.0009285854175686836,0.0005093468353152275,0.0005473755300045013
1772568086206251800,5.404251708984375,0.0006891307421028614,-0.0009481240995228291,0.0009159930050373077
1772568086216323800,5.41432373046875,-0.0012115673162043095,-0.0002839313820004463,0.0024779364466667175
1772568086226396000,5.42439599609375,0.0012607825919985771,0.0003310712054371834,0.0012267809361219406
1772568086236467700,5.4344677734375,-0.0031986809335649014,-0.0019406049977988005,0.0010584685951471329
1772568086246539800,5.444539794921875,-0.00015131337568163872,0.00008446117863059044,0.00013724062591791153
1772568086256611800,5.45461181640625,-0.0019092662259936333,0.0007694261148571968,0.0002797190099954605
1772568086266684000,5.464683837890625,0.0001645376905798912,-0.0005899807438254356,-0.000164741650223732
1772568086276755700,5.474755615234375,0.000442571472376585,-0.0008198115974664688,0.0005937274545431137
1772568086286827800,5.484827880859375,0.0021895128302276134,0.0000705360434949398,-0.0010742926970124245
1772568086296899800,5.49489990234375,-0.0002568666823208332,-0.0009361389093101025,0.002282355912029743
1772568086306972000,5.504971923828125,-0.0007217922247946262,0.0015272381715476513,0.000647393986582756
1772568086317043700,5.515043701171875,0.00011790264397859573,0.0009093848057091236,0.0000806739553809166
1772568086327120400,5.525120361328125,-0.001617402769625187,0.0013302438892424107,-0.0019015669822692871
1772568086337193200,5.535193115234375,-0.0005438821390271187,0.002597375772893429,0.0011892979964613914
1772568086347265300,5.545265380859375,-0.0014841030351817608,-0.00002577388659119606,0.00011007394641637802
1772568086357337300,5.55533740234375,0.00041712773963809013,0.0006378856487572193,-0.0006143050268292427
1772568086367409200,5.5654091796875,-0.001759486272931099,1.4761462807655334e-7,-0.00006828177720308304
1772568086377481200,5.575481201171875,0.0015122070908546448,-0.0009167785756289959,0.00021800771355628967
1772568086387553300,5.58555322265625,0.0015820167027413845,-0.00028656795620918274,0.00016174279153347015
1772568086397625000,5.595625,0.0009085033088922501,-0.0001933574676513672,-0.0015924805775284767
1772568086407697200,5.605697265625,0.001087527722120285,0.002756901551038027,-0.0006393315270543098
1772568086417769200,5.615769287109375,-0.0006118356250226498,-0.0013627423904836178,-0.0025956891477108
1772568086427841300,5.62584130859375,0.0007090652361512184,0.0014483164995908737,0.00006887875497341156
1772568086437913000,5.6359130859375,0.000013713724911212921,-0.0034963744692504406,0.001347729004919529
1772568086447985200,5.645985107421875,-0.0000026444904506206512,-0.0012273304164409637,0.0024197492748498917
1772568086458057200,5.65605712890625,-0.0006098449230194092,-0.000596161000430584,0.0014383746311068535
1772568086468129300,5.66612939453125,-0.0017938180826604366,0.0007810834795236588,-0.00022647064179182053
1772568086478201000,5.676201171875,0.00310533307492733,-0.0007358528673648834,0.000788460485637188
1772568086488273200,5.686273193359375,0.0010625310242176056,0.0007980670779943466,0.0007065655663609505
1772568086498346000,5.696345947265625,-0.0004778411239385605,-0.0001918300986289978,-0.0014817537739872932
1772568086508418000,5.70641796875,0.00004132883623242378,0.001228436827659607,-0.0013391673564910889
1772568086518490000,5.716489990234375,0.0005100448615849018,0.0016593364998698235,-0.0012883003801107407
1772568086528562200,5.726562255859375,-0.0005102911964058876,-0.0005507697351276875,0.0010663634166121483
1772568086538634200,5.73663427734375,-0.0005233408883213997,-0.00036541372537612915,-0.0012085093185305595
1772568086548706300,5.746706298828125,0.003363414667546749,-0.0027502793818712234,0.0006525591015815735
1772568086558778400,5.7567783203125,0.0008986592292785645,-0.0008003129623830318,-0.002252683974802494
1772568086568850200,5.76685009765625,0.00205085426568985,-0.0002144472673535347,-0.0003236178308725357
1772568086578922200,5.776922119140625,-0.0005931318737566471,-0.0013462905772030354,0.000990385189652443
1772568086588994300,5.786994384765625,-0.0012494814582169056,-0.0019025630317628384,0.0013114707544445992
1772568086599066400,5.79706640625,0.00045760488137602806,0.0023009702563285828,0.0010491497814655304
1772568086609138200,5.80713818359375,0.0018146703951060772,-0.0004946007393300533,0.0013122688978910446
1772568086619210200,5.817210205078125,0.000057250261306762695,-0.0014008742291480303,0.0009372960776090622
1772568086629282300,5.8272822265625,0.001605854369699955,-0.0031789932399988174,-0.00024067796766757965
1772568086639354000,5.83735400390625,-0.0011515822261571884,-0.00012754322960972786,0.00038436613976955414
1772568086649426200,5.84742626953125,-0.00006552133709192276,0.0001613488420844078,0.0001482497900724411
1772568086659498200,5.857498291015625,-0.000518525019288063,-0.0012165708467364311,-0.0015556402504444122
1772568086669571000,5.867571044921875,0.000642675906419754,-0.001573219895362854,0.001329651102423668
1772568086679643100,5.87764306640625,0.002290107309818268,0.001088875811547041,-0.0003830278292298317
1772568086689715200,5.887715087890625,0.0018552853725850582,0.0002959687262773514,-0.0017956169322133064
1772568086699787300,5.897787353515625,0.0011665918864309788,0.0011521750129759312,0.0011791335418820381
1772568086709859000,5.907859130859375,0.0018417551182210445,-0.0024687042459845543,-0.00031282939016819
1772568086719931100,5.91793115234375,-0.0004650750197470188,0.0021028779447078705,-0.0000755414366722107
1772568086730003200,5.928003173828125,-0.0005014673806726933,0.0016991165466606617,-0.00004057493060827255
1772568086740075000,5.938074951171875,-0.0015733898617327213,0.0006612828001379967,-0.002033684402704239
1772568086750147000,5.94814697265625,-0.002796138171106577,0.0006679794751107693,0.0013731997460126877
1772568086760219100,5.95821923828125,-0.0008946415036916733,-0.0006500189192593098,0.0017247367650270462
1772568086770291200,5.968291259765625,0.00027872761711478233,0.00006029102951288223,-0.00018256250768899918
1772568086780363000,5.978363037109375,-0.0008075758814811707,-0.0008795387111604214,0.0013197269290685654
1772568086790435000,5.98843505859375,0.0007029911503195763,0.0031353761442005634,0.0014250166714191437
1772568086800507100,5.998507080078125,-0.0007465672679245472,0.0017430754378437996,-0.00023812707513570786
1772568086810579200,6.0085791015625,-0.0008711777627468109,0.00032582180574536324,-0.0009918687865138054
1772568086820651300,6.0186513671875,-0.0006261672824621201,0.00280362693592906,-0.0008025187999010086
1772568086830723300,6.028723388671875,0.0007021334022283554,0.000830543227493763,0.0015286384150385857
1772568086840795400,6.03879541015625,-0.000035029370337724686,0.000011088792234659195,-0.000040230341255664825
1772568086850868200,6.0488681640625,0.0009274417534470558,0.001517529133707285,-0.002095259726047516
1772568086860940300,6.058940185546875,-0.0011564819142222404,0.002551102079451084,-0.001186855137348175
1772568086871012000,6.06901220703125,-0.0002099229022860527,0.000539067666977644,0.0010298974812030792
1772568086881084200,6.079084228515625,-0.0006767748855054379,-0.0026841561775654554,0.0004341481253504753
1772568086891156200,6.08915625,0.0010917182080447674,0.0014598062261939049,-0.0003535700961947441
1772568086901228300,6.099228271484375,0.0009891865774989128,0.0016611414030194283,0.0007654903456568718
1772568086911300000,6.109300048828125,-0.001568501815199852,-0.003232993884012103,-0.0010699154809117317
1772568086921372200,6.1193720703125,-0.0005525057204067707,0.0018469858914613724,0.0013247989118099213
1772568086931444200,6.1294443359375,0.00019353022798895836,-0.000857530627399683,0.0015258574858307838
1772568086941516300,6.139516357421875,-0.000008337199687957764,-0.001393625047057867,0.0010331720113754272
1772568086951588000,6.149588134765625,-0.0001368168741464615,0.0008527813479304314,0.00032500457018613815
1772568086961660200,6.15966015625,-0.0008734473958611488,-0.000580797903239727,-0.00032693706452846527
1772568086971732200,6.169732177734375,-0.0009777098894119263,0.0004762234166264534,0.0002974066883325577
1772568086981804000,6.179803955078125,0.0009139338508248329,0.00195880513638258,0.0013003526255488396
1772568086991876000,6.1898759765625,0.0006745741702616215,0.00034565478563308716,0.0010778410360217094
1772568087001948200,6.1999482421875,-0.0010942979715764523,0.0003970535472035408,-0.0001852959394454956
1772568087012020200,6.210020263671875,-0.0010232189670205116,0.0007638339884579182,-0.0017583267763257027
1772568087022092000,6.220092041015625,-0.0012666312977671623,-0.00002819020301103592,-0.0016006678342819214
1772568087032165400,6.230165283203125,-0.0001529850997030735,0.001897930633276701,0.000005511566996574402
1772568087042237200,6.2402373046875,-0.002124256920069456,-0.0014539239928126335,0.0008598538115620613
1772568087052309200,6.250309326171875,-0.000591046642512083,0.001312278676778078,0.0008651344105601311
1772568087062381300,6.26038134765625,0.000019350089132785797,0.0011476953513920307,-0.0016760537400841713
1772568087072453400,6.270453369140625,-0.0013472186401486397,0.0004746904596686363,-0.0005656825378537178
1772568087082525200,6.280525146484375,0.0014208708889782429,-0.0003719283267855644,0.0007118359208106995
1772568087092597200,6.29059716796875,0.0011220057494938374,-0.001584392273798585,-0.00016648788005113602
1772568087102669300,6.30066943359375,-0.00030172010883688927,0.0024212682619690895,-0.000023475848138332367
1772568087112741000,6.3107412109375,-0.001252148300409317,0.0014379257336258888,0.0009275544434785843
1772568087122813200,6.320813232421875,-0.0012244516983628273,0.00035375310108065605,0.0003057057037949562
1772568087132885200,6.33088525390625,-0.0006450526416301727,0.0008008466102182865,0.0012764455750584602
1772568087142957300,6.340957275390625,0.0005352604202926159,0.0025846315547823906,0.00017496291548013687
1772568087153029000,6.351029052734375,-0.002296935301274061,0.002551242709159851,0.0011773258447647095
1772568087163101200,6.36110107421875,-0.000731262844055891,0.0002635871060192585,0.0019294023513793945
1772568087173173200,6.37117333984375,-0.0012952391989529133,0.0011942796409130096,-0.0002508684992790222
1772568087183245000,6.3812451171875,0.0004509957507252693,-0.002035069279372692,-0.0020389147102832794
1772568087193317000,6.391317138671875,-0.0005677142180502415,-0.0014386519324034452,0.0014097345992922783
1772568087203389200,6.40138916015625,-0.001283838413655758,-0.00015021488070487976,0.0006019975990056992
1772568087213462000,6.4114619140625,-0.0005433782935142517,-0.001731782453134656,-0.0001827981323003769
1772568087223534000,6.4215341796875,0.0006494517438113689,0.0009548142552375793,0.0010148249566555023
1772568087233606100,6.431606201171875,0.0006684800609946251,0.0009486116468906403,0.00026026833802461624
1772568087243678200,6.44167822265625,0.0009576994925737381,-0.0005797767080366611,-0.0011405544355511665
1772568087253750000,6.45175,-0.002310770098119974,0.003536723554134369,-0.0012552589178085327
1772568087263822000,6.461822021484375,-0.000313399825245142,-0.0011762725189328194,-0.0011516623198986053
1772568087273894100,6.47189404296875,0.0007970025762915611,0.00041216611862182617,0.000645817257463932
1772568087283966200,6.48196630859375,0.0008752993308007717,0.0014087213203310966,0.00002396944910287857
1772568087294038300,6.492038330078125,-0.001663218718022108,-0.0013043326325714588,0.00026670563966035843
1772568087304110300,6.5021103515625,0.0004116501659154892,-0.00022521987557411194,0.0010728444904088974
1772568087314182400,6.512182373046875,0.0008906195871531963,-0.0035245437175035477,0.0023758914321660995
1772568087324250000,6.52225,0.0007792995311319828,0.0018627648241817951,0.0005857152864336967
1772568087334322200,6.532322265625,0.000642010010778904,0.00018780631944537163,-0.0026672957465052605
1772568087344394200,6.542394287109375,0.0016968883574008942,0.0007177754305303097,-0.0012001609429717064
1772568087354466300,6.55246630859375,-0.001771481242030859,-0.0013048220425844193,-0.0016062036156654358
1772568087364538000,6.5625380859375,-0.0001616007648408413,0.001582311000674963,-0.0005289558321237564
1772568087374610400,6.5726103515625,-0.0005545248277485371,0.0014404277317225933,0.0003448519855737686
1772568087384682500,6.5826826171875,-0.0010179150849580765,-0.0016469748225063086,0.0010023871436715126
1772568087394754300,6.59275439453125,-0.0009204065427184105,0.0003307592123746872,0.000998002476990223
1772568087404826400,6.602826416015625,-0.0011414489708840847,-0.00208978820592165,-0.0025011245161294937
1772568087414898400,6.6128984375,0.0013541094958782196,0.001594469416886568,-0.0009993137791752815
1772568087424971300,6.62297119140625,0.001241990365087986,-0.002131293062120676,0.00026622042059898376
1772568087435043300,6.633043212890625,0.0009744162671267986,-0.0024388551246374846,-0.000503838062286377
1772568087445115400,6.643115478515625,-0.0005411887541413307,0.001058940775692463,0.0012048454955220222
1772568087455187200,6.653187255859375,0.001233091577887535,-0.00042987801134586334,0.0008088750764727592
1772568087465259300,6.66325927734375,-0.00016613304615020752,0.00047027040272951126,-0.00010059494525194168
1772568087475331300,6.673331298828125,0.0007372400723397732,0.0011781202629208565,0.0012496467679738998
1772568087485403400,6.6834033203125,-0.0027882521972060204,-0.00038222596049308777,-0.001150660216808319
1772568087495475200,6.69347509765625,-4.0838494896888733e-7,0.000014916528016328812,0.000033875927329063416
1772568087505547300,6.70354736328125,-0.000058731529861688614,-0.0017033549956977367,0.00017449073493480682
1772568087515619300,6.713619384765625,-0.0025086193345487118,-0.002539027715101838,-0.0007173744961619377
1772568087525691400,6.72369140625,0.0009316517971456051,0.00007060356438159943,0.00191595871001482
1772568087535763200,6.73376318359375,-0.0018334882333874702,-0.001058836467564106,-0.000460759736597538
1772568087545835300,6.743835205078125,-0.0006816708482801914,-0.0009568375535309315,-0.0006146905943751335
1772568087555907300,6.7539072265625,0.0008559226989746094,-0.00045523932203650475,0.0008893925696611404
1772568087565979100,6.763979248046875,-0.0002016187645494938,-0.0019980082288384438,0.0011429255828261375
1772568087576051200,6.77405126953125,-0.0014704382047057152,0.0008503035642206669,0.0005690930411219597
1772568087586123300,6.784123291015625,0.0005184109322726727,-0.0002013789489865303,0.0004287445917725563
1772568087596195300,6.7941953125,0.002640006598085165,-0.0013126987032592297,0.00010654237121343613
1772568087606267100,6.80426708984375,-0.0003139716573059559,0.0007395334541797638,0.0009598191827535629
1772568087616339200,6.814339111328125,0.0009353742934763432,0.0020735315047204494,0.000859895721077919
1772568087626411300,6.824411376953125,0.00022138096392154694,0.0016141366213560104,-0.0009089754894375801
1772568087636483300,6.8344833984375,0.0007022228091955185,-0.0009640729986131191,-0.0006333924829959869
1772568087646555400,6.844555419921875,0.0006707976572215557,0.0011544711887836456,0.0010792864486575127
1772568087656628500,6.85462841796875,0.0013384041376411915,0.0020441501401364803,0.0001630149781703949
1772568087666700300,6.8647001953125,-0.001678158063441515,0.0003615650348365307,0.00015742238610982895
1772568087676772400,6.8747724609375,0.0018069990910589695,0.0027244710363447666,-0.0012711640447378159
1772568087686844400,6.884844482421875,0.0003001824952661991,0.0002938034012913704,0.0008995784446597099
1772568087696916200,6.894916259765625,-0.00132296746596694,0.0008556530810892582,0.000039103440940380096
1772568087706988300,6.90498828125,-0.0013764970935881138,-0.001181132160127163,-0.002320723608136177
1772568087717060400,6.915060302734375,-0.001975345890969038,-0.0009348276071250439,-0.002373160794377327
1772568087727132400,6.92513232421875,0.001791695598512888,0.0019581643864512444,-0.00008310843259096146
1772568087737204200,6.935204345703125,-0.0023256386630237103,0.0024961992166936398,-0.0007756883278489113
1772568087747276300,6.9452763671875,0.0019860193133354187,-0.0010234345681965351,0.00003444496542215347
1772568087757348400,6.955348388671875,0.0024223076179623604,0.001961390022188425,-0.003269750624895096
1772568087767420400,6.96542041015625,0.0000510290265083313,-0.001474886666983366,0.0010482985526323318
1772568087777492200,6.9754921875,0.0015783053822815418,0.0018002851866185665,-0.0007329266518354416
1772568087787564300,6.985564208984375,0.0006683031097054482,0.0015637967735528946,0.0004369998350739479
1772568087797636400,6.99563623046875,-0.0005377396009862423,-0.0013710642233490944,-0.0020450958982110023
1772568087807708200,7.005708251953125,-0.0004594428464770317,0.00016158493235707283,0.0007264558225870132
1772568087817780200,7.0157802734375,0.001160463783890009,0.000370529480278492,-0.00015506893396377563
1772568087827852300,7.025852294921875,-0.0007961606606841087,-0.001763195265084505,-0.0000773044303059578
1772568087837924400,7.03592431640625,0.0001120581291615963,-0.0023126499727368355,0.0009092856198549271
1772568087847996200,7.04599609375,-0.001471191644668579,-0.002857798943296075,0.001264018937945366
1772568087858068200,7.056068115234375,-0.0015113563276827335,0.000896034762263298,-0.0017977729439735413
1772568087868140300,7.066140380859375,0.0003720307722687721,0.00010720640420913696,0.0014211898669600487
1772568087878212000,7.076212158203125,-0.0005472931079566479,-0.001970580779016018,-0.0012748045846819878
1772568087888284200,7.0862841796875,0.00008440855890512466,-0.001143935602158308,0.0034009069204330444
1772568087898357500,7.096357421875,-0.00031288759782910347,0.0029612239450216293,0.00015932973474264145
1772568087908429300,7.10642919921875,0.0011276165023446083,0.0001984606496989727,-0.0015972908586263657
1772568087918501400,7.11650146484375,-0.0007413476705551147,-0.00018945010378956795,0.0013037174940109253
1772568087928573400,7.126573486328125,0.0007654689252376556,0.0009751501493155956,0.001682152971625328
1772568087938645200,7.136645263671875,-0.0014391853474080563,0.003653602208942175,-0.0017993934452533722
1772568087948717300,7.14671728515625,-0.001763292122632265,-0.002012805547565222,-0.00003558211028575897
1772568087958789400,7.156789306640625,-0.0018431209027767181,0.003578485921025276,0.0009004278108477592
1772568087968861400,7.166861328125,-0.00027025816962122917,0.0041236355900764465,0.0018895259127020836
1772568087978933200,7.176933349609375,-0.0007504317909479141,0.0016482751816511154,-0.0005854349583387375
1772568087989005300,7.18700537109375,-0.000048156362026929855,-0.0004271264187991619,-0.0027998536825180054
1772568087999077400,7.197077392578125,-0.00001173233613371849,-0.0015028361231088638,-0.0009064655750989914
1772568088009149400,7.2071494140625,0.0012695142067968845,0.001970724668353796,-0.001795162446796894
1772568088019221200,7.21722119140625,0.001652879174798727,0.00011611869558691978,0.0004795463755726814
1772568088029293300,7.227293212890625,0.00004113418981432915,-0.0016130718868225813,-0.0007726717740297318
1772568088039365400,7.237365478515625,0.0014188769273459911,0.001418091356754303,-0.0003861580044031143
1772568088049437200,7.247437255859375,-0.0018528164364397526,-0.0021031401120126247,-0.000026631169021129608
1772568088059509200,7.25750927734375,0.001792999915778637,0.0008652433753013611,0.00043404754251241684
1772568088069581300,7.267581298828125,-0.0003505782224237919,-0.0019574409816414118,-0.0022799791768193245
1772568088079653400,7.2776533203125,-0.0012019709683954716,-0.0015556905418634415,-0.0004420112818479538
1772568088089725200,7.28772509765625,-0.001169747207313776,-0.00012424122542142868,0.0006437599658966064
1772568088099797200,7.29779736328125,-0.00044823577627539635,0.0010216496884822845,0.0010335203260183334
1772568088109869300,7.307869384765625,-0.0006090905517339706,-0.0013829185627400875,-0.0011018021032214165
1772568088119941000,7.317941162109375,-0.0016132136806845665,-0.0007141861133277416,0.0001938631758093834
1772568088130013200,7.32801318359375,-0.0009809788316488266,-0.0012034084647893906,0.0015185195952653885
1772568088140085200,7.338085205078125,-0.00029150769114494324,0.00017401715740561485,-0.0011577382683753967
1772568088150157300,7.3481572265625,-0.0018835454247891903,0.002259804867208004,-0.0002104518935084343
1772568088160229000,7.35822900390625,0.001149037852883339,0.0005093635991215706,0.0007047401741147041
1772568088170301200,7.36830126953125,-0.0001535140909254551,0.0025365618057549,0.0012115398421883583
1772568088180374300,7.378374267578125,-0.0019083786755800247,0.0008138366974890232,-0.0009034853428602219
1772568088190446300,7.3884462890625,-0.0009839953854680061,-0.0011047045700252056,0.000042469240725040436
1772568088200518400,7.398518310546875,0.0027797999791800976,-0.0010759956203401089,-0.0004940386861562729
1772568088210590500,7.408590576171875,0.0012697875499725342,0.0023365789093077183,-0.0020743580535054207
1772568088220662300,7.418662353515625,0.0013142013922333717,0.0007288716733455658,-0.0017684418708086014
1772568088230734300,7.428734375,0.002081990707665682,-0.0003491761162877083,-0.0012264885008335114
1772568088240806400,7.438806396484375,-0.0012707719579339027,-0.00037722568958997726,-0.0021955426782369614
1772568088250878200,7.448878173828125,0.00140836788341403,0.0002651289105415344,0.0019256984815001488
1772568088260950300,7.4589501953125,-0.0006792014464735985,-0.0008494295179843903,0.0010695504024624825
1772568088271022300,7.469022216796875,-0.0006278026849031448,0.0010874876752495766,0.00024343840777873993
1772568088281094400,7.479094482421875,-0.00041117332875728607,-0.0007481686770915985,0.0015913685783743858
1772568088291166200,7.489166259765625,0.00040961289778351784,0.0007189665921032429,0.0002624513581395149
1772568088301238300,7.49923828125,-0.0010362197645008564,0.0025846189819276333,0.0022113071754574776
1772568088311310300,7.509310302734375,0.0005986951291561127,0.0016312077641487122,-0.0005653044208884239
1772568088321382400,7.51938232421875,-0.0013181157410144806,-0.000022249296307563782,-0.0007612146437168121
1772568088331454200,7.5294541015625,-0.0004933346062898636,0.00012502353638410568,-0.0015889257192611694
1772568088341526300,7.5395263671875,0.00095800356939435,0.0009443070739507675,-0.000962485559284687
1772568088351598300,7.549598388671875,-0.0010516177862882614,0.0007022256031632423,-0.0016551734879612923
1772568088361670100,7.559670166015625,0.0009662914089858532,-0.0011742296628654003,0.002277829684317112
1772568088371742200,7.5697421875,-0.0008233529515564442,-0.0008341441862285137,-0.0011786865070462227
1772568088381814300,7.579814208984375,-0.00021761609241366386,0.0026893317699432373,-0.00173100084066391
1772568088391886300,7.58988623046875,-0.0005222819745540619,-0.0011549410410225391,-0.0009461669251322746
1772568088401958100,7.599958251953125,0.00010808557271957397,0.0023610168136656284,-0.0015031080693006516
1772568088412030200,7.6100302734375,0.000055621378123760223,-0.0014667445793747902,-0.0004101460799574852
1772568088422102300,7.620102294921875,0.0020865299738943577,0.0027003074064850807,-0.000518004409968853
1772568088432174000,7.630174072265625,-0.0015287110581994057,0.0010214508511126041,0.000799993984401226
1772568088442246100,7.64024609375,0.0012671672739088535,-0.00005443301051855087,0.0015061302110552788
1772568088452319200,7.6503193359375,0.0009800787083804607,-0.00023552775382995605,-0.0003133416175842285
1772568088462391000,7.66039111328125,0.0003877938725054264,0.0001431060954928398,-0.0010837707668542862
1772568088472463000,7.670463134765625,0.002928183414041996,0.002471241168677807,-0.0021072234958410263
1772568088482535200,7.68053515625,-0.00013333000242710114,-0.0014171188231557608,0.0008775610476732254
1772568088492607200,7.690607177734375,-0.0010220273397862911,0.0025525889359414577,-0.00026733241975307465
1772568088502679000,7.700678955078125,-0.000404254999011755,0.0002739951014518738,0.002324473112821579
1772568088512751000,7.710751220703125,-0.0007616509683430195,0.0014753472059965134,-0.00006864406168460846
1772568088522823200,7.7208232421875,-0.001970502082258463,0.00005474872887134552,-0.00010496098548173904
1772568088532895000,7.73089501953125,-0.0007670195773243904,-0.0017468796577304602,0.001127815805375576
1772568088542967000,7.740967041015625,-0.0003492254763841629,0.0023781489580869675,0.0012949099764227867
1772568088553039000,7.7510390625,0.0021464223973453045,-0.0004096478223800659,0.0002908986061811447
1772568088563111400,7.761111328125,-0.0011437670327723026,0.0024618185125291348,0.00037264078855514526
1772568088573183200,7.771183349609375,-0.00006811646744608879,-0.00001385621726512909,0.002375338226556778
1772568088583255300,7.78125537109375,-0.002197224646806717,-0.002078176010400057,0.0019854623824357986
1772568088593327400,7.791327392578125,0.0003056144341826439,0.0011005732230842113,-0.0005754325538873672
1772568088603399200,7.801399169921875,-0.0014266339130699635,0.0013023517094552517,-0.0008808551356196404
1772568088613471200,7.81147119140625,0.00012785336002707481,-0.0016087496187537909,0.0017018793150782585
1772568088623543300,7.821543212890625,0.002323946449905634,-0.0024818903766572475,-0.00002779252827167511
1772568088633615400,7.831615478515625,0.001030715648084879,0.0016902177594602108,-0.0014214245602488518
1772568088643687200,7.841687255859375,0.0005627600476145744,0.00026833871379494667,0.0003233812749385834
1772568088653759200,7.85175927734375,-0.00046122539788484573,0.002278492785990238,0.0007292469963431358
1772568088663831300,7.861831298828125,-0.00009882403537631035,0.0005297181196510792,-0.0015433309599757195
1772568088673903000,7.871903076171875,-0.0008719395846128464,0.0010876506567001343,0.0016125151887536049
1772568088683975200,7.88197509765625,-0.0009821909479796886,-0.002025187946856022,-0.0008706208318471909
1772568088694047200,7.892047119140625,0.003223739331588149,0.001494179479777813,0.0011246195062994957
1772568088704119300,7.902119384765625,0.00002372870221734047,-0.0010391371324658394,-0.0012871650978922844
1772568088714191000,7.912191162109375,-0.0003067692741751671,-0.00010463409125804901,0.0003349669277667999
1772568088724263200,7.92226318359375,-0.002754723187536001,0.00031987903639674187,0.000058834441006183624
1772568088734335200,7.932335205078125,0.0002104407176375389,0.00005249772220849991,-0.001943330280482769
1772568088744407300,7.9424072265625,-0.0009273216128349304,-0.0024552871473133564,-0.0005624052137136459
1772568088754479000,7.95247900390625,0.0005523310974240303,0.0015285355038940907,-0.0006665345281362534
1772568088764551200,7.96255126953125,-0.0012525697238743305,-0.0015002130530774593,-0.00037842709571123123
1772568088774623200,7.972623291015625,-0.000026450958102941513,0.00045960722491145134,-0.0025310609489679337
1772568088784696000,7.982696044921875,-0.0005300748161971569,0.001855416689068079,0.0009805941954255104
1772568088794768100,7.99276806640625,-0.001315973699092865,0.00008920812979340553,0.0013433173298835754
1772568088804840200,8.002840087890625,-0.0015799649991095066,-0.0006619244813919067,-0.000729055143892765
1772568088814912000,8.012912109375,0.0001114080660045147,0.0010472922585904598,0.002594304271042347
1772568088824984000,8.022984130859374,-0.0005437540821731091,-0.0014112112112343311,0.0008547501638531685
1772568088835056400,8.033056396484374,0.0006741094402968884,-0.0022770047653466463,0.00007976964116096497
1772568088845128200,8.043128173828125,0.0007512536831200123,0.001351390965282917,-0.0026028547435998917
1772568088855200300,8.0532001953125,0.000030069611966609955,0.000575079582631588,-0.0024073785170912743
1772568088865272300,8.063272216796875,0.001475268043577671,-0.00265318201854825,0.0019760988652706146
1772568088875344400,8.073344482421875,0.0008395714685320854,-0.00040627317503094673,0.0007228152826428413
1772568088885416200,8.083416259765626,-0.0013611908070743084,0.0006804871372878551,-0.0006121443584561348
1772568088895488300,8.09348828125,-0.0015875599347054958,0.0009217695333063602,-0.0007469002157449722
1772568088905560300,8.103560302734374,0.0003232210874557495,0.0015937397256493568,0.0021522250026464462
1772568088915632000,8.113632080078125,0.001834565307945013,-0.00039803842082619667,0.0009202463552355766
1772568088925704200,8.1237041015625,0.0029666153714060783,-0.0005076993256807327,-0.00013353675603866577
1772568088935776300,8.1337763671875,0.0003026551567018032,0.00012426869943737984,0.0014039063826203346
1772568088945848300,8.143848388671875,0.00013669254258275032,-0.000202864408493042,0.0018104519695043564
1772568088955920100,8.153920166015626,0.0007398985326290131,-0.0023941134568303823,-0.0014489907771348953
1772568088965992200,8.1639921875,0.00013333791866898537,0.0007496257312595844,-0.0014062505215406418
1772568088976064300,8.174064208984374,-0.0008416455239057541,-0.0012275050394237041,-0.0016896100714802742
1772568088986136300,8.18413623046875,0.0005109040066599846,0.001569921150803566,-0.0009204624220728874
1772568088996208000,8.1942080078125,0.00012394646182656288,0.0007909461855888367,0.000440145842730999
1772568089006280200,8.2042802734375,0.0003981487825512886,0.0012576812878251076,-0.0012582875788211823
1772568089016352300,8.214352294921875,-0.0009592645801603794,-0.000987896230071783,0.000777166336774826
1772568089026424000,8.224424072265625,-0.0012825061567127705,0.0002461620606482029,0.002245713025331497
1772568089036496100,8.23449609375,0.0007726550102233887,0.0008805273100733757,0.000018777325749397278
1772568089046568200,8.244568115234374,-0.0006958660669624805,-0.0033411956392228603,0.0012556333094835281
1772568089056640300,8.25464013671875,0.0013640890829265118,0.002548385411500931,0.0032972125336527824
1772568089066712000,8.264712158203125,0.0010747192427515984,0.0008276826702058315,0.0007727788761258125
1772568089076784000,8.2747841796875,0.0002443455159664154,0.0000545671209692955,-0.00013402756303548813
1772568089086856200,8.284856201171875,-0.00003171572461724281,0.00015620235353708267,-0.0011688806116580963
1772568089096928000,8.294927978515625,0.0008671008981764317,0.001383387017995119,0.0024215932935476303
1772568089107000000,8.305,-0.0018597193993628025,-0.0005315099842846394,-0.001908021979033947
1772568089117072100,8.315072021484376,-0.0006533078849315643,0.0012986143119633198,0.0006885603070259094
1772568089127144200,8.325144287109374,0.0000018673017621040344,-0.0003365646116435528,-0.00015712901949882507
1772568089137216000,8.335216064453125,-0.0000524609349668026,0.0007918169721961021,0.0011044107377529144
1772568089147288000,8.3452880859375,-0.00200490839779377,-0.004688960500061512,0.0003026239573955536
1772568089157360000,8.355360107421875,-0.0010333871468901634,0.0026347325183451176,0.0015668272972106934
1772568089167432200,8.36543212890625,0.0018239445053040981,0.0014933631755411625,0.0006969645619392395
1772568089177504300,8.375504150390626,-0.0007385490462183952,-0.0022875266149640083,-0.002628258429467678
1772568089187576300,8.385576416015626,-0.000018452294170856476,-0.00016519008204340935,0.000621396116912365
1772568089197649200,8.395649169921874,-0.0011689374223351479,-0.00046452926471829414,-0.000696335919201374
1772568089207721200,8.40572119140625,0.0008672988042235374,0.00036083022132515907,-0.000599987804889679
1772568089217793300,8.415793212890625,-0.00021714065223932266,-0.0003249337896704674,0.000025588087737560272
1772568089227865300,8.425865234375,0.00039522675797343254,0.001266824547201395,-0.0025138836354017258
1772568089237937200,8.435937255859375,-0.002691376954317093,0.00011926842853426933,-0.0011711176484823227
1772568089248009200,8.44600927734375,0.0010061846114695072,0.0006231381557881832,-0.0006172619760036469
1772568089258081300,8.456081298828124,0.0003755483776330948,-0.00045810500159859657,-0.0021373946219682693
1772568089268153000,8.466153076171874,-0.0001625153236091137,0.0011940961703658104,-0.00005562976002693176
1772568089278225200,8.47622509765625,-0.00042457040399312973,0.0024306015111505985,-0.0002646883949637413
1772568089288297200,8.486297119140625,-0.0016948762349784374,-0.0017475115600973368,0.0016642147675156593
1772568089298369300,8.496369384765625,0.0034194584004580975,-0.0005972925573587418,0.0018509021028876305
1772568089308441000,8.506441162109375,0.0007745670154690742,0.0001264694146811962,0.001211262308061123
1772568089318513200,8.51651318359375,0.0014209160581231117,0.00011634919792413712,0.0016352375969290733
1772568089328585200,8.526585205078124,0.0005824477411806583,-0.0008780038915574551,-0.0009203003719449043
1772568089338657000,8.536656982421874,-0.0005994630046188831,0.0011135078966617584,0.00021314062178134918
1772568089348729000,8.54672900390625,0.0013503655791282654,0.0020560333505272865,0.0007881065830588341
1772568089358801200,8.55680126953125,-0.0002794889733195305,-0.00001217750832438469,-0.0018140682950615883
1772568089368873200,8.566873291015625,0.0005924906581640244,-0.0005071484483778477,0.0012869518250226974
1772568089378945000,8.576945068359375,-0.00039820512756705284,0.0021674642339348793,0.0006147697567939758
1772568089389017300,8.587017333984376,0.0006169751286506653,0.0031369919888675213,0.0002908902242779732
1772568089399089400,8.59708935546875,-0.0015492402017116547,-0.00007797591388225555,-0.0019437680020928383
1772568089409161200,8.6071611328125,0.0011237864382565022,-0.0011938116513192654,-0.0008148234337568283
1772568089419233300,8.6172333984375,-0.0007356326095759869,-0.0003583780489861965,0.00015003979206085205
1772568089429305300,8.627305419921875,0.0005379831418395042,0.003138971049338579,0.00015123188495635986
1772568089439377400,8.63737744140625,-0.0028812498785555363,0.0004981807433068752,0.0008037062361836433
1772568089449449200,8.64744921875,0.0012861108407378197,-0.0013571861200034618,-0.0007473807781934738
1772568089459521300,8.657521240234376,0.0010403012856841087,-0.0014163083396852016,0.0007767463102936745
1772568089469593300,8.66759326171875,-0.0007595634087920189,0.0019360557198524475,-0.00009581726044416428
1772568089479665200,8.6776650390625,0.001916913315653801,0.0029848087579011917,0.0018935631960630417
1772568089489737200,8.6877373046875,-0.00026129279285669327,0.00016644690185785294,0.001304754987359047
1772568089499809300,8.697809326171875,-0.0017611850053071976,-0.0012386366724967957,0.0000804997980594635
1772568089509881300,8.70788134765625,0.00003191549330949783,0.000993628054857254,0.0014484543353319168
1772568089519953200,8.717953125,0.0010913209989666939,-0.000018639490008354187,-0.0018043303862214088
1772568089530025200,8.728025146484375,-0.0006098519079387188,-0.0003260127268731594,-0.000796646811068058
1772568089540097300,8.73809716796875,-0.0028216075152158737,0.0004929094575345516,0.00138954259455204
1772568089550169300,8.74816943359375,0.0007350347004830837,-0.00008447794243693352,-0.001166556030511856
1772568089560241200,8.7582412109375,0.0007941569201648235,-0.001543357502669096,0.0008286843076348305
1772568089570313200,8.768313232421875,0.0005148914642632008,0.0018538772128522396,0.00006988085806369781
1772568089580385300,8.77838525390625,0.0013204975984990597,0.0024384413845837116,0.00040836911648511887
1772568089590457000,8.78845703125,0.0011211191304028034,-0.002954778028652072,0.0016499338671565056
1772568089600529200,8.798529052734375,-0.00022590765729546547,-0.001871936721727252,0.0014709699898958206
1772568089610601200,8.808601318359376,-0.0015114415436983109,0.0009096357971429825,-0.002950151450932026
1772568089620673300,8.81867333984375,0.0013453313149511814,0.0006262753158807755,0.002939162775874138
1772568089630745000,8.8287451171875,0.0006046299822628498,-0.003708374686539173,-0.0029237428680062294
1772568089640817200,8.838817138671875,0.0007122214883565903,-0.000773570965975523,-0.00009653065353631973
1772568089650889200,8.84888916015625,-0.00010223127901554108,0.0014265631325542927,0.0007748063653707504
1772568089660961000,8.8589609375,-0.0020218375138938427,0.0012944703921675682,0.00006773695349693298
1772568089671033000,8.869033203125,-0.0006734724156558514,0.000360261183232069,-0.0008441274985671043
1772568089681105200,8.879105224609376,0.0034339206758886576,-0.0016632084734737873,-0.0003985809162259102
1772568089691177200,8.88917724609375,-0.0013137944042682648,-0.0004925644025206566,0.000173117034137249
1772568089701249000,8.8992490234375,0.0022966531105339527,0.00020545022562146187,0.0010863151401281357
1772568089711321000,8.909321044921874,-0.00029282039031386375,-0.0016019947361201048,0.002021297812461853
1772568089721394200,8.919394287109375,-0.00033223535865545273,0.0016214954666793346,0.0012742811813950539
1772568089731466200,8.92946630859375,-0.0018090051598846912,0.0008571231737732887,0.0005845110863447189
1772568089741538300,8.939538330078125,0.0009819879196584225,-0.0018638281617313623,0.0011038267984986305
1772568089751610400,8.9496103515625,-0.0016679661348462105,-0.0004124618135392666,-0.000016372650861740112
1772568089761682200,8.95968212890625,0.00013419520109891891,-0.0007632002234458923,-0.0020212000235915184
1772568089771754200,8.969754150390624,0.0034619097132235765,-0.0016172279138118029,-0.00039040762931108475
1772568089781826300,8.979826416015625,-0.0018215356394648552,0.0007671001367270947,0.00017764512449502945
1772568089791898400,8.9898984375,0.001612323336303234,0.00036204326897859573,-0.0005970494821667671
1772568089801970200,8.99997021484375,-0.000003416556864976883,0.0006214352324604988,-0.0001296643167734146
1772568089812042200,9.010042236328125,0.000389105174690485,-0.0001570531167089939,-0.0007158247753977776
1772568089822114300,9.0201142578125,-0.0009304909035563469,-0.002787190955132246,0.00023625604808330536
1772568089832186000,9.03018603515625,0.002837876323610544,0.0013654818758368492,0.0017844829708337784
1772568089842258200,9.040258056640624,-0.0027944431640207767,0.00028849951922893524,-0.0012142360210418701
1772568089852330200,9.050330322265625,-0.00119436951354146,0.0009290957823395729,-0.0013113738968968391
1772568089862402300,9.06040234375,-0.001367208082228899,0.0010476065799593925,0.00032487232238054276
1772568089872474000,9.07047412109375,0.0021552052348852158,-0.0006462433375418186,0.0022811517119407654
1772568089882546200,9.080546142578125,-0.0009902543388307095,-0.001365563366562128,-0.001992955803871155
1772568089892618200,9.0906181640625,-0.0014746072702109814,0.00013486482203006744,0.00009017903357744217
1772568089902690000,9.10068994140625,0.00047029927372932434,0.0002536419779062271,-0.0002549663186073303
1772568089912762000,9.11076220703125,-0.0017856582999229431,-0.0009767720475792885,-0.0013307221233844757
1772568089922834200,9.120834228515625,0.0006186435930430889,-0.0003200364299118519,-0.0004436224699020386
1772568089932906200,9.13090625,0.0012054815888404846,0.0010672006756067276,-0.002558598294854164
1772568089942978000,9.14097802734375,-0.0005804342217743397,0.0008576097898185253,0.0018340200185775757
1772568089953050000,9.151050048828125,0.0005443999543786049,0.0013774977996945381,-0.0004175286740064621
1772568089963122200,9.1611220703125,0.0002463920973241329,-0.00014050398021936417,0.00009486358612775803
1772568089973194200,9.1711943359375,-0.0016529527492821217,0.00006215134635567665,-0.0015774015337228775
1772568089983266000,9.18126611328125,-0.0004121856763958931,-0.00022866623476147652,-0.0008429018780589104
1772568089993338400,9.19133837890625,-0.00017792917788028717,0.0003611738793551922,-0.001621766947209835
1772568090003410400,9.201410400390625,-0.0009260112419724464,0.002484777942299843,0.0021111853420734406
1772568090013482200,9.211482177734375,0.002268583048135042,-0.0013324976898729801,-0.000676911324262619
1772568090023554300,9.22155419921875,0.00012793438509106636,-0.0011993399821221828,-0.0001695789396762848
1772568090033626400,9.23162646484375,0.00091141602024436,-0.0014545144513249397,-0.0025078142061829567
1772568090043698400,9.241698486328126,-0.00173576595261693,-0.00040922360494732857,-0.0007096482440829277
1772568090053770200,9.251770263671874,0.0005672085098922253,0.0007197503000497818,0.00028236303478479385
1772568090063842300,9.26184228515625,0.0011230101808905602,0.001942140981554985,-0.0017027566209435463
1772568090073914400,9.271914306640625,0.0004745158366858959,-0.0011762692593038082,-0.0005489541217684746
1772568090083986200,9.281986083984375,0.0003030085936188698,-0.0004457645118236542,-0.001557227224111557
1772568090094058200,9.292058349609375,-0.00023545091971755028,-0.0005233064293861389,0.0007191309705376625
1772568090104130300,9.30213037109375,0.0010860096663236618,-0.0007627247832715511,-0.0021770568564534187
1772568090114202400,9.312202392578126,-0.003951623570173979,0.00001739664003252983,-0.0004920605570077896
1772568090124274200,9.322274169921876,0.0021542059257626534,0.0008959737606346607,0.0005356539040803909
1772568090134346200,9.33234619140625,-0.001129495445638895,0.0008677900768816471,-0.001293339766561985
1772568090144418300,9.342418212890625,0.0014929198659956455,-0.0003359587863087654,-0.0018257051706314087
1772568090154490000,9.352489990234375,-0.00037562521174550056,0.002546585164964199,0.0010743075981736183
1772568090164562200,9.362562255859375,0.000043822452425956726,-0.0016058152541518211,-0.0005203932523727417
1772568090174634200,9.37263427734375,-0.0020422926172614098,-0.002187243429943919,-0.002094212919473648
1772568090184706300,9.382706298828126,-0.0013554636389017105,-0.0007741702720522881,0.0013841409236192703
1772568090194778000,9.392778076171876,0.0019888198003172874,0.0003299359232187271,0.0007833093404769897
1772568090204850200,9.40285009765625,0.002415724564343691,0.002711334265768528,0.0001177862286567688
1772568090214922200,9.412922119140624,-0.0011976403184235096,0.00028129760175943375,0.0001545976847410202
1772568090224994300,9.422994384765625,-0.0012991069816052914,-0.00011045299470424652,0.0010579423978924751
1772568090235066000,9.433066162109375,0.00020034145563840866,-0.0011563659645617008,0.0011847401037812233
1772568090245138200,9.44313818359375,0.0013255272060632706,0.0007318155840039253,0.0010893987491726875
1772568090255210200,9.453210205078125,-0.001434530597180128,-0.0014683553017675877,0.0019016088917851448
1772568090265282000,9.463281982421876,-0.00014769146218895912,-0.0004425058141350746,0.001252063550055027
1772568090275354000,9.47335400390625,0.0007420862093567848,0.0021372241899371147,-0.0010710060596466064
1772568090285426200,9.48342626953125,-0.0005929563194513321,0.0030395030044019222,0.0007370142266154289
1772568090295498200,9.493498291015625,0.00033415062353014946,-0.0009419964626431465,-0.000612218864262104
1772568090305570000,9.503570068359375,-0.001598504837602377,-0.00020509958267211914,-0.0005403133109211922
1772568090315642000,9.51364208984375,0.0011273915879428387,0.00249048275873065,-0.0014389585703611374
1772568090325714200,9.523714111328125,0.00008316617459058762,-0.0020153194200247526,-0.0019090063869953156
1772568090335786200,9.5337861328125,0.000528477132320404,0.0008575860410928726,0.0006363391876220703
1772568090345858300,9.5438583984375,0.0005646958015859127,0.002041893545538187,-0.002733091823756695
1772568090355930400,9.553930419921874,-0.0020384457893669605,0.0013720616698265076,0.002383524551987648
1772568090366002400,9.56400244140625,-0.001089294906705618,-0.0008282423950731754,0.0009044045582413673
1772568090376074200,9.57407421875,0.001951949205249548,-0.0003647357225418091,-0.0025344397872686386
1772568090386146300,9.584146240234375,-0.0013197441585361958,-0.0010590218007564545,-0.0005967235192656517
1772568090396218400,9.59421826171875,0.003232357557862997,-0.0020275346469134092,0.004022244364023209
1772568090406290200,9.604290283203126,-0.0019589420408010483,0.0011123321019113064,-0.00044654030352830887
1772568090416362200,9.6143623046875,-0.0014517288655042648,-0.004955893848091364,-0.00391145795583725
1772568090426434300,9.624434326171874,-0.0017838254570960999,-0.0007923077791929245,-0.0028696293011307716
1772568090436506400,9.63450634765625,0.0009490558877587318,-0.0014825612306594849,-0.00009313691407442093
1772568090446578200,9.644578125,-0.0009242119267582893,0.0004413062706589699,-0.00038129091262817383
1772568090456650200,9.654650146484375,-0.0008032359182834625,-0.00008596433326601982,0.0028877900913357735
1772568090466722300,9.664722412109375,0.0018082601018249989,-0.0005379025824368,-0.0005828402936458588
1772568090476794400,9.67479443359375,0.0007225554436445236,0.0004271268844604492,-0.0012171752750873566
1772568090486866200,9.6848662109375,-0.0007951804436743259,0.0009903856553137302,-0.000630747526884079
1772568090496938500,9.6949384765625,0.0008662939071655273,0.0013572131283581257,0.002614968456327915
1772568090507010600,9.705010498046875,0.0013677668757736683,0.002165482845157385,-0.000766979530453682
1772568090517082400,9.715082275390625,-0.0011398755013942719,-0.0009910049848258495,0.0008198022842407227
1772568090527154400,9.725154541015625,-0.000545191578567028,-0.0006759529933333397,-0.0018745176494121552
1772568090537226500,9.7352265625,0.002687435131520033,-0.0012236619368195534,0.0007021380588412285
1772568090547298300,9.74529833984375,0.002061858307570219,0.0022642798721790314,-0.0013383757323026657
1772568090557370400,9.755370361328126,0.00030995672568678856,-0.0011625266633927822,-0.00047454144805669785
1772568090567442400,9.7654423828125,0.002376303542405367,-0.0009737084619700909,-0.0008479161188006401
1772568090577514500,9.775514404296874,0.0004015001468360424,0.00003057578578591347,-0.0015186890959739685
1772568090587586300,9.78558642578125,0.0005330606363713741,0.00011766096577048302,-0.0006947070360183716
1772568090597658400,9.795658447265625,0.0006271949969232082,-0.00047211814671754837,-0.0006467532366514206
1772568090607730400,9.80573046875,0.0015025758184492588,-0.00024388497695326805,0.0021343855187296867
1772568090617802500,9.815802490234375,-0.0005909507162868977,-0.0009762141853570938,-0.0017643049359321594
1772568090627874300,9.825874267578126,-0.0008716476149857044,-0.0005647558718919754,0.0000788690522313118
1772568090637946400,9.8359462890625,0.0016148355789482594,0.0010255784727633,-0.00030572526156902313
1772568090648018400,9.846018310546874,0.0009320010431110859,0.00014060968533158302,-0.0007334286347031593
1772568090658090200,9.85609033203125,0.00038750842213630676,-0.001290682703256607,0.0007318994030356407
1772568090668162300,9.866162353515625,0.0014120261184871197,-0.0012672469019889832,0.00035825837403535843
1772568090678234400,9.876234375,-0.0004020421765744686,0.0014697532169520855,0.000058788806200027466
1772568090688306400,9.886306396484375,-0.00007420731708407402,0.0023177037946879864,-0.001647498458623886
1772568090698378200,9.896378173828126,-0.0013358276337385178,-0.001586901256814599,0.00037488527595996857
1772568090708450300,9.9064501953125,0.0011853869073092937,0.0006610732525587082,-0.0015686899423599243
1772568090718522400,9.9165224609375,-0.0013249712064862251,0.0019285851158201694,0.000858604907989502
1772568090728594200,9.92659423828125,-0.0012480057775974274,-0.0009681354276835918,0.0002918839454650879
1772568090738666200,9.936666259765625,-0.002629549242556095,-0.002680812496691942,0.0025588497519493103
1772568090748738300,9.94673828125,-0.0014007668942213058,-0.0018597599118947983,0.0021449951454997063
1772568090758810400,9.956810302734375,0.002899041399359703,-0.0031996637117117643,-0.001715177670121193
1772568090768882200,9.966882080078125,0.0005424101836979389,-0.00018523167818784714,-0.00017986539751291275
1772568090778954200,9.976954345703126,0.0007202085107564926,-0.00044830236583948135,0.00043753068894147873
1772568090789026300,9.9870263671875,0.0013348660431802273,0.0006161634810268879,0.0019885553047060966
1772568090799098400,9.997098388671875,0.0024075661785900593,0.000490148551762104,-0.000561482273042202
1772568090809170200,10.007170166015625,0.000005927402526140213,0.00081212492659688,0.0021940898150205612
1772568090819242200,10.0172421875,0.0019294670782983303,-0.00022504618391394615,-0.000140325166285038
1772568090829314600,10.027314453125,-0.0015555457212030888,0.001547553576529026,-0.0009477958083152771
1772568090839386400,10.037386474609375,0.0009312466718256474,0.0018735826015472412,0.0002629989758133888
1772568090849458400,10.04745849609375,-0.001159867737442255,0.0007494622841477394,-0.0015780450776219368
1772568090859530500,10.057530517578124,-0.0011864937841892242,0.0013749310746788979,0.0019014645367860794
1772568090869602600,10.0676025390625,-0.000262377317994833,-0.0009342958219349384,-0.0010336050763726234
1772568090879674400,10.07767431640625,-0.0010493802838027477,0.0012264028191566467,0.0037245508283376694
1772568090889746400,10.087746337890625,0.0007788799703121185,-0.00021916115656495094,0.0002773543819785118
1772568090899818500,10.097818603515625,0.00008115638047456741,-0.00026758667081594467,-0.001400248147547245
1772568090909890300,10.107890380859375,0.00020073214545845985,0.00015212735161185265,0.0008650366216897964
1772568090919962400,10.11796240234375,-0.0011669625528156757,-0.001149929128587246,0.0011684698984026909
1772568090930034400,10.128034423828124,-0.0005621588788926601,0.000505492091178894,-0.0003593862056732178
1772568090940106500,10.1381064453125,0.0006016921252012253,0.00006165355443954468,-0.0015151668339967728
1772568090950178300,10.14817822265625,-0.000639873556792736,0.0020270664244890213,-0.0004994375631213188
1772568090960250400,10.15825048828125,0.0020424476824700832,0.0014023338444530964,0.0018917853012681007
1772568090970322400,10.168322509765625,-0.00041937828063964844,0.00036316830664873123,0.00016978569328784943
1772568090980394200,10.178394287109375,-0.0014303913339972496,0.0010480857454240322,-0.0007113656029105186
1772568090990466300,10.18846630859375,-0.00008815806359052658,0.00022889720275998116,0.0009512463584542274
1772568091000538400,10.198538330078126,-0.0015654624439775944,-0.0005248864181339741,0.001624315045773983
1772568091010610400,10.2086103515625,0.0023019802756607533,0.0006799278780817986,0.00013827160000801086
1772568091020682200,10.21868212890625,0.0008420334197580814,-0.0003948821686208248,0.0008915839716792107
1772568091030754300,10.22875439453125,-0.0005156458355486393,-0.0002225758507847786,0.000827668234705925
1772568091040826400,10.238826416015625,-0.0014485353603959084,-0.0008295546285808086,-0.0009456481784582138
1772568091050898400,10.2488984375,-0.0017018020153045654,-0.0012111854739487171,0.0006477218121290207
1772568091060970200,10.25897021484375,-0.0007096398621797562,0.0027858479879796505,0.00021285377442836761
1772568091071042300,10.269042236328126,0.00009223772212862968,-0.0014195493422448635,-0.0005224449560046196
1772568091081114400,10.2791142578125,-0.001417872030287981,-0.0017918595112860203,-0.001940099522471428
1772568091091186200,10.289186279296874,0.0005470081232488155,0.0010326891206204891,0.0007201321423053741
1772568091101258200,10.29925830078125,-0.001816734205931425,0.0015005040913820267,0.0011358624324202538
1772568091111330300,10.309330322265625,0.0005926280282437801,0.0001912941224873066,0.0004980349913239479
1772568091121402400,10.31940234375,-0.0016893413849174976,0.0009123110212385654,-0.00028215721249580383
1772568091131474200,10.32947412109375,0.0018934090621769428,0.0014353562146425247,0.001926668919622898
1772568091141546200,10.339546142578126,-0.002661375794559717,-0.00036700163036584854,-0.00011154916137456894
1772568091151618300,10.349618408203124,0.000008709263056516647,-0.0008082874119281769,0.0013795550912618637
1772568091161690000,10.359690185546874,0.0021123732440173626,-0.0004538833163678646,0.0014192601665854454
1772568091171762400,10.369762451171875,-0.0015979432500898838,0.0018873014487326145,0.000591016374528408
1772568091181834500,10.37983447265625,0.0012292652390897274,0.002674398012459278,-0.0017106886953115463
1772568091191906600,10.389906494140625,-0.0012509371154010296,-0.0018412580247968435,0.0009490102529525757
1772568091201978400,10.399978271484375,0.0013283607549965382,0.003153176512569189,0.0032743290066719055
1772568091212050400,10.410050537109376,-0.001451179850846529,0.0045502702705562115,0.002316923812031746
1772568091222122500,10.42012255859375,0.001026548445224762,0.001798747107386589,0.0010831952095031738
1772568091232194300,10.4301943359375,-0.0006083664484322071,0.0021550781093537807,-0.0012185750529170036
1772568091242266400,10.440266357421875,-0.0002603619359433651,-0.0028720165137201548,-0.00020658131688833237
1772568091252338400,10.45033837890625,0.0021876157261431217,-0.0059977686032652855,-0.0016287090256810188
1772568091262410500,10.460410400390625,-0.00026254961267113686,0.00491829589009285,0.0012478437274694443
1772568091272482300,10.470482421875,0.0009822119027376175,-0.0031492174603044987,0.0006369147449731827
1772568091282554400,10.480554443359376,-0.00038979528471827507,0.004469711799174547,0.002050367183983326
1772568091292626400,10.49062646484375,-0.001975174993276596,0.00042809825390577316,0.0003451453521847725
1772568091302698500,10.500698486328124,-0.0011765253730118275,-0.0012781103141605854,-0.0002921009436249733
1772568091312770300,10.510770263671875,0.000486085657030344,0.0009155352599918842,0.0016312338411808014
1772568091322842400,10.52084228515625,0.00010402640327811241,0.01365126296877861,0.006559949368238449
1772568091332918000,10.53091796875,0.0012515825219452381,0.003034572582691908,0.005506137385964394
1772568091342989800,10.54098974609375,0.0010862788185477257,0.004645689390599728,0.0035009440034627914
1772568091353062000,10.551061767578124,-0.000009612180292606354,0.001425927970558405,0.0013528382405638695
1772568091363134000,10.561134033203125,-0.000492289662361145,0.009319839999079704,0.002743607386946678
1772568091373206000,10.5712060546875,-0.0002456805668771267,-0.0011541065759956837,0.0023004580289125443
1772568091383277800,10.58127783203125,-0.0003877943381667137,0.007705306634306908,0.0027752555906772614
1772568091393350000,10.591349853515625,0.0004756026901304722,0.003723348490893841,0.0010836161673069
1772568091403422000,10.601421875,0.0010451199486851692,0.0016433848068118095,0.0020638704299926758
1772568091413493800,10.61149365234375,0.000020335428416728973,-0.004468569997698069,0.0008071241900324821
1772568091423565800,10.62156591796875,0.001006132923066616,-0.0058915941044688225,-0.0012580808252096176
1772568091433638000,10.631637939453125,0.002647172659635544,-0.008661014959216118,-0.002722020260989666
1772568091443710000,10.6417099609375,0.0022310088388621807,-0.007579189725220203,-0.004948236048221588
1772568091453781800,10.65178173828125,0.0010275263339281082,-0.007284378167241812,-0.003659532405436039
1772568091463853800,10.661853759765625,-0.0001683826558291912,-0.008431884460151196,-0.0048071639612317085
1772568091473926000,10.67192578125,0.0006555994041264057,-0.003245911095291376,-0.0017011193558573723
1772568091483997700,10.681997802734376,-0.0006039016880095005,0.0003548995591700077,-0.0016480470076203346
