time,seconds_elapsed,z,y,x
1772366202518805000,0.119804931640625,-0.029473347243666646,-0.00009675663905218243,0.005209368678741157
1772366202528875000,0.129875,-0.03366904536783695,0.0023873609274160114,0.002968421351537108
1772366202538945300,0.1399453125,-0.042053427353501316,-0.00016998627204447983,0.0034929932149127124
1772366202549016300,0.150016357421875,-0.024406126981973645,-0.003700114893261343,-0.001538790407218039
1772366202559086000,0.160086181640625,-0.03174889096021652,-0.005351964620361104,0.004947539404779672
1772366202569156000,0.170156005859375,-0.02651040578484535,-0.0007885656949598342,-0.0006085238197818398
1772366202579226000,0.18022607421875,-0.03503799563348293,0.003602609335538,-0.0004070829635486006
1772366202589297200,0.190297119140625,-0.03265022371411323,-0.0036802228827029462,0.0021911533687263727
1772366202599367200,0.2003671875,-0.029800679501891133,0.0010437460324261337,-0.0021796821266412735
1772366202609437200,0.210437255859375,-0.03832943839430809,0.012150164259970187,0.0012908800607547163
1772366202619507200,0.220507080078125,-0.029800679501891133,0.005084673719992861,0.0038098406117409466
1772366202629578200,0.230578125,-0.03173544695675373,0.0014806396123487502,0.0002706336349248886
1772366202639648000,0.24064794921875,-0.037114801907539366,-0.013550870503904296,-0.005072590556554496
1772366202649718000,0.250718017578125,-0.025440146204829213,-0.007387991359457374,-0.0014121683528646827
1772366202659787800,0.260787841796875,-0.026781623941659925,-0.0008455383128952235,-0.006838102391734719
1772366202669858800,0.27085888671875,-0.01675765805542469,-0.0004708597816061228,-0.00026950112376362083
1772366202679929000,0.28092919921875,-0.027682372173666953,-0.0036144824364222586,0.004482004252262414
1772366202689999000,0.2909990234375,-0.03502221354246139,-0.004678001748397946,-0.003655782561190426
1772366202700068900,0.30106884765625,-0.02335340305864811,-0.0018322477953042833,0.00031896628867834805
1772366202710140000,0.311139892578125,-0.03518529514968395,0.0015606277796905486,0.003516301025263965
1772366202720210200,0.321210205078125,-0.03788169462680816,0.0005086893076542765,-0.0022062413400039077
1772366202730280000,0.331280029296875,-0.03355272551178932,-0.0008808653546031564,0.0019235154084861277
1772366202740350000,0.341349853515625,-0.026378303837776184,0.0026906729892361906,0.0017351166969165205
1772366202750421000,0.3514208984375,-0.028926234754920004,-0.000011653905175626277,-0.0036340456534177065
1772366202760491000,0.361490966796875,-0.020555881294608114,0.004814076617686078,0.0016910218268632888
1772366202770561000,0.37156103515625,-0.02818798360824585,0.005914694803347811,-0.005641659148782491
1772366202780631000,0.381631103515625,-0.02415244448184967,-0.0023428733317181465,0.002179207202605903
1772366202790700800,0.39170068359375,-0.026997312518954274,-0.0011528780958615242,0.005878792372904717
1772366202800771800,0.401771728515625,-0.03253448837995529,-0.0014463994160294532,-0.006855090059153735
1772366202810842000,0.411842041015625,-0.036574119159579276,0.008824581767525524,0.004228577480465174
1772366202820912000,0.421912109375,-0.025657003825902937,-0.00301261668629013,0.002575841837376356
1772366202830982000,0.43198193359375,-0.0319458748370409,0.006668454046407714,-0.0009338833166286349
1772366202841053000,0.442052978515625,-0.02775660645365715,0.0007694317362271248,0.0032669659066945312
1772366202851123200,0.452123291015625,-0.027608137893676755,-0.0023081399450544265,0.0014573592014610766
1772366202861193000,0.46219287109375,-0.028207857352495192,0.0016646361434366553,0.0008484700554981827
1772366202871263000,0.472262939453125,-0.029116204369068144,0.00410322493459098,0.0031723829584196206
1772366202881334000,0.482333984375,-0.02925707414448261,0.004588889559684321,-0.0036918402552604673
1772366202891404000,0.492404052734375,-0.037787586602568625,-0.0025517577088903635,0.001198525602184236
1772366202901474000,0.50247412109375,-0.031954058143496514,0.0005316226586699486,0.00427621601447463
1772366202911544000,0.5125439453125,-0.01863280427753925,0.004201762538775801,-0.001684117162041366
1772366202921614800,0.52261474609375,-0.028063480445742604,-0.00569194629760459,0.0036144276374951005
1772366202931684900,0.532684814453125,-0.02596270877420902,-0.004176618964364752,0.0032701807770878074
1772366202941755100,0.542755126953125,-0.02910334488749504,-0.001603343543410301,0.004033347169309854
1772366202951825000,0.552824951171875,-0.046617374268174167,0.0010924440123606472,0.0017519947664812207
1772366202961896000,0.56289599609375,-0.03688917645812034,-0.003624638504255563,0.0012116042794659734
1772366202971966000,0.572966064453125,-0.030453005930781363,-0.006710402625147253,-0.00008051789030432701
1772366202982036200,0.5830361328125,-0.02671791105568409,-0.002783648502314463,-0.0012487579520791769
1772366202992106000,0.59310595703125,-0.029113281759619712,-0.002018536748178303,-0.009834178935177624
1772366203002177000,0.603177001953125,-0.03569558275938034,-0.0047788957064505665,0.006229286311008036
1772366203012247000,0.6132470703125,-0.025361820271611213,-0.000534636599663645,0.005242321100272238
1772366203022317000,0.623317138671875,-0.036732524591684336,0.000010457461932674049,-0.0038573330152779817
1772366203032387000,0.633386962890625,-0.03299333806335926,-0.0033007494452875104,-0.004049458053894341
1772366203042458000,0.6434580078125,-0.029701310780644415,-0.008876695547252893,0.0029821941485628483
1772366203052527900,0.65352783203125,-0.025659341913461683,0.00995877342922613,-0.005519019149802625
1772366203062598000,0.663597900390625,-0.029848610296845435,0.00010992664787918329,-0.00011164368093013762
1772366203072668200,0.673668212890625,-0.033579028996825216,-0.0020988537090830504,0.004436192349158227
1772366203082739200,0.6837392578125,-0.032682372418045995,-0.004439425485860556,0.000834733791090548
1772366203092809000,0.69380908203125,-0.025650574085116385,-0.00207296121600084,-0.004889489074610173
1772366203102879000,0.70387890625,-0.030885552129149434,0.0015724917474202811,0.004126907204277813
1772366203112949000,0.713948974609375,-0.028037761482596395,0.0001516742972191423,-0.0020738105993717906
1772366203123020000,0.72402001953125,-0.03312544001042843,0.0000776500797830522,-0.0020506123868748545
1772366203133090000,0.734090087890625,-0.029687282255291936,0.0016568090300075708,0.0039888869730755686
1772366203143160000,0.74416015625,-0.024452888733148572,-0.011996179274655877,0.00570942715536803
1772366203153229800,0.754229736328125,-0.03359013491272926,-0.005636763777956366,0.00970952964220196
1772366203163300900,0.76430078125,-0.03898410291075706,-0.0014795253674965351,0.008374189385212958
1772366203173371100,0.77437109375,-0.02805412809550762,0.004698085555201396,0.0029625030674040316
1772366203183441000,0.78444091796875,-0.035841128709912295,0.004375776531966403,0.009111381085962057
1772366203193511000,0.794510986328125,-0.03105214086771011,-0.004305761769367381,-0.004648592990823089
1772366203203581200,0.804581298828125,-0.025227380236983298,-0.006074963398976251,0.006751483554206788
1772366203213652000,0.81465185546875,-0.03181143480241298,-0.004287869919650257,0.0016525164473801851
1772366203223722000,0.824721923828125,-0.025821838998794554,-0.005053292201040312,0.00009644611179828643
1772366203233792000,0.8347919921875,-0.021034604722261426,-0.00576211632383056,-0.0023117110084742306
1772366203243862000,0.844862060546875,-0.03240589356422424,-0.0003234506675507873,0.0022160686142742633
1772366203253933000,0.85493310546875,-0.02835866400003433,0.004092922736285254,0.005201660296320915
1772366203264003000,0.865003173828125,-0.03359481108784675,-0.0017943634703289717,0.0073134282859042285
1772366203274072800,0.87507275390625,-0.03209901957213879,-0.004870930504612624,0.006565897854231298
1772366203284142800,0.885142822265625,-0.027166239345073697,0.0032189620465040204,0.004688011685758829
1772366203294214000,0.8952138671875,-0.03150105367898941,0.0061824788940604775,-0.005089687821827829
1772366203304284200,0.9052841796875,-0.03134849346578121,0.0036672903358936308,-0.00023117840737104414
1772366203314354000,0.91535400390625,-0.0273100317299366,0.0037183994686231015,-0.0014609759306535124
1772366203324424000,0.925423828125,-0.032552608558535576,-0.008778979926975444,-0.00129610422514379
1772366203334495000,0.935494873046875,-0.039437691897153855,-0.011673797186184673,-0.0029979031743481753
1772366203344565000,0.94556494140625,-0.03255377760231495,0.0014957458499353378,0.0005778729531913995
1772366203354635000,0.955635009765625,-0.030161329507827756,0.011343277457030489,0.0019129940144717692
1772366203364705000,0.965705078125,-0.034951486393809315,-0.003284866889566183,0.001436974000558257
1772366203374775800,0.97577587890625,-0.03569499823749065,0.00431823765845038,0.0006066606562584638
1772366203384846000,0.98584619140625,-0.024915830069780348,-0.007944328334275632,-0.003163249803893268
1772366203394916000,0.995916015625,-0.028652093988656997,0.0002836575132794678,0.0005303440170362591
1772366203404985900,1.00598583984375,-0.02670563609600067,0.000491336314054206,0.002808518082089722
1772366203415057000,1.016056884765625,-0.03612520634829998,0.009910669104335829,0.006279482128284871
1772366203425127000,1.026126953125,-0.027599370065331457,0.005784930943837389,0.000936732860840857
1772366203435197200,1.036197265625,-0.03223872030377388,-0.0033297106782905757,0.005386844137497246
1772366203445267000,1.046266845703125,-0.03553308567404747,-0.0008306147383991628,-0.008448715926147998
1772366203455338000,1.056337890625,-0.030899580654501914,-0.007534907283168285,-0.004071377624757588
1772366203465408000,1.066407958984375,-0.016684592819213865,-0.008166035660402849,0.0016273820061236618
1772366203475478000,1.07647802734375,-0.03135492320656776,0.010410462719481439,0.007938720577396452
1772366203485548000,1.086548095703125,-0.03539630755186081,0.0039684835058636965,0.002519106681458652
1772366203495619000,1.096619140625,-0.02910860558450222,-0.004247437444562092,0.003597184241749346
1772366203505688800,1.106688720703125,-0.033444588962197305,0.00448897284916602,0.0023095555840060115
1772366203515759000,1.116759033203125,-0.042567806616425514,0.004755934955971315,-0.0019319909758865833
1772366203525829000,1.1268291015625,-0.036277766561508176,0.0019991287948098032,0.002363660391420126
1772366203535900200,1.136900146484375,-0.029985388419032095,0.0005277593343053013,0.003590791033580899
1772366203545970000,1.146969970703125,-0.03880991538763046,0.00928841815330088,0.005202208285592496
1772366203556040000,1.1570400390625,-0.03207563869655132,-0.0005684932034928351,-0.0016656316572800278
1772366203566110000,1.16710986328125,-0.030434301230311392,-0.004411971223354339,0.0058686363050714134
1772366203576181000,1.177180908203125,-0.037463761475682256,-0.0033193262815941122,-0.0008085399039089679
1772366203586251000,1.1872509765625,-0.02729951033592224,-0.0054351585249416525,-0.0016670929620042443
1772366203596321000,1.197321044921875,-0.017421674922108648,0.00042867374084889885,-0.005207322852127254
1772366203606391000,1.20739111328125,-0.028352818781137466,0.0037701296558603644,0.0003200987998396158
1772366203616462000,1.217462158203125,-0.03119827134013176,0.009672485567443071,0.009403678563423454
1772366203626532000,1.227531982421875,-0.02984627220928669,-0.003001054112659767,0.0022058760138228533
1772366203636601900,1.237601806640625,-0.03941548006534576,-0.0027280367244035004,-0.0031660262828692794
1772366203646672400,1.24767236328125,-0.032980478581786155,0.0006544453207403421,0.0037172669574618337
1772366203656742700,1.25774267578125,-0.035815409746766086,0.002617516421480104,0.00210749367326498
1772366203666813700,1.267813720703125,-0.03461713987290859,0.0005422262510750443,-0.0002480564769357443
1772366203676883500,1.277883544921875,-0.02968319060206413,-0.0015659524087794125,0.0010021262472495436
1772366203686953500,1.287953369140625,-0.03372632851302623,0.000156039945082739,-0.0016236556790769098
1772366203697023500,1.2980234375,-0.03716916244328022,0.006513345683086663,-0.0007769026566296815
1772366203707094500,1.308094482421875,-0.025791443860530852,-0.0036953199871350077,-0.0024608371555805207
1772366203717164500,1.31816455078125,-0.030431963142752646,0.002349942393321544,-0.0007195464462041854
1772366203727234600,1.328234619140625,-0.03641922085881233,0.008256581754377112,-0.0028798297526314853
1772366203737304600,1.3383046875,-0.04285013068914413,-0.0024449180672410876,0.0009589812252670525
1772366203747375600,1.348375732421875,-0.02234685636460781,-0.004863121657492592,0.007461568052321672
1772366203757445600,1.358445556640625,-0.024294483301043508,-0.005125873380061239,-0.005644545225612819
1772366203767515400,1.368515380859375,-0.028783611413836476,-0.005654399899346753,0.00544763441402465
1772366203777585400,1.37858544921875,-0.03148117993474007,-0.0004047448759898543,0.007003595151752233
1772366203787656400,1.388656494140625,-0.03282382671535015,0.0016741711567621676,0.002164046166092157
1772366203797726500,1.3987265625,-0.033576106387376785,0.0034762978084385394,-0.00035509704798460004
1772366203807796500,1.40879638671875,-0.024596096596121785,0.004515194135811179,-0.0015210720874369143
1772366203817866500,1.418866455078125,-0.02204875020086765,0.0004058956534601748,0.004567198317684233
1772366203827937500,1.4289375,-0.028638065463304517,-0.0043713195525575425,-0.0046769057698547835
1772366203838007600,1.439007568359375,-0.020104045873880386,-0.0010512991512194275,0.004111673102527857
1772366203848077600,1.44907763671875,-0.028331775993108748,-0.00018967735320329665,0.00583506282903254
1772366203858147600,1.459147705078125,-0.028039515048265455,-0.0034485056192148475,-0.0012378712318837641
1772366203868218400,1.46921826171875,-0.028341128343343732,0.0003996029099915176,-0.0010257263185456395
1772366203878288400,1.479288330078125,-0.034029110851883884,-0.005292608249094337,0.0026670637847855685
1772366203888358700,1.489358642578125,-0.03986030122339725,0.0001326408031862229,-0.004846563248336315
1772366203898428400,1.499428466796875,-0.03941080389022827,0.005928330603055656,0.0008786094654351473
1772366203908499500,1.50949951171875,-0.03536415884792805,0.0006598338819108903,0.003110021779313683
1772366203918569500,1.519569580078125,-0.03566401857733726,-0.010209606385137885,0.0023643545111641288
1772366203928639500,1.529639404296875,-0.0323772519916296,-0.005050634453073143,0.004794504267536103
1772366203938709500,1.53970947265625,-0.024289807125926016,-0.0043489707234315575,0.003157842976413667
1772366203948780500,1.549780517578125,-0.04209609745144844,0.0008575758105609565,0.010492715909145772
1772366203958850600,1.5598505859375,-0.02204407402575016,-0.0033304961295798417,0.006054295070283115
1772366203968920600,1.569920654296875,-0.023239421290159223,0.0029676359002478417,-0.0037805414520204065
1772366203978990600,1.579990478515625,-0.02728080563545227,-0.0014724015069659797,0.0035305487463250756
1772366203989061600,1.5900615234375,-0.03221533942818641,-0.00960152095677331,0.0009040361676365137
1772366203999131400,1.60013134765625,-0.04238894291818142,-0.00602074899370782,0.00588164191711694
1772366204009201400,1.610201416015625,-0.04104804970324039,-0.0009564513414632528,0.0048452115414664145
1772366204019271700,1.620271728515625,-0.029379239219427106,0.010447150601213798,-0.004641797923855483
1772366204029342500,1.630342529296875,-0.022046412113308905,0.007681275217607617,-0.0002672726340591907
1772366204039412500,1.64041259765625,-0.024445874470472334,0.005561744046676903,-0.0003978036785498261
1772366204049482500,1.650482421875,-0.027442133677005768,0.00730773833063431,0.00714541477523744
1772366204059552500,1.660552490234375,-0.03373042016625404,0.007387078044004738,0.0014040946442633866
1772366204069622500,1.67062255859375,-0.02940086652934551,0.002760897814389318,-0.003872384453937411
1772366204079693600,1.680693603515625,-0.02806581853330135,-0.00874515985576436,-0.0018861060075461864
1772366204089763300,1.690763427734375,-0.036300562915205954,-0.011262786966189741,-0.010524828080460428
1772366204099833600,1.70083349609375,-0.03540332181453704,-0.008717641661176457,-0.0015512845626100896
1772366204109903600,1.710903564453125,-0.0482715712159872,0.007899941203277557,0.002347987898252904
1772366204119974700,1.720974609375,-0.03704933545589447,0.009536154969828202,0.002034939893707633
1772366204130044400,1.73104443359375,-0.03645370765030384,0.005055411092890426,0.0015275748934596776
1772366204140114400,1.741114501953125,-0.02987842091321945,0.00015635960549116134,0.0014856719804927706
1772366204150184400,1.751184326171875,-0.034818215402960775,-0.008158482541609556,-0.0030279329864308234
1772366204160255500,1.76125537109375,-0.03781564365327358,-0.0012143259595148264,-0.0018900149976834653
1772366204170325500,1.771325439453125,-0.027643793728947638,0.00011339724659919739,0.005241152056492865
1772366204180395500,1.7813955078125,-0.019111527705192564,-0.00033506804010830817,0.0026206673597916957
1772366204190465500,1.791465576171875,-0.03063479223847389,-0.00010284845312125981,-0.001920958125218749
1772366204200536600,1.80153662109375,-0.029897710135579108,-0.00988091328688897,0.0011482201870530843
1772366204210606600,1.811606689453125,-0.019877835902571677,0.0006311101109255105,0.004911627841182053
1772366204220676400,1.82167626953125,-0.02721533918380737,-0.0007268712361343205,0.0020965338878333566
1772366204230746600,1.83174658203125,-0.025874445968866348,0.0019425397693645207,0.0006565276799723505
1772366204240817700,1.841817626953125,-0.034251229169964786,0.008028755214717239,0.002540587860904634
1772366204250887400,1.851887451171875,-0.0296060337126255,0.009321069180732592,0.004044453085213899
1772366204260957400,1.86195751953125,-0.03469663484990597,0.005732707566255703,0.0015865750716999173
1772366204271027500,1.87202734375,-0.005670446851849555,0.00467826660987921,-0.009231609932146966
1772366204281098500,1.882098388671875,-0.034250644648075104,0.004470259015541524,0.0023219401415437457
1772366204291168500,1.89216845703125,-0.03799392282962799,0.001617472533462569,0.0030525194384157656
1772366204301238500,1.902238525390625,-0.02408054828941822,-0.004081131833791733,0.008374627776630223
1772366204311308500,1.91230859375,-0.02407528759241104,0.006637803179817274,0.0005482449999079108
1772366204321379300,1.92237939453125,-0.035303953093290326,0.004184519143030047,0.005044350842759013
1772366204331449600,1.93244970703125,-0.04682780214846134,-0.0026358466626144944,0.003338862099125981
1772366204341519600,1.94251953125,-0.03485153315067291,0.002391251651244238,0.0040355391263961786
1772366204351589400,1.95258935546875,-0.03394727778732776,0.011208106770040466,-0.005401274521648883
1772366204361659600,1.96265966796875,-0.03693593820929527,0.0008660239784978329,-0.006356492887251079
1772366204371730700,1.972730712890625,-0.038573184022307395,-0.0009552366319112479,-0.007959872963279485
1772366204381800400,1.982800537109375,-0.03005143939256668,0.008260673407604918,-0.007806180238910019
1772366204391870500,1.992870361328125,-0.023615853387117386,-0.002348079229798168,0.0013397972363978624
1772366204401940500,2.0029404296875,-0.02871171522140503,-0.005891898449650034,-0.0022747399989515543
1772366204412011300,2.01301123046875,-0.03201251033246517,0.007639153108932078,-0.0016986571440473198
1772366204422081500,2.02308154296875,-0.029327216771245,0.004401769489748403,-0.007714958291500806
1772366204432151600,2.033151611328125,-0.036516836014389986,-0.004562202482158318,0.0027583953300490973
1772366204442221300,2.04322119140625,-0.031878070297837256,0.009647515522968024,0.00005600450355559587
1772366204452292400,2.053292236328125,-0.02079962692260742,0.00513330776784569,0.0030156945593655107
1772366204462362600,2.063362548828125,-0.02424304537475109,0.00982860771091655,0.0025402955999597908
1772366204472432600,2.0734326171875,-0.03008183453083038,0.004868647215981036,0.0025107041792944073
1772366204482502400,2.08350244140625,-0.04175707475543022,-0.00266838809219189,-0.00042326691336929794
1772366204492573400,2.093573486328125,-0.043999885246157645,0.0037007998798508196,-0.001711808886565268
1772366204502643700,2.103643798828125,-0.03336275589764118,-0.0028594628180377184,0.002014700823277235
1772366204512713500,2.11371337890625,-0.040241994017362594,-0.0009978793303947896,0.00029390491265803573
1772366204522783500,2.123783447265625,-0.021978023052215575,0.0024571564943064003,0.001045380867086351
1772366204532854500,2.1338544921875,-0.04382277511358261,0.0004003518286626786,0.004934533792734146
1772366204542924300,2.14392431640625,-0.046072015345096584,0.017042493745638057,-0.0011440554685890674
1772366204552994600,2.15399462890625,-0.03455459603071213,0.009681746586132795,0.002782433792762458
1772366204563064600,2.164064697265625,-0.026918986585736274,0.0039188904767856,0.0040559243272989985
1772366204573135600,2.174135498046875,-0.029466917502880094,0.0007614676254801452,-0.00517462615892291
1772366204583205400,2.184205322265625,-0.030960370931029317,0.003647243061708286,0.0039892522992566225
1772366204593275600,2.194275634765625,-0.020035656812787055,0.006927086716284975,0.00039067981801927087
1772366204603345400,2.204345458984375,-0.028265725019574164,0.0011682400617748499,-0.0020121800726279615
1772366204613416400,2.21441650390625,-0.034999417188763614,-0.0016570830246433615,-0.00006133826579898596
1772366204623486500,2.224486572265625,-0.027214754661917685,-0.011837728176778181,0.005657916163839399
1772366204633556500,2.234556396484375,-0.043077509704232214,-0.004239975657314062,0.001141461652703583
1772366204643626200,2.244626220703125,-0.03590250350832939,0.0014324896216858177,-0.0000881166748702526
1772366204653697300,2.254697265625,-0.021093641433119772,-0.002008106685709208,0.003955971084162593
1772366204663767000,2.26476708984375,-0.038002690657973286,-0.0019536365521140397,-0.0003739478789269924
1772366204673837300,2.27483740234375,-0.04054594539999962,-0.0052723417792003595,-0.0018553090104833244
1772366204683907300,2.2849072265625,-0.023932664251327514,0.002374784573633224,0.004649798567220568
1772366204693978000,2.29497802734375,-0.028574937099218368,-0.003119511126866564,-0.0012845964504405855
1772366204704048000,2.305048095703125,-0.030368834778666493,-0.001545576341031119,-0.000774637634307146
1772366204714118100,2.3151181640625,-0.029763270100951193,-0.006935744946775958,0.001328947048820555
1772366204724188200,2.325188232421875,-0.03529401622116565,-0.002431684126332402,-0.001382284671254456
1772366204734258200,2.335258056640625,-0.022872926065325736,-0.007269717008341103,0.0031616789013147353
1772366204744329200,2.3453291015625,-0.026022330006957053,0.0024484160654246806,0.014699556481838225
1772366204754399000,2.35539892578125,-0.03214987297654152,-0.003399232250545174,-0.002641637082584202
1772366204764469200,2.36546923828125,-0.03110240975022316,-0.005547541991388425,0.005909516304731369
1772366204774539300,2.375539306640625,-0.025562311279773712,0.0020130659886170178,-0.00026997604779899117
1772366204784610300,2.3856103515625,-0.029154198291897773,0.0037829800042789427,0.0006365808704867959
1772366204794680000,2.39568017578125,-0.034983050575852395,0.0037878479756414886,-0.00012914280500262975
1772366204804750000,2.40575,-0.030945173361897466,0.006018173444131389,0.007886698129214345
1772366204814820000,2.415820068359375,-0.03110240975022316,0.011756881492910907,0.0008503332190215587
1772366204824891100,2.42589111328125,-0.0441238038867712,0.002565795367397368,0.0037535438472405076
1772366204834961200,2.435961181640625,-0.03095335666835308,0.004823081908049061,0.0009684066407382488
1772366204845031200,2.44603125,-0.03139993139207363,0.003881718537863344,-0.0015249810775741933
1772366204855101200,2.45610107421875,-0.03423544707894325,-0.0025343773158267137,0.0011533347535878419
1772366204865172200,2.466172119140625,-0.01986906807422638,-0.0015856252236291766,-0.0026967282706871626
1772366204875242200,2.4762421875,-0.03752396723031998,0.002409344430360943,-0.004296930008940399
1772366204885312000,2.48631201171875,-0.031091303834319114,0.0039465365355368705,0.0010632087847217916
1772366204895382300,2.49638232421875,-0.02779869202971458,0.002886935346852988,0.00406618999298662
1772366204905453300,2.506453369140625,-0.027199557092785834,0.00040637971065007146,0.00004749240353703498
1772366204915523000,2.516523193359375,-0.034684944412112236,0.007424944102670997,-0.0030211013868451115
1772366204925593000,2.526593017578125,-0.02301905653774738,0.003839824758050963,-0.00013107903376221656
1772366204935663000,2.5366630859375,-0.028556816920638082,0.004620353277027606,-0.0029938115211203694
1772366204945734100,2.546734130859375,-0.026312837386131285,0.00296370864380151,0.006417794620431959
1772366204955804200,2.55680419921875,-0.03363865022957325,-0.00032461057817563413,0.007009732631593942
1772366204965874200,2.566874267578125,-0.03259410961270332,0.0060494636315386735,0.002629910112172365
1772366204975944200,2.576944091796875,-0.02960311110317707,-0.0018038254184182731,0.0014121683528646827
1772366204986014200,2.58701416015625,-0.03753624219000339,0.00026131781730800866,0.0015304609702900052
1772366204996085200,2.597085205078125,-0.02945756515264511,-0.005183156525250524,0.00031158669982105493
1772366205006155300,2.6071552734375,-0.022866496324539184,0.0006456409597769379,-0.004909947340749204
1772366205016225000,2.61722509765625,-0.027060440883040427,0.00466972711039707,-0.0013868877811357377
1772366205026295300,2.62729541015625,-0.0349959100574255,0.004041676606237888,0.005537029730528593
1772366205036366300,2.637366455078125,-0.03814706756472588,0.0020213680260814724,0.0013166355565190314
1772366205046436000,2.64743603515625,-0.02737316009402275,0.0004561736691277474,0.0012950813118368387
1772366205056506000,2.657506103515625,-0.03844692729413509,0.006935836278321221,0.0030953356668353077
1772366205066576100,2.667576171875,-0.03156827369630336,-0.0035193514988757666,0.001800144757144153
1772366205076647200,2.677647216796875,-0.030219197174906728,-0.008143403703486547,-0.0012526669422164558
1772366205086717200,2.68771728515625,-0.037999768048524854,-0.0009571363280527293,0.004482040784880519
1772366205096787200,2.697787109375,-0.027965865290164947,-0.0050727275538723915,-0.0020895926903933284
1772366205106857000,2.70785693359375,-0.02391805120408535,0.004676074652792885,0.002129815102927387
1772366205116928000,2.717927978515625,-0.0333446357190609,0.0023648111688904464,0.0054151934491470455
1772366205126998300,2.727998291015625,-0.02765723773241043,0.007930993928667158,0.006459332207217812
1772366205137068300,2.738068359375,-0.034090485650300976,-0.005308682601060718,0.008421206864714622
1772366205147138000,2.748137939453125,-0.022424597775936125,0.0034014333407860245,0.0027538652854040262
1772366205157209000,2.758208984375,-0.017497662767767905,0.004576660265773535,-0.0009053148092702031
1772366205167279400,2.768279296875,-0.03261164526939392,0.004740125465486199,0.0032727745929732916
1772366205177349000,2.77834912109375,-0.03516074523031711,0.0038645847399719057,0.002714154329523444
1772366205187419100,2.788419189453125,-0.03022445787191391,0.004552082946943119,-0.0007831497343257069
1772366205197490200,2.798490234375,-0.02917173394858837,0.0026945545799098906,0.008157368296757339
1772366205207560000,2.808559814453125,-0.03051321168541908,0.0017823807715903967,0.00692161595672369
1772366205217630200,2.818630126953125,-0.029613047975301742,0.0009377466409932822,-0.001692556196823716
1772366205227700200,2.8287001953125,-0.015544775134325027,0.008825896941777317,0.00014441343937069177
1772366205237771300,2.838771240234375,-0.02721592370569706,0.0004242989598307758,0.005844159450940787
1772366205247841000,2.848841064453125,-0.033655601364374156,-0.0011485033148434013,0.010820084699988365
1772366205257911300,2.858911376953125,-0.03305646642744541,0.006795888951513916,0.002166347721032798
1772366205267981000,2.86898095703125,-0.04128419654667377,0.0006896810309030115,0.00580623859334737
1772366205278052000,2.879052001953125,-0.029018589213490483,-0.007231850949674845,-0.0028248116297647356
1772366205288122000,2.8891220703125,-0.034255320823192596,0.00302173157450743,0.002856375811807811
1772366205298192400,2.8991923828125,-0.02348492048382759,0.005347754236124456,0.0033710108030587434
1772366205308262100,2.90926220703125,-0.014954992547631264,0.0006013634266331791,0.0030173385271802544
1772366205318333200,2.919333251953125,-0.024829320830106735,0.004143082020943984,0.003943659591861069
1772366205328403200,2.9294033203125,-0.026920155629515646,-0.0041594851664733135,0.0019262188222259281
1772366205338473000,2.939472900390625,-0.027072715842723846,0.0009917418505530804,0.003345511035621166
1772366205348543200,2.949543212890625,-0.02482522917687893,-0.007402266479982063,-0.004376717246882617
1772366205358613200,2.95961328125,-0.033197920724749565,0.0010309413497801869,0.004290792529098689
1772366205368684000,2.96968408203125,-0.04022562740445137,-0.004801226269267499,0.005001753810048103
1772366205378754000,2.979754150390625,-0.023615268865227697,-0.003865260593406856,0.001279481883905828
1772366205388824300,2.98982421875,-0.03827800046801567,0.009322795346938074,0.0032711306251585483
1772366205398894000,2.99989404296875,-0.031841829940676684,0.009041019263491034,0.006756598120741546
1772366205408965000,3.009965087890625,-0.027492987081408498,0.00356291664596647,0.009343618939258157
1772366205419035100,3.02003515625,-0.03751461488008499,0.007534286228660494,-0.0016203312108293176
1772366205429105400,3.03010546875,-0.022540917631983754,0.0019475082054268567,0.00012629326079040764
1772366205439175200,3.040175048828125,-0.021937106519937515,0.002348910346860066,-0.0033199016703292727
1772366205449246200,3.05024609375,-0.028068741142749785,0.0027786617999430744,0.001395509479008615
1772366205459316200,3.060316162109375,-0.027465514552593228,0.005162113737221807,-0.0008983736118301749
1772366205469386000,3.070385986328125,-0.027615736678242683,0.0015671214525587857,-0.0009170417796820401
1772366205479456300,3.080456298828125,-0.026414544194936752,0.0010756755406502634,0.001858122022077441
1772366205489527300,3.09052734375,-0.03628653438985348,-0.003351264922972768,0.007173508358560502
1772366205499597000,3.10059716796875,-0.028352234259247776,-0.003768777948990464,0.004420556388609111
1772366205509667000,3.1106669921875,-0.04181377337872982,0.004462377103185281,0.003653809799812734
1772366205519737300,3.1207373046875,-0.0395662867128849,0.0026628168679308146,0.009135309950821102
1772366205529808400,3.130808349609375,-0.03193593796491623,0.011782755719684063,-0.004025492656417191
1772366205539878100,3.140878173828125,-0.038673721787333484,0.00031119397417642174,0.004727284250222146
1772366205549948200,3.1509482421875,-0.03313245427310466,-0.0011464483550749718,0.010823445700854062
1772366205560018200,3.16101806640625,-0.030287586236000058,0.0040979185718111695,-0.003057268678769469
1772366205570089200,3.171089111328125,-0.024606617990136144,0.008925046467315406,0.0028170301821082828
1772366205580159200,3.1811591796875,-0.035382863548398015,0.007949178039329126,0.007866166797839105
1772366205590229200,3.191229248046875,-0.030596213793754577,-0.00485010691229254,0.005751512731425464
1772366205600299000,3.201299072265625,-0.02699965060651302,-0.0020352595541160553,-0.0002633636439219117
1772366205610370000,3.2113701171875,-0.027890461966395375,0.010030733553739265,0.009154781836271286
1772366205620440300,3.2214404296875,-0.03027764936387539,0.006904957082867622,0.0006393208168447018
1772366205630510000,3.231510009765625,-0.037602877685427666,0.0006366356694139539,0.004280892189592123
1772366205640580000,3.241580078125,-0.032063363736867904,-0.0032869857814162968,0.00015033172350376845
1772366205650651000,3.25165087890625,-0.0319154796987772,0.005363454128755257,-0.0015429916583001612
1772366205660721000,3.261720947265625,-0.02443827568590641,0.004451152456272393,-0.00030672786161303517
1772366205670791000,3.271791015625,-0.030122751063108442,0.01250716100409627,0.0000193257549777627
1772366205680861000,3.28186083984375,-0.026533202138543127,0.0006216846954543143,0.0010570347722619771
1772366205690931700,3.291931640625,-0.02488485040962696,-0.004859824588708579,-0.0020191943353042004
1772366205701002000,3.302001953125,-0.012912673065066337,0.007933578611398115,-0.00018741233088076113
1772366205711072000,3.312072021484375,-0.015008184039592741,-0.004247939768061042,0.006410195835866034
1772366205721141800,3.322141845703125,-0.029074703314900398,0.00033520503742620345,-0.0009531725389882921
1772366205731212800,3.332212890625,-0.033866613766551014,0.0027672270904760808,0.0026853666264563796
1772366205741282800,3.34228271484375,-0.032522797942161556,-0.0009263484641443937,0.005619008925557136
1772366205751352800,3.352352783203125,-0.027884032225608823,0.007969216180359943,0.01087649106234312
1772366205761422800,3.3624228515625,-0.024444705426692963,-0.00031792510906234383,0.007964074214361608
1772366205771494000,3.372493896484375,-0.029084055665135382,0.0034389888721983878,0.011544453451782464
1772366205781564000,3.38256396484375,-0.034625323179364204,-0.0012573522504884748,0.00649374593347311
1772366205791634000,3.392634033203125,-0.03177402540147305,0.0028090478050522504,0.0008449629241600632
1772366205801704000,3.402703857421875,-0.026382980012893676,0.0018033596275374292,0.0009526976149529218
1772366205811775000,3.41277490234375,-0.034168227061629294,0.001514742811350152,0.0004086903987452388
1772366205821844700,3.4228447265625,-0.03266542128324509,0.002866988537367433,0.002653181389905512
1772366205831915000,3.4329150390625,-0.030567572221159932,0.01094736434146762,0.00765139153599739
1772366205841985000,3.442985107421875,-0.031765257573127745,0.00549917280501686,0.008105053587630391
1772366205852054800,3.4530546875,-0.029818215158581733,0.0016970314425416289,0.000049830491095781326
1772366205862125800,3.463125732421875,-0.019787235009670258,0.003593247852148488,0.0001343669693917036
1772366205872195800,3.47319580078125,-0.02981120089590549,0.004266096479259431,-0.004336714030057191
1772366205882265900,3.483265869140625,-0.025325579914450645,0.0049660431758500635,0.004289185093902051
1772366205892335900,3.4933359375,-0.0293751475661993,0.00423604840086773,0.0033622795073315497
1772366205902407000,3.503406982421875,-0.02533960843980312,0.008033349191443995,0.006109386258386075
1772366205912476700,3.5134765625,-0.02774082436263561,0.0025981176012661307,0.00924041429311037
1772366205922547000,3.523546875,-0.02595101833641529,-0.004768584374990314,0.004902604284510016
1772366205932617000,3.533616943359375,-0.032094343397021295,0.004920678797317669,0.003967880717664957
1772366205942688000,3.54368798828125,-0.04661036000549793,0.01325624407203868,0.0015307532312348485
1772366205952757800,3.5537578125,-0.04346680128276348,-0.006060560414288193,0.006798975957743823
1772366205962828000,3.563828125,-0.02191547921001911,-0.0014712963952682912,-0.004207534692436456
1772366205972897800,3.573897705078125,-0.02864975590109825,0.002576645554974675,0.0004155950635671615
1772366205982968800,3.58396875,-0.031038112342357635,-0.012875473726680502,-0.0022765300972387194
1772366205993038800,3.594038818359375,-0.03506955981552601,-0.0007079564731102436,0.0025487346347421408
1772366206003108900,3.60410888671875,-0.03341828547716141,0.011663823781441896,0.0035443215433508157
1772366206013179000,3.614178955078125,-0.03327332404851913,0.0033181389715056867,0.00614485943056643
1772366206023250000,3.62425,-0.02609656428694725,-0.00021508578909561036,0.0039280236313119525
1772366206033320000,3.63431982421875,-0.02235737775862217,0.005001014024531469,0.00971796867698431
1772366206043389700,3.6443896484375,-0.02400046879053116,0.0018231146407779305,0.006641410775855183
1772366206053460000,3.6544599609375,-0.030282910060882566,-0.0003847250012680888,0.0004143164219334721
1772366206063531000,3.664531005859375,-0.04090659540593624,0.004582496351515874,-0.0001971300072968006
1772366206073600800,3.674600830078125,-0.03507365146875381,0.0038315044542774554,0.008296338376030325
1772366206083670800,3.6846708984375,-0.03462064700424671,0.005532746281055733,0.007050758761726319
1772366206093741000,3.694740966796875,-0.03506605268418789,0.006120912299398333,0.007287051735632121
1772366206103812000,3.70481201171875,-0.02668517782986164,0.0011393701603170483,-0.0001756122952327132
1772366206113881900,3.7148818359375,-0.02384381692409515,-0.0004642565108835697,0.005778510336205363
1772366206123951900,3.724951904296875,-0.03043079409897327,0.007922856287984177,0.005412088176608086
1772366206134022000,3.73502197265625,-0.033572599256038664,0.0033235457989852875,0.007083565052784979
1772366206144092700,3.7450927734375,-0.0286345583319664,0.0030584925214760003,0.0054057315010577435
1772366206154163000,3.755162841796875,-0.03252455150783062,0.00579401843259111,0.0037791166799142953
1772366206164233000,3.76523291015625,-0.02848725881576538,0.00046221068426966665,0.00521897675730288
1772366206174302700,3.775302734375,-0.031029929035902022,0.006503390544652939,0.0004769333293661475
1772366206184373800,3.785373779296875,-0.03282031958401203,0.0021637356388382613,0.007587422921694815
1772366206194444000,3.795444091796875,-0.030133856979012486,0.007931076127057894,0.0066743631973862644
1772366206204513800,3.805513671875,-0.02294774486720562,0.0049828755796421315,0.0060110039178282015
1772366206214583800,3.815583740234375,-0.018904606956243512,-0.0021508030920289454,0.0021691242000088096
1772366206224654800,3.82565478515625,-0.03207271608710289,-0.00027667065006680786,0.005736643955856561
1772366206234724900,3.835724853515625,-0.020853402936458588,0.0071133665360044685,-0.005997267653420567
1772366206244795000,3.845794921875,-0.016515665993094442,-0.000014466916769742965,0.004564239175617694
1772366206254865000,3.855864990234375,-0.034167642539739605,-0.0029831622629426418,0.007352298991568386
1772366206264936000,3.86593603515625,-0.04314823685288429,0.005522097022878006,-0.0003038783174008131
1772366206275005700,3.876005615234375,-0.03132218998074531,0.00244068028354086,0.0020592340847477315
1772366206285076000,3.886075927734375,-0.03297112623155117,0.006872717047389596,0.007703852375596761
1772366206295146000,3.89614599609375,-0.030726562175154685,0.003965506097488105,0.0021467662377282976
1772366206305216800,3.906216796875,-0.03057634004950523,0.007481587927043437,0.011602722977660596
1772366206315286800,3.916286865234375,-0.0284819981187582,0.005117571342596784,-0.0015364523196592925
1772366206325357000,3.926357177734375,-0.020994272711873055,0.0021005342095158992,0.004873378190025687
1772366206335426800,3.9364267578125,-0.02577975342273712,0.005658929943991825,0.0007449366157874465
1772366206345497900,3.946497802734375,-0.02803191626369953,0.010730040929513051,0.0053963791508227586
1772366206355567900,3.95656787109375,-0.03925999724268913,0.006806876136409118,0.005004420691169798
1772366206365638000,3.966637939453125,-0.03132569711208343,0.0085040993751958,0.004040361431986093
1772366206375708000,3.9767080078125,-0.027879940572381016,0.003671546385902911,0.009027027270756662
1772366206385775900,3.98677587890625,-0.0311702142894268,0.009642200027033686,0.006558518265374004
1772366206395846000,3.996845947265625,-0.03131692928373814,0.004708771345997229,0.004271832100301981
1772366206405917000,4.0069169921875,-0.02966974659860134,0.0017605525322724133,0.007560096523351967
1772366206415986700,4.016986572265625,-0.017846622335910795,0.009375658045336603,-0.0002247121339663863
1772366206426057000,4.027056884765625,-0.026978607818484306,0.002194276907574385,-0.0027470336858183143
1772366206436127000,4.037126953125,-0.03236497703194618,0.006008821093896404,0.0005459799775853753
1772366206446198000,4.047197998046875,-0.025780922466516493,0.01359568689316511,0.0046890711316838855
1772366206456267800,4.057267822265625,-0.037003158226609226,0.002876898010028526,0.008725815834477544
1772366206466337800,4.067337890625,-0.03445639635324478,0.0072384816198609765,0.0036746333921328185
1772366206476407800,4.07740771484375,-0.03116904524564743,0.004062144005531445,-0.0012235139129683375
1772366206486478800,4.087478759765625,-0.03342354617416859,0.0043568435026332735,0.004226275925524533
1772366206496548900,4.097548828125,-0.022950082954764365,0.0036854196476284414,0.01077259229645133
1772366206506619000,4.107618896484375,-0.024154782569408416,0.0037258521227166055,0.0001283756200224161
1772366206516689000,4.11768896484375,-0.04046645042300224,0.0023550112940836695,-0.005015928465873003
1772366206526760000,4.127760009765625,-0.031630817538499834,-0.003504363992298022,0.003782989137433469
1772366206536830000,4.137829833984375,-0.02893909423649311,0.005723455680720507,0.0007341960260644555
1772366206546899700,4.147899658203125,-0.030889059260487555,0.0026389793346170334,-0.0021967428592965005
1772366206556970000,4.157969970703125,-0.038057635715603826,0.004126496212324127,0.008146225848235189
1772366206567041000,4.168041015625,-0.04075403519272804,0.0063377790536265815,0.0067543696310371154
1772366206577110800,4.17811083984375,-0.03162088066637516,-0.0021595891866832972,0.008972155278362334
1772366206587180800,4.188180908203125,-0.027577158233523368,0.011454647143324836,0.010095058361068367
1772366206597250800,4.198250732421875,-0.03131517571806908,0.005309349321341142,0.005971914016455412
1772366206607321900,4.20832177734375,-0.03834405144155025,0.005422755701094866,0.006693652419745922
1772366206617391900,4.218391845703125,-0.021280103915929792,0.011318700138200074,0.003046966480463743
1772366206627462000,4.2284619140625,-0.020680968979001044,0.0018665519237052648,0.0015673223819583654
1772366206637532000,4.238531982421875,-0.02518061848580837,-0.00027512714695185423,0.0014573592014610766
1772366206647603700,4.248603759765625,-0.04268821812570095,0.0026308873597066847,0.009520071484707295
1772366206657673500,4.258673583984375,-0.027885201269388198,-0.00027616832656785845,0.0032751857457682487
1772366206667743700,4.26874365234375,-0.03477729887068271,-0.00476967122037895,0.002319638586603105
1772366206677813800,4.278813720703125,-0.02685118204653263,-0.0010709354334510863,0.004448503841459751
1772366206687884500,4.288884521484375,-0.022060440638661385,0.0047267179946415125,0.0013487111952155827
1772366206697954600,4.29895458984375,-0.01891688191592693,0.0024894695950206367,-0.0002598930452018976
1772366206708024800,4.30902490234375,-0.03583060731589794,0.007304706123331561,0.002925349394790828
1772366206718094600,4.319094482421875,-0.029102760365605353,0.009996274161711335,0.001146247425675392
1772366206728165600,4.32916552734375,-0.028059388792514798,-0.003952719681151211,-0.0011977584172040224
1772366206738235600,4.339235595703125,-0.030153146201372143,0.002635116010252386,0.008862045967392623
1772366206748305700,4.3493056640625,-0.03494096499979496,0.003725578128080815,0.0003492883617058396
1772366206758375700,4.359375732421875,-0.022669512447714806,0.0054559821172617375,0.0018930106723681092
1772366206768446700,4.36944677734375,-0.030455928540229795,-0.0033222854236606507,0.008822079283185303
1772366206778516700,4.379516845703125,-0.0355447761118412,0.008227072532102465,0.002812427072227001
1772366206788586500,4.38958642578125,-0.03658931672871112,0.0046577170121949165,0.007788169658184051
1772366206798656800,4.39965673828125,-0.017583002963662147,0.0008947660157922655,0.0048463805852457876
1772366206808727800,4.409727783203125,-0.03030453737080097,-0.0032420963269192723,0.000014978373423218726
1772366206818797600,4.419797607421875,-0.03179857532083988,0.0005138769394252449,0.007963635822944343
1772366206828867600,4.42986767578125,-0.03299976780414581,0.011101805984508245,0.011430435150675475
1772366206838937900,4.439937744140625,-0.027166239345073697,0.003651124652381986,-0.0020838936019688843
1772366206849008600,4.450008544921875,-0.03958966758847236,0.003422640525596216,0.003241904530674219
1772366206859078700,4.46007861328125,-0.036143326526880265,0.009379813630646093,0.005876015893928706
1772366206869148700,4.470148681640625,-0.04676292021870613,0.0014969240268692373,0.009708689391985536
1772366206879218700,4.48021875,-0.03658697864115238,-0.003386062241718173,0.013164382803812623
1772366206889289700,4.490289794921875,-0.01533376273214817,0.013264518710039556,-0.001412022222392261
1772366206899359700,4.50035986328125,-0.0250660521954298,0.00114660361870192,-0.008135521791130303
1772366206909429800,4.5104296875,-0.024924597898125646,0.005393337810365483,-0.000559095187485218
1772366206919499500,4.52049951171875,-0.03540156824886798,0.0068285399789456275,0.0014784019894897938
1772366206929570600,4.530570556640625,-0.026423896545171736,0.004619540426274761,0.0011701762905344366
1772366206939640800,4.540640869140625,-0.04557517173886299,-0.005447022492671385,0.006903641908615827
1772366206949710600,4.550710693359375,-0.023581366595625874,0.0028784597794525323,0.01415891026649624
1772366206959780600,4.560780517578125,-0.03390694577693939,0.008493769777426496,0.01072115437015891
1772366206969851600,4.5708515625,-0.031214053431153296,0.00943962665963918,0.006826046627759933
1772366206979921700,4.580921630859375,-0.021182488760352135,-0.0023164145830553025,0.0017030410582199692
1772366206989991700,4.59099169921875,-0.02311667169332504,-0.0073808766320813445,0.012735672530345618
1772366207000061700,4.601061767578125,-0.030747020441293713,-0.0036633904789108783,0.0106488563189283
1772366207010132500,4.611132568359375,-0.031498715591430665,-0.002091355389216915,-0.0044007191769778724
1772366207020202800,4.62120263671875,-0.02746200742125511,-0.0036383473691996185,0.01053213460408151
1772366207030272800,4.631272705078125,-0.03599953414201736,0.005962068475876003,0.0036236703898757695
1772366207040343800,4.64134375,-0.027922610670328137,0.0055606846007518465,0.006095540396124124
1772366207050413600,4.65141357421875,-0.04228840515315532,0.005478623207332566,-0.0008180383846163749
1772366207060483600,4.661483642578125,-0.030165421161055563,0.008427974532218649,0.0031565643347799778
1772366207070553900,4.671553955078125,-0.028372108003497123,-0.005266816220711916,0.006108655606023967
1772366207080623600,4.68162353515625,-0.03316284941136837,-0.001442252963874489,0.004271320643648505
1772366207090694700,4.691694580078125,-0.0292705181479454,-0.010312235642550512,0.010181604133360087
1772366207100764700,4.7017646484375,-0.02223871981501579,-0.004590515261190012,-0.0010611264254897833
1772366207110834700,4.711834716796875,-0.02014613144993782,0.005758746189810335,0.005775843455083668
1772366207120905700,4.72190576171875,-0.02508826402723789,0.001175674449559301,0.007450060277618467
1772366207130975700,4.731975830078125,-0.031229835522174832,0.009086411041487007,0.002215959016419947
1772366207141045500,4.74204541015625,-0.023147066831588743,-0.0017445877781603484,0.0122812067611143
1772366207151115800,4.75211572265625,-0.040351299610733984,0.002652423338079825,0.008010141845792532
1772366207161186800,4.762186767578125,-0.040654081949591636,0.0023519242878537626,0.00808229376655072
1772366207171256800,4.7722568359375,-0.03347615314424038,0.002770679422887042,0.006177884917333722
1772366207181326600,4.78232666015625,-0.042001404905319215,-0.003966647741803899,0.005486980043724179
1772366207191396600,4.792396728515625,-0.03047930941581726,-0.0015786018277984112,-0.0014011720348149537
1772366207201467600,4.802467529296875,-0.02748597281873226,-0.0015283512115944176,0.01105276094470173
1772366207211537700,4.81253759765625,-0.037515783923864364,0.0010104739504866302,0.009162490218691527
1772366207221607700,4.822607666015625,-0.017318214547634124,-0.00508966042236425,0.005196691860258579
1772366207231677700,4.832677734375,-0.03782324243783951,0.005021271361270919,0.012292678003199397
1772366207241748500,4.84274853515625,-0.04140986875295639,0.0016536215590778737,0.008482983521930873
1772366207251818800,4.85281884765625,-0.050095279511809344,0.004775598637666553,0.013309453830309211
1772366207261888800,4.862888671875,-0.02211421665251255,0.009569134790822864,0.0007209712183102965
1772366207271958500,4.87295849609375,-0.03947743938565254,0.00797080534924753,0.010673040912114084
1772366207282029600,4.883029541015625,-0.024074118548631666,-0.0008818882679101079,0.00000789104551076889
1772366207292099800,4.893099853515625,-0.040082419541478155,0.0058972778776660555,0.005741868120245635
1772366207302169600,4.903169677734375,-0.028419454276561736,-0.0031090719312429427,0.00029832535944879056
1772366207312239600,4.913239501953125,-0.010023965886235237,0.0015740535168442874,0.0050181569555774325
1772366207322310700,4.923310546875,-0.026487024909257886,0.0007261405837722122,0.001824913872219622
1772366207332380700,4.933380615234375,-0.029922260054945943,0.0010199358985759318,-0.0026623510770499704
1772366207342450700,4.94345068359375,-0.03546995730996132,0.005481080025900155,0.001114719776250422
1772366207352520700,4.953520751953125,-0.014520108261704445,-0.0012487670852337031,-0.00054506666213274
1772366207362591700,4.963591796875,-0.030531331863999363,0.0030950708053540435,0.007682955718040466
1772366207372661500,4.97366162109375,-0.03458148403763771,0.004620736869517713,0.008658230490982532
1772366207382731800,4.983731689453125,-0.030544775867462157,-0.0030292024949099866,0.00360774216838181
1772366207392801800,4.9938017578125,-0.025006430962681767,-0.003069771967316046,-0.006686309363506734
1772366207402872600,5.00387255859375,-0.027839024040102956,0.0016132438829168675,0.0002935030538588762
1772366207412942600,5.013942626953125,-0.02932195607423782,0.0008732117711100726,-0.0013817366819828748
1772366207423012600,5.0240126953125,-0.03275719121992588,0.005534198452625423,0.002326031794771552
1772366207433082600,5.03408251953125,-0.02931903346478939,0.004328256728965789,0.005529211750254034
1772366207443153700,5.044153564453125,-0.02347790622115135,0.0041739977490156885,0.0016105404691770671
1772366207453223700,5.0542236328125,-0.025272388422489165,0.009196401621447876,0.0043211146021261805
1772366207463293400,5.06429345703125,-0.03246200766563415,0.0028384291631635278,0.008997801176272332
1772366207473363700,5.07436376953125,-0.035460020437836644,-0.0000043108489364385606,0.006821078191697597
1772366207483434800,5.084434814453125,-0.023492519268393516,0.005359125013509765,-0.00026767449285835024
1772366207493504800,5.0945048828125,-0.036356677016615865,0.000610313918069005,0.008646978444606065
1772366207503574500,5.104574462890625,-0.03306698782145977,-0.005688338701566681,0.007996807440184056
1772366207513644800,5.114644775390625,-0.0320242007702589,-0.00018659034697338938,0.00547726236730814
1772366207523715800,5.1247158203125,-0.024992986959218977,-0.0013857187373563647,0.0020037410378456115
1772366207533785600,5.13478564453125,-0.031580548655986786,0.005912776840897277,0.0029677272317931054
1772366207543855600,5.144855712890625,-0.026499299868941305,0.007228763943444937,0.006702968237362801
1772366207553925600,5.154925537109375,-0.038923897156119346,0.0018023823800031094,0.002700564195588231
1772366207563996700,5.16499658203125,-0.03188859169185161,-0.009191095258668064,0.004682897119224071
1772366207574066700,5.175066650390625,-0.031279519882798194,-0.0014496416858863085,0.0007571385102346539
1772366207584136700,5.18513671875,-0.0275409178763628,-0.001735728618269786,0.0011552344497293232
1772366207594206500,5.19520654296875,-0.027238135537505148,-0.0021054569798056033,0.0076456559149548405
1772366207604277500,5.205277587890625,-0.0380108739644289,0.005369801671151072,0.013689100797660649
1772366207614347800,5.21534765625,-0.026343232524394987,0.005525074431253597,0.008218085508048534
1772366207624417800,5.225417724609375,-0.028738018706440924,0.0029473328977357594,0.013128982696868479
1772366207634487600,5.235487548828125,-0.034273441001772875,0.0038899383769370613,0.007784224135428667
1772366207644558600,5.24555859375,-0.03068798373043537,0.002280512152612209,0.011246858744695783
1772366207654627800,5.2556279296875,-0.0366775795340538,-0.00017482684394344686,0.00504636013675481
1772366207664697600,5.265697509765625,-0.03683540044426918,-0.003604819558933377,-0.002206898927129805
1772366207674767600,5.275767578125,-0.019783727878332137,-0.0014501714088488368,0.005096775149740279
1772366207684838700,5.285838623046875,-0.03116027741730213,-0.00039163879924453794,0.015335041373781859
1772366207694909000,5.295908935546875,-0.024586159723997116,0.008806406790018081,0.004200008973106742
1772366207704978700,5.305978759765625,-0.03028232553899288,-0.002439429041370749,0.0038205812014639375
1772366207715049700,5.3160498046875,-0.028648586857318876,-0.0001799779430963099,-0.002879062567651272
1772366207725119700,5.32611962890625,-0.03208557556867599,-0.0027277261971496046,0.009490005140006542
1772366207735189800,5.336189697265625,-0.031334464940428734,0.0043434634312521665,0.005073394274152815
1772366207745259800,5.346259765625,-0.02624035667181015,0.007133523408044129,0.001198781330510974
1772366207755330800,5.356330810546875,-0.030424948880076408,0.005874198396177962,-0.0028772724693641063
1772366207765400600,5.366400634765625,-0.021296470528841017,0.010360504364222287,0.003227108820341527
1772366207775470800,5.376470947265625,-0.024736381849646567,0.007265214363159612,0.0008574205469340085
1772366207785540900,5.386540771484375,-0.02862228337228298,0.002562507431767881,0.003035568303614855
1772366207795612000,5.39661181640625,-0.026077275064587593,0.00012453056196682155,0.0009616481063887476
1772366207805681700,5.406681640625,-0.029963761109113692,0.00038716355352662503,0.000749247464723885
1772366207815751700,5.416751708984375,-0.029502573338150977,0.011102819764660671,0.0027959873940795656
1772366207825821700,5.42682177734375,-0.026206454402208326,0.009980756932171061,0.00200805188678205
1772366207835892700,5.436892822265625,-0.01438391466140747,0.009106650111917405,-0.0026286314705386755
1772366207845962800,5.446962646484375,-0.02860007154047489,0.00201774216373451,0.001266257076151669
1772366207856032800,5.45703271484375,-0.036975685697793956,0.00741311666755937,0.004653671024739742
1772366207866102800,5.467102783203125,-0.027553192836046216,0.007286494613206014,0.0021228739054873587
1772366207876173800,5.477173828125,-0.030844635596871374,0.0003689246439374983,0.0021407748883590103
1772366207886243800,5.487243896484375,-0.0215630125105381,0.0003422101669479161,-0.0057078197201713915
1772366207896313600,5.497313720703125,-0.02292027233839035,0.0009832023510709404,0.002137486952729523
1772366207906384000,5.5073837890625,-0.023971827217936514,0.006203722611488774,-0.003944353711605072
1772366207916455000,5.517454833984375,-0.033251696738600726,0.0014911244737450032,0.0009297916634008288
1772366207926524700,5.527524658203125,-0.039088147807121276,0.005079906213330105,0.003343099882826209
1772366207936594700,5.5375947265625,-0.03609656477570534,0.005681644099298864,0.007354490948654711
1772366207946664700,5.547664794921875,-0.025311551389098165,0.011784637149516492,0.0017607991274446247
1772366207956735700,5.55773583984375,-0.03443418452143669,0.00108004118851386,-0.00007817980274558067
1772366207966805800,5.5678056640625,-0.03248246593177318,0.006466346469894051,0.006528159659728408
1772366207976875800,5.577875732421875,-0.02439326750040054,0.008656970115657895,0.0020750527083873748
1772366207986945800,5.58794580078125,-0.03650689914226532,0.006009761808812618,0.0002658843945711851
1772366207997016600,5.5980166015625,-0.022594693645834923,0.0018405133001506326,0.011074607450328766
1772366208007086800,5.6080869140625,-0.01675415092408657,-0.0011784600616898387,0.004434584913961589
1772366208017156900,5.618156982421875,-0.029327801293134687,-0.004044206490041688,0.00901635974626988
1772366208027226600,5.6282265625,-0.026037527576088904,-0.0002189765129238367,0.0034159459233283995
1772366208037297700,5.638297607421875,-0.02784545378088951,-0.0018382848104462027,0.0069199719889089465
1772366208047368000,5.648367919921875,-0.03114157271683216,0.009475218562828376,0.0020337343173101544
1772366208057437700,5.658437744140625,-0.02380991465449333,0.005254239866929128,0.0012584025632590055
1772366208067508700,5.6685087890625,-0.027253333106637,0.006065346187260002,0.010818331134319304
1772366208077578800,5.678578857421875,-0.046558337557315824,-0.0033787739844061433,0.0031803105365484953
1772366208087648800,5.688648681640625,-0.036975685697793956,0.0011974752894137054,0.0033237010626122354
1772366208097718800,5.69871875,-0.04220715661048889,0.0027819680018816143,0.0025765724897384643
1772366208107789800,5.708789794921875,-0.03142331226766109,0.007883656788757071,0.00250073077455163
1772366208117859800,5.71885986328125,-0.026033435922861097,0.005882436501560733,0.003044993719086051
1772366208127929600,5.7289296875,-0.027222937968373297,0.0038939843643922356,0.0015874153219163417
1772366208138000000,5.738999755859375,-0.03649871583580971,0.0018683511551469563,0.002397051204368472
1772366208148071000,5.74907080078125,-0.028869536131620407,-0.00712923995857127,0.002938464604690671
1772366208158140700,5.759140625,-0.03679916008710861,0.014422803633380681,-0.002094488061219454
1772366208168210700,5.769210693359375,-0.04068038543462753,0.013536485785525292,0.0033585897129029033
1772366208178280700,5.77928076171875,-0.026162030738592145,-0.0016220665101893245,0.01181621959786862
1772366208188351700,5.789351806640625,-0.02450666474699974,0.0007183591361157595,0.0015320318728685378
1772366208198421800,5.799421875,-0.028390812703967094,0.003965387366479263,0.0058568728020414705
1772366208208491800,5.80949169921875,-0.028389059138298034,0.0012124627959914506,0.0016991686007007956
1772366208218561500,5.8195615234375,-0.025696751314401627,0.00037238610950298605,0.0010852744860574603
1772366208228632600,5.829632568359375,-0.023898177459836006,-0.005369317613961175,0.0007255743281915784
1772366208238702800,5.839702880859375,-0.02883621838390827,-0.0002987637508660555,0.009847915199585259
1772366208248772900,5.84977294921875,-0.020607903742790222,-0.000569342586863786,0.0009773571321740745
1772366208258842600,5.859842529296875,-0.026884499794244766,-0.0037892727477475997,0.0038798005754128095
1772366208268913700,5.86991357421875,-0.03690262046158314,0.000046149829821661115,0.0049338762056082485
1772366208278984000,5.87998388671875,-0.024935119292140005,0.004200109437806532,0.006050386080145836
1772366208289053700,5.8900537109375,-0.03076689418554306,0.0075229154512751846,0.003899272460862994
1772366208299123700,5.900123779296875,-0.02626958276629448,0.0014912797373719513,0.009462094219774007
1772366208309194800,5.91019482421875,-0.031651860326528544,-0.008536083682347088,0.009751176826842128
1772366208319264800,5.9202646484375,-0.024166473007202146,0.009278627411648631,0.004624298799782991
1772366208329334800,5.930334716796875,-0.03418810080587864,0.005876719146827235,0.008729469096288085
1772366208339404800,5.94040478515625,-0.024306758260726927,0.0061180992878042155,0.00240797445718199
1772366208349475800,5.950475830078125,-0.023702947148680684,0.0036116328922100364,-0.000009608078561723231
1772366208359545600,5.960545654296875,-0.032678865286707874,0.0010466960413381458,0.0036347397731617092
1772366208369616000,5.970615966796875,-0.024738719937205313,0.0052908090176526455,0.006807707253471016
1772366208379685600,5.980685546875,-0.03999941743314266,-0.0017673567323945461,0.00236760591417551
1772366208389756700,5.990756591796875,-0.02637888835966587,0.006905934330401942,0.0027444764025509358
1772366208399826700,6.00082666015625,-0.03715338035225868,0.0017384594314731657,0.008139759574830532
1772366208409897000,6.01089697265625,-0.027132337075471878,-0.0024752310071140524,0.004173851618543267
1772366208419967700,6.0209677734375,-0.023834464573860167,-0.005865019575878977,0.00008789747916162013
1772366208430037800,6.031037841796875,-0.021892098334431648,-0.001664964936999604,-0.0034104294979944824
1772366208440107800,6.041107666015625,-0.03415945923328399,0.004550630775373429,0.006389372243545949
1772366208450177800,6.051177734375,-0.028771920976042746,0.0036421924272552132,0.0062624944608658546
1772366208460248800,6.061248779296875,-0.042678865775465966,0.004307095209928229,0.005097871128283441
1772366208470318800,6.07131884765625,-0.02891512883901596,0.005712842955160885,0.0017274083144962786
1772366208480388600,6.081388671875,-0.031306407889723775,-0.00013838555738329887,0.0031266441205516455
1772366208490458600,6.091458740234375,-0.03803776197135448,0.0005810786904301494,0.009615458150580524
1772366208500529700,6.10152978515625,-0.03623801907300949,0.0017767090826295315,0.0076060545569285746
1772366208510600000,6.111599853515625,-0.029949732583761213,0.0019652813241351394,0.008005246474966407
1772366208520669700,6.121669677734375,-0.027549101182818413,0.007693066120101138,0.009619695934280753
1772366208530739700,6.13173974609375,-0.029938042145967483,0.01184750065212138,0.009582834522612393
1772366208540810800,6.141810791015625,-0.031137481063604353,0.006214143540803342,0.0008534384915605187
1772366208550880800,6.151880859375,-0.0333791225105524,0.0019688067217823115,0.003195836899243295
1772366208560950800,6.16195068359375,-0.03293137874305248,-0.00046143436613492667,0.008988631489127874
1772366208571020800,6.172020751953125,-0.03547814061641693,0.0021017215196043252,0.0024906477719545362
1772366208581091600,6.182091552734375,-0.03547814061641693,0.003063844550028443,0.0035589711232110856
1772366208591161600,6.19216162109375,-0.025451836642622946,0.005113059564260765,0.007190203765034675
1772366208601232000,6.20223193359375,-0.028889994397759435,0.0037828430069610473,0.007421564835496246
1772366208611301600,6.212301513671875,-0.029641689547896383,0.01039002271965146,0.005692585618421435
1772366208621372700,6.22237255859375,-0.03323182299435139,0.0035980244919657707,-0.002519106681458652
1772366208631442700,6.232442626953125,-0.0339805955350399,0.0057124319632072,0.0042066213769838216
1772366208641513000,6.242512939453125,-0.028293197548389434,0.00720897239758633,0.001245396951213479
1772366208651583200,6.252583251953125,-0.03711597095131874,-0.00144523037225008,0.002314231759123504
1772366208661654300,6.262654296875,-0.03308101634681224,0.00019498371598310768,0.004436813403666019
1772366208671724000,6.27272412109375,-0.026491116562485692,0.004479538300540298,0.006195712834969162
1772366208681794000,6.2827939453125,-0.028735096096992492,0.010184974267380312,-0.00010254705902189015
1772366208691864300,6.2928642578125,-0.03591302490234375,0.006465716282231733,0.006449724128656089
1772366208701935000,6.30293505859375,-0.032920272827148434,0.004128094514366239,0.0022691870409995317
1772366208712005000,6.313005126953125,-0.027386604097485542,0.002444753670459613,0.0002525865215808153
1772366208722075100,6.3230751953125,-0.024546412235498426,0.00132870958680287,0.006147307115979492
1772366208732146200,6.333146240234375,-0.02828033806681633,-0.00503086117352359,0.004797499942220747
1772366208742216200,6.34321630859375,-0.03291676569581031,0.006034375660261139,0.006497947184555232
1772366208752286200,6.3532861328125,-0.03426233508586883,0.0017009678321424871,0.005028824480064213
1772366208762356200,6.363356201171875,-0.02647591899335384,0.008931741069583221,0.010546272727288305
1772366208772427000,6.373427001953125,-0.02737783626914024,0.009119098601536825,-0.003421681544370949
1772366208782497300,6.383497314453125,-0.02498421913087368,0.005571735717728734,0.006145699680782854
1772366208792567300,6.3935673828125,-0.03605623276531696,0.007011221335781738,0.006342135568335652
1772366208802637000,6.403636962890625,-0.03350304115116596,-0.0007640614413656294,0.004581080712564289
1772366208812708000,6.4137080078125,-0.02407353402674198,0.004187021627370268,0.010576266006752847
1772366208822778000,6.423778076171875,-0.026764088284969328,0.007336818294646218,0.011399455490522086
1772366208832848100,6.43384814453125,-0.023472645524144173,0.005398991233017295,-0.003720408762618899
1772366208842918100,6.443918212890625,-0.023021979147195816,0.006498732635844499,0.005453114306740462
1772366208852989200,6.4539892578125,-0.029150691160559652,0.0012068915717303751,0.012470811049081385
1772366208863059200,6.46405908203125,-0.027359131568670272,0.004232157677039504,0.002207702644728124
1772366208873129200,6.474129150390625,-0.028562077617645263,0.005174598759459331,0.006458966881036758
1772366208883199200,6.48419921875,-0.039489129823446274,0.008750658014789223,0.004161905452422798
1772366208893270300,6.494270263671875,-0.0248351660490036,0.008541527042444794,0.010506159912608563
1772366208903340000,6.504340087890625,-0.024992986959218977,0.004242989598307758,0.010482559841312468
1772366208913410300,6.514410400390625,-0.04250058659911155,0.003143531323270872,0.011701214916072785
1772366208923480300,6.524480224609375,-0.03681085052490234,0.005688777092983946,0.011361717296019196
1772366208933551000,6.534551025390625,-0.030372341910004614,0.011941700007906182,0.011335852202400564
1772366208943621000,6.54462109375,-0.02931727989912033,0.003994786990899593,0.0025577216587960717
1772366208953691100,6.554691162109375,-0.02542202602624893,0.0033146957722492514,0.002414732991531491
1772366208963762200,6.56476220703125,-0.02557049458622932,0.0070874831760767846,0.006783595725521445
1772366208973832200,6.574832275390625,-0.01914016927778721,0.003147796506434679,0.002221621572226286
1772366208983902200,6.584902099609375,-0.034703649112582204,0.009409560314938425,-0.00046864042505621905
1772366208993972000,6.594971923828125,-0.026165537869930266,0.008120159825216978,0.006034859717451035
1772366209004043000,6.60504296875,-0.03409925347864628,-0.0002034684165380895,0.00866604847125709
1772366209014113300,6.61511328125,-0.02901391303837299,0.0017513919782824814,0.008316906240023672
1772366209024183300,6.625183349609375,-0.029462825849652288,0.00662859696005471,0.0028834099492058155
1772366209034253000,6.635253173828125,-0.03186462629437446,0.009231491201138123,0.007673786030896007
1772366209044324000,6.645323974609375,-0.02962181580364704,0.004054563487274572,0.001997201699204743
1772366209054394400,6.655394287109375,-0.02872340565919876,0.0039162692614365365,0.007103402264416217
1772366209064464100,6.665464111328125,-0.03157061178386211,0.00850124983098358,0.008338168223761022
1772366209074534100,6.6755341796875,-0.03126899848878383,-0.0007010974740609526,0.0038833442393690345
1772366209084605200,6.685605224609375,-0.02424304537475109,-0.0010670355764683336,-0.0016380129979923367
1772366209094675000,6.695675048828125,-0.03382511271238327,-0.002781593542546034,0.011993512393534182
1772366209104745200,6.7057451171875,-0.03906125980019569,-0.002902132915984839,0.0010663505898788571
1772366209114815200,6.715815185546875,-0.0237982242166996,-0.002728676045220345,0.006757840229757129
1772366209124886300,6.72588623046875,-0.0190098208963871,0.009231445535365491,0.006755063750781118
1772366209134956000,6.7359560546875,-0.03755611593425274,0.011815918203769251,0.004716653258353472
1772366209145026300,6.7460263671875,-0.030966216149926184,0.006823507610801607,0.002593852418102324
1772366209155096000,6.756095947265625,-0.04038461735844612,0.005475727997347712,0.012517791995964943
1772366209165167000,6.7661669921875,-0.03065875763595104,0.002403079086355865,0.0050020826036110515
1772366209175237000,6.776237060546875,-0.01823825200200081,0.002497470238385722,0.009489530215971171
1772366209185307400,6.786307373046875,-0.02077566152513027,-0.0005380889320746063,0.0006504632653668523
1772366209195377200,6.796377197265625,-0.030050854870676994,0.006228053335146978,-0.0018304302975535392
1772366209205448200,6.8064482421875,-0.04516249928474426,0.008801986343227326,0.0013489669235423206
1772366209215518200,6.816518310546875,-0.030197569864988325,0.011968588014831767,0.006134338036552071
1772366209225588000,6.826587890625,-0.022717443242669104,0.01101589953303337,0.00847600579187274
1772366209235659000,6.836658935546875,-0.03199731276333332,-0.0001568893284536898,0.009638692895695567
1772366209245729300,6.846729248046875,-0.02855740144252777,0.007062832792010158,0.008079553820192813
1772366209255799000,6.856799072265625,-0.03185585846602917,0.009348852236801758,0.004006459162384271
1772366209265869000,6.866869140625,-0.02766366747319698,0.0015811499779112637,0.006949051952920854
1772366209275940000,6.876940185546875,-0.021082535517215728,-0.0015745010414160788,0.002841908895038068
1772366209286010400,6.88701025390625,-0.027968203377723693,-0.0016980086900759488,-0.002712729557417333
1772366209296080100,6.897080078125,-0.030212767434120175,-0.0040183048638049515,0.006549531241320073
1772366209306150100,6.907150146484375,-0.030516718816757202,0.0030448567217681555,-0.0005780921489000321
1772366209316221200,6.91722119140625,-0.032766543570160865,0.01042610781318508,0.01232753012087196
1772366209326291200,6.927291259765625,-0.0276759424328804,0.009051842051604761,0.00910027517005801
1772366209336361200,6.937361328125,-0.04144260197877884,0.005524800436617806,0.00878006677236408
1772366209346431200,6.94743115234375,-0.025284078860282895,-0.0007954794929362833,0.002285480588674545
1772366209356502000,6.957501953125,-0.021698621588945387,0.003651974035752937,0.0011316709110513329
1772366209366572000,6.967572021484375,-0.023051205241680143,0.0010560757910367102,0.00326864640712738
1772366209376642300,6.977642333984375,-0.04370703977942467,0.00065935895787552,0.007186404372751713
1772366209386712000,6.987712158203125,-0.030387539479136465,0.00831290591834113,0.004690824697352946
1772366209396783000,6.997783203125,-0.024252397724986077,0.0012067728407215326,0.011855674825422465
1772366209406853000,7.00785302734375,-0.025902503019571303,0.004570741981640458,0.004593246074393391
1772366209416923400,7.01792333984375,-0.03398702527582645,0.0090186887006741,0.0013490765213966369
1772366209426993200,7.0279931640625,-0.040432548153400416,0.006707059890590608,0.0012586582915857434
1772366209437064200,7.038064208984375,-0.02547638656198978,0.003827759860921651,0.0006721271079033613
1772366209447134200,7.04813427734375,-0.0295277077794075,0.0046277328658849,0.006865976779349148
1772366209457204200,7.058204345703125,-0.03206979347765446,-0.00026324491291306913,0.001377754626609385
1772366209467274200,7.068274169921875,-0.03685585871040821,0.00034767179335467517,0.0074181307693943375
1772366209477345300,7.07834521484375,-0.039247722283005715,0.007235440279403701,0.0014870602199807761
1772366209487415000,7.0884150390625,-0.03520575341582298,0.004850755366263911,0.000339022696018219
1772366209497485000,7.098485107421875,-0.03161328188180923,0.0018334077059291303,0.001545183615386486
1772366209507556000,7.10855615234375,-0.03340367242991924,0.009652127766003831,0.0052382294470444315
1772366209517626400,7.11862646484375,-0.027570143970847127,-0.00456244907733053,0.004737476850673556
1772366209527696100,7.128696044921875,-0.023682488882541656,0.006687149613723158,-0.0002930646624416113
1772366209537766100,7.13876611328125,-0.03475099538564682,0.0045266745110508055,-0.0006513400482013822
1772366209547837200,7.148837158203125,-0.04866904610097408,0.006631190775940194,0.00361530442032963
1772366209557907200,7.1589072265625,-0.02950900307893753,0.0031795981504954395,0.008238324578478931
1772366209567977200,7.168977294921875,-0.029652210941910742,0.0006789952401071787,0.009590323709324002
1772366209578047200,7.179047119140625,-0.028303718942403792,0.007625544708687811,0.005158040350303054
1772366209588118000,7.189117919921875,-0.029797172370553016,0.008178840343048796,0.0038739188238978385
1772366209598188300,7.199188232421875,-0.02530745973587036,0.00848657285165973,0.007471577989682555
1772366209608258300,7.20925830078125,-0.022612813824415205,0.005867257198737934,0.003485796289145946
1772366209618328000,7.219328125,-0.019920506000518798,-0.001965737981861457,0.005864142793044448
1772366209628399000,7.229399169921875,-0.025610826596617696,-0.003536156503204256,0.007401837221719324
1772366209638469000,7.23946923828125,-0.03488894255161285,0.0059063014343380925,0.003763626849837601
1772366209648539100,7.2495390625,-0.02771568992137909,0.002652112810825929,0.0047624286288395525
1772366209658609400,7.259609375,-0.029225509962439535,0.003990768402907997,0.010173713087849319
1772366209668680400,7.269680419921875,-0.0320721315652132,0.0020047822174616156,0.008853205073811113
1772366209678750500,7.27975048828125,-0.034924013864994045,0.001562865402549505,0.009411313880607486
1772366209688820500,7.289820556640625,-0.031041619473695752,-0.0059475102275609966,0.00726922381799668
1772366209698891500,7.2998916015625,-0.02325754146873951,0.010224740022188051,0.0040458047920838
1772366209708961500,7.30996142578125,-0.04989595754742622,0.006496796407084912,0.012969079427421093
1772366209719031600,7.320031494140625,-0.048402504119277,-0.0019028653461020438,0.0032780718225985765
1772366209729101300,7.330101318359375,-0.016529694518446922,0.003777445312635973,-0.0031558336824178694
1772366209739172400,7.34017236328125,-0.03418926984965801,0.0016571195572614669,0.006817424929887056
1772366209749242600,7.35024267578125,-0.027008418434858322,0.0076354815808124836,0.00317716873139143
1772366209759312400,7.3603125,-0.03269932355284691,0.009581775076687336,0.004006349564529955
1772366209769382400,7.37038232421875,-0.030455928540229795,0.00708762017339468,0.008811923215351998
1772366209779453400,7.380453369140625,-0.030459435671567916,-0.002825030825473368,0.000949519277177751
1772366209789523700,7.390523681640625,-0.033010873720049856,0.0059730008618440475,0.0039056291364133354
1772366209799593500,7.400593505859375,-0.03286649681329727,0.005882226439006626,0.010202719986625015
1772366209809663500,7.41066357421875,-0.03810322842299938,0.004021172674326226,0.01428056388478726
1772366209819734500,7.420734619140625,-0.02912906385064125,-0.00012015578094869851,0.003570077039115131
1772366209829804500,7.430804443359375,-0.023446342039108274,0.008046793194906785,0.014698752764239906
1772366209839874600,7.44087451171875,-0.033473230534791946,-0.0005172379402909428,0.010360906223021446
1772366209849944600,7.450944580078125,-0.02883271125257015,-0.0019340185361914335,0.0036562940178439017
1772366209860015400,7.461015380859375,-0.030030981126427648,-0.0008009045867249369,0.0028621479654684662
1772366209870085400,7.47108544921875,-0.029731705918908117,0.00608933898420073,0.0013985051536932586
1772366209880155600,7.48115576171875,-0.028539281263947485,0.006952778279967605,0.0062652709398418665
1772366209890225400,7.491225341796875,-0.023893501284718514,0.003007447320828214,0.007610036612302065
1772366209900296400,7.50129638671875,-0.02388707154393196,0.0025279201755765823,0.006356492887251079
1772366209910366500,7.511366455078125,-0.03555822011530399,0.005425906639406457,0.009529898758977652
1772366209920436700,7.521436767578125,-0.0319675021469593,0.005293055773666128,0.003678907708451152
1772366209930507500,7.531507568359375,-0.027771219500899315,-0.0010407412245869636,0.006654635583609342
1772366209940577500,7.54157763671875,-0.030152561679482458,-0.007127029735175892,0.005732479237392544
1772366209950647600,7.5516474609375,-0.024306173738837242,0.0012781941091176122,0.01165777763314545
1772366209960717300,7.56171728515625,-0.02833645216822624,0.005764947601733729,0.007398293557763099
1772366209970788400,7.571788330078125,-0.02668517782986164,0.006193219483783468,0.004366926505230367
1772366209980858600,7.581858642578125,-0.023985855743288993,0.0006115377607755363,-0.000902647928148508
1772366209990928400,7.591928466796875,-0.02159574573636055,0.0072529576697852455,0.014738244524411857
1772366210000998400,7.601998291015625,-0.02577975342273712,0.003937905704509467,0.007678973662666976
1772366210011069400,7.6120693359375,-0.026980945906043052,-0.00481061515212059,-0.0018528247924521565
1772366210021139700,7.6221396484375,-0.02893207997381687,0.003639315483579412,-0.0037645766979083417
1772366210031209500,7.63220947265625,-0.022943068692088127,0.010021563866594805,0.0063637263456359505
1772366210041279500,7.642279541015625,-0.029971359893679616,-0.009398746659979224,0.0025818331867456436
1772366210051350500,7.6523505859375,-0.02428220834136009,0.0056909690500702706,0.006646744538098573
1772366210061420500,7.662420654296875,-0.0248830968439579,0.0030711510736495255,-0.0017951397884637117
1772366210071490600,7.672490478515625,-0.026384149056673047,-0.006685295583354308,-0.0022087986232712862
1772366210081560600,7.682560546875,-0.022497078490257262,0.0010706066398881375,-0.004987944480404257
1772366210091631400,7.69263134765625,-0.028480829074978828,0.0020057868644595147,-0.00016125497631728648
1772366210101701400,7.702701416015625,-0.022336334970593452,-0.0020175412343349307,0.006349149831011891
1772366210111771600,7.712771728515625,-0.028174539604783055,0.00714641942223534,0.006295154621452093
1772366210121842700,7.7228427734375,-0.038055882149934765,-0.0009614928427617997,0.01024838575925678
1772366210131912400,7.732912353515625,-0.023546879804134366,-0.003221026139426976,0.004092712673731148
1772366210141982500,7.742982421875,-0.034325463449954983,-0.009701118006883188,0.0038278511924669145
1772366210152052500,7.753052490234375,-0.03193243083357811,0.002743891880661249,-0.003520940667763352
1772366210162123500,7.76312353515625,-0.02041091986596584,0.0007756148818414658,0.0019877032184973356
1772366210172193500,7.773193603515625,-0.02803717696070671,0.00039686296363361176,0.0034733751989901064
1772366210182263600,7.783263671875,-0.029388591569662094,0.009043101622723043,0.006842376708053052
1772366210192333600,7.79333349609375,-0.013977671948075294,0.0009195259977132082,-0.0015533303892239928
1772366210202404600,7.803404541015625,-0.011291209343075752,0.0037954741596709935,0.004870382515341043
1772366210212474600,7.813474609375,-0.027013094609975814,0.009764209838351235,0.0040437589654698965
1772366210222544400,7.82354443359375,-0.0243166951328516,0.009587574629811569,0.0048596784582361574
1772366210232614400,7.833614501953125,-0.013543372184038161,0.00031369645851664243,0.006968852631933987
1772366210242685400,7.843685546875,-0.016079028141498565,0.002318862268468365,-0.0012433511245995758
1772366210252755500,7.85375537109375,-0.025219196930527685,-0.003150390322320163,-0.0006447276443243027
1772366210262825500,7.863825439453125,-0.028209026396274563,0.004259420143300667,0.006772234081290662
1772366210272895500,7.8738955078125,-0.010379939717054367,0.00633608028688468,0.004279650080576539
1772366210282966500,7.883966552734375,-0.014728198054432868,0.0016313640614971517,0.0058600146071985364
1772366210293036500,7.89403662109375,-0.019072364738583564,0.012381406599422917,0.0008477028705179691
1772366210303106600,7.9041064453125,-0.018919804525375367,0.003103637704299763,0.003016059885546565
1772366210313177600,7.914177490234375,-0.020565818166732787,0.002710939459130168,0.007778196253441273
1772366210323247400,7.924247314453125,-0.015164835906028747,0.00993453403711319,0.0030164617443457246
1772366210333317600,7.934317626953125,-0.023535773888230322,0.0013328651721123605,0.0005330108981579541
1772366210343387600,7.9443876953125,-0.016199439650774,-0.004258150634821504,0.0023026143865659834
1772366210353458400,7.95445849609375,-0.013799977293610571,0.00044212687746621665,0.0055473319288343184
1772366210363528400,7.964528564453125,-0.019486790758371352,-0.00007686462849378585,0.012881547274440526
1772366210373598500,7.974598388671875,-0.01890051530301571,0.004216603914881125,0.004992912916466593
1772366210383669500,7.98466943359375,0.008635141876339911,0.00717211098591797,-0.0024059286305680868
1772366210393739500,7.994739501953125,-0.03685059801340103,0.005847693981742486,0.00366856897752732
1772366210403809500,8.0048095703125,-0.019794249272346496,0.004478679784014821,0.0033104031896218655
1772366210413879300,8.01487939453125,-0.008119009047746657,-0.0003347575128544122,0.016863273854367433
1772366210423950300,8.024950439453125,-0.016200608694553375,-0.0008198650155216455,0.012070011695846915
1772366210434020600,8.0350205078125,-0.005428454789519309,0.010241143167717381,0.001967391082830727
1772366210444090600,8.045090576171875,-0.0087140523314476,0.0032096736283507197,0.0019595365699380633
1772366210454160400,8.055160400390625,-0.009309095615148543,0.004897252255957573,0.000408178942091763
1772366210464231400,8.0652314453125,-0.016636662024259567,0.0086488964070566,0.00003678834643214941
1772366210474301700,8.0753017578125,-0.02187982337474823,0.008135101666022092,0.009491064585931599
1772366210484371500,8.085371337890624,-0.016045125871896743,0.004633623750554397,0.01262983753569424
1772366210494442500,8.0954423828125,-0.016342062991857528,0.0050719329694285985,0.0017558672240003943
1772366210504512500,8.105512451171874,-0.02083060658276081,-0.00020448219669051468,0.0021015753891319034
1772366210514582300,8.115582275390626,-0.004669160854816437,0.00143058079238981,0.013595285034365951
1772366210524652500,8.125652587890626,-0.00796118813753128,-0.001953463022178039,0.012829670956730842
1772366210534723600,8.1357236328125,-0.015747019708156586,0.008068201309116558,0.001793568885885179
1772366210544793600,8.145793701171876,-0.011858195576071739,0.005931782935466617,-0.0016918620770797132
1772366210554863400,8.15586328125,-0.00663490796983242,0.0037739929802250113,0.0036617739105597137
1772366210564934400,8.165934326171875,-0.011282441514730453,0.002131879195850342,0.006597681231983006
1772366210575004700,8.176004638671875,-0.012474281647801398,0.0010324300539679824,0.00416219771336764
1772366210585074400,8.186074462890625,-0.014119710767269134,0.006005642756121233,0.011778591001220046
1772366210595144400,8.19614453125,-0.010232640200853347,0.0003595448942389339,0.003482216092571616
1772366210605215500,8.206215576171875,-0.018907529565691947,0.003908104221289978,0.004801591595448553
1772366210615285500,8.216285400390625,-0.01412380242049694,0.007265607088804245,0.007960092158988118
1772366210625355500,8.22635546875,-0.010392214676737784,0.010177430281741544,0.004441708774492144
1772366210635426600,8.236426513671875,-0.020571078863739965,0.005838277699425816,-0.0010188947189599274
1772366210645496600,8.24649658203125,-0.018769582399725912,0.0030686485893093047,0.00571077886223793
1772366210655566000,8.256566162109374,-0.025498598393797874,0.010733137068897485,0.013600363068282604
1772366210665635800,8.2666357421875,-0.02235679323673248,0.0038915458121336994,0.005373765460215509
1772366210675707000,8.276706787109376,-0.01203939736187458,0.001265225029690191,0.005212400886043906
1772366210685777000,8.28677685546875,-0.018480244064331054,0.005222803549049422,0.0013373130183666944
1772366210695847000,8.296846923828125,-0.008747954601049423,0.005297942011337727,0.002652706465870142
1772366210705918000,8.30691796875,-0.028206688308715817,0.001138018453447148,0.0044694004990160465
1772366210715988000,8.316988037109375,-0.018780688315629956,-0.00020274689733050763,0.006691058603860437
1772366210726057700,8.3270576171875,-0.015787936240434647,0.000031070991698652504,-0.00035359921064227816
1772366210736127700,8.337127685546875,-0.015493337208032608,0.006454007578128949,0.0013309198101982473
1772366210746198800,8.34719873046875,-0.019826397976279258,0.0012421272818930447,0.007171316401474177
1772366210756269000,8.35726904296875,-0.022814473876357075,-0.0016389811123721301,0.005591171070560812
1772366210766338800,8.3673388671875,-0.015022797086834907,0.007920664330897852,0.00623458354063332
1772366210776409900,8.377409912109375,-0.030282910060882566,0.006894061229517683,0.005113872415013611
1772366210786479900,8.38747998046875,-0.02054945155382156,-0.0025661241609603166,0.008134645008295773
1772366210796550000,8.3975498046875,-0.024894202759861945,0.0011731719652190804,0.007461056595668196
1772366210806621000,8.407620849609375,-0.01935702689886093,0.004890502854762599,0.0010570347722619771
1772366210816691000,8.41769091796875,-0.01650806720852852,0.005263327355682849,0.007651501133851706
1772366210826760700,8.4277607421875,-0.004231938481330871,0.0022424542977008965,-0.00031169629767537115
1772366210836831000,8.4378310546875,-0.008721651116013526,0.0038051735697779802,0.0008907382946461438
1772366210846902000,8.447902099609376,-0.023829203876852986,-0.0009738043350633233,0.0038662104414775964
1772366210856972000,8.457971923828126,-0.017396540480852127,0.005321606014715507,0.008619030991755426
1772366210867041800,8.468041748046875,-0.01828968992829323,0.004586067414935678,0.0013935001850128173
1772366210877112800,8.47811279296875,-0.0307084419965744,0.00638664143034257,0.0046792803900316355
1772366210887182800,8.488182861328125,-0.0167833770185709,-0.005627575824502855,0.010403758984059095
1772366210897252900,8.4982529296875,-0.02575754159092903,-0.0013108542697038502,0.004392243609577417
1772366210907324000,8.508323974609375,-0.02530044547319412,0.005217003995925187,0.006842705501616001
1772366210917394000,8.518393798828125,-0.01871171473264694,-0.00038967517102137206,0.007414550572820007
1772366210927463700,8.528463623046875,-0.005243745872378349,0.006860652150260284,0.003376161902211606
1772366210937534000,8.538533935546875,-0.015117489632964134,0.0007735051231458782,0.007557246979139745
1772366210947605000,8.54860498046875,-0.04264320994019508,-0.0038102059379220006,0.011899842760711907
1772366210957675000,8.558675048828125,-0.018099720314145088,-0.0011864972376730292,0.008536576872691512
1772366210967744800,8.568744873046874,-0.0061287120133638375,0.006140712978411465,0.006329641412943602
1772366210977815800,8.57881591796875,-0.02348959665894508,0.005280260224174708,0.011365114829502998
1772366210987885800,8.5888857421875,-0.026025252616405484,0.005582421508524567,0.00929064664300531
1772366210997955800,8.598955810546874,-0.01779284632205963,0.006901322087366133,0.007547858096286654
1772366211008027000,8.60902685546875,-0.01883212624192238,-0.007346271109580993,0.00604191051274538
1772366211018097000,8.619096923828126,-0.012396540236473083,0.001553595250705257,0.008934088290296495
1772366211028166700,8.629166748046876,-0.03275017695724964,0.0029164537022821602,0.005870645599067211
1772366211038237700,8.63923779296875,-0.02332943766117096,-0.0047463542768731715,0.005723455680720507
1772366211048308000,8.649307861328126,-0.01779284632205963,0.007169115311233327,0.005298946658335626
1772366211058378000,8.6593779296875,-0.028572014489769933,0.0058753035078756505,0.0044455081667751075
1772366211068447700,8.66944775390625,-0.02303308506309986,0.002869573220098391,0.0073404989559203385
1772366211078518800,8.679518798828125,-0.024971359649300574,-0.0072907871958334,0.017229659481346606
1772366211088589000,8.689589111328125,-0.03393500282764435,-0.0017056166077964007,0.00828753401506692
1772366211098658800,8.699658935546875,-0.01986205381155014,0.0075421133420895785,0.009968984295986591
1772366211108729900,8.709729736328125,-0.021207623201608655,0.010088911748072131,0.009698898650333285
1772366211118800000,8.7197998046875,-0.012371990317106247,0.0010441022254526614,0.007452361832559109
1772366211128870000,8.729869873046875,-0.020894903990626334,0.00988762615546584,0.0056509384337812656
1772366211138941000,8.73994091796875,-0.021947627913951873,0.012869674173556268,0.010619557159207762
1772366211149011000,8.750010986328125,-0.02403963175714016,0.006807086198963225,0.009019611149281263
1772366211159081000,8.7600810546875,-0.02628770294487476,0.012847234012885018,0.0010239362202584743
1772366211169151700,8.77015185546875,-0.022700492107868193,0.006928456689463928,-0.003838482184335589
1772366211179221800,8.7802216796875,-0.0230009363591671,0.007241157634137198,0.011251352256722748
1772366211189292000,8.7902919921875,-0.025096447333693504,0.0026589900761842724,0.010054653285443782
1772366211199361800,8.80036181640625,-0.01595627854466438,0.006949481211183592,0.004932414900884032
1772366211209432800,8.810432861328126,-0.01999357123672962,0.0041555853094905615,0.009644903440773487
1772366211219502800,8.8205029296875,-0.028518822997808453,-0.0016611198789440096,0.009003829058259725
1772366211229572900,8.83057275390625,-0.026270167288184165,0.004777041676081717,0.007031688735075294
1772366211239644000,8.840643798828125,-0.02162964800596237,0.003312512948317453,0.010529942646995185
1772366211249714000,8.8507138671875,-0.016692776125669478,0.0024624171913135797,-0.0010551716087386011
1772366211259784000,8.860783935546875,-0.019690204375982283,0.0011104728593956678,0.0007881912356242537
1772366211269854700,8.870854736328125,-0.012359715357422828,-0.0008851579372305422,0.001489982829429209
1772366211279925000,8.880925048828125,-0.030315643286705014,0.00010598112512379884,0.010916275083459914
1772366211289995000,8.8909951171875,-0.024486791002750394,0.002770085767842829,0.010741283842734992
1772366211300066000,8.901066162109375,-0.017903320959210395,-0.002634778083534911,0.01435724585019052
1772366211310135800,8.9111357421875,-0.01954524294734001,0.005810668173292652,0.006982954222522675
1772366211320205800,8.921205810546875,-0.027772388544678686,0.011458957992261275,0.0013513780763372777
1772366211330275800,8.93127587890625,-0.017594693401455877,0.003873316035699099,0.00426507356595248
1772366211340347000,8.941346923828124,-0.028217209702730176,0.0059765262594912195,0.006997932595945894
1772366211350417000,8.9514169921875,-0.01923895347714424,0.006738943733042106,0.0016161664923653005
1772366211360487000,8.96148681640625,-0.016544892087578773,-0.00214961578194052,0.004932962890155613
1772366211370557700,8.9715576171875,-0.010414426508545875,-0.004871852953219786,-0.001457834125496447
1772366211380628000,8.9816279296875,-0.023290274694561956,0.004624088737228885,0.00019530337639153003
1772366211390698000,8.991697998046876,-0.012664835783839225,0.01575819868929684,0.0016990955354645846
1772366211400769000,9.00176904296875,-0.01729658723771572,0.008071196983801201,0.00554565142840147
1772366211410838800,9.0118388671875,-0.017442717710137366,0.0035759405243210494,0.010228913873806596
1772366211420908800,9.02190869140625,-0.017742577439546586,0.002514768433058634,0.007521006621979177
1772366211430979800,9.031979736328125,-0.016986206114292145,-0.002632138601876795,0.009606763387471438
1772366211441049900,9.0420498046875,-0.030299861195683477,-0.0036985987896099685,0.004712378942035138
1772366211451119900,9.052119873046875,-0.018637480452656743,0.006230985077749937,0.004817885143123567
1772366211461191000,9.06219091796875,-0.021334464451670646,0.001958878982812166,0.004721329433470964
1772366211471260700,9.0722607421875,-0.01925415104627609,0.003010643924912438,0.011273417958058416
1772366211481331000,9.0823310546875,-0.021654782447218895,0.010611337320134043,0.010703764843940734
1772366211491402000,9.092402099609375,-0.023151743006706235,-0.005273300760425627,0.009188355312310159
1772366211501472000,9.102471923828125,-0.02269756949841976,-0.002886524354899302,0.001938712977617979
1772366211511541800,9.112541748046874,-0.02449263622164726,-0.0001732285419013351,0.0027098069479689
1772366211521612000,9.122612060546874,-0.02404606149792671,0.011416068698605522,0.007869125939905642
1772366211531683000,9.13268310546875,-0.029282208585739135,-0.003213482153788209,0.008915200926735997
1772366211541752800,9.1427529296875,-0.026143910560011863,0.004454833117546513,0.007478957578539848
1772366211551822800,9.15282275390625,-0.010272972211241722,-0.0021566483109258113,0.004104695372469723
1772366211561894000,9.162893798828126,-0.018653262543678283,-0.0010573818321339785,-0.001136822010204196
1772366211571964000,9.1729638671875,-0.023885902500152587,0.0033778515357989814,0.002846950396336615
1772366211582034000,9.183033935546876,-0.01864683280289173,0.0029756182773038745,0.003040134880878031
1772366211592105000,9.19310498046875,-0.01655015278458595,0.002320104377483949,0.004724617369100451
1772366211602175000,9.203175048828125,-0.021783377262949943,0.0015211816852912306,0.006294570099562406
1772366211612244700,9.21324462890625,-0.0288175136834383,0.002170311510097235,0.0062769979102537034
1772366211622315800,9.223315673828125,-0.02103402020037174,0.0007408723620232194,0.00601125964615494
1772366211632386000,9.233385986328125,-0.01923603086769581,0.0009199643891304731,0.003836582488194108
1772366211642455800,9.243455810546875,-0.027926117801666258,-0.0041893140491563825,0.004177468347735702
1772366211652527600,9.253527587890625,-0.03048106298148632,0.004954535401146858,0.0057556774498894805
1772366211662597400,9.263597412109375,-0.020901333731412886,0.012799723343038931,0.00998469332177192
1772366211672667400,9.27366748046875,-0.01701075603365898,-0.006100691495276987,0.014167422366514802
1772366211682738400,9.283738525390625,-0.01955225721001625,0.007119449216919019,0.0026810192449018356
1772366211692808400,9.293808349609375,-0.027627427116036413,0.01119186802129261,-0.0006315393691882491
1772366211702878500,9.30387841796875,-0.021639584878087044,0.004939849288668483,0.009742920455150305
1772366211712949500,9.313949462890625,-0.02298164713680744,-0.0006720631758216769,0.009427899689227342
1772366211723019500,9.32401953125,-0.017884616258740424,0.007969115715660155,0.00981079805959016
1772366211733089500,9.334089599609374,-0.02251461414694786,-0.0016883001468144356,0.003892513926513493
1772366211743160600,9.34416064453125,-0.011582885766029357,-0.004488370060967281,0.002738485053181648
1772366211753230600,9.354230712890624,-0.025048516538739202,-0.001238875878881663,0.0036672903358936308
1772366211763300400,9.36430029296875,-0.023996377137303352,0.007585075700981542,0.009914842955954373
1772366211773371400,9.374371337890626,-0.022948329389095305,0.002450032633775845,0.006505619034357368
1772366211783441700,9.384441650390626,-0.015180033475160597,0.000669816419808194,0.012614165042527018
1772366211793511400,9.394511474609375,-0.022974048352241514,0.006344546721130609,0.010378222684003412
1772366211803581400,9.40458154296875,-0.025372926187515257,0.006213613817840814,0.0011428133595734833
1772366211813652500,9.414652587890625,-0.027914427363872528,0.00006985036581754684,0.013773198884539305
1772366211823722500,9.424722412109375,-0.02536883453428745,0.004799719298770651,0.008861205717176199
1772366211833792500,9.43479248046875,-0.021031682112812995,0.004613987468322739,-0.00045179888810962436
1772366211843863600,9.444863525390625,-0.019085808742046354,0.0026618670198600737,0.011231003588438034
1772366211853933600,9.45493359375,-0.03569441371560097,0.002197290848568082,0.0071827876435592766
1772366211864003300,9.46500341796875,-0.027907413101196286,-0.0007208433541469276,0.00325575039293617
1772366211874074400,9.475074462890625,-0.027603461718559263,-0.001044348820624873,0.005487820293940604
1772366211884144600,9.48514453125,-0.03045008332133293,-0.0030876364175695926,0.015268186682648956
1772366211894214400,9.49521435546875,-0.021469489008188247,0.005808129156334325,0.001226034663617611
1772366211904285400,9.505285400390624,-0.03613455869853496,-0.009646903601614758,0.00034187224023044107
1772366211914355500,9.51535546875,-0.03583352992534637,0.007120965320570394,0.013851086426340043
1772366211924425700,9.52542578125,-0.0344815307945013,0.0024180757260881362,0.006810995189100504
1772366211934496500,9.53549658203125,-0.0265519068390131,-0.002352307880343869,0.0024424612486734984
1772366211944566500,9.54556640625,-0.016975684720277787,-0.0004921856974251568,0.0015534034544602035
1772366211954636500,9.555636474609376,-0.019366379249095917,0.0024706918293144553,0.0062703489737585185
1772366211964707600,9.56570751953125,-0.02250292370915413,0.003942307884991169,0.008184913890808821
1772366211974777300,9.57577734375,-0.026239772149920463,0.0049686552580446,0.006931954687647521
1772366211984847600,9.58584765625,-0.0218985280752182,0.010254605437489225,0.0075758420817553995
1772366211994918700,9.595918701171875,-0.030730069306492802,0.008395223040087147,0.0034545609006658195
1772366212004988400,9.605988525390625,-0.02355330954492092,-0.001196169248316437,0.008855835422314703
1772366212015058400,9.616058349609375,-0.025206921970844266,-0.007034163819951937,0.005126987624913454
1772366212025129500,9.62612939453125,-0.030597967359423637,0.0010490797946695238,0.007463723476789892
1772366212035199500,9.636199462890625,-0.02537058809995651,0.005280114093702286,0.008861242249794303
1772366212045269500,9.64626953125,-0.03285305280983448,0.004513175708660856,0.008957834492065012
1772366212055340500,9.656340576171875,-0.033599487262964245,-0.0021192480431403964,0.0033030601333826778
1772366212065410600,9.66641064453125,-0.032709260424971576,0.012624595104996115,0.011528525230288505
1772366212075480600,9.67648046875,-0.027021862438321113,0.00991276972987689,0.00989423855934292
1772366212085551600,9.686551513671875,-0.03405073816180229,0.005286151108844206,0.008196019806712865
1772366212095621600,9.69662158203125,-0.02551321144104004,-0.003571273482358083,0.006620733314007521
1772366212105691400,9.70669140625,-0.020715455770492552,0.0027004180651158094,0.009974464188702403
1772366212115762400,9.716762451171874,-0.024008652096986768,0.003047505336580798,0.005465243135951459
1772366212125832400,9.72683251953125,-0.027307693642377853,0.000514242265606299,0.009986154626496135
1772366212135902500,9.73690234375,-0.017285481321811676,0.0069787895040586585,0.006312032691016793
1772366212145973500,9.746973388671876,-0.024479776740074156,0.0031200408498290927,0.005909333641640841
1772366212156043500,9.75704345703125,-0.0364466933876276,-0.0007565174557268619,0.006459478337690234
1772366212166113500,9.767113525390625,-0.031819618108868596,-0.0032393015816342082,0.004676284715346992
1772366212176183600,9.77718359375,-0.031524434554576874,-0.006772498942771926,0.011929945638030766
1772366212186254600,9.787254638671875,-0.03436462641656399,0.0038088998968247322,0.002583915545977652
1772366212196324600,9.79732470703125,-0.03570902676284313,0.0071905782243702554,0.00475114004984498
1772366212206394400,9.807394287109375,-0.03526654369235038,0.006339815747085959,0.0094060166509822
1772366212216465400,9.81746533203125,-0.03497077561616897,0.003981562183145434,0.010384433229081332
1772366212226535700,9.82753564453125,-0.03602116145193576,0.0023977909898851065,0.006148256964050233
1772366212236605400,9.83760546875,-0.030181787773966788,0.009627048123674467,-0.0009479118419811129
1772366212246676500,9.847676513671875,-0.03392214334607124,0.007052375330077484,0.00911788389198482
1772366212256746500,9.85774658203125,-0.02913081741631031,0.007970522221457213,-0.0009837503403425216
1772366212266816500,9.86781640625,-0.0219464588701725,0.0023756065575405954,0.0020365107962861655
1772366212276887300,9.87788720703125,-0.027926702323555944,0.005701234715757891,0.009641980831325054
1772366212286957600,9.88795751953125,-0.027924948757886883,0.0022906134215183553,0.003998641182109713
1772366212297027600,9.898027587890626,-0.02612169872820377,0.005432117184484377,-0.002102050313167274
1772366212307098400,9.908098388671876,-0.030908348482847212,0.008703019480779766,-0.0019261822896078228
1772366212317168400,9.91816845703125,-0.02162614087462425,0.006281272226572036,0.015871522870659828
1772366212327238700,9.92823876953125,-0.022524551019072532,0.009983752606855705,0.008406301556527614
1772366212337309700,9.938309814453126,-0.027320553123950958,0.011431832523318006,0.006458090098202228
1772366212347379500,9.94837939453125,-0.01879062518775463,0.005646380989672616,-0.0035466961635276673
1772366212357449500,9.958449462890625,-0.028979426246881483,0.0036453068329486992,0.00287581116463989
1772366212367520500,9.9685205078125,-0.0029489129334688184,0.007566672394610941,0.002099566095136106
1772366212377590500,9.978590576171875,-0.038709962144494056,0.000037500732485204934,0.00723060884065926
1772366212387660500,9.98866064453125,-0.04021276792287826,-0.0034219007400795817,-0.0023106150299310683
1772366212397731600,9.998731689453125,-0.03393850995898247,-0.001210873627103865,0.006299246274679899
1772366212407801300,10.00880126953125,-0.028707623568177222,-0.0030699363640975205,0.0025545067884027955
1772366212417871400,10.018871337890625,-0.030648820763826367,0.00736383416573517,-0.0006566007452085613
1772366212427942400,10.0289423828125,-0.030194647255539893,0.004846133990073576,0.0003672258771955967
1772366212438012700,10.0390126953125,-0.031841245418787,-0.001084671697858721,0.001381225225329399
1772366212448082400,10.04908251953125,-0.03438800729215145,0.007181435936689376,0.0048777621041983365
1772366212458153500,10.059153564453124,-0.034088147562742234,0.00028149295565672215,0.004877944767288863
1772366212468223500,10.069223388671874,-0.03707973059415817,0.012837406738614663,0.0066998994974419475
1772366212478293500,10.07929345703125,-0.02601063956916332,0.001545338879013434,-0.00208528184145689
1772366212488363500,10.089363525390626,-0.023172785794734953,0.0016835600396152585,-0.004124094192683696
1772366212498434600,10.0994345703125,-0.029324878683686256,-0.00914710998646915,0.0024043211953714487
1772366212508504300,10.10950439453125,-0.027392449316382406,0.003182328963698819,0.01185698999967426
1772366212518574600,10.11957470703125,-0.03158990100622177,0.003877060629054904,0.010209405455738306
1772366212528645600,10.129645751953126,-0.04565992741286754,0.010917224931530654,0.0013289105162024497
1772366212538715600,10.139715576171875,-0.032794016098976135,-0.0012711433138232677,0.005318308945931494
1772366212548785400,10.149785400390625,-0.02098082870841026,0.002588472990086302,0.004407295048236846
1772366212558856400,10.1598564453125,-0.0250268892288208,0.004708031560480595,0.0017078633638098835
1772366212568926500,10.169926513671875,-0.03296703457832336,0.006715444126445799,-0.0032798619208857416
1772366212578996500,10.17999658203125,-0.02055821938216686,-0.0006394395478535443,0.007530285906977951
1772366212589067500,10.190067626953125,-0.02670563609600067,0.005389036094583571,0.002931815668195486
1772366212599137500,10.200137451171875,-0.034200960287451745,0.013934170733066275,-0.002154986076802015
1772366212609207300,10.210207275390625,-0.038545126971602436,-0.00032722266037017104,0.0018005466159433125
1772366212619278300,10.2202783203125,-0.024329554614424705,0.005450301295146346,0.0013374226162210106
1772366212629348600,10.2303486328125,-0.027181436914205548,0.006822502963803708,0.003987790994532406
1772366212639418600,10.240418701171874,-0.03826747907400131,0.0023747389078605918,0.005806348191201687
1772366212649489400,10.250489501953124,-0.03782382695972919,0.005642755127325654,-0.0046498716324567795
1772366212659559400,10.260559326171874,-0.031529110729694367,0.0036842049380764364,0.0036219898894429203
1772366212669629700,10.270629638671876,-0.03229249631762504,0.0027049755092244596,0.0034004195606335995
1772366212679700700,10.28070068359375,-0.017938976794481275,-0.0005715345439501106,0.000683817545697093
1772366212689770500,10.2907705078125,-0.03559153786301612,0.0041728104389272625,-0.00012665858697146176
1772366212699840500,10.300840576171876,-0.03567337092757225,0.010513311172602697,0.00046392771732062097
1772366212709911600,10.31091162109375,0.041805590072274204,0.011124090881552546,-0.00892663563620299
1772366212719981300,10.320981201171875,-0.08673311155736446,0.003921603023679927,0.026242292900569734
1772366212730051600,10.331051513671875,-0.06786182234883308,0.0050330622637644404,0.0016140841331332922
1772366212740122600,10.34112255859375,-0.05855038864612579,0.002093510813685134,0.0027936493065208196
1772366212750192400,10.3511923828125,-0.030544775867462157,0.0033640970050822943,0.002378967558406293
1772366212760262400,10.361262451171875,-0.01346504625082016,-0.00014919007918797432,0.004740582123212516
1772366212770332700,10.371332763671875,-0.0034270518392324444,0.0024421050556469705,0.0028947350608184933
1772366212780403700,10.38140380859375,-0.033786534267663954,-0.0005274214075878263,0.010429843273386358
