time,seconds_elapsed,z,y,x
1772366269307703000,0.113703125,0.00030931364744901657,-0.0013128845021128654,-0.000027239322662353516
1772366269317773000,0.12377294921875,0.0013748439960181713,-0.0017570997588336468,-0.00008662790060043335
1772366269327843000,0.133843017578125,-0.00037810299545526505,-0.0008840751834213734,-0.0009919153526425362
1772366269337913000,0.1439130859375,-0.002271610777825117,-0.0027919639833271503,0.003498706966638565
1772366269347983000,0.153983154296875,0.00015563098713755608,-0.00037228967994451523,0.0010321037843823433
1772366269358054100,0.16405419921875,-0.0015431991778314114,0.0002889730967581272,-0.0020832614973187447
1772366269368124200,0.174124267578125,-0.0008156648837029934,-0.0020854028407484293,-0.0009413091465830803
1772366269378194200,0.184194091796875,0.00017662858590483665,0.0006275591440498829,-0.0022103050723671913
1772366269388264200,0.19426416015625,-0.0001971423625946045,0.00003983033820986748,0.00007212162017822266
1772366269398334000,0.204333984375,-0.00008528959006071091,0.0008129463531076908,0.0009781289845705032
1772366269408404200,0.214404296875,-0.0008588638156652451,-0.0007946332916617393,-0.0017886543646454811
1772366269418474200,0.22447412109375,-0.0009941523894667625,0.00003440864384174347,-0.0012624142691493034
1772366269428545300,0.234545166015625,0.00022944249212741852,0.0005943006835877895,-0.001549743115901947
1772366269438615000,0.244614990234375,0.0005945614539086819,-0.0031892522238194942,-0.0008615823462605476
1772366269448685000,0.25468505859375,-0.0020565390586853027,0.0009765462018549442,-0.0027872398495674133
1772366269458755000,0.264755126953125,-0.00028393929824233055,0.0009544421918690205,-0.001749139279127121
1772366269468825000,0.2748251953125,-0.002115996088832617,-0.0008535538800060749,0.00022746529430150986
1772366269478895000,0.28489501953125,-0.00028986670076847076,0.00043728016316890717,-0.0012479256838560104
1772366269488966100,0.294966064453125,0.0026395865716040134,-0.003997087944298983,0.001934749074280262
1772366269499036200,0.3050361328125,-0.0011729947291314602,-0.0014529703184962273,0.000017805956304073334
1772366269509106200,0.315106201171875,-0.00039862608537077904,-0.000011220108717679977,0.001865302212536335
1772366269519176200,0.32517626953125,0.00200221361592412,-0.0011308128014206886,-0.00040157977491617203
1772366269529246200,0.33524609375,0.001628858968615532,-0.0008808174170553684,-0.0008788015693426132
1772366269539316200,0.345316162109375,0.0007090033032000065,0.0037632030434906483,0.0002993810921907425
1772366269549386000,0.355385986328125,0.0016141613014042377,-0.0007841284386813641,0.0011091651394963264
1772366269559457000,0.36545703125,0.00026313960552215576,0.0015546595677733421,-0.002707943320274353
1772366269569527000,0.375527099609375,0.000532323494553566,0.0008509685285389423,-0.0016059977933764458
1772366269579597300,0.385597412109375,0.0037603413220494986,-0.0004888679832220078,-0.0011567221954464912
1772366269589667000,0.3956669921875,-0.000422788318246603,0.0014181765727698803,0.0016481010243296623
1772366269599737000,0.405737060546875,0.0005396781489253044,-0.0016154299955815077,-0.0003418130800127983
1772366269609807000,0.41580712890625,0.0017980593256652355,0.0007626507431268692,0.0013881810009479523
1772366269619877000,0.425877197265625,-0.0019295671954751015,-0.000528982374817133,-0.0004451386630535126
1772366269629948200,0.4359482421875,0.002287218812853098,-0.0008088052272796631,-0.0005197273567318916
1772366269640018200,0.44601806640625,-0.00025077350437641144,0.0010197209194302559,-0.00002517830580472946
1772366269650088200,0.456088134765625,0.0017446777783334255,-0.003174429526552558,-0.0020788097754120827
1772366269660158200,0.466158203125,0.00059871980920434,0.0018200627528131008,-0.0004992885515093803
1772366269670228200,0.476228271484375,0.0005963072180747986,-0.0034326049499213696,-0.0014030691236257553
1772366269680298000,0.486298095703125,-0.0024788444861769676,0.0005155312828719616,-0.0028369156643748283
1772366269690369000,0.496369140625,-0.00026267580687999725,-0.001487241592258215,0.0006298720836639404
1772366269700439300,0.506439208984375,0.001558393705636263,-0.0006462153978645802,-0.0009776121005415916
1772366269710509600,0.516509521484375,0.0003939559683203697,-0.0009819641709327698,0.0005215974524617195
1772366269720579600,0.52657958984375,-0.0008276356384158134,0.00047451863065361977,0.0015897909179329872
1772366269730649300,0.5366494140625,-0.0007786829955875874,-0.0022660254035145044,-0.00021193362772464752
1772366269740719600,0.5467197265625,0.0011198841966688633,-0.0008420329540967941,-0.0010233987122774124
1772366269750789600,0.55678955078125,-0.0003073541447520256,0.0010066921822726727,-0.0005689701065421104
1772366269760860700,0.566860595703125,0.0012135771103203297,-0.0011794967576861382,-0.00034526456147432327
1772366269770930400,0.576930419921875,-0.00016637099906802177,-0.000304556917399168,0.0012211715802550316
1772366269781000700,0.587000732421875,-0.0023831864818930626,-0.0024124491028487682,0.0028678039088845253
1772366269791070700,0.59707080078125,-0.0022244704887270927,0.0017741033807396889,-0.0018932055681943893
1772366269801140500,0.607140380859375,-0.0014036837965250015,-0.001128209289163351,0.0020839590579271317
1772366269811210800,0.617210693359375,-0.0019298093393445015,-0.0012631926219910383,-0.001576881855726242
1772366269821280500,0.627280517578125,0.0015450832433998585,0.00036133546382188797,0.002922794781625271
1772366269831351600,0.6373515625,0.0013009412214159966,0.0026083034463226795,-0.0027651796117424965
1772366269841421600,0.647421630859375,-0.0007070824503898621,-0.00021624518558382988,-0.0014051031321287155
1772366269851491600,0.65749169921875,0.0009083547629415989,0.0012821569107472897,0.0027552079409360886
1772366269861561600,0.6675615234375,0.0020841406658291817,-0.0004145428538322449,0.00011894479393959045
1772366269871631600,0.677631591796875,0.0008314703591167927,0.001128150150179863,0.0013770200312137604
1772366269881701400,0.687701416015625,-0.0010575102642178535,-0.0005776043981313705,-0.0014704326167702675
1772366269891771600,0.697771728515625,0.001574813388288021,-0.0008424269035458565,0.0016919728368520737
1772366269901842700,0.7078427734375,0.0007138131186366081,-0.001026185229420662,0.0012616058811545372
1772366269911912700,0.71791259765625,-0.000982731580734253,-0.0009801038540899754,0.0017308779060840607
1772366269921982500,0.727982421875,0.0021123941987752914,-0.0009516081772744656,-0.0006949948146939278
1772366269932052700,0.738052734375,0.0009748735465109348,0.0012568640522658825,0.001149025745689869
1772366269942122800,0.748122802734375,0.0016467887908220291,-0.0037964843213558197,-0.0017114756628870964
1772366269952192500,0.758192626953125,0.0006363033317029476,-0.00032593216747045517,0.001955011859536171
1772366269962262500,0.768262451171875,0.000825387891381979,0.0020711789838969707,-0.001762494444847107
1772366269972333600,0.77833349609375,-0.000996978022158146,-0.002689162502065301,-0.0018764017149806023
1772366269982403600,0.788403564453125,0.000733544584363699,-0.001880094176158309,-0.0026191575452685356
1772366269992473600,0.7984736328125,0.0019342214800417423,-0.0023911120370030403,0.0008280007168650627
1772366270002543600,0.808543701171875,-0.00140325166285038,-0.0006744386628270149,0.0018482571467757225
1772366270012613600,0.818613525390625,0.0012308694422245026,-0.0020362527575343847,-0.00002804398536682129
1772366270022683600,0.82868359375,-0.000006701797246932983,-0.0002535330131649971,0.0009424127638339996
1772366270032753700,0.838753662109375,0.0009113368578255177,-0.0013268175534904003,0.00008400809019804001
1772366270042824400,0.848824462890625,-0.0010490156710147858,0.0022335625253617764,-0.000926128588616848
1772366270052894700,0.858894775390625,0.00016093114390969276,-0.0017507798038423061,0.000002041459083557129
1772366270062964700,0.86896484375,0.00007917219772934914,-0.0011268011294305325,-0.0007103541865944862
1772366270073034500,0.879034423828125,-0.00028834398835897446,0.0007333955727517605,-0.0011101160198450089
1772366270083104500,0.8891044921875,-0.0024439068511128426,-0.0008397339843213558,0.0017059100791811943
1772366270093174800,0.8991748046875,-0.000016443897038698196,-0.0011644228361546993,0.0028394758701324463
1772366270103244500,0.90924462890625,0.0015116780996322632,0.0007421341724693775,-0.0009914813563227654
1772366270113315600,0.919315673828125,0.0003936672583222389,0.001015248242765665,-0.001414833590388298
1772366270123385600,0.929385498046875,0.0004160376265645027,0.0006754291243851185,-0.0029815705493092537
1772366270133455600,0.93945556640625,0.0003301864489912987,-0.001183986198157072,-0.0016885530203580856
1772366270143525600,0.949525634765625,0.0006774626672267914,0.0003015249967575073,0.00043132342398166656
1772366270153595600,0.959595703125,0.003144816029816866,0.0005230004899203777,-0.000029977411031723022
1772366270163665400,0.96966552734375,-0.001184685155749321,-0.0006658346392214298,0.002059272490441799
1772366270173735700,0.979735595703125,-0.00019257189705967903,0.0004307478666305542,0.00003754720091819763
1772366270183805700,0.9898056640625,-0.0032512126490473747,0.00039373012259602547,-0.0006921589374542236
1772366270193876500,0.99987646484375,0.0023986026644706726,-0.000537666492164135,-0.001957302913069725
1772366270203946500,1.009946533203125,-0.00017028255388140678,-0.0009014541283249855,-0.0021080374717712402
1772366270214016800,1.020016845703125,0.0006978632882237434,0.00009500840678811073,-0.0018562143668532372
1772366270224086500,1.03008642578125,0.0008560549467802048,-0.0013177983928471804,-0.0014775125309824944
1772366270234156500,1.040156494140625,0.0004345392808318138,-0.002121629659086466,0.00023826491087675095
1772366270244226800,1.050226806640625,-0.0009308638982474804,-0.00013810722157359123,0.0010489309206604958
1772366270254296600,1.060296630859375,-0.00305526377633214,0.0014113797806203365,0.0001202411949634552
1772366270264367600,1.07036767578125,0.0005045831203460693,0.000487262848764658,-0.0013322466984391212
1772366270274437600,1.080437744140625,-0.001397781539708376,0.0014964481815695763,0.0013511758297681808
1772366270284507400,1.09050732421875,0.00014392193406820297,0.0002048150636255741,0.000041167251765728
1772366270294577700,1.10057763671875,0.0012889672070741653,-0.0018834834918379784,0.0006884373724460602
1772366270304647700,1.110647705078125,-0.0005547390319406986,-0.0013697596732527018,-0.0005126483738422394
1772366270314717400,1.120717529296875,-0.00005582952871918678,-0.0021001650020480156,0.0017533395439386368
1772366270324787700,1.13078759765625,0.000310355331748724,0.0004956182092428207,0.0013349568471312523
1772366270334857700,1.140857666015625,-0.0010870452970266342,-0.0005241204053163528,-0.0005219727754592896
1772366270344928500,1.150928466796875,0.0002948688343167305,-0.004320456646382809,-0.0019584819674491882
1772366270354998500,1.16099853515625,-0.0008018538355827332,-0.003255844349041581,-0.0004988843575119972
1772366270365068800,1.17106884765625,-0.0012162411585450172,-0.0009263772517442703,-0.0006853053346276283
1772366270375138600,1.181138671875,0.00021565938368439674,0.0011557461693882942,0.0007341140881180763
1772366270385208600,1.19120849609375,0.0008803843520581722,0.0004960810765624046,-0.0014246441423892975
1772366270395278600,1.201278564453125,0.00011094892397522926,-0.0008067209273576736,0.0015144161880016327
1772366270405348600,1.2113486328125,0.0027032699435949326,0.0006241952069103718,0.0001865644007921219
1772366270415419600,1.221419677734375,-0.003006532322615385,0.000264591071754694,-0.001552279107272625
1772366270425489700,1.23148974609375,0.0001506451517343521,-0.0030864644795656204,-0.0016255155205726624
1772366270435559400,1.241559326171875,-0.00017902115359902382,0.00509833637624979,0.002110319212079048
1772366270445629700,1.251629638671875,0.0004502837546169758,0.0017443508841097355,0.0001414446160197258
1772366270455699700,1.26169970703125,0.0033224979415535927,0.0011982070282101631,-0.00007751584053039551
1772366270465769500,1.27176953125,-0.0012325728312134743,-0.0010385820642113686,0.0007539233192801476
1772366270475839500,1.281839599609375,-0.0010857488960027695,-0.0006369417533278465,-0.0008278926834464073
1772366270485909800,1.29190966796875,0.00020215613767504692,-0.0018398917745798826,-0.002113666385412216
1772366270495980500,1.30198046875,-0.0014288891106843948,0.0007511288858950138,0.00024274922907352448
1772366270506050600,1.312050537109375,-0.00035377079620957375,0.0017740488983690739,-0.0024907197803258896
1772366270516120600,1.32212060546875,0.0007938682101666927,0.0028403839096426964,0.0029269251972436905
1772366270526190600,1.332190673828125,-0.0005848505534231663,0.0007745698094367981,0.00014472100883722305
1772366270536260600,1.342260498046875,0.00023590214550495148,-0.0026535855140537024,-0.0008739475160837173
1772366270546330600,1.35233056640625,0.0013469727709889412,-0.001513219904154539,-0.002746948041021824
1772366270556400600,1.362400634765625,0.0013395287096500397,-0.0014529679901897907,-0.0010244837030768394
1772366270566471700,1.3724716796875,0.00019756518304347992,0.00011083995923399925,-0.00012326985597610474
1772366270576541700,1.382541748046875,-0.0012088771909475327,0.003516046330332756,-0.00028907228261232376
1772366270586611500,1.392611572265625,-0.0011457595974206924,0.0018054977990686893,-0.00006589945405721664
1772366270596681500,1.402681396484375,-0.0019781719893217087,0.0014265570789575577,0.0004113903269171715
1772366270606751700,1.412751708984375,-0.00047721387818455696,-0.0033484906889498234,0.0009232498705387115
1772366270616821500,1.422821533203125,-0.0005291416309773922,0.003178093582391739,0.00216106791049242
1772366270626891500,1.4328916015625,-0.001068964134901762,0.002033200580626726,-0.0035029426217079163
1772366270636961800,1.4429619140625,-0.00014391588047146797,0.0014231535606086254,0.0016051074489951134
1772366270647032600,1.453032470703125,-0.00028026988729834557,-0.0029023524839431047,0.001211758702993393
1772366270657102600,1.4631025390625,-0.001255993265658617,-0.00300750439055264,0.00173984095454216
1772366270667172600,1.473172607421875,-0.0022477549500763416,-0.0005249055102467537,-0.0006087999790906906
1772366270677242600,1.48324267578125,-0.0005864682607352734,0.0016803769394755363,-0.0010447297245264053
1772366270687312600,1.493312744140625,0.00042073894292116165,0.0005594524554908276,-0.0008322093635797501
1772366270697382700,1.503382568359375,0.0005731172859668732,-0.001264437334612012,0.0000957101583480835
1772366270707452400,1.513452392578125,0.0012777894735336304,0.0035934350453317165,-0.0014206934720277786
1772366270717522700,1.523522705078125,-0.000258762389421463,-0.00011367117986083031,-0.0006644371896982193
1772366270727593700,1.53359375,0.003640637965872884,-0.002929964102804661,0.0013566361740231514
1772366270737663500,1.54366357421875,-0.000016444362699985504,-0.00027069542557001114,0.0013050837442278862
1772366270747733500,1.5537333984375,-0.0009597362950444221,0.0000432915985584259,-0.0017921729013323784
1772366270757803800,1.5638037109375,-0.000929608941078186,-0.0007958789356052876,0.0006014211103320122
1772366270767873500,1.57387353515625,0.00089598773047328,-0.0000693686306476593,-0.00011550169438123703
1772366270777943600,1.583943603515625,0.0002902951091527939,-0.0021985142957419157,-0.0017278781160712242
1772366270788013800,1.594013916015625,-0.00021490640938282013,0.0012614643201231956,0.0004399344325065613
1772366270798083600,1.60408349609375,0.0025852620601654053,-0.0011569764465093613,0.0015235180035233498
1772366270808154600,1.614154541015625,-0.0010797805152833462,0.00022919895127415657,-0.00021792296320199966
1772366270818224600,1.624224609375,0.0014537903480231762,0.001839307602494955,-0.002101792022585869
1772366270828294400,1.63429443359375,-0.0013739545829594135,0.0016843113116919994,-0.0009182840585708618
1772366270838364700,1.64436474609375,0.0007941047661006451,0.0016074073500931263,-0.0010368814691901207
1772366270848434700,1.6544345703125,-0.002419531811028719,-0.0011114138178527355,0.00194612517952919
1772366270858504400,1.66450439453125,0.00033289752900600433,0.0009660441428422928,0.0008199950680136681
1772366270868574700,1.67457470703125,-2.6402994990348816e-7,0.0015399553813040257,0.0016610212624073029
1772366270878644700,1.684644775390625,-0.0019486593082547188,-0.0005812086164951324,-0.00029442552477121353
1772366270888715500,1.694715576171875,0.00019944598898291588,-0.0012392755597829819,-0.002067025750875473
1772366270898785500,1.70478564453125,-0.00044502969831228256,-0.0019321292638778687,0.002880232408642769
1772366270908855600,1.71485546875,-0.000028245151042938232,-0.0005363668315112591,-0.00019012577831745148
1772366270918925600,1.724925537109375,0.00044215377420186996,-0.0003088163211941719,-0.002471642568707466
1772366270928995600,1.73499560546875,-0.0003504031337797642,-0.0005085533484816551,-0.002027960494160652
1772366270939065600,1.745065673828125,-0.0012999549508094788,-0.001883313525468111,0.0005691275000572205
1772366270949135600,1.755135498046875,-0.0010386994108557701,-0.000255056656897068,-0.0009406181052327156
1772366270959205600,1.76520556640625,-0.00020913546904921532,-0.002314710058271885,-0.0012450041249394417
1772366270969276700,1.775276611328125,0.0003724987618625164,-0.0017804799135774374,-0.0005576424300670624
1772366270979346400,1.785346435546875,0.0020978981629014015,-0.001174955628812313,-0.0004152478650212288
1772366270989416700,1.795416748046875,-0.00141454441472888,-0.003126520197838545,0.001417272724211216
1772366270999486700,1.80548681640625,-0.00004780711606144905,-0.0005967984907329082,-0.0028187865391373634
1772366271009556500,1.815556396484375,-0.0009892340749502182,-0.00005777459591627121,0.0002537025138735771
1772366271019626500,1.82562646484375,0.0012242547236382961,-0.0004910738207399845,0.0003759274259209633
1772366271029696800,1.83569677734375,-0.00031398702412843704,-0.0006378139369189739,0.0016944576054811478
1772366271039766500,1.8457666015625,-0.001832667738199234,-0.0019298468250781298,-0.0003554895520210266
1772366271049837600,1.855837646484375,-0.00007498171180486679,-0.000003848690539598465,-0.0005174092948436737
1772366271059907600,1.865907470703125,-0.00014154938980937004,0.0011701765470206738,0.0019648224115371704
1772366271069977600,1.8759775390625,0.00253546005114913,0.0005954666994512081,0.0019195480272173882
1772366271080047600,1.886047607421875,-0.0013039293698966503,-0.00036119623109698296,-0.00013373792171478271
1772366271090117600,1.89611767578125,0.0006191390566527843,-0.0009116712026298046,0.0003672027960419655
1772366271100187600,1.906187744140625,0.0005864882841706276,-0.0006277016364037991,-0.00029666535556316376
1772366271110257700,1.916257568359375,-0.0011618766002357006,-0.0006681815721094608,-0.0003603147342801094
1772366271120327400,1.926327392578125,-0.00038398895412683487,-0.0014537130482494831,-0.001223832368850708
1772366271130398500,1.9363984375,-0.002388816326856613,0.0010736268013715744,0.0001753922551870346
1772366271140468500,1.946468505859375,0.002731907647103071,-0.0019941958598792553,0.0016894834116101265
1772366271150538800,1.956538818359375,0.0001393202692270279,-0.0003140075132250786,0.0002692202106118202
1772366271160608500,1.9666083984375,-0.0010887538082897663,-0.0006977934390306473,0.0006691822782158852
1772366271170678500,1.976678466796875,0.001132854726165533,-0.0024062113370746374,0.0016015544533729553
1772366271180748800,1.986748779296875,0.0018206196837127209,-0.0004829573445022106,-0.002996940165758133
1772366271190818600,1.996818603515625,-0.0005463976413011551,-0.0003505982458591461,0.0029155435040593147
1772366271200888600,2.006888671875,0.0004881834611296654,-0.000014774035662412643,0.0007769055664539337
1772366271210959600,2.016959716796875,0.0014764824882149696,0.00002011377364397049,0.003869900479912758
1772366271221029600,2.027029541015625,-0.0016706590540707111,-0.0011727535165846348,-0.00026093702763319016
1772366271231099600,2.037099609375,0.00023536477237939835,0.002402007579803467,0.0002607759088277817
1772366271241169700,2.047169677734375,0.0011823391541838646,-0.0005291858687996864,-0.0018693236634135246
1772366271251239400,2.057239501953125,-0.0008650990203022957,-0.0005667363293468952,0.000042825937271118164
1772366271261309700,2.067309814453125,0.0003255000337958336,-0.002059080172330141,-0.0010306909680366516
1772366271271379500,2.07737939453125,0.0010328353382647038,-0.002254822524264455,-0.0009076530113816261
1772366271281449500,2.087449462890625,0.00020445836707949638,-0.0021850052289664745,-0.0010590534657239914
1772366271291520500,2.0975205078125,0.0002627819776535034,-0.000977527815848589,-0.0013956772163510323
1772366271301590800,2.1075908203125,-0.001574499998241663,0.0005539455451071262,-0.0009124316275119781
1772366271311660500,2.11766064453125,0.0012878659181296825,0.002041054889559746,-0.00015609338879585266
1772366271321730600,2.12773046875,0.0003390992060303688,-0.005588621366769075,0.001963343471288681
1772366271331800600,2.137800537109375,-0.000007644761353731155,-0.0010466002859175205,0.00006477534770965576
1772366271341870600,2.14787060546875,-0.001152904238551855,-0.002208366757258773,0.001499340869486332
1772366271351940600,2.157940673828125,-0.0021915375255048275,0.0013309740461409092,0.0006532538682222366
1772366271362010400,2.16801025390625,-0.00004077469930052757,-0.00043513812124729156,0.0003885030746459961
1772366271372081400,2.178081298828125,0.001078817993402481,-0.001525702653452754,-0.0011995406821370125
1772366271382151700,2.188151611328125,-0.001989944837987423,-0.00038728537037968636,-0.0009895721450448036
1772366271392221700,2.1982216796875,0.000015682075172662735,0.0010907691903412342,-0.00023909378796815872
1772366271402291500,2.20829150390625,0.0012642592191696167,0.0018187393434345722,0.0005470141768455505
1772366271412361700,2.21836181640625,0.0014666593633592129,-0.001251086127012968,0.0005038706585764885
1772366271422431500,2.228431396484375,0.00000589294359087944,-0.0011240001767873764,-0.001798924058675766
1772366271432501500,2.23850146484375,-0.0009669600985944271,-0.005423940252512693,-0.00047053955495357513
1772366271442571500,2.248571533203125,-0.00208802567794919,0.0010366770438849926,0.0003911992534995079
1772366271452641500,2.2586416015625,-0.0009433985687792301,0.0010233609937131405,-0.0006567547097802162
1772366271462712600,2.268712646484375,0.0006148200482130051,0.0018539992161095142,0.0015033865347504616
1772366271472782600,2.278782470703125,-0.00031702034175395966,-0.0012840037234127522,-0.0007965192198753357
1772366271482852600,2.2888525390625,-0.0007463260553777218,-0.0006182589568197727,0.0021624406799674034
1772366271492922600,2.298922607421875,-0.001402262132614851,-0.0009487573988735676,0.001106496900320053
1772366271502992600,2.30899267578125,-0.00027782050892710686,-0.0011433283798396587,-0.0007350482046604156
1772366271513062400,2.3190625,-0.0013087298721075058,0.001552855595946312,-0.00021972600370645523
1772366271523132700,2.329132568359375,0.0009721014648675919,0.0000803256407380104,0.00043562520295381546
1772366271533202700,2.33920263671875,-0.00046280957758426666,-0.0006392607465386391,-0.0003683837130665779
1772366271543273700,2.349273681640625,-0.001989342737942934,-0.001121005043387413,-0.0002630101516842842
1772366271553343500,2.359343505859375,-0.000689187552779913,-0.0013545642141252756,-0.0010481104254722595
1772366271563413500,2.36941357421875,0.0015073008835315704,0.00037411367520689964,0.0006531346589326859
1772366271573483800,2.37948388671875,0.003484698012471199,0.0004356326535344124,0.0016526198014616966
1772366271583553500,2.389553466796875,0.002412624191492796,0.0002337615005671978,0.00047884322702884674
1772366271593623600,2.39962353515625,-0.00020180130377411842,-0.0021463055163621902,0.0012964336201548576
1772366271603693600,2.409693603515625,0.0017287242226302624,0.000980511773377657,0.0008756546303629875
1772366271613763600,2.419763671875,-0.0008249660022556782,0.00225166417658329,-0.0004160115495324135
1772366271623834600,2.429834716796875,-0.0011160317808389664,-0.0022584812249988317,0.000898570753633976
1772366271633904600,2.439904541015625,-0.00012720050290226936,-0.0016076045576483011,0.00017658807337284088
1772366271643974700,2.449974609375,0.0001379242166876793,0.0013536480255424976,0.0003730570897459984
1772366271654044700,2.460044677734375,0.00037174997851252556,-0.0005744807422161102,0.0011309925466775894
1772366271664114400,2.470114501953125,-0.0005041481927037239,0.0013562291860580444,-0.0006349207833409309
1772366271674184400,2.480184326171875,-0.0021981848403811455,0.01770058088004589,0.0019230451434850693
1772366271684254700,2.490254638671875,-0.0007352340035140514,-0.0022699241526424885,0.0013617714866995811
1772366271694324500,2.500324462890625,0.000628836452960968,-0.010737711563706398,0.0007116934284567833
1772366271704394500,2.51039453125,-0.0013810978271067142,-0.0021743089891970158,-0.0021555600687861443
1772366271714465500,2.520465576171875,0.0005297204479575157,0.005034601781517267,0.002148641273379326
1772366271724535600,2.53053564453125,-0.0006932918913662434,-0.0025202936958521605,0.000359916128218174
1772366271734605600,2.54060546875,-0.000029365532100200653,-0.0017322641797363758,-0.0005325097590684891
1772366271744675300,2.55067529296875,0.0002553444355726242,-0.0009757648222148418,-0.0015048198401927948
1772366271754745600,2.56074560546875,0.00046360399574041367,-0.00043114833533763885,-0.00002490077167749405
1772366271764815600,2.570815673828125,-0.002373147290199995,-0.0029913452453911304,0.0010978709906339645
1772366271774885400,2.580885498046875,-0.000802148599177599,0.003023936878889799,-0.0015008412301540375
1772366271784956400,2.590956298828125,0.0016863495111465454,-0.0004737512208521366,0.0006673131138086319
1772366271795026400,2.6010263671875,-0.0010399287566542625,0.00010548625141382217,0.0009176498278975487
1772366271805096400,2.611096435546875,0.002189202234148979,0.00002200668677687645,-0.0012116320431232452
1772366271815166500,2.62116650390625,-0.0006068502552807331,-0.00401880731806159,-0.00019776634871959686
1772366271825236500,2.631236572265625,0.000613051000982523,-0.001211534719914198,0.001605168916285038
1772366271835306500,2.641306396484375,-5.415640771389008e-7,-0.00003787968307733536,-0.0000739535316824913
1772366271845376500,2.65137646484375,0.0014163423329591751,-0.0019239503890275955,-0.000238160602748394
1772366271855446500,2.661446533203125,0.002261097077280283,-0.0013332613743841648,0.000340278260409832
1772366271865517600,2.671517578125,0.001119326800107956,-0.0008616591803729534,0.0009450474753975868
1772366271875587600,2.681587646484375,-0.00020000338554382324,0.0006784470751881599,-0.00016016419976949692
1772366271885657600,2.69165771484375,-0.0005146022886037827,0.00001797592267394066,0.0007500089704990387
1772366271895727400,2.701727294921875,-0.0001657283864915371,0.00281322980299592,0.00013055745512247086
1772366271905797400,2.71179736328125,-0.002372351475059986,-0.0009471173398196697,0.0011193463578820229
1772366271915867600,2.72186767578125,0.0007422151975333691,-0.00140012102201581,-0.0006090449169278145
1772366271925937400,2.7319375,0.0006206356920301914,0.0006145746447145939,-0.0016496693715453148
1772366271936008400,2.742008544921875,0.00017615407705307007,0.0007956698536872864,-0.00018972530961036682
1772366271946078500,2.752078369140625,-0.0003712638281285763,0.0024151266552507877,-0.0020206645131111145
1772366271956148500,2.7621484375,-0.00006473390385508537,0.001081682275980711,-0.0007370207458734512
1772366271966218500,2.772218505859375,0.0020589721389114857,0.003401729743927717,-0.002350027672946453
1772366271976288500,2.78228857421875,0.00024109845981001854,-0.0009911544620990753,-0.00024692900478839874
1772366271986358500,2.792358642578125,-0.0001291884109377861,-0.0007917620241641998,-0.0021112561225891113
1772366271996428500,2.802428466796875,0.0013238321989774704,-0.00047537824138998985,-0.00012906454503536224
1772366272006498600,2.81249853515625,0.0013008392415940762,-0.00019001681357622147,-0.0006289947777986526
1772366272016569600,2.822569580078125,-0.0003625713288784027,0.0019426424987614155,0.0015068603679537773
1772366272026639400,2.832639404296875,-0.0003144945949316025,0.0005992851220071316,0.0002174684777855873
1772366272036709600,2.842709716796875,0.0010525058023631573,0.0009335116483271122,-0.0018701832741498947
1772366272046779400,2.852779296875,-0.000022295862436294556,-0.0016336464323103428,-0.002520323731005192
1772366272056849400,2.862849365234375,-0.0002356152981519699,0.0010745218023657799,-0.000043584033846855164
1772366272066919700,2.872919677734375,0.0007786196656525135,0.0012748828157782555,0.0014197984710335732
1772366272076989400,2.882989501953125,0.0014998037368059158,0.0020120455883443356,0.0008048741146922112
1772366272087060500,2.893060546875,0.0016265753656625748,-0.000022312160581350327,0.003652571700513363
1772366272097130500,2.903130615234375,-0.00028397608548402786,-0.001669477205723524,-0.00016666855663061142
1772366272107200500,2.913200439453125,0.000826055184006691,0.0015069739893078804,-0.00047683436423540115
1772366272117270500,2.9232705078125,0.0003466862253844738,-0.00033939583227038383,-0.0012653963640332222
1772366272127340500,2.933340576171875,-0.00137636112049222,-0.0005104471929371357,0.0000616731122136116
1772366272137410300,2.943410400390625,0.0006657508201897144,-0.00012615276500582695,-0.0008555194362998009
1772366272147481300,2.9534814453125,0.0010305186733603477,-0.00004873983561992645,-0.0024793269112706184
1772366272157551600,2.963551513671875,-0.0034763491712510586,0.0008040042594075203,0.0008272537961602211
1772366272167621600,2.97362158203125,0.00029585976153612137,-0.004556093364953995,0.0016210423782467842
1772366272177691400,2.98369140625,0.0006806864403188229,-0.001840201672166586,-0.002092469483613968
1772366272187761700,2.99376171875,-0.0010229102335870266,-0.0002228710800409317,-0.0009382246062159538
1772366272197831400,3.00383154296875,0.0010514254681766033,-0.0026892246678471565,0.00017870496958494186
1772366272207901400,3.0139013671875,-0.0008680741302669048,-0.0008280780166387558,0.0003911443054676056
1772366272217972500,3.023972412109375,-0.0004728608764708042,-0.0005689524114131927,0.0007360232993960381
1772366272228042500,3.03404248046875,0.0005570859648287296,0.0017519011162221432,-0.00009653810411691666
1772366272238112500,3.044112548828125,-0.0004900684580206871,0.0017026327550411224,-0.0009663263335824013
1772366272248182500,3.0541826171875,-0.0021390626206994057,0.0027731163427233696,0.0006519341841340065
1772366272258252500,3.06425244140625,-0.0007174676284193993,-0.000832804013043642,-0.0020820675417780876
1772366272268322600,3.074322509765625,0.00002269446849822998,-0.00013164617121219635,-0.00011446513235569
1772366272278392600,3.084392578125,-0.0006313775666058064,-0.0017583048902451992,-0.00015201512724161148
1772366272288463600,3.094463623046875,0.000779986847192049,-0.0011939285323023796,-0.002356286160647869
1772366272298533400,3.104533447265625,-0.0007990011945366859,0.0005557681433856487,-0.00007369089871644974
1772366272308603600,3.114603759765625,0.0022842660546302795,0.0029057874344289303,-0.000037511810660362244
1772366272318673700,3.124673583984375,0.0009470931254327297,0.0011310568079352379,-0.0036050816997885704
1772366272328743400,3.134743408203125,0.0016851658001542091,0.0010390165261924267,0.0012664776295423508
1772366272338813400,3.1448134765625,0.0016055372543632984,-0.0007919063791632652,0.00204518623650074
1772366272348884500,3.154884521484375,0.0010260725393891335,-0.0031179781071841717,-0.0004739845171570778
1772366272358954500,3.16495458984375,-0.00033426983281970024,-0.002443399280309677,0.0009726444259285927
1772366272369024500,3.1750244140625,-0.0005452842451632023,-0.0015261161606758833,0.0017044926062226295
1772366272379094500,3.185094482421875,0.003311505075544119,0.0006179949268698692,0.0015244623646140099
1772366272389164500,3.19516455078125,-0.0011934805661439896,-0.0025441290345042944,-0.0016406578943133354
1772366272399234600,3.205234619140625,0.0014606257900595665,0.0011334298178553581,-0.0005463650450110435
1772366272409304600,3.2153046875,0.0005723824724555016,0.00021871458739042282,0.0018426496535539627
1772366272419375400,3.225375244140625,-0.0008667898364365101,-0.000945619773119688,-0.0033377306535840034
1772366272429445600,3.235445556640625,0.003483919892460108,-0.0022067553363740444,-0.0005886368453502655
1772366272439515600,3.245515625,0.000015152618288993835,-0.0029084982816129923,-0.0009209988638758659
1772366272449585400,3.25558544921875,0.001838222611695528,-0.0019978678319603205,-0.00003699306398630142
1772366272459655400,3.265655517578125,-0.000880066305398941,0.00014251470565795898,-0.0023243818432092667
1772366272469725700,3.2757255859375,0.002868718933314085,-0.002059595426544547,0.0007240502163767815
1772366272479796500,3.28579638671875,-0.0008112373761832714,0.00011247862130403519,0.0009493539109826088
1772366272489866500,3.295866455078125,-0.0014071427285671234,-0.000028499867767095566,0.0002762582153081894
1772366272499936500,3.3059365234375,0.0012613446451723576,-0.0007693911902606487,-0.0007341448217630386
1772366272510006500,3.316006591796875,0.000090849120169878,-0.0019724704325199127,-0.003018083982169628
1772366272520076500,3.32607666015625,-0.001242595724761486,0.0014608767814934254,-0.00021297670900821686
1772366272530146600,3.336146484375,-0.000468691810965538,-0.0007195975631475449,0.0005923761054873466
1772366272540216300,3.34621630859375,-0.0004156948998570442,0.0015890970826148987,-0.0020257774740457535
1772366272550287400,3.356287353515625,-0.0009642275981605053,-0.0008391817100346088,-0.00018082838505506516
1772366272560357600,3.366357666015625,-0.00008272100239992142,0.000497991219162941,0.0004727104678750038
1772366272570427400,3.376427490234375,-0.00020432239398360252,0.0007352950051426888,0.0013075321912765503
1772366272580497400,3.386497314453125,-0.00007649045437574387,-0.004185161553323269,-0.0012006331235170364
1772366272590567700,3.396567626953125,-0.0011521950364112854,-0.0022062873467803,-0.003386836498975754
1772366272600637400,3.406637451171875,-0.0012667104601860046,-0.0020680692978203297,0.0008585089817643166
1772366272610708500,3.41670849609375,0.0006921798922121525,0.0004677348770201206,0.0010134689509868622
1772366272620778500,3.426778564453125,-0.0017635207623243332,0.00015987316146492958,0.0017061568796634674
1772366272630848500,3.4368486328125,0.0009853332303464413,-0.0018597410526126623,-0.0013479804620146751
1772366272640918500,3.44691845703125,0.0020175748504698277,-0.004159380681812763,0.0027950992807745934
1772366272650988500,3.456988525390625,-0.000650505069643259,-0.0001807408407330513,-0.0014390414580702782
1772366272661058300,3.467058349609375,-0.0010025748051702976,0.0016943910159170628,-0.0007886979728937149
1772366272671129300,3.47712939453125,-0.0011325418017804623,0.0004898719489574432,-0.00022816192358732224
1772366272681199600,3.48719970703125,-0.0010555763728916645,-0.00014502555131912231,-0.0017493600025773048
1772366272691269400,3.497269287109375,-0.0013576573692262173,-0.0032489928416907787,-0.0006948923692107201
1772366272701339400,3.50733935546875,0.0012136241421103477,-0.0010252534411847591,0.00037330109626054764
1772366272711409200,3.5174091796875,-0.0009415550157427788,-0.0022142953239381313,-0.0001356014981865883
1772366272721479200,3.527479248046875,0.0019490402191877365,-0.003385287243872881,-0.0003800801932811737
1772366272731550200,3.53755029296875,-0.003937806002795696,-0.0023197531700134277,-0.00016713328659534454
1772366272741620000,3.547619873046875,-0.000807260163128376,-0.00008083367720246315,0.001544746570289135
1772366272751690200,3.557690185546875,-0.0019566244445741177,-0.00144976656883955,-0.00017727725207805634
1772366272761760300,3.56776025390625,-0.0003797668032348156,-0.0009983605705201626,0.0016395319253206253
1772366272771830000,3.577830078125,0.0006368802860379219,-0.00046082306653261185,-0.0033312011510133743
1772366272781900300,3.587900390625,-0.0008028247393667698,0.00020310329273343086,0.0006803190335631371
1772366272791970000,3.597969970703125,0.0014678281731903553,-0.0017547602765262127,-0.00007914099842309952
1772366272802041000,3.608041015625,0.0007040337659418583,-0.0014391758013516665,-0.0009185690432786942
1772366272812111000,3.618111083984375,-0.0007523209787905216,0.000006466638296842575,-0.0009338129311800003
1772366272822181000,3.62818115234375,-0.0005062450654804707,0.00016013113781809807,-0.00043713394552469254
1772366272832251100,3.638251220703125,-0.00020160339772701263,-0.0010431325063109398,-0.0015553738921880722
1772366272842321200,3.648321044921875,0.0015009553171694279,0.0013475869782269,0.0019924892112612724
1772366272852391200,3.65839111328125,0.0001416378654539585,0.00044774357229471207,-0.000002039596438407898
1772366272862462000,3.6684619140625,0.0025768321938812733,0.0018981010653078556,0.00006800144910812378
1772366272872532200,3.6785322265625,-0.000813604798167944,-0.00011940812692046165,-0.001351717859506607
1772366272882602200,3.688602294921875,-0.002299381885677576,-0.0004917178303003311,-0.000784730538725853
1772366272892672000,3.698672119140625,-0.0009435503743588924,0.000574211124330759,0.0007621515542268753
1772366272902742300,3.7087421875,-0.002404827158898115,0.002781705465167761,-0.001070103608071804
1772366272912812300,3.718812255859375,0.001004176214337349,0.0013898503966629505,0.0009673247113823891
1772366272922883000,3.728883056640625,0.0005911197513341904,0.002929956652224064,0.0019510956481099129
1772366272932953000,3.738953125,0.0011038202792406082,-0.000963251106441021,-0.0010016318410634995
1772366272943023000,3.749023193359375,-0.0005087237805128098,-0.0005118455737829208,-0.001788063906133175
1772366272953093000,3.759093017578125,0.0016940971836447716,0.0016554966568946838,-0.0015915418043732643
1772366272963163100,3.7691630859375,0.0010791732929646969,0.002643262967467308,-0.0015886127948760986
1772366272973233200,3.779233154296875,-0.0006781355477869511,0.0004249662160873413,0.0003131115809082985
1772366272983304000,3.789303955078125,0.0006968542002141476,0.002706762868911028,-0.0006930306553840637
1772366272993374200,3.799374267578125,0.0011523626744747162,0.004033050034195185,-0.0008939877152442932
1772366273003444200,3.8094443359375,0.00033344095572829247,0.00261864485219121,0.0005744798108935356
1772366273013514000,3.819513916015625,-0.00006674136966466904,0.002637938130646944,0.0004412224516272545
1772366273023584000,3.829583984375,0.0001761387102305889,0.0017710793763399124,0.0015895776450634003
1772366273033654300,3.839654296875,-0.000772800762206316,0.0002787555567920208,-0.00011811219155788422
1772366273043725000,3.84972509765625,0.0007585166022181511,-0.0005337749607861042,0.0003913501277565956
1772366273053795000,3.859795166015625,-0.0007152408361434937,-0.004179122392088175,-0.0028894497081637383
1772366273063865000,3.869864990234375,-0.0012446772307157516,0.001978904940187931,-0.00014506187289953232
1772366273073935000,3.87993505859375,0.0020712902769446373,-0.001487460918724537,-0.00044626742601394653
1772366273084005000,3.890005126953125,0.00010561151430010796,0.001225501298904419,-0.0001567816361784935
1772366273094075100,3.9000751953125,0.0024932734668254852,-0.0006428542546927929,-0.000662580132484436
1772366273104146200,3.910146240234375,0.00007139518857002258,-0.00013232650235295296,0.0026005906984210014
1772366273114216200,3.92021630859375,0.00027930689975619316,0.0006841672584414482,0.001109302043914795
1772366273124286200,3.9302861328125,0.00014295289292931557,0.0003550006076693535,0.0008025066927075386
1772366273134356000,3.94035595703125,0.00013236887753009796,0.0005487427115440369,0.00015818700194358826
1772366273144426000,3.950426025390625,-0.0024048243649303913,0.00024913717061281204,-0.0016165440902113914
1772366273154496300,3.960496337890625,-0.0005357316695153713,0.0010465518571436405,-0.0018777474761009216
1772366273164567300,3.9705673828125,0.0006834631785750389,0.0016172672621905804,-0.0011586947366595268
1772366273174637000,3.980636962890625,-0.0022948449477553368,0.0010586204007267952,-0.000941992737352848
1772366273184705000,3.990705078125,0.001789645291864872,-0.0005856151692569256,0.00277817714959383
1772366273194775000,4.000775146484375,-0.003144263755530119,-0.000688944011926651,-0.0009291013702750206
1772366273204845300,4.01084521484375,-0.0021626227535307407,-0.0021411655470728874,-0.00042869336903095245
1772366273214915000,4.0209150390625,0.0018002199940383434,-0.0007776753045618534,0.002432743087410927
1772366273224985000,4.030985107421875,-0.0003718542866408825,0.0003128889948129654,0.001771746203303337
1772366273235055000,4.04105517578125,0.002294536679983139,-0.0008659316226840019,0.002337259240448475
1772366273245126100,4.051126220703125,-0.0001638275571167469,0.0026821978390216827,-0.000025496818125247955
1772366273255196200,4.061196044921875,0.001114536076784134,0.002293088473379612,-0.0003474690020084381
1772366273265266200,4.07126611328125,-0.002148635685443878,0.00020623533055186272,0.0011156713590025902
1772366273275336000,4.0813359375,0.0008750376291573048,-0.0031555076129734516,-0.0007640812546014786
1772366273285406200,4.09140625,-0.0012661437503993511,0.0015700054354965687,-0.002042398788034916
1772366273295477200,4.101477294921875,-0.00003851205110549927,0.00014358293265104294,0.0003543524071574211
1772366273305547300,4.11154736328125,-0.0010675573721528053,0.0012770239263772964,0.0010675471276044846
1772366273315617000,4.121616943359375,0.00267963670194149,0.0009504985064268112,-0.0018163640052080154
1772366273325687300,4.131687255859375,0.0014796163886785507,0.0020221546292304993,-0.0021892068907618523
1772366273335757000,4.141757080078125,-0.00085458904504776,0.0005055489018559456,0.00035392865538597107
1772366273345827000,4.1518271484375,0.0008293278515338898,0.0005721282213926315,0.000396006740629673
1772366273355898000,4.161898193359375,-0.0004568840377032757,-0.001853814348578453,-0.001159043051302433
1772366273365968100,4.171968017578125,-0.0006979000754654408,-0.0004620463587343693,0.0004305979236960411
1772366273376038100,4.1820380859375,-0.0005683368071913719,-0.00003380235284566879,0.002354159951210022
1772366273386108200,4.192108154296875,0.0016410211101174355,0.0005164067260921001,-0.0005670608952641487
1772366273396178200,4.20217822265625,0.00037813279777765274,-0.0008367476984858513,-0.0016539404168725014
1772366273406248200,4.212248291015625,0.0014729583635926247,-0.0005555176176130772,-0.0006672395393252373
1772366273416319200,4.2223193359375,-0.00010558497160673141,0.00007307995110750198,0.0012247171252965927
1772366273426389200,4.23238916015625,-0.00010984623804688454,0.002163394819945097,-0.0013891756534576416
1772366273436459000,4.242458984375,-0.0009121480397880077,-0.0033807517029345036,-0.0004860246554017067
1772366273446529000,4.252529052734375,-0.0003840434364974499,0.0038473340682685375,-0.00042450521141290665
1772366273456599300,4.262599365234375,-0.0007894686423242092,0.00201840465888381,-0.002089262008666992
1772366273466669000,4.2726689453125,0.0014356025494635105,0.0042924778535962105,0.0007049264386296272
1772366273476740000,4.282739990234375,0.0005792644806206226,0.0021129059605300426,-0.0017867563292384148
1772366273486810000,4.29281005859375,0.001312699168920517,0.0006031598895788193,-0.0010743606835603714
1772366273496880000,4.302880126953125,-0.0008442038670182228,0.002658221870660782,0.0002045072615146637
1772366273506950100,4.3129501953125,0.0016887285746634007,0.0025000297464430332,0.00021196436136960983
1772366273517020200,4.323020263671875,0.0007833875715732574,-0.0037743619177490473,0.0001549823209643364
1772366273527090200,4.333090087890625,0.00033144932240247726,0.0028007160872220993,-0.00031479913741350174
1772366273537161200,4.3431611328125,0.00033293385058641434,0.0011306097730994225,-0.0005774702876806259
1772366273547231200,4.353231201171875,0.0017798291519284248,-0.0010763518512248993,0.00033865775913000107
1772366273557301000,4.363301025390625,-0.0031181080266833305,0.00037951767444610596,-0.0004355208948254585
1772366273567371000,4.37337109375,0.0017693247646093369,-0.0016902913339436054,0.0010989923030138016
1772366273577441300,4.383441162109375,-0.0007429737597703934,0.0016406462527811527,0.0006420360878109932
1772366273587512000,4.393511962890625,-0.00026946375146508217,-0.0018188001122325659,0.000935782678425312
1772366273597582000,4.40358203125,0.0012674522586166859,-0.002362261526286602,-0.0003895871341228485
1772366273607652000,4.413652099609375,0.0005989987403154373,-0.0003387918695807457,0.0009422600269317627
1772366273617722000,4.42372216796875,-0.0011913874186575413,0.0006188605912029743,-0.0009191185235977173
1772366273627792100,4.433792236328125,0.00218470161780715,0.0002074022777378559,-0.0006362907588481903
1772366273637862100,4.443862060546875,-0.0012557553127408028,-0.0004505869001150131,-0.00021982938051223755
1772366273647933200,4.45393310546875,0.003813571762293577,-0.0008956007659435272,0.0003793817013502121
1772366273658003200,4.464003173828125,-0.0014468133449554443,0.001992005854845047,-0.0000317990779876709
1772366273668073200,4.4740732421875,0.0015364596620202065,-0.00013639265671372414,0.0005991039797663689
1772366273678143000,4.48414306640625,-0.003608723171055317,0.0012921863235533237,-0.000195380300283432
1772366273688213000,4.494212890625,0.00045153265818953514,0.000035706907510757446,0.0010429900139570236
1772366273698283300,4.504283203125,-0.001074266154319048,-0.0003705541603267193,-0.0002454947680234909
1772366273708354300,4.514354248046875,0.0007119155488908291,0.000630261842161417,-0.0015254095196723938
1772366273718423800,4.524423828125,0.0016108416020870209,0.0018057203851640224,-0.001658744178712368
1772366273728493800,4.534493896484375,-0.0010115732438862324,0.0009801406413316727,-0.0006677825003862381
1772366273738564000,4.544564208984375,-0.002402145881205797,-0.001849865773692727,-0.001426314003765583
1772366273748633900,4.5546337890625,-0.0019161193631589413,-0.000449309591203928,-0.000994616188108921
1772366273758703900,4.564703857421875,0.0028102099895477295,-0.0013547539710998535,0.0014897380024194717
1772366273768775000,4.57477490234375,-0.001117420382797718,-0.000676979310810566,0.002461791969835758
1772366273778846000,4.584845947265625,-0.0009935833513736725,-0.0014361839275807142,-0.0013137906789779663
1772366273788917000,4.5949169921875,0.0016543976962566376,0.000714584719389677,-0.0009284317493438721
1772366273798987000,4.604987060546875,0.0028217225335538387,0.0006118887104094028,-0.002806553617119789
1772366273809057000,4.61505712890625,0.0003156880848109722,-0.0023407579865306616,0.00009575951844453812
1772366273819126800,4.625126708984375,-0.00043800799176096916,-0.0009994995780289173,-0.0006665028631687164
1772366273829197000,4.635197021484375,-0.000055577605962753296,-0.000826127827167511,-0.0003543803468346596
1772366273839267000,4.64526708984375,0.0005378946661949158,-0.00013289181515574455,-0.001110132783651352
1772366273849338000,4.655338134765625,0.0016455035656690598,0.0012418320402503014,0.0009695291519165039
1772366273859408000,4.665407958984375,0.0003899354487657547,0.001673900056630373,-0.00024859700351953506
1772366273869478000,4.675477783203125,-0.000492369756102562,-0.0010843356139957905,-0.0008222423493862152
1772366273879548200,4.685548095703125,0.00003727711737155914,0.0011777011677622795,0.00038651376962661743
1772366273889618000,4.695617919921875,-0.0006887000054121017,0.0002245558425784111,0.001563897356390953
1772366273899688000,4.70568798828125,-0.0009605567902326584,0.0006915954872965813,0.000005125068128108978
1772366273909759000,4.715759033203125,-0.0003690691664814949,-0.0013395973946899176,-0.00047957058995962143
1772366273919829000,4.7258291015625,-0.001566457562148571,-0.0010063345544040203,-0.0013791993260383606
1772366273929899000,4.73589892578125,-0.0005944035947322845,0.00010100752115249634,0.0018059415742754936
1772366273939969000,4.745968994140625,0.0025200722739100456,0.0010810717940330505,0.0025758398696780205
1772366273950038800,4.756038818359375,-0.00031433021649718285,-0.0010539842769503593,-0.00012487173080444336
1772366273960109000,4.766109130859375,0.00012136716395616531,-0.0023917488288134336,0.0005189152434468269
1772366273970180000,4.77618017578125,-0.0011257915757596493,-0.0006553679704666138,0.000488555058836937
1772366273980249900,4.786249755859375,-0.0009129601530730724,-0.000012262258678674698,0.0019157230854034424
1772366273990319900,4.79631982421875,0.002892696764320135,0.00057176873087883,0.0020012110471725464
1772366274000390100,4.80639013671875,-0.0011660680174827576,-0.002007615752518177,-0.0005835192278027534
1772366274010460000,4.8164599609375,0.0010350351221859455,0.00014155544340610504,0.0008916053920984268
1772366274020530000,4.826530029296875,-0.0009867455810308456,-0.0007876567542552948,0.0009386343881487846
1772366274030601000,4.83660107421875,-0.0011009946465492249,0.0009567136876285076,-0.000515718013048172
1772366274040671000,4.8466708984375,0.0009125731885433197,0.0012577585875988007,-0.0009650504216551781
1772366274050741000,4.856740966796875,-0.0005050278268754482,-0.0017239167355000973,0.001967090182006359
1772366274060811000,4.86681103515625,0.001883076038211584,-0.0008459133096039295,-0.000310014933347702
1772366274070880800,4.876880859375,0.0007384493947029114,0.0017725066281855106,-0.0001590140163898468
1772366274080951000,4.886950927734375,-0.0009947256185114384,0.001564419362694025,0.0011235401034355164
1772366274091022000,4.89702197265625,0.0007387255318462849,0.0004432285204529762,-0.0020394958555698395
1772366274101091800,4.907091796875,-0.001580352894961834,-0.0009500985033810139,-0.00024389475584030151
1772366274111161900,4.917161865234375,0.000074801966547966,-0.0007743295282125473,0.0004445323720574379
1772366274121232100,4.927232177734375,-0.0015848432667553425,-0.0005142525769770145,0.0015552220866084099
1772366274131302000,4.937302001953125,-0.002220539841800928,-0.0000505959615111351,-0.00022803060710430145
1772366274141372000,4.947371826171875,0.00132443243637681,0.002788567915558815,-0.0004941551014780998
1772366274151443000,4.95744287109375,0.0015060603618621826,-0.0022557254415005445,0.00029254239052534103
1772366274161513000,4.967512939453125,-0.0015988047234714031,0.0005842894315719604,-0.00006525777280330658
1772366274171583000,4.9775830078125,0.0009144200012087822,0.0034953905269503593,-0.00018217042088508606
1772366274181653000,4.987653076171875,-0.0007569794543087482,-0.0030408052261918783,0.0006969384849071503
1772366274191722800,4.99772265625,-0.0013933381997048855,0.0010359198786318302,0.0010265354067087173
1772366274201793000,5.00779296875,-0.0011557918041944504,-0.0030561077874153852,0.00008733756840229034
1772366274211864000,5.017864013671875,-0.0007762918248772621,0.0021748733706772327,0.0008985362946987152
1772366274221934000,5.02793408203125,0.0010022837668657303,0.0012431018985807896,0.0012750905007123947
1772366274232003800,5.03800390625,0.001637980341911316,0.0021957149729132652,0.0014497935771942139
1772366274242074000,5.04807421875,0.0027132639661431313,0.0006721294485032558,-0.0021084370091557503
1772366274252143900,5.058143798828125,-0.0014591105282306671,-0.000687147956341505,0.0005715014412999153
1772366274262214000,5.0682138671875,-0.0013584909029304981,-0.0008605611510574818,0.001853165216743946
1772366274272285000,5.078284912109375,0.0003983965143561363,0.0004108319990336895,-0.00033222511410713196
1772366274282355000,5.08835498046875,0.00039028143510222435,-0.0010028202086687088,0.00042402371764183044
1772366274292425000,5.098425048828125,0.0011492823250591755,-0.003011642722412944,0.0013947458937764168
1772366274302495000,5.108494873046875,-0.0023809196427464485,-0.0018449572380632162,-0.00011082179844379425
1772366274312564700,5.118564697265625,0.0011251321993768215,0.0013585593551397324,0.0016338145360350609
1772366274322635000,5.128635009765625,-0.0009344276040792465,-0.001963772112503648,0.00017180759459733963
1772366274332706000,5.1387060546875,0.001999311149120331,0.00018992600962519646,0.0005638254806399345
1772366274342776000,5.148776123046875,0.0018068240024149418,0.0004171254113316536,0.0006834985688328743
1772366274352845800,5.158845703125,0.000033424701541662216,0.0017897184006869793,-0.0010843081399798393
1772366274362916000,5.168916015625,0.0011567915789783,-0.000456186942756176,0.00016889534890651703
1772366274372986000,5.178986083984375,0.00028993235900998116,0.0009273253381252289,0.00045119039714336395
1772366274383056000,5.189055908203125,0.0019420795142650604,0.002008932176977396,-0.00035717524588108063
1772366274393126000,5.1991259765625,-0.0023717093281447887,-0.0018214923329651356,0.0008223392069339752
1772366274403197000,5.209197021484375,0.0011417479254305363,0.0013300450518727303,-0.0006706072017550468
1772366274413267000,5.219266845703125,-0.0018077027052640915,0.0022610859014093876,0.0011065201833844185
1772366274423337000,5.2293369140625,-0.0012290291488170624,0.0026041558012366295,-0.0008348496630787849
1772366274433407000,5.239406982421875,-0.0005667014047503471,0.003212155308574438,0.0011233724653720856
1772366274443477000,5.24947705078125,-0.0006956849247217178,0.0023543289862573147,-0.00044674985110759735
1772366274453547000,5.259547119140625,0.00015945592895150185,0.0016339439898729324,-0.00011864863336086273
1772366274463618000,5.2696181640625,0.001656913198530674,-0.0024414490908384323,0.002798052504658699
1772366274473687800,5.279687744140625,0.0007887226529419422,0.0017940420657396317,-0.0019458355382084846
1772366274483758000,5.289758056640625,-0.002232154831290245,0.0004226355813443661,-0.002217225730419159
1772366274493828000,5.299828125,0.000037658028304576874,-0.0007424973882734776,-0.0007112082093954086
1772366274503897900,5.30989794921875,0.002206886652857065,-0.002080044010654092,0.0005736760795116425
1772366274513967900,5.3199677734375,0.0014854362234473228,-0.0007641762495040894,0.0008778087794780731
1772366274524039000,5.330038818359375,-0.001201107632368803,0.00020312611013650894,0.0005409680306911469
1772366274534109000,5.34010888671875,0.001032219734042883,0.0003533284179866314,-0.0008382825180888176
1772366274544179000,5.350178955078125,0.002000792883336544,-0.00003569619730114937,0.0014978963881731033
1772366274554249000,5.3602490234375,-0.000662368256598711,0.0024439734406769276,0.0015506269410252571
1772366274564319000,5.370319091796875,0.0025916732847690582,-0.0023836358450353146,0.000199170783162117
1772366274574389000,5.380388916015625,-0.0012688450515270233,0.0013748835772275925,-0.0014155041426420212
1772366274584460000,5.3904599609375,0.00005763303488492966,0.0012148027308285236,0.0010674893856048584
1772366274594529800,5.40052978515625,-0.0023269611410796642,-0.0010672598145902157,-0.0015530604869127274
1772366274604600000,5.41060009765625,-0.0008099121041595936,-0.0009225513786077499,-0.0024461979046463966
1772366274614670000,5.420670166015625,-0.00045411428436636925,-0.0022280330304056406,0.0007770266383886337
1772366274624739800,5.43073974609375,-0.0006347298622131348,0.00019113300368189812,-0.00023911800235509872
1772366274634809900,5.440809814453125,0.0011011180467903614,-0.0017953186761587858,-0.00002473406493663788
1772366274644881000,5.450880859375,-0.001001234631985426,-0.0011251028627157211,-0.001252015121281147
1772366274654951000,5.460950927734375,-0.0007841861806809902,0.00048025045543909073,-0.0010283095762133598
1772366274665021000,5.47102099609375,-0.0006792419590055943,0.00015873881056904793,0.0007366212084889412
1772366274675091000,5.481091064453125,-0.00008455757051706314,-0.00005724327638745308,0.00020665209740400314
1772366274685161000,5.491160888671875,-0.002122126054018736,0.0027374099008738995,0.0004243152216076851
1772366274695231000,5.50123095703125,0.0006539532914757729,-0.0005196365527808666,0.0026304787024855614
1772366274705301000,5.511301025390625,-0.0008023232221603394,-0.0009564505890011787,0.00020002201199531555
1772366274715372500,5.52137255859375,-0.0002244170755147934,0.0021855472587049007,-0.00041889678686857224
1772366274725442300,5.5314423828125,-0.0010961545631289482,0.00004075653851032257,-0.00013934727758169174
1772366274735512600,5.5415126953125,-0.0006213132292032242,-0.0013621968682855368,0.002855909988284111
1772366274745582600,5.55158251953125,0.00037139933556318283,-0.0005297414027154446,0.0016262885183095932
1772366274755652400,5.56165234375,0.00046301214024424553,-0.0005651614628732204,0.0008755428716540337
1772366274765722600,5.57172265625,0.0006823493167757988,-0.001375638647004962,-0.00004614237695932388
1772366274775792400,5.58179248046875,-0.0008473703637719154,-0.00352880428545177,0.0008974149823188782
1772366274785863400,5.591863525390625,-0.0005423575639724731,0.0005738190375268459,0.0006783269345760345
1772366274795933400,5.601933349609375,-0.002979682758450508,-0.0017468594014644623,-0.0019627297297120094
1772366274806003500,5.61200341796875,-0.0001330091618001461,0.00009118439629673958,-0.00038021430373191833
1772366274816073500,5.622073486328125,-0.0009980038739740849,-0.0009852652437984943,0.0017324713990092278
1772366274826143500,5.6321435546875,0.0005827373825013638,-0.0009311581961810589,0.00023606978356838226
1772366274836213200,5.642213134765625,0.00026209279894828796,0.0037256451323628426,-0.0007735341787338257
1772366274846284300,5.6522841796875,-0.00046192435547709465,-0.00026231398805975914,-0.0008138976991176605
1772366274856354600,5.6623544921875,-0.0013743233866989613,-0.0017382376827299595,0.00022926274687051773
1772366274866424600,5.672424560546875,0.000003061257302761078,-0.002278919331729412,0.00012052711099386215
1772366274876494300,5.682494384765625,-0.000228899996727705,-0.0003089788369834423,-0.0013388851657509804
1772366274886564600,5.692564697265625,0.0017950581386685371,0.0009808954782783985,0.002722708508372307
1772366274896634600,5.702634521484375,0.0007047597318887711,0.0004903413355350494,0.00021534226834774017
1772366274906704400,5.712704345703125,-0.0008493056520819664,-0.0023733244743198156,0.0017961179837584496
1772366274916775400,5.722775390625,-0.0001600794494152069,0.00030688056722283363,-0.00012561865150928497
1772366274926845400,5.732845458984375,0.00016238819807767868,-0.0005257637239992619,0.0015529263764619827
1772366274936915500,5.74291552734375,0.00008249329403042793,-0.0021071487572044134,0.0009332094341516495
1772366274946985500,5.7529853515625,-0.003125362563878298,-0.0011178269051015377,-0.0012743733823299408
1772366274957055500,5.763055419921875,0.0014179898425936699,0.00008379155769944191,0.00021992623805999756
1772366274967125500,5.77312548828125,0.0012551220133900642,0.000449588056653738,-0.0010872511193156242
1772366274977196500,5.783196533203125,0.0025528804399073124,-0.002383749233558774,-0.0006635421887040138
1772366274987266600,5.7932666015625,-0.000027672387659549713,-0.00013745063915848732,0.00112183578312397
1772366274997336300,5.80333642578125,-0.0008066468872129917,-0.0032741217873990536,0.0010480666533112526
1772366275007406600,5.813406494140625,0.0007882830686867237,-0.0021651710849255323,-0.0006468463689088821
1772366275017476600,5.8234765625,-0.0009981649927794933,-0.0017172275111079216,0.0007891301065683365
1772366275027546400,5.83354638671875,-0.0008273012936115265,-0.002408019732683897,0.0005294252187013626
1772366275037616400,5.843616455078125,0.00027364911511540413,-0.0004018605686724186,-0.002234669402241707
1772366275047687400,5.8536875,0.000505540519952774,-0.0004161633551120758,-0.0008769864216446877
1772366275057757400,5.86375732421875,0.00006239069625735283,-0.0014049948658794165,0.0005906820297241211
1772366275067827500,5.873827392578125,0.0017378609627485275,-0.003504130057990551,-0.0009492933750152588
1772366275077897500,5.8838974609375,-0.0005071838386356831,0.0013659927062690258,-0.000987909734249115
1772366275087967500,5.893967529296875,-0.0006625293754041195,-0.0022171796299517155,0.0005944110453128815
1772366275098037500,5.90403759765625,-0.0007016775198280811,-0.00009277602657675743,-0.00005326978862285614
1772366275108107500,5.914107421875,0.0007650223560631275,-0.0025076367892324924,0.0002573281526565552
1772366275118178300,5.92417822265625,0.0008904570713639259,0.0014788489788770676,0.0027274107560515404
1772366275128248600,5.93424853515625,-0.0012843660078942776,-0.0013133627362549305,0.0013081319630146027
1772366275138318600,5.944318603515625,-0.00129981292411685,-0.0011130929924547672,0.0017587384209036827
1772366275148388400,5.954388427734375,-0.00004326086491346359,-0.0007830196991562843,0.001219666562974453
1772366275158458400,5.964458251953125,0.0010640816763043404,-0.001677575521171093,0.0023280736058950424
1772366275168528600,5.974528564453125,0.001030661165714264,0.0012083593755960464,-0.00026409607380628586
1772366275178599400,5.984599365234375,-0.001204796601086855,0.0016666897572577,-0.0002084365114569664
1772366275188669400,5.99466943359375,0.001379979308694601,-0.0006565051153302193,0.00035365577787160873
1772366275198739500,6.004739501953125,-0.0015367143787443638,-0.002475443994626403,0.0014780424535274506
1772366275208809500,6.0148095703125,-0.0010544462129473686,-0.0041338857263326645,0.0007213223725557327
1772366275218879500,6.02487939453125,-0.0012099752202630043,-0.00014313915744423866,-0.0011005466803908348
1772366275228949500,6.034949462890625,-0.0002879975363612175,-0.0031951717101037502,0.0004108613356947899
1772366275239019500,6.04501953125,-0.0023956233635544777,-0.0012673093006014824,0.001964549534022808
1772366275249090600,6.055090576171875,0.0005645179189741611,0.00019461149349808693,0.0003031613305211067
1772366275259160600,6.06516064453125,-0.0001465464010834694,-0.002217413391917944,0.0007271366193890572
1772366275269230300,6.075230224609375,-0.00017739832401275635,-0.0008023455739021301,0.002297281287610531
1772366275279300400,6.08530029296875,-0.0014053820632398129,0.0014376393519341946,-0.002047399990260601
1772366275289370600,6.09537060546875,0.00024181557819247246,-0.001183421816676855,0.0006981706246733665
1772366275299440400,6.1054404296875,0.0010836408473551273,-0.00222098920494318,-0.0022094687446951866
1772366275309510400,6.115510498046875,-0.001134003046900034,-0.0007734750397503376,0.002237670123577118
1772366275319581400,6.12558154296875,0.002378439996391535,-0.002357523189857602,0.0014717448502779007
1772366275329651500,6.1356513671875,-0.001205196138471365,-0.0005361251533031464,-0.00010614097118377686
1772366275339721500,6.145721435546875,0.001243580598384142,-0.000612291507422924,-0.001911764033138752
1772366275349791500,6.15579150390625,0.0002589225769042969,-0.0016571513842791319,-0.0001587439328432083
1772366275359861200,6.165861328125,0.0009313705377280712,0.0003207782283425331,0.0011422103270888329
1772366275369931500,6.175931640625,-0.00017419690266251564,-0.0010658376850187778,0.00045359600335359573
1772366275380001500,6.18600146484375,0.0003640279173851013,-0.0003851340152323246,-0.0020447159186005592
1772366275390072300,6.196072265625,-0.00016364781185984612,-0.00040223589166998863,-0.001277952454984188
1772366275400142300,6.206142333984375,0.0002936171367764473,-0.003648362820968032,0.002213452011346817
1772366275410212600,6.216212646484375,-0.0007596672512590885,-0.000672035850584507,0.000292179174721241
1772366275420282400,6.226282470703125,0.0003343592397868633,-0.001168981660157442,0.000994187779724598
1772366275430352400,6.236352294921875,0.0013914033770561218,-0.00017854338511824608,-0.0015420345589518547
1772366275440422700,6.246422607421875,0.0014001918025314808,-0.0006725597195327282,0.0006864983588457108
1772366275450492400,6.256492431640625,0.0006853556260466576,-0.00044327136129140854,0.00018766894936561584
1772366275460563500,6.2665634765625,-0.0007849750109016895,0.0015839268453419209,0.002788512036204338
1772366275470633500,6.276633544921875,0.000368249136954546,0.00024062441661953926,-0.00044378452003002167
1772366275480703200,6.286703125,0.001707552932202816,-0.0007335599511861801,0.001485941931605339
1772366275490773500,6.2967734375,-0.0010339492000639439,-0.0010873321443796158,0.001526406966149807
1772366275500843500,6.306843505859375,-0.002104806248098612,-0.0005072960630059242,0.0022158995270729065
1772366275510913300,6.316913330078125,0.001468899194151163,-0.0008642110042273998,-0.0008139722049236298
1772366275520983600,6.326983642578125,0.0010872683487832546,-0.0026458660140633583,-0.000886143185198307
1772366275531054600,6.3370546875,0.0002424800768494606,0.0004854341968894005,-0.000204356387257576
1772366275541124400,6.347124267578125,0.0007522092200815678,-0.0008682506158947945,-0.00023524928838014603
1772366275551194400,6.3571943359375,0.002251602243632078,0.0036993371322751045,-0.0006733201444149017
1772366275561264600,6.3672646484375,-0.00006215227767825127,-0.0013729194179177284,0.0011735819280147552
1772366275571334400,6.37733447265625,-0.0010411334224045277,-0.00037227431312203407,0.0011318689212203026
1772366275581404400,6.387404296875,-0.0013948013074696064,-0.003248754655942321,-0.0012572528794407845
1772366275591474400,6.397474365234375,0.00036334339529275894,-0.00042700767517089844,-0.00047388020902872086
1772366275601545500,6.40754541015625,0.0012176856398582458,0.0009120297618210316,0.001592998392879963
1772366275611615500,6.417615478515625,-0.001214900054037571,-0.00007251743227243423,-0.00030280184000730515
1772366275621685500,6.427685546875,0.00013612117618322372,0.0022950326092541218,-0.0011225230991840363
1772366275631755300,6.43775537109375,0.0006339014507830143,-0.0024790021125227213,0.001446855254471302
1772366275641825500,6.447825439453125,-0.001599158626049757,-0.0033269524574279785,-0.001994481310248375
1772366275651895600,6.4578955078125,-0.003397831227630377,0.00039954017847776413,-0.0010445499792695045
1772366275661965300,6.46796533203125,0.0006922520697116852,-0.001177317462861538,0.0026633692905306816
1772366275672036400,6.478036376953125,0.0014138170517981052,-0.00040177907794713974,0.0017362749204039574
1772366275682106400,6.4881064453125,0.0006122053600847721,-0.0006116358563303947,-0.002106133848428726
1772366275692176600,6.4981767578125,0.0018282914534211159,-0.002098684199154377,0.0012732408940792084
1772366275702246400,6.508246337890625,0.0005201464518904686,-0.0021474200766533613,0.0008063893765211105
1772366275712316400,6.51831640625,-0.0003897729329764843,-0.0005543646402657032,0.00045635178685188293
1772366275722385700,6.5283857421875,-0.00002918113023042679,-0.002583693480119109,0.00020921044051647186
1772366275732455700,6.53845556640625,-0.0012680459767580032,-0.0016434579156339169,0.0005341125652194023
1772366275742526700,6.548526611328125,-0.0005918694660067558,-0.0013654239010065794,-0.000947936438024044
1772366275752596700,6.5585966796875,0.0004179929383099079,-0.0005183294415473938,-0.00074748694896698
1772366275762666800,6.568666748046875,-0.0006728381849825382,0.0011128569021821022,-0.0005770446732640266
1772366275772736800,6.57873681640625,0.0002883840352296829,0.0006537088192999363,0.00505306851118803
1772366275782806500,6.588806640625,-0.00011828029528260231,-0.003289101179689169,-0.00015421118587255478
1772366275792876800,6.598876708984375,-0.0018338337540626526,-0.0006967945955693722,0.00017234403640031815
1772366275802946800,6.60894677734375,-0.0009805569425225258,-0.0022898975294083357,0.0006575724110007286
1772366275813017600,6.619017578125,-0.002853637095540762,0.0026616002433001995,0.0014572050422430038
1772366275823087600,6.629087646484375,-0.0006248378194868565,0.00021948153153061867,0.0012707840651273727
1772366275833158000,6.639157958984375,0.0009437552653253078,0.00013619661331176758,-0.0005750246345996857
1772366275843227600,6.6492275390625,0.00020233122631907463,-0.001043583732098341,-0.0020546773448586464
1772366275853297700,6.659297607421875,-0.0009149410761892796,-0.0006238538771867752,0.0008901422843337059
1772366275863367700,6.66936767578125,-0.0005615395493805408,-0.0009982944466173649,0.0005905367434024811
1772366275873437700,6.679437744140625,-0.002092368435114622,0.00008340971544384956,-0.00006953347474336624
1772366275883508700,6.6895087890625,-0.00007901806384325027,0.0030251378193497658,-0.000031449832022190094
1772366275893578800,6.699578857421875,0.000605093315243721,-0.000429695937782526,0.0016463398933410645
1772366275903648500,6.7096484375,-0.0010101143270730972,-0.001956220017746091,0.001518508419394493
1772366275913718800,6.71971875,0.00042149797081947327,-0.0011031730100512505,0.00016340985894203186
1772366275923788800,6.729788818359375,-0.0003436282277107239,-0.002915986580774188,-0.002007598988711834
1772366275933858600,6.739858642578125,0.0003717578947544098,-0.0001659216359257698,0.0012288419529795647
1772366275943928800,6.7499287109375,0.00034166406840085983,-0.004089822992682457,0.00012656021863222122
1772366275954000000,6.759999755859375,-0.002587320748716593,-0.0021090663503855467,-0.0009167874231934547
1772366275964069600,6.770069580078125,0.0013376460410654545,-0.002574587007984519,0.0034065889194607735
1772366275974139600,6.7801396484375,-0.0006422186270356178,9.210780262947083e-7,-0.00041542015969753265
1772366275984209700,6.790209716796875,0.000039550475776195526,-0.0015509026125073433,0.001747865229845047
1772366275994279700,6.80027978515625,0.001676870509982109,0.0002031601034104824,0.0016563329845666885
1772366276004349700,6.810349609375,-0.0031285379081964493,-0.0016413452103734016,-0.0005375789478421211
1772366276014419700,6.820419677734375,-0.00009084213525056839,-0.0020976760424673557,0.00016932468861341476
1772366276024489700,6.83048974609375,-0.0006453124806284904,0.00012206891551613808,0.000047618523240089417
1772366276034560800,6.840560791015625,0.003909994848072529,0.0011540893465280533,-0.0006895652040839195
1772366276044630800,6.850630859375,-0.0006762351840734482,0.0002917577512562275,0.0021759960800409317
1772366276054700500,6.860700439453125,-0.00048649031668901443,0.00012708129361271858,-0.0004636300727725029
1772366276064770800,6.870770751953125,0.0016214018687605858,0.0009907446801662445,-0.002033829689025879
1772366276074840800,6.8808408203125,0.0011506262235343456,-0.0005703787319362164,0.000143466517329216
1772366276084910600,6.89091064453125,-0.0006350232288241386,0.0013684025034308434,-0.001984665170311928
1772366276094980600,6.900980712890625,-0.0011242027394473553,0.002330668270587921,-0.0007040556520223618
1772366276105051600,6.9110517578125,0.000661446712911129,-0.00378448236733675,-0.002432180568575859
1772366276115121700,6.92112158203125,-0.0009402893483638763,-0.0007216655649244785,0.0013926224783062935
1772366276125191700,6.931191650390625,0.001390509307384491,0.001310859341174364,0.0008605225011706352
1772366276135261700,6.94126171875,0.0006237789057195187,-0.00012418115511536598,0.0018625445663928986
1772366276145331700,6.951331787109375,-0.00019461056217551231,-0.00031832559034228325,-0.000766528770327568
1772366276155401700,6.961401611328125,0.0009450758807361126,-0.0001983093097805977,-0.00001964997500181198
1772366276165471700,6.9714716796875,-0.0016381903551518917,0.0007348619401454926,0.0029433825984597206
1772366276175542500,6.98154248046875,0.0006839688867330551,-0.0011716510634869337,-0.00037324707955121994
1772366276185612800,6.99161279296875,0.00041046226397156715,0.0010867095552384853,-0.001040101982653141
1772366276195682800,7.001682861328125,0.0030022994615137577,0.0002750856801867485,0.00003797188401222229
1772366276205752600,7.011752685546875,-0.0013812640681862831,-0.000931859016418457,0.00122920423746109
1772366276215822600,7.021822509765625,-0.000008179806172847748,-0.0010932604782283306,0.0015037637203931808
1772366276225892900,7.031892822265625,0.000597689300775528,-0.0025116601027548313,-0.0012632599100470543
1772366276235962600,7.041962646484375,0.0007917284965515137,-0.0012169224210083485,0.00025003496557474136
1772366276246032600,7.05203271484375,-0.0010538417845964432,0.0007562139071524143,0.0015997253358364105
1772366276256103700,7.062103759765625,-0.0032883468084037304,0.0013023740611970425,0.00018543098121881485
1772366276266173700,7.072173583984375,0.0003588520921766758,0.00035135913640260696,-0.001006600446999073
1772366276276243700,7.08224365234375,-0.0030477778054773808,-0.00019467668607831,-0.0010067373514175415
1772366276286313700,7.092313720703125,-0.0008677146397531033,-0.0006325002759695053,0.0005751801654696465
1772366276296383700,7.1023837890625,-0.0008994229137897491,0.0007336265407502651,0.0005528684705495834
1772366276306453800,7.112453857421875,0.0014103362336754799,0.0010002092458307743,-0.002182197757065296
1772366276316523800,7.122523681640625,-0.0006257006898522377,0.0002964409068226814,-0.0006278911605477333
1772366276326593500,7.132593505859375,0.0011881785467267036,0.0007475805468857288,0.000397426076233387
1772366276336664600,7.14266455078125,0.001039059367030859,0.0005700108595192432,0.0011122161522507668
1772366276346734800,7.15273486328125,0.00012000277638435364,-0.0002819341607391834,0.0005947640165686607
1772366276356804600,7.1628046875,-0.003280855715274811,0.0003868080675601959,-0.001078123226761818
1772366276366874600,7.17287451171875,0.0007817959412932396,-0.00010454514995217323,0.0012335004284977913
1772366276376945000,7.18294482421875,0.0009072534739971161,0.0026221112348139286,0.0003833174705505371
1772366276387014700,7.1930146484375,0.000374088529497385,-0.0009667645208537579,0.0013564368709921837
1772366276397084700,7.203084716796875,0.0007833358831703663,-0.00086588179692626,0.00004674866795539856
1772366276407155700,7.21315576171875,-0.0002275998704135418,-0.0006275288760662079,-0.002635055221617222
1772366276417225500,7.2232255859375,-0.00018668966367840767,0.0019215596839785576,0.0009682048112154007
1772366276427295700,7.233295654296875,0.004393680952489376,0.00015668291598558426,0.0030076541006565094
1772366276437365800,7.24336572265625,0.0007770415395498276,-0.0024790337774902582,0.0003262581303715706
1772366276447435500,7.253435546875,0.001959751360118389,-0.0010869994293898344,0.0012008408084511757
1772366276457505800,7.263505859375,-0.001138412393629551,-0.0019844043999910355,0.000774795189499855
1772366276467575800,7.273575927734375,0.002339409664273262,-0.002878960222005844,0.003217446617782116
1772366276477645600,7.2836455078125,0.0007891734130680561,-0.004171131178736687,0.0005905060097575188
1772366276487716600,7.293716552734375,0.0015745395794510841,-0.002074158051982522,0.001561228185892105
1772366276497787000,7.303786865234375,0.0018212194554507732,-0.0010355624835938215,-0.0028999773785471916
1772366276507856600,7.313856689453125,-0.0016595320776104927,-0.0008432823233306408,0.000413261353969574
1772366276517926700,7.3239267578125,0.000569226685911417,0.0005950732156634331,0.0014948835596442223
1772366276527996700,7.33399658203125,0.000590798445045948,0.00009839329868555069,-0.0009315228089690208
1772366276538066700,7.344066650390625,-0.000918176956474781,0.00215116236358881,-0.0009851092472672462
1772366276548136700,7.35413671875,0.001967091578990221,0.0025226734578609467,0.00109801534563303
1772366276558206700,7.364206787109375,0.0006942087784409523,-0.005040003452450037,0.0014240136370062828
1772366276568277500,7.374277587890625,0.00020099151879549026,0.0036136717535555363,-0.001299867406487465
1772366276578347800,7.38434765625,-0.0009340383112430573,0.00015385868027806282,-0.00015873555094003677
1772366276588417800,7.394417724609375,0.0007602646946907043,0.0021232659928500652,-0.00012251641601324081
1772366276598487600,7.404487548828125,-0.0005308203399181366,-0.00047647254541516304,0.0008250130340456963
1772366276608557800,7.414557861328125,0.003057789523154497,0.00043699145317077637,-0.0021119210869073868
1772366276618627800,7.4246279296875,0.00038940878584980965,-0.00020929425954818726,-0.0001519862562417984
1772366276628697600,7.434697509765625,-0.00012351619079709053,0.0006293351761996746,-0.00012162607163190842
1772366276638768600,7.4447685546875,-0.00096171535551548,0.0029546874575316906,-0.00024184584617614746
1772366276648838700,7.454838623046875,0.0027656452730298042,0.002117922529578209,-0.0007587652653455734
1772366276658908700,7.46490869140625,0.0027798241935670376,0.0006460780277848244,0.0016550607979297638
1772366276668978700,7.474978759765625,0.0017473166808485985,0.00018375320360064507,-0.0005907835438847542
1772366276679048700,7.485048583984375,0.0014451909810304642,-0.00007353583350777626,-0.002001924440264702
1772366276689118700,7.49511865234375,0.00028218887746334076,0.0005853301845490932,-0.0011670226231217384
1772366276699188700,7.505188720703125,0.000866980291903019,0.0014982945285737514,0.000734308734536171
1772366276709258800,7.5152587890625,0.0017183930613100529,0.0006945524364709854,0.000002738088369369507
1772366276719330600,7.52533056640625,0.00021363701671361923,0.0014894693158566952,-0.0002168659120798111
1772366276729400600,7.535400634765625,0.0018352353945374489,-0.000587796326726675,0.00039459671825170517
1772366276739470600,7.545470703125,-0.00034572090953588486,-0.0019577122293412685,0.001035335473716259
1772366276749540600,7.55554052734375,0.002439945936203003,-0.00004902482032775879,-0.0005678879097104073
1772366276759610600,7.565610595703125,0.0022793570533394814,0.0027646049857139587,-0.00365316029638052
1772366276769680400,7.575680419921875,0.002343264874070883,0.0029023708775639534,0.0010878248140215874
1772366276779750700,7.585750732421875,-0.0002098078839480877,-0.0001261802390217781,-0.0006156191229820251
1772366276789820700,7.595820556640625,0.000386740081012249,-0.0017400558572262526,-0.000835862010717392
1772366276799891500,7.605891357421875,0.0014296583831310272,-0.003612295724451542,-0.00020776130259037018
1772366276809961500,7.61596142578125,0.00032950611785054207,-0.00003513786941766739,0.002519582398235798
1772366276820031700,7.62603173828125,-0.0004418841563165188,-0.00300479494035244,0.0016710562631487846
1772366276830101500,7.6361015625,0.00028143078088760376,-0.002925699111074209,-0.0009228624403476715
1772366276840171500,7.646171630859375,0.0005007795989513397,-0.000370729248970747,-0.0002619558945298195
1772366276850241500,7.656241455078125,-0.0022417432628571987,-0.0010937775950878859,-0.0012649018317461014
1772366276860311600,7.6663115234375,0.001834031194448471,-0.00030254386365413666,0.0007383767515420914
1772366276870381600,7.676381591796875,-0.0006485674530267715,-0.004265860188752413,0.0006126761436462402
1772366276880452600,7.68645263671875,-0.0008654925040900707,-0.001987651688978076,-0.0009371982887387276
1772366276890522400,7.6965224609375,0.0008189571090042591,-0.001964215887710452,0.0005768090486526489
1772366276900592600,7.706592529296875,-0.0006267023272812366,-0.0014531975612044334,0.000023836269974708557
1772366276910662700,7.71666259765625,0.0009320452809333801,-0.0005629030056297779,-0.0018361154943704605
1772366276920732400,7.726732421875,-0.00006686663255095482,0.000552881509065628,0.000002357177436351776
1772366276930802700,7.736802734375,0.0024583423510193825,0.001373934093862772,0.0004537636414170265
1772366276940872700,7.746872802734375,0.0001301453448832035,0.0048216404393315315,-0.0006515905261039734
1772366276950943500,7.756943603515625,-0.0009835888631641865,0.0007752338424324989,-0.0023924987763166428
1772366276961013500,7.767013427734375,-0.0005771252326667309,0.0016161240637302399,-0.0015991441905498505
1772366276971083500,7.77708349609375,-0.0005550212226808071,-0.0023810144048184156,0.00009728875011205673
1772366276981153500,7.787153564453125,0.000033702701330184937,0.002061909530311823,0.0006615305319428444
1772366276991223600,7.7972236328125,0.0018281405791640282,-0.0009674364700913429,-0.0000785626471042633
1772366277001293600,7.80729345703125,0.000634895171970129,-0.0031340643763542175,-0.0006888965144753456
1772366277011363600,7.817363525390625,0.00030546216294169426,-0.004126357845962048,0.0037431353703141212
1772366277021433600,7.82743359375,0.0004272083751857281,-0.002986969891935587,-0.0012310026213526726
1772366277031503600,7.837503662109375,-0.002735028974711895,0.003664008341729641,-0.00023791007697582245
1772366277041574400,7.847574462890625,0.002556795720010996,0.0007002591155469418,-0.0017186431214213371
1772366277051644700,7.857644775390625,-0.0005071708001196384,0.002818271517753601,-0.00004617869853973389
1772366277061714700,7.867714599609375,-0.0015647397376596928,0.0009084716439247131,-0.001415180042386055
1772366277071784400,7.877784423828125,0.0008022780530154705,0.0008637304417788982,-0.0007504550740122795
1772366277081854500,7.8878544921875,-0.0008486853912472725,-0.00010307785123586655,-0.0008064219728112221
1772366277091924700,7.8979248046875,-0.0006372304633259773,-0.0004215915687382221,-0.0010066917166113853
1772366277101994500,7.907994384765625,-0.001348142046481371,0.0007252143695950508,-0.000912228599190712
1772366277112065500,7.9180654296875,-0.0020600049756467342,0.0016695712693035603,-0.004074998199939728
1772366277122135600,7.928135498046875,-0.00025671860203146935,-0.0007448159158229828,-0.00041796546429395676
1772366277132205600,7.93820556640625,-0.00009612971916794777,-0.0010287088807672262,-0.0011748354882001877
1772366277142275600,7.948275634765625,0.00018998049199581146,-0.00010289391502737999,0.00019389484077692032
1772366277152345600,7.958345703125,0.00023658573627471924,0.0017767655663192272,-0.00122024305164814
1772366277162415600,7.96841552734375,0.0016812458634376526,0.0009801322594285011,-0.0012644147500395775
1772366277172485600,7.978485595703125,0.0019654049538075924,-0.0025986237451434135,0.0007020635530352592
1772366277182555600,7.9885556640625,0.00046117883175611496,-0.0003679371438920498,0.0023053213953971863
1772366277192624600,7.998624755859375,-0.0016616270877420902,-0.0034886293578892946,0.0014235489070415497
1772366277202694700,8.008694580078124,0.0005971640348434448,-0.0024767243303358555,0.001377129927277565
1772366277212764400,8.018764404296874,-0.0019581392407417297,0.0008644773624837399,0.0006697941571474075
1772366277222834700,8.028834716796876,0.0006687385030090809,0.0026555079966783524,-0.001200036145746708
1772366277232904700,8.03890478515625,0.0017782114446163177,-0.00023641856387257576,-0.0006935028359293938
1772366277242975500,8.0489755859375,0.0001368662342429161,-0.0005681919865310192,0.0015742955729365349
1772366277253045500,8.05904541015625,0.0009672399610280991,0.0008890894241631031,-0.0005924515426158905
1772366277263115500,8.069115478515625,0.0014713690616190434,-0.000476048793643713,-0.0008697733283042908
1772366277273185500,8.079185546875,-0.00017206789925694466,-0.00195490219630301,-0.0018048090860247612
1772366277283255600,8.089255615234375,-0.000016759149730205536,0.00038402993232011795,-0.002065577544271946
1772366277293325600,8.09932568359375,0.0018818085081875324,-0.0017936367075890303,-0.0016868766397237778
1772366277303395600,8.1093955078125,0.0007306239567697048,-0.0012715316843241453,-0.00009164400398731232
1772366277313465600,8.119465576171875,0.00039586471393704414,0.0006896201521158218,0.0014189006760716438
1772366277323536600,8.12953662109375,0.001668610144406557,-0.0008813627064228058,0.0011237375438213348
1772366277333606400,8.1396064453125,-0.0013841716572642326,0.0007032179273664951,-0.000008638948202133179
1772366277343676700,8.1496767578125,-0.0011730846017599106,-0.0003284849226474762,-0.0023081908002495766
1772366277353746700,8.15974658203125,-0.00004230625927448273,0.0019168262369930744,0.001270032487809658
1772366277363816400,8.16981640625,0.0017403881065547466,0.00018020672723650932,-0.0009928075596690178
1772366277373886500,8.179886474609376,-0.00018294667825102806,-0.0039040171541273594,-0.0010085199028253555
1772366277383956700,8.189956787109375,-0.002004065550863743,-0.0016691191121935844,-0.002027551643550396
1772366277394026500,8.200026611328125,0.0008186190389096737,0.001451306976377964,-0.00008237920701503754
1772366277404097500,8.21009765625,0.0005712490528821945,-0.0004463428631424904,-0.00023058801889419556
1772366277414167600,8.22016748046875,-0.0009502149187028408,-0.002851177239790559,-0.0005214046686887741
1772366277424237600,8.230237548828125,-0.0005254391580820084,0.0001974743790924549,-0.0022754790261387825
1772366277434307600,8.2403076171875,0.00409967266023159,-0.0015045518521219492,-0.00011831801384687424
1772366277444377600,8.250377685546875,-0.0025669876486063004,-0.0013761988375335932,-0.002074400894343853
1772366277454447600,8.260447509765624,-0.0007477821782231331,-0.0003748503513634205,-0.00042430590838193893
1772366277464517600,8.270517578125,0.0005500214174389839,0.0023486968129873276,-0.0005439659580588341
1772366277474587600,8.280587646484374,-0.00012269290164113045,-0.000005271285772323608,-0.000032106414437294006
1772366277484658400,8.290658447265624,-0.0017816079780459404,-0.00027656275779008865,0.0005033556371927261
1772366277494728400,8.300728515625,-0.0002135387621819973,0.00026618922129273415,-0.0010529952123761177
1772366277504798700,8.310798828125,-0.0014480678364634514,0.0017333426512777805,-0.0021249335259199142
1772366277514868500,8.320868408203125,-0.0013644453138113022,0.0007623541168868542,0.001817343756556511
1772366277524938500,8.3309384765625,0.0006996742449700832,-0.000013925135135650635,0.0005859248340129852
1772366277535008800,8.3410087890625,-0.0022417870350182056,0.0012982143089175224,-0.0005845343694090843
1772366277545078500,8.35107861328125,0.001749682705849409,-0.0004706447944045067,-0.0005706558004021645
1772366277555148500,8.3611484375,-0.003294876776635647,0.0013576154597103596,-0.0009299162775278091
1772366277565218600,8.371218505859375,0.00036345236003398895,0.0011930065229535103,-0.00009381398558616638
1772366277575289600,8.38128955078125,0.0019592181779444218,-0.001840866869315505,-0.0012911716476082802
1772366277585359600,8.391359619140625,0.0006072577089071274,-0.0008532106876373291,0.001893852837383747
1772366277595429600,8.4014296875,0.001772923395037651,-0.0002984744496643543,0.0010384451597929
1772366277605499400,8.41149951171875,0.0008456464856863022,-0.0018155931029468775,0.0012159422039985657
1772366277615569700,8.421569580078126,0.00095323845744133,-0.0002696281298995018,0.0019049011170864105
1772366277625639700,8.4316396484375,-0.0005193715915083885,-0.0020658543799072504,0.00038902647793293
1772366277635709400,8.44170947265625,0.0014106212183833122,-0.0017630530055612326,0.0010361745953559875
1772366277645779700,8.45177978515625,-0.0009666741825640202,0.00022566551342606544,-0.0011132312938570976
1772366277655850800,8.461850830078125,0.0024834508076310158,-0.0004981816746294498,-0.00032653287053108215
1772366277665920500,8.47192041015625,0.0007703164592385292,-0.0004295129328966141,0.0011039907112717628
1772366277675990500,8.481990478515625,0.0007364940829575062,0.0018605394288897514,-0.00006593577563762665
1772366277686060500,8.492060546875,-0.0011619734577834606,0.0004406995140016079,-0.0006893649697303772
1772366277696130600,8.502130615234375,0.00023671844974160194,0.0020875982008874416,-0.0009447624906897545
1772366277706200600,8.51220068359375,-0.0015128017403185368,0.0030233110301196575,0.0010598134249448776
1772366277716270600,8.5222705078125,-0.0010297042317688465,0.0006728046573698521,0.0018033673986792564
1772366277726340900,8.5323408203125,-0.001113328617066145,0.0005255234427750111,-0.0012949798256158829
1772366277736412000,8.542411865234374,0.002981814555823803,-0.0022042165510356426,-0.0006528915837407112
1772366277746482000,8.55248193359375,-0.0008443021215498447,0.0005847825668752193,0.0012625865638256073
1772366277756551700,8.5625517578125,-0.0019359313882887363,-0.0014093925710767508,0.001493748277425766
1772366277766622000,8.5726220703125,0.0007861750200390816,-0.000644095242023468,-0.0011378936469554901
1772366277776693000,8.58269287109375,0.0025582420639693737,0.0007596570067107677,-0.0018103411421179771
1772366277786763000,8.592762939453126,-0.00007252302020788193,0.002939133904874325,0.0017185527831315994
1772366277796832800,8.602832763671875,-0.00029995711520314217,0.0012139379978179932,-0.000373094342648983
1772366277806902800,8.61290283203125,0.0008089425973594189,-0.002657631877809763,-0.002694966271519661
1772366277816972800,8.622972900390625,0.0005610021762549877,-0.00009673601016402245,-0.0020347684621810913
1772366277827042800,8.633042724609375,0.0022927657701075077,-0.0011933036148548126,0.0002526175230741501
1772366277837113900,8.64311376953125,-0.00160503713414073,0.001020848285406828,0.00029522739350795746
1772366277847184000,8.653183837890625,0.00012185610830783844,0.00014410167932510376,-0.0007100999355316162
1772366277857254000,8.66325390625,-0.0006224974058568478,-0.0011952018830925226,-0.00283796526491642
1772366277867324000,8.673323974609374,-0.000545307993888855,0.0025241486728191376,0.0028720004484057426
1772366277877393700,8.6833935546875,0.0019735093228518963,-0.0009470153599977493,-0.0004548206925392151
1772366277887464000,8.6934638671875,-0.000469899270683527,-0.001581764779984951,-0.0006150882691144943
1772366277897534000,8.703533935546876,-0.00032182736322283745,0.003830844070762396,0.0010797474533319473
1772366277907603700,8.713603759765626,-0.002903888002038002,-0.001350016100332141,0.000841544009745121
1772366277917673700,8.723673828125,0.000004816800355911255,0.0025632325559854507,0.0009757671505212784
1772366277927744800,8.733744873046875,-0.0001565953716635704,0.0010740594007074833,-0.00042023882269859314
1772366277937815000,8.74381494140625,-0.00003275834023952484,-0.0009494107216596603,0.0008673993870615959
1772366277947884800,8.753884765625,-0.0008526444435119629,0.0014586583711206913,0.0006323494017124176
1772366277957954800,8.763954833984375,0.0011151647195219994,0.0011558569967746735,-0.00008750241249799728
1772366277968024800,8.77402490234375,0.0034962394274771214,0.0008126641623675823,-0.0016436567530035973
1772366277978094800,8.7840947265625,0.0013843527995049953,-0.0030145645141601562,0.002859748899936676
1772366277988164900,8.794164794921874,-0.0003488631919026375,-0.0019278859253972769,-0.0006187036633491516
1772366277998234600,8.804234619140624,0.00007564527913928032,-0.002817647997289896,-0.0009763659909367561
1772366278008305700,8.8143056640625,-0.0003056507557630539,-0.00050323735922575,-0.0022408664226531982
1772366278018376000,8.8243759765625,0.001013678964227438,-0.0011288139503449202,0.0010763667523860931
1772366278028445700,8.83444580078125,0.0018206979148089886,-0.0016708557959645987,0.0010254690423607826
1772366278038515700,8.844515625,0.00037859613075852394,0.000042621977627277374,0.00034236814826726913
1772366278048586000,8.8545859375,-0.0002611796371638775,-0.0003840276040136814,-0.000008956529200077057
1772366278058655700,8.86465576171875,0.0008951649069786072,0.00013049505650997162,0.0006323326379060745
1772366278068725800,8.874725830078125,-0.0014035296626389027,0.0017798636108636856,0.0010983571410179138
1772366278078796000,8.884796142578125,0.0008803973905742168,0.005099760368466377,0.00038063526153564453
1772366278088865800,8.89486572265625,-0.001955302432179451,-0.0012182947248220444,0.0012338627129793167
1772366278098936800,8.904936767578125,-0.0009515564888715744,-0.0020241672173142433,-0.0006673680618405342
1772366278109006800,8.9150068359375,0.00132319750264287,0.0004752776585519314,0.0006907237693667412
1772366278119076600,8.92507666015625,-0.00007576122879981995,-0.0018637764733284712,-0.0008666925132274628
1772366278129147000,8.93514697265625,-0.002147530671209097,-0.0014974644873291254,0.0013963626697659492
1772366278139217000,8.945216796875,-0.0011184853501617908,-0.00044258637353777885,0.0016339169815182686
1772366278149286700,8.95528662109375,-0.0006439751014113426,-0.002092293230816722,-0.0012208856642246246
1772366278159357000,8.96535693359375,-0.0010772710666060448,0.001804976724088192,-0.0007913177832961082
1772366278169427000,8.975427001953125,-0.001101465430110693,-0.0021958958823233843,-0.0009083421900868416
1772366278179497700,8.985497802734375,-0.00012275390326976776,0.000548758078366518,-0.0006896965205669403
1772366278189567700,8.995567626953125,0.0009724698029458523,0.00000845128670334816,0.00043600425124168396
1772366278199638000,9.005637939453125,-0.0015380922704935074,0.001098749227821827,0.0008125752210617065
1772366278209707800,9.015707763671875,0.0005407817661762238,0.0004852353595197201,0.0002287495881319046
1772366278219777800,9.02577783203125,-0.0006150300614535809,-0.0032405268866568804,-0.00031640008091926575
1772366278229847800,9.035847900390625,-0.0013885516673326492,0.00175808509811759,0.0004032012075185776
1772366278239917800,9.045917724609374,0.0007603527046740055,0.00009733764454722404,0.002188851125538349
1772366278249987800,9.05598779296875,0.00018687499687075615,0.0036956253461539745,0.0007551806047558784
1772366278260057900,9.066057861328124,-0.0016408520750701427,-0.00018033944070339203,0.0018928823992609978
1772366278270128600,9.076128662109374,0.0005870037712156773,-0.0010952618904411793,0.0005968650802969933
1772366278280199000,9.086198974609376,-0.000060144346207380295,0.0006102262996137142,0.0012253709137439728
1772366278290269000,9.09626904296875,-0.00043085962533950806,-0.00036151381209492683,0.00017600413411855698
1772366278300338700,9.106338623046875,-0.001231405884027481,0.0005852398462593555,0.0004955828189849854
1772366278310408700,9.11640869140625,-0.0007811170071363449,0.0020153429359197617,0.0017373403534293175
1772366278320479000,9.12647900390625,-0.0018889913335442543,-0.001535716000944376,0.00009656697511672974
1772366278330548700,9.136548828125,0.0005192495882511139,-0.0010784517508000135,0.0013013975694775581
1772366278340618800,9.14661865234375,0.0011030146852135658,-0.0015274607576429844,-0.0022576507180929184
1772366278350689800,9.156689697265625,0.0005836221389472485,-0.0031260731630027294,-0.002207930199801922
1772366278360759800,9.166759765625,0.00044380640611052513,-0.001992099219933152,-0.0011621061712503433
1772366278370829800,9.176829833984375,-0.001741382759064436,-0.0018276243936270475,-0.000993877649307251
1772366278380899800,9.18689990234375,-0.0002960856072604656,-0.00031920988112688065,0.0007318500429391861
1772366278390969900,9.196969970703124,-0.0013756598345935345,-0.00013239076361060143,-0.0009426148608326912
1772366278401040000,9.207039794921876,0.001459808088839054,0.0005296710878610611,-0.00041797198355197906
1772366278411110000,9.21710986328125,-0.001649708952754736,-0.0020985440351068974,0.0017679445445537567
1772366278421179600,9.2271796875,-0.0005008210428059101,-0.0006889328360557556,0.002983410842716694
1772366278431250700,9.237250732421876,0.0014954488724470139,0.0008797296322882175,-0.0019428618252277374
1772366278441321000,9.247321044921875,-0.00019699009135365486,0.003849420230835676,-0.00011912919580936432
1772366278451390700,9.257390625,-0.0019922172650694847,0.00026152050122618675,0.0012090252712368965
1772366278461460700,9.267460693359375,-0.0002478468231856823,-0.0033164366614073515,0.0002902345731854439
1772366278471531000,9.277531005859375,0.0015453328378498554,0.0010523959062993526,0.0007240576669573784
1772366278481600800,9.287600830078125,-0.0007178215309977531,-0.0026986664161086082,-0.00019286852329969406
1772366278491670800,9.2976708984375,0.0008011986501514912,0.0006423569284379482,0.0013243304565548897
1772366278501741000,9.307740966796874,0.0007354184053838253,0.0023350617848336697,-0.0011010104790329933
1772366278511810800,9.317810791015624,0.0006353496573865414,-0.00028724828734993935,0.00047234632074832916
1772366278521881900,9.3278818359375,0.00015837745741009712,-0.002234018873423338,0.0005144234746694565
1772366278531951900,9.337951904296874,-0.00037712883204221725,-0.0012265690602362156,-0.0006760163232684135
1772366278542021600,9.348021728515626,0.0012929392978549004,-0.0008468022570014,-0.0011641737073659897
1772366278552092000,9.358091796875,-0.00006670458242297173,-0.0011085760779678822,0.0005953321233391762
1772366278562162000,9.368161865234375,0.0027802148833870888,-0.00016848044469952583,0.0012366212904453278
1772366278572231700,9.378231689453125,-0.0005707726813852787,-0.0025239812675863504,-0.0006493022665381432
1772366278582302000,9.388302001953125,-0.00009246869012713432,0.000413485337048769,-0.00017659179866313934
1772366278592372000,9.3983720703125,0.0025659301318228245,0.00031767087057232857,0.0022709155455231667
1772366278602442800,9.40844287109375,-0.0017686313949525356,-0.0021215183660387993,0.002478376030921936
1772366278612512800,9.4185126953125,-0.0001021125353872776,-0.0009414744563400745,0.00031244009733200073
1772366278622583000,9.4285830078125,-0.0016052001155912876,-0.0006224280223250389,-0.0013661496341228485
1772366278632652800,9.43865283203125,-0.00044299010187387466,-0.0013905265368521214,-0.0002778274938464165
1772366278642722800,9.448722900390624,-0.0021317005157470703,0.00032215239480137825,0.0011882428079843521
1772366278652792800,9.458792724609374,0.0011775130406022072,0.0008076527155935764,0.00007355306297540665
1772366278662862800,9.46886279296875,0.00011171586811542511,-0.0006767935119569302,0.00011589750647544861
1772366278672932900,9.478932861328126,0.0007274546660482883,0.0005196789279580116,-0.00028969161212444305
1772366278683004000,9.48900390625,-0.0010067960247397423,-0.0025512119755148888,0.00017982441931962967
1772366278693073700,9.49907373046875,-0.0018513845279812813,-0.0038043332751840353,-0.0016244705766439438
1772366278703144000,9.50914404296875,0.00032495055347681046,-0.0016517001204192638,-0.0014827903360128403
1772366278713214000,9.5192138671875,-0.002182560507208109,-0.0023309143725782633,-0.0011546043679118156
1772366278723286800,9.529286865234376,0.00004730420187115669,-0.002562343142926693,0.001093636266887188
1772366278733357000,9.539357177734376,-0.0006672930903732777,-0.001284061698243022,0.0002570943906903267
1772366278743427000,9.549427001953125,0.00011407816782593727,-0.004187972750514746,-0.0014300178736448288
1772366278753496800,9.559496826171875,0.0006454330869019032,-0.0017638283316046,0.0000642361119389534
1772366278763566800,9.56956689453125,-0.0012198449112474918,0.0006713662296533585,0.0008354876190423965
1772366278773638000,9.579637939453125,-0.0007852613925933838,-0.0011628461070358753,-0.0009360760450363159
1772366278783708000,9.5897080078125,-0.0009122947230935097,-0.0029908400028944016,0.0019366759806871414
1772366278793778000,9.59977783203125,0.0011522904969751835,0.0017040991224348545,0.0005186460912227631
1772366278803848000,9.609847900390625,0.001856164075434208,0.0006510848179459572,-0.0004877625033259392
1772366278813918000,9.61991796875,0.0010593333281576633,0.0010469923727214336,-0.000046537257730960846
1772366278823988000,9.629988037109374,-0.00045041274279356003,0.001726364716887474,0.0005537392571568489
1772366278834058000,9.64005810546875,-0.001674481201916933,-0.0020227080676704645,-0.00048062764108181
1772366278844128000,9.6501279296875,0.00157963577657938,0.0013637677766382694,-0.0008020717650651932
1772366278854199000,9.660198974609376,-0.00035268068313598633,-0.0018678077030926943,-0.0019810302183032036
1772366278864269000,9.67026904296875,0.00167105533182621,0.0009956229478120804,0.0018541878089308739
1772366278874338800,9.6803388671875,0.00020722253248095512,0.0011452422477304935,0.0008163684979081154
1772366278884408800,9.690408935546875,0.0010887286625802517,0.0011513675563037395,-0.0011429190635681152
1772366278894479000,9.70047900390625,-0.0016410192474722862,0.002482894342392683,0.00118260458111763
1772366278904548900,9.710548828125,-0.0013627195730805397,0.0016045840457081795,-0.0020036017522215843
1772366278914619000,9.720618896484375,-0.0017998693510890007,0.0005971230566501617,-0.00011288654059171677
1772366278924689200,9.730689208984375,-0.00040037836879491806,0.000007233116775751114,-0.001839413307607174
1772366278934759000,9.740759033203124,-0.0013819364830851555,0.0003972221165895462,-0.0036062095314264297
1772366278944830000,9.750829833984374,-0.0009369226172566414,-0.0002320827916264534,0.00027827732264995575
1772366278954900000,9.76089990234375,0.0007522017695009708,-0.0030498895794153214,-0.00029428210109472275
1772366278964970000,9.770969970703124,0.00015059392899274826,-0.0022778394632041454,0.0007667215541005135
1772366278975040000,9.7810400390625,0.00046579912304878235,-0.0007418608292937279,-0.0024935798719525337
1772366278985110000,9.791110107421876,-0.0016918936744332314,0.001700257882475853,0.0013440344482660294
1772366278995179800,9.8011796875,0.0006380071863532066,-0.0028673307970166206,0.0018094778060913086
1772366279005250000,9.81125,0.0009959358721971512,0.002052326686680317,0.0004430105909705162
1772366279015320000,9.821320068359375,-0.001358990091830492,0.00022253580391407013,0.00039919745177030563
1772366279025390800,9.831390869140625,0.0009329258464276791,0.00159166706725955,0.001759805716574192
1772366279035460900,9.8414609375,0.00017933547496795654,-0.000563871581107378,0.0002857707440853119
1772366279045531100,9.85153125,0.0008579092100262642,0.003091316670179367,-0.00005138572305440903
1772366279055601000,9.861600830078125,-0.0018613506108522415,0.0025607342831790447,-0.001511801965534687
1772366279065671000,9.8716708984375,0.00045666517689824104,0.00008452683687210083,0.0005177929997444153
1772366279075741000,9.881740966796874,0.0003820532001554966,-0.000569317489862442,-0.0008978871628642082
1772366279085811000,9.89181103515625,0.0011125579476356506,-0.0006345650181174278,-0.0013684676960110664
1772366279095881000,9.901880859375,0.0008895164355635643,0.0018292944878339767,-0.0007870588451623917
1772366279105951000,9.911950927734376,-0.0020032087340950966,0.0002660187892615795,0.0009296145290136337
1772366279116021800,9.922021728515626,0.00024810340255498886,0.00158690195530653,-0.0014842534437775612
1772366279126092000,9.932092041015625,-0.0006142277270555496,0.0008774357847869396,-0.0000852951779961586
1772366279136162000,9.942162109375,-0.00009159231558442116,0.00372909614816308,0.0018558986485004425
1772366279146231800,9.952231689453125,-0.0017177187837660313,0.002157831098884344,-0.0012141941115260124
1772366279156302000,9.962302001953125,-0.0022931923158466816,0.002369748894125223,0.000538988970220089
1772366279166372000,9.9723720703125,0.0007587899453938007,0.003188138362020254,-0.0008112331852316856
1772366279176441900,9.98244189453125,-0.00040443846955895424,0.0028412258252501488,-0.0004157433286309242
1772366279186512000,9.992511962890624,0.00045682815834879875,0.0015823496505618095,-0.0005992352962493896
1772366279196583000,10.0025830078125,-0.0013103778474032879,0.0006216163747012615,-0.001993161626160145
1772366279206653000,10.01265283203125,0.0017959335818886757,0.0022445470094680786,-0.0029119523242115974
1772366279216723000,10.022722900390624,-0.0016087270341813564,-0.00026824837550520897,0.0005882652476429939
1772366279226793000,10.03279296875,-0.0002838042564690113,0.0003567957319319248,0.0016402145847678185
1772366279236863000,10.042863037109376,-0.0008116499520838261,0.0020896214991807938,0.00037162378430366516
1772366279246933000,10.05293310546875,0.00004775170236825943,-0.0006614238955080509,0.0004318114370107651
1772366279257003000,10.0630029296875,-0.00012323912233114243,0.0003292062319815159,0.0008232314139604568
1772366279267073000,10.073072998046875,-0.002145643811672926,-0.0015768182929605246,-0.002083076164126396
1772366279277143000,10.08314306640625,0.0003200420178472996,0.00017948541790246964,-0.00032781902700662613
1772366279287214000,10.093214111328125,-0.0009409650228917599,0.002813351806253195,-0.0013121236115694046
1772366279297283800,10.103283935546875,-0.002439293544739485,-0.0015372836496680975,-0.00047901272773742676
1772366279307353900,10.113353759765625,0.0000033574178814888,-0.0006616362370550632,0.0017742877826094627
1772366279317424000,10.123424072265625,-0.0002859053201973438,0.0018122107721865177,-0.000606839545071125
1772366279327494000,10.133493896484374,-0.000476054847240448,0.0018012919463217258,-0.00022041518241167068
1772366279337564000,10.14356396484375,-0.003468729555606842,0.0009021144360303879,0.0006743269041180611
1772366279347634200,10.15363427734375,0.00028925715014338493,0.0032425005920231342,0.002695665694773197
1772366279357704000,10.163703857421876,0.002685314044356346,0.0013800482265651226,-0.0020347023382782936
1772366279367774000,10.17377392578125,0.00028367526829242706,-0.0013899055775254965,-0.0017358958721160889
1772366279377845000,10.183844970703126,0.0015679304488003254,0.004267949610948563,-0.0029704151675105095
1772366279387915000,10.1939150390625,-0.00019375095143914223,0.0023235753178596497,0.0017673484981060028
1772366279397985000,10.203985107421875,0.0016856798902153969,0.009020008146762848,-0.001612003892660141
1772366279408055000,10.214054931640625,0.0006851302459836006,0.006078014615923166,-0.0009446153417229652
1772366279418124800,10.224124755859375,-0.0010674083605408669,0.012042645364999771,-0.00034889206290245056
1772366279428195000,10.234195068359375,-0.00193080585449934,0.053167443722486496,0.035788871347904205
1772366279438264800,10.244264892578125,0.000344881322234869,0.0004655132070183754,-0.0007446166127920151
1772366279448334800,10.2543349609375,-0.0002985387109220028,0.007424352690577507,0.008454208262264729
1772366279458406000,10.264406005859374,0.00011158687993884087,-0.01699843257665634,-0.006642452906817198
1772366279468476200,10.27447607421875,-0.0003123884089291096,-0.02119317650794983,-0.0045430827885866165
1772366279478546000,10.2845458984375,-0.0010405951179564,-0.02434251457452774,-0.00824764184653759
1772366279488616000,10.294615966796876,0.0025589335709810257,-0.016301365569233894,-0.008329400792717934
1772366279498686000,10.30468603515625,-0.0005144965834915638,-0.007156720384955406,-0.006995055358856916
1772366279508756000,10.314755859375,0.0026251040399074554,-0.003911658190190792,-0.0010311724618077278
1772366279518826000,10.324825927734375,0.00004300195723772049,-0.003150955541059375,-0.0002231905236840248
