time,seconds_elapsed,z,y,x
1772366230613539600,0.11453955078125,-0.030551790130138395,0.0010246668726205826,0.002374948970414698
1772366230623610600,0.124610595703125,-0.04057341792881489,-0.0001765256106853485,0.006024995910562574
1772366230633681000,0.134680908203125,-0.029788404542207717,-0.00403881792887114,0.004720306520164013
1772366230643750700,0.144750732421875,-0.028577275186777114,-0.0015265885127708316,0.0036846433294937015
1772366230653820700,0.154820556640625,-0.05235562565922737,-0.001806565364776179,0.0008490545773878693
1772366230663890700,0.164890625,-0.03693243107795715,0.0013941577721387148,-0.001357077164761722
1772366230673961700,0.174961669921875,-0.02257072824835777,-0.006564208220643923,0.0006528013529255986
1772366230684031500,0.185031494140625,-0.0297585939258337,-0.0021209194104187187,0.004300583270750939
1772366230694101500,0.1951015625,-0.04173486292362213,-0.001226710517052561,0.002231996835768223
1772366230704171800,0.205171875,-0.03126782944500446,-0.007477815934224054,-0.0009246405642479657
1772366230714241500,0.215241455078125,-0.02214168918132782,-0.0019429690276272593,-0.0006553951688110828
1772366230724312600,0.2253125,-0.03308043182492256,0.00034019173979759216,0.001701616286113858
1772366230734382600,0.235382568359375,-0.03517418923377991,-0.0015077194155193865,-0.0020503566585481164
1772366230744452400,0.245452392578125,-0.04026128323972225,-0.0025150880934670565,0.005008402746543288
1772366230754522600,0.255522705078125,-0.03876432268023491,-0.0018171415577176958,0.0011496449591591954
1772366230764593700,0.26559375,-0.02470481766760349,-0.004726224804297089,0.007755765225924551
1772366230774663700,0.27566357421875,-0.0293447524279356,0.004852728127641603,0.008483056587167083
1772366230784733400,0.2857333984375,-0.03607552198767662,-0.005779186189640313,0.00453274805881083
1772366230794803700,0.2958037109375,-0.037426936596632,0.0028509050522465256,-0.0037775823099538684
1772366230804874800,0.305874755859375,-0.03788637080192566,-0.0019466679552104323,-0.002699760477989912
1772366230814944500,0.315944580078125,-0.03579612052440643,-0.002515407753875479,0.008100888869166373
1772366230825014500,0.3260146484375,-0.03190729639232159,0.0033832583632785827,0.0035441388802602883
1772366230835084800,0.336084716796875,-0.04252396747469902,0.0026546152951661497,-0.0007729936664924025
1772366230845154600,0.346154541015625,-0.031304654324054715,-0.006826530684949829,-0.011003222714550792
1772366230855225600,0.3562255859375,-0.031008886247873305,-0.0006753145788330584,-0.00497351409625262
1772366230865295600,0.366295654296875,-0.03115852385163307,0.006731070953840389,-0.0039335765892639755
1772366230875365400,0.376365478515625,-0.03549976792633533,0.0010021171140950174,0.005739639630541205
1772366230885435600,0.386435546875,-0.029813538983464238,-0.0040900823252275585,-0.0027854294674471017
1772366230895505700,0.396505615234375,-0.014403788405656814,-0.0007083765982184558,0.0037111294776201245
1772366230905576700,0.40657666015625,-0.024442951861023902,-0.00010173420826904475,-0.004802029986865818
1772366230915646500,0.416646484375,-0.02789163101017475,0.0009438293219078332,-0.000022613690607249737
1772366230925716700,0.426716796875,-0.03687105627954006,-0.0073357405824121084,-0.0012595716070383787
1772366230935786500,0.436786376953125,-0.03223170604109764,-0.0018105930859223006,-0.0018501213787123559
1772366230945857500,0.446857421875,-0.02758183440864086,0.0008127137555275112,-0.0016178835254162549
1772366230955927600,0.456927490234375,-0.036416882771253586,-0.0007168247661553322,0.0034767361998558045
1772366230965997600,0.46699755859375,-0.02683715352118015,0.006112044006353244,0.0065233738867565986
1772366230976067600,0.477067626953125,-0.03537292667627334,0.009958261972572654,0.009996420292183757
1772366230986137600,0.4871376953125,-0.04450140502750873,0.0003112761725671589,0.0069960328998044125
1772366230996208600,0.497208740234375,-0.035823008531332017,-0.0010439286955166607,0.009228760387934744
1772366231006278400,0.5072783203125,-0.027293665117025374,-0.0031471937182359394,0.005643595377542078
1772366231016348700,0.5173486328125,-0.033733342775702474,-0.004408701554033905,0.0070384107368066905
1772366231026418700,0.527418701171875,-0.034926351952552795,0.0021210381414275615,0.001875146222114563
1772366231036489500,0.537489501953125,-0.03447977722883224,0.0010266944329254328,-0.003683656948804855
1772366231046559500,0.5475595703125,-0.03178980749249458,0.0020383282940369097,-0.000032185236550867555
1772366231056629800,0.557629638671875,-0.028801731592416762,-0.004739732739841566,0.002248546111769974
1772366231066699500,0.567699462890625,-0.030151977157592772,0.004514920141175389,-0.004091397499479353
1772366231076769500,0.57776953125,-0.03583879062235355,0.0010345306795090437,-0.006472301286645233
1772366231086840600,0.587840576171875,-0.028207272830605506,0.0005611775467172264,0.0002620484696701169
1772366231096910600,0.59791064453125,-0.04152618860900402,-0.008190402916679159,0.00022226444855332373
1772366231106980600,0.607980712890625,-0.03344868061542511,-0.004070793102867901,0.0004418620159849524
1772366231117050600,0.618050537109375,-0.028210779961943624,-0.004102293352829293,-0.00032908582389354704
1772366231127121700,0.62812158203125,-0.03375613912940025,-0.005133326034154743,0.004558247826248407
1772366231137191400,0.63819140625,-0.029875498303771016,-0.0025113800327293575,-0.00042644525114446873
1772366231147261700,0.64826171875,-0.03121639151871204,0.002095090849418193,0.0065821183366701
1772366231157331700,0.658331787109375,-0.031360768425464626,-0.004935127447778359,-0.0013909429017454386
1772366231167401500,0.6684013671875,-0.036296471261978144,-0.008248288850067183,0.0025562603540718555
1772366231177472500,0.678472412109375,-0.040488077732920645,0.002891702853515744,0.010279328886792062
1772366231187542800,0.688542724609375,-0.033304303708672524,0.003235182528942823,0.0061156333360821
1772366231197612500,0.698612548828125,-0.028066987577080725,0.00005034194774925708,-0.008103263489343225
1772366231207682600,0.7086826171875,-0.02851473134458065,-0.006559239784581586,0.0004439809078350663
1772366231217753600,0.718753662109375,-0.032850130200386046,-0.002423738281894475,0.003363010159693658
1772366231227823600,0.72882373046875,-0.037787002080678936,-0.0024278390682768076,0.003698014267720282
1772366231237893600,0.7388935546875,-0.033901100558042525,0.0020479911715257913,-0.0005660729175433517
1772366231247963600,0.748963623046875,-0.021036358287930487,-0.006423776836646721,-0.004724836564809084
1772366231258033400,0.759033447265625,-0.02972586070001125,-0.0025242943132296205,-0.00015632307287305594
1772366231268104400,0.7691044921875,-0.03242576730847359,0.0033906653515994546,0.006266659179329872
1772366231278174700,0.7791748046875,-0.024648119044303893,0.005226365479314699,-0.0029261896450072525
1772366231288244500,0.789244384765625,-0.03542378008067608,-0.0062697187860962,-0.00011204553972929716
1772366231298314500,0.799314453125,-0.035576924815773965,0.0013836729107424616,-0.000039601358026266094
1772366231308384800,0.809384765625,-0.031089550268650054,0.007624786656862124,-0.002148958194814622
1772366231318455800,0.819455810546875,-0.029741058269143104,0.0038731699052266776,0.004052344130724668
1772366231328525600,0.829525634765625,-0.04171323561370373,-0.007547894628904759,-0.000017060732655227183
1772366231338595600,0.839595703125,-0.03542436460256576,-0.0025748006577603517,-0.003515058916248381
1772366231348665600,0.84966552734375,-0.03961772463917732,0.0030154296978842465,-0.003280957899428904
1772366231358736600,0.859736572265625,-0.036168460968136786,0.0066916065931320184,0.002592792972177267
1772366231368806700,0.869806640625,-0.03750818513929844,0.006346208955254405,0.0003671162793412804
1772366231378876700,0.879876708984375,-0.03868833483457565,-0.0016348346602171658,-0.002984020779468119
1772366231388946400,0.889946533203125,-0.039574470019340516,-0.0038316414515953507,0.003679747958667576
1772366231399016700,0.9000166015625,-0.0358235930532217,0.003498701436491683,0.010034962204284965
1772366231409087700,0.910087646484375,-0.03431728014349937,-0.0003801310245413333,-0.00047956367786973714
1772366231419157500,0.920157470703125,-0.025784429597854614,-0.002893611682811752,0.00005618716664612293
1772366231429227500,0.9302275390625,-0.028026071044802665,-0.00549110822957009,-0.0024389175847172734
1772366231439297800,0.9402978515625,-0.03100771720409393,0.004147584666125476,0.000034486791491508485
1772366231449367600,0.950367431640625,-0.03235504015982151,0.0038378154640551655,0.0016578502096235752
1772366231459438600,0.9604384765625,-0.03429506831169128,0.004542630132008343,-0.0007716054270043969
1772366231469508600,0.970508544921875,-0.03205108877718448,-0.0007195281798951327,0.00010791735388338565
1772366231479578400,0.980578369140625,-0.039077626413106914,0.0031956633693072944,0.00022018208932131526
1772366231489648600,0.990648681640625,-0.033688919112086296,0.003870311227859929,0.0002779401585459709
1772366231499719700,1.0007197265625,-0.036384149545431135,0.0028137239801697433,0.0029564751854166387
1772366231509789700,1.010789794921875,-0.03218845142126083,0.0006735610131639987,-0.0063512321902439
1772366231519859500,1.020859375,-0.040866263395547865,-0.004209050796087831,0.0004301350455731153
1772366231529929700,1.0309296875,-0.04190554331541061,-0.000526873418316245,0.002718830504640937
1772366231539999500,1.04099951171875,-0.02543605455160141,-0.0016710567510686814,0.0011366028144955635
1772366231550070500,1.051070556640625,-0.03366086206138134,-0.005901168601494282,0.0015485080836340785
1772366231560140500,1.061140625,-0.024079963767528533,-0.007474500599130987,0.0011687515184283257
1772366231570210800,1.0712109375,-0.028414778101444244,0.0017530724787153302,0.004740509057976306
1772366231580280600,1.081280517578125,-0.03469312771856785,0.0006608293957542627,0.00561491727232933
1772366231590351600,1.0913515625,-0.03364274188280105,-0.013960519883874803,-0.004514627880230546
1772366231600421600,1.101421630859375,-0.028994623816013334,-0.0008147139163687825,0.000805434631370008
1772366231610491400,1.111491455078125,-0.02361117721199989,0.001777083541965112,0.003918561683222651
1772366231620561700,1.121561767578125,-0.028547464570403098,-0.001281299381656572,0.008312851119413971
1772366231630631700,1.131631591796875,-0.031544308298826214,0.003649097092077136,-0.001507007029466331
1772366231640702500,1.141702392578125,-0.03783376383185386,-0.00030826223157346246,-0.0017489990917965768
1772366231650772500,1.1517724609375,-0.03289338482022285,-0.0019114779108203946,-0.0013833806497976183
1772366231660842800,1.1618427734375,-0.03243862679004669,0.004847796224197372,-0.005319514522328973
1772366231670912800,1.171912841796875,-0.03228665109872818,0.00238566216067411,0.004472213510610163
1772366231680982800,1.181982666015625,-0.03079085958302021,0.0015651212917175143,-0.0004885872345417738
1772366231691053800,1.1920537109375,-0.028696517652273178,-0.003858492925902828,0.0020334785889834163
1772366231701123800,1.202123779296875,-0.022269699475169182,0.005034998492524027,-0.003354278863966465
1772366231711193900,1.21219384765625,-0.03722819915413856,0.0016621245259419084,-0.0013078311955556272
1772366231721263600,1.222263671875,-0.03841653215587139,0.0026906729892361906,0.010133381077460944
1772366231731334700,1.232334716796875,-0.04334463620781898,-0.01263833136940375,0.001505874518305063
1772366231741404700,1.24240478515625,-0.027618659287691114,-0.009807181330397725,-0.00689549513477832
1772366231751475000,1.252474853515625,-0.027461422899365425,0.01039616019949317,-0.0031324893394485114
1772366231761544700,1.262544677734375,-0.022670681491494177,0.009072565179225056,0.0014079671017825602
1772366231771614700,1.27261474609375,-0.022078560817241667,0.00032187063181772827,-0.0012520093550905584
1772366231781685800,1.282685791015625,-0.030459435671567916,-0.010765550634311512,0.0003596270926296711
1772366231791755800,1.292755859375,-0.04452537042498588,0.0006752049809787422,-0.00348258141875267
1772366231801825800,1.30282568359375,-0.03180266697406769,0.005485646603163331,0.00034468525182455775
1772366231811895800,1.312895751953125,-0.027315292426943777,0.008290840217005461,0.0069054320069029925
1772366231821965600,1.322965576171875,-0.032850714722275735,0.006260238571697846,0.004703464983217418
1772366231832036600,1.33303662109375,-0.027753683844208715,-0.0011803140920586884,0.0035655104618519543
1772366231842107000,1.34310693359375,-0.031043957561254498,0.009125181282451376,0.00019716653991490603
1772366231852176600,1.3531767578125,-0.017267945665121076,-0.0013912990947719662,-0.004995579797588289
1772366231862246700,1.36324658203125,-0.016810849547386167,-0.0026477745624259113,-0.000929901261255145
1772366231872317700,1.373317626953125,-0.0527115994900465,0.0006642360623925924,0.0051480304129421705
1772366231882388000,1.383387939453125,-0.026819617864489553,-0.0012642843147739767,-0.004913746733032166
1772366231892457700,1.393457763671875,-0.02143967839181423,0.003460351320635527,-0.0029934827275574206
1772366231902527700,1.40352783203125,-0.038649756389856335,0.002417034546472132,-0.0011151947002857924
1772366231912597800,1.41359765625,-0.02712473829090595,-0.004632043714821338,0.008074841112457215
1772366231922668800,1.423668701171875,-0.025332594177126883,0.0006275481806602329,0.004104293513670564
1772366231932738800,1.43373876953125,-0.03356032429635525,0.004023720824439078,0.0017512641141191124
1772366231942808800,1.443808837890625,-0.030565818655490875,-0.004312986094597727,0.004799436170980334
1772366231952878600,1.453878662109375,-0.03475508703887462,-0.008570351278129964,0.0022239596597850323
1772366231962948900,1.463948974609375,-0.032954759618639945,0.001257069122698158,-0.00019870090987533329
1772366231973020000,1.47402001953125,-0.024120295777916908,0.0016025946247391401,0.006223550689965486
1772366231983089700,1.484089599609375,-0.02770516852736473,-0.006323549598874524,-0.000806859403476119
1772366231993159700,1.49415966796875,-0.028007366344332693,0.0034074520896188914,-0.000987951591424644
1772366232003230000,1.50422998046875,-0.030400983482599255,-0.003198065388947725,0.003383943349868059
1772366232013299700,1.5142998046875,-0.029056583136320112,-0.0033042931092437354,-0.010240494713746011
1772366232023370800,1.524370849609375,-0.02023380973339081,-0.0010291877841111271,0.003138078830018639
1772366232033440800,1.534440673828125,-0.03893617211580276,0.002375359962368384,0.0008174173301085829
1772366232043510800,1.5445107421875,-0.022025369325280188,0.013915365567896514,0.001910400198586285
1772366232053580800,1.554580810546875,-0.02232289096713066,-0.002943469573371112,0.004615457906201482
1772366232063651800,1.56465185546875,-0.018885317733883855,-0.0003754183168057352,0.008277304881997407
1772366232073721600,1.5747216796875,-0.049561026504635806,-0.001729225812247023,0.00916574162170291
1772366232083791600,1.58479150390625,-0.026964579293131827,0.003952281289733946,0.0054869435111060735
1772366232093862000,1.59486181640625,-0.031600422400236125,0.0014700725525617598,0.002416669220291078
1772366232103931600,1.604931640625,-0.036837154009938235,0.0036621118372771886,-0.005627667156048119
1772366232114002700,1.615002685546875,-0.027560791620612143,0.0075291807952802626,-0.00011642945390194654
1772366232124072700,1.62507275390625,-0.0353401934504509,-0.0015851411664392799,-0.0041183220390230415
1772366232134143000,1.63514306640625,-0.021418635603785513,0.0003077873075380921,-0.008198905883543193
1772366232144212700,1.645212646484375,-0.021122867527604103,-0.0023875344573520123,0.0027562033729627727
1772366232154282800,1.65528271484375,-0.0290483998298645,-0.0006797624250873922,-0.0016023936953395604
1772366232164353800,1.665353759765625,-0.022617489999532697,-0.00873696741615422,0.0032683176135644317
1772366232174423800,1.675423828125,-0.02920563621819019,-0.0010082363276276737,-0.000994344799593091
1772366232184493800,1.685493896484375,-0.022025369325280188,-0.0005863576537463814,-0.0023608108472079037
1772366232194563800,1.695563720703125,-0.02651391291618347,-0.003510355341667309,-0.00279237066488713
1772366232204634600,1.705634521484375,-0.027570143970847127,-0.003067854004865512,0.0044952655926346775
1772366232214704600,1.71570458984375,-0.02907411879301071,-0.005696768603194504,0.0032960824033245444
1772366232224775000,1.72577490234375,-0.024891280150413513,0.003922324542887509,0.0073110536657273765
1772366232234844700,1.7358447265625,-0.020266542959213256,0.004894192649191245,0.005517813573405146
1772366232244914700,1.745914794921875,-0.03059387570619583,0.0018014964640140532,0.00007927578128874301
1772366232254985700,1.75598583984375,-0.02790390596985817,0.001479132641851902,0.005061155847087502
1772366232265055700,1.7660556640625,-0.034492636710405346,0.0012597542701289057,0.0018348142117261886
1772366232275125800,1.776125732421875,-0.03763736447691917,0.0016110610589850692,0.007468618847616016
1772366232285195800,1.78619580078125,-0.035545360633730885,0.00039120954098179934,-0.0008259659627452492
1772366232295265800,1.796265869140625,-0.04153437191545963,0.011085914295632392,-0.004809994097612798
1772366232305336800,1.8063369140625,-0.02941840218603611,0.0034877416510600595,0.0025447525793686507
1772366232315406800,1.81640673828125,-0.03285714446306229,-0.002431948987813666,0.00483991431184113
1772366232325476600,1.8264765625,-0.03510638469457626,-0.0029329664456658063,0.004307561000809073
1772366232335546600,1.836546630859375,-0.04528057270646095,-0.0012365012587048114,0.005799078200198709
1772366232345617700,1.84661767578125,-0.036299978393316265,0.0004121335980016738,0.0012152575412765145
1772366232355688000,1.85668798828125,-0.02373100419938564,0.002515608683275059,-0.004627111811377108
1772366232365757700,1.8667578125,-0.027618659287691114,-0.0021039774087723345,0.008011018628627062
1772366232375827700,1.87682763671875,-0.045421442481875414,-0.0074094816720578814,-0.0032816520191729067
1772366232385898000,1.88689794921875,-0.030015783557295797,0.00011166194723919034,0.003601860416866839
1772366232395968800,1.89696875,-0.03166998050510883,0.00609139394396916,0.002361614564806223
1772366232406038800,1.907038818359375,-0.022248072165250776,0.008097107743192463,-0.0019637012884020804
1772366232416108800,1.91710888671875,-0.026591654327511784,0.005718286315258592,0.007528897667489946
1772366232426178800,1.9271787109375,-0.0313794731259346,0.007220197044499218,-0.0038286549100652336
1772366232436249900,1.937249755859375,-0.03526771273612976,0.006264321091771125,-0.005279072914086282
1772366232446319900,1.94731982421875,-0.026896774753928182,-0.004633139693364501,-0.002334543894790113
1772366232456389600,1.9573896484375,-0.03258241917490959,0.0028095866611693053,0.006684227004274726
1772366232466459600,1.967459716796875,-0.03422726377248764,0.009552375452267005,0.00580839401781559
1772366232476530000,1.977530029296875,-0.03856383167207241,0.0049817522016353906,0.00020849165152758359
1772366232486601000,1.98760107421875,-0.03212415401339531,-0.006622843072703108,0.0020997487582266328
1772366232496670700,1.997670654296875,-0.02913198646008968,-0.002851818367699161,0.00014477876555174589
1772366232506740700,2.00774072265625,-0.030919454398751257,-0.003069890698324889,0.0018134426301345229
1772366232516810800,2.017810791015625,-0.02447743865251541,-0.00014805756802670656,-0.0008768193671479821
1772366232526880800,2.027880859375,-0.033900516036152836,-0.0004130469134543091,-0.0010822788113728165
1772366232536951800,2.037951904296875,-0.02223521268367767,0.007744257451221347,-0.0013527663158252835
1772366232547021800,2.048021728515625,-0.03615443244278431,0.006355807900661602,0.005157967285066843
1772366232557091800,2.058091796875,-0.020742928299307822,-0.0024725367265287785,0.002172448668256402
1772366232567161900,2.068161865234375,-0.02703063026666641,-0.0029265458380337804,0.0016928849903866648
1772366232577231600,2.078231689453125,-0.030324411115050316,-0.0025936606218572703,-0.0014823840448632834
1772366232587302700,2.088302734375,-0.029570962399244307,0.0005108081995043903,0.0017666808789595962
1772366232597372700,2.09837255859375,-0.03959726637303829,-0.0015137472975067794,0.003827631996758282
1772366232607443000,2.10844287109375,-0.03450900332331657,0.003693666886165738,-0.0002094414995983243
1772366232617512700,2.1185126953125,-0.02208499055802822,0.00746114792721346,0.005579371034912765
1772366232627583700,2.128583740234375,-0.03031096711158752,0.00014792057070881127,-0.0051056525759398935
1772366232637653800,2.13865380859375,-0.024775544816255567,-0.008602728310925886,-0.0031694603489711877
1772366232647723800,2.148723876953125,-0.031067338436841962,-0.0014556513015646488,-0.004940269413776696
1772366232657793800,2.158793701171875,-0.03270692233741283,0.005034286106470972,0.0011924246549606323
1772366232667863800,2.16886376953125,-0.027772973066568372,0.006226254103705286,0.002716711612790823
1772366232677934800,2.178934814453125,-0.031958734318614006,0.00576772408070974,0.005802037342265248
1772366232688004900,2.1890048828125,-0.028667291557788847,0.0009977514662314205,-0.0009427242102101445
1772366232698075000,2.199074951171875,-0.03226443926692009,-0.00632551322709769,-0.00316434578243643
1772366232708145000,2.209144775390625,-0.03585807984471321,-0.006220883808843791,0.0009700506085529923
1772366232718215000,2.21921484375,-0.02882569698989391,0.001044220956461504,0.0017153160179033875
1772366232728285700,2.22928564453125,-0.03301613441705704,0.005916713230498135,0.0015749576991423964
1772366232738356000,2.23935595703125,-0.03407294999361038,-0.00047845856617204845,-0.005512954735197127
1772366232748426000,2.249426025390625,-0.0301899710804224,0.002729635026445612,-0.00027841508258134124
1772366232758495700,2.259495849609375,-0.03797814073860645,0.004111846632463857,0.000023307810351252554
1772366232768566800,2.26956689453125,-0.03245207079350948,0.01255331083391793,0.004738280568271875
1772366232778637000,2.279636962890625,-0.03484861054122448,-0.0036143271727953103,0.006937032721564173
1772366232788706800,2.289706787109375,-0.024227263283729553,-0.0024842819632496685,0.0022456600349396467
1772366232798776800,2.29977685546875,-0.024984803652763364,0.00248695797752589,0.006985803766734897
1772366232808846800,2.309846923828125,-0.03142097418010235,-0.0027249588513281195,-0.0026272797636687755
1772366232818918000,2.31991796875,-0.03845744868814945,0.0006014730244874954,0.005360065728425979
1772366232828988000,2.32998779296875,-0.023194997626543045,0.0071237052669283,0.0015925664210692048
1772366232839058000,2.340057861328125,-0.03142798844277859,0.004866172131104395,0.004059687186963856
1772366232849127700,2.350127685546875,-0.025143793606758117,-0.0019455080445855855,-0.0010229863721877336
1772366232859198000,2.360197998046875,-0.03067570877075195,0.007056832309486344,0.005225041171908378
1772366232869269000,2.37026904296875,-0.025138532909750936,0.00019777846126817165,0.00418919531814754
1772366232879339000,2.380339111328125,-0.032172084808349606,-0.0035643414180725813,0.0059674935696646565
1772366232889408800,2.39040869140625,-0.040702597266435624,-0.003648868763213977,0.0005409750089049339
1772366232899479000,2.40047900390625,-0.03142623487710953,-0.005959063668036833,0.00023684096317738292
1772366232909549800,2.4105498046875,-0.033813422274589534,0.003323125673877075,-0.001412643276900053
1772366232919619800,2.420619873046875,-0.01781505815386772,0.008566460554301738,-0.006174889242649078
1772366232929689900,2.43068994140625,-0.017978139761090278,0.0003079243048559874,-0.002745499315857887
1772366232939759900,2.440759765625,-0.034141339054703713,-0.002793740638066083,-0.006074753336422145
1772366232949830000,2.450829833984375,-0.03159866883456707,-0.0004912267161998897,-0.0005542728818953037
1772366232959901000,2.46090087890625,-0.040570495319366455,0.00004331855191849172,-0.000720752022601664
1772366232969971000,2.470970947265625,-0.03264379397332668,-0.009565481529012322,-0.002467011168040335
1772366232980040700,2.481040771484375,-0.029953239715099333,0.00867486196537502,-0.007177417348697781
1772366232990111000,2.491111083984375,-0.02471884619295597,0.0028707331307232377,-0.0031905396696180104
1772366233000181000,2.501180908203125,-0.031444939577579496,-0.0010484313406981527,-0.0018394173216074703
1772366233010252000,2.511251953125,-0.025164836394786835,-0.0036256705507170407,0.0068881886111572385
1772366233020321800,2.52132177734375,-0.02830021181106567,-0.002476975439628586,0.0002912380315363407
1772366233030391800,2.531391845703125,-0.029189269605278966,0.0022911888102535157,0.0058658963587135075
1772366233040461800,2.5414619140625,-0.026795652467012404,-0.0004976016580592841,0.0015270269041880965
1772366233050532900,2.551532958984375,-0.024856793358922002,0.0038840200928039847,0.003080795684829354
1772366233060603000,2.561602783203125,-0.022909166422486305,0.002870194274606183,0.0043015331188216805
1772366233070673000,2.5716728515625,-0.03278407922685146,0.00278703690264374,-0.001345094466023147
1772366233080743000,2.581742919921875,-0.026653613647818562,0.004388371152058244,-0.005619885708391666
1772366233090813000,2.59181298828125,-0.027257424759864805,-0.0025223306850064545,0.0023710034476593137
1772366233100884000,2.601884033203125,-0.03054769847691059,-0.0021062332979403433,0.0027084187084808944
1772366233110953700,2.61195361328125,-0.0336930107653141,0.0007611022992990911,-0.0024427169770002365
1772366233121024000,2.62202392578125,-0.022621581652760504,0.003592444134550169,0.003655892159044742
1772366233131094000,2.632093994140625,-0.037142274436354636,0.0041010603769682345,0.005742269979044794
1772366233141163800,2.642163818359375,-0.028618191719055174,0.002773318904545158,0.0005455050535500049
1772366233151234800,2.65223486328125,-0.02203004550039768,0.0005564465726725756,0.0072235580453649155
1772366233161304800,2.662304931640625,-0.01649754581451416,-0.007179737169947475,-0.003514620524831116
1772366233171374800,2.672374755859375,-0.03490180203318596,-0.0011657558437436818,-0.005759148048609494
1772366233181444900,2.68244482421875,-0.016643676286935805,0.0027488968493416905,-0.003340433001704514
1772366233191516000,2.692515869140625,-0.04267945029735565,0.0031639073910191655,0.0019150763737037777
1772366233201585700,2.702585693359375,-0.03250292419791222,0.006423037051130086,0.0010418737357482315
1772366233211656000,2.712656005859375,-0.03550269053578377,-0.0007186605302151292,-0.002580846806056797
1772366233221726000,2.722725830078125,-0.033705870246887204,0.00600805390891619,0.0035780411498621103
1772366233231795700,2.732795654296875,-0.02323357607126236,0.010080792373698204,0.005180069519020617
1772366233241866800,2.74286669921875,-0.0235322667568922,0.002506813455466181,0.005062726749666035
1772366233251937000,2.75293701171875,-0.024421909072995185,-0.006714613009383901,-0.0002887538135051727
1772366233262007000,2.763007080078125,-0.027260931891202926,-0.0013587485320400445,-0.0012467121254652739
1772366233272076800,2.773076904296875,-0.02516016021966934,0.0026054332580417393,-0.0005413038024678826
1772366233282146800,2.783146728515625,-0.03054945204257965,-0.0019074410565197467,-0.0038886780016124246
1772366233292217900,2.7932177734375,-0.022771803778409958,0.0009087762748356908,0.0017481953741982578
1772366233302288000,2.803287841796875,-0.027402970710396764,0.007318551985593513,-0.002397745324112475
1772366233312358000,2.81335791015625,-0.035329672056436535,-0.0029510592247825114,0.006538352260179818
1772366233322428000,2.823427978515625,-0.026195348486304282,0.007797321079019457,-0.0015582622926682234
1772366233332498700,2.833498779296875,-0.025138532909750936,0.006886462444951757,0.002983509322814643
1772366233342569000,2.84356884765625,-0.037248072898387906,0.00687689089900814,0.008021649620495737
1772366233352639000,2.853638916015625,-0.027965280768275258,0.012807769652176648,0.003958528367429971
1772366233362708700,2.863708740234375,-0.02496200729906559,0.00007914791712537408,0.0055442266562953585
1772366233372779000,2.873779052734375,-0.022416998991370198,0.0058820437759161,-0.0028149478228762744
1772366233382850000,2.88385009765625,-0.035728315985202784,-0.0008504793494939803,-0.0024122487735003233
1772366233392919800,2.893919921875,-0.03512684296071529,-0.002377460587909445,-0.00235558668281883
1772366233402989800,2.90398974609375,-0.02854337291717529,-0.0026748543655965478,0.0031775705901905893
1772366233413059800,2.914059814453125,-0.034524200892448426,0.003798058842401951,0.0043297728326171635
1772366233423129900,2.9241298828125,-0.029446459236741065,-0.002850621924456209,-0.004434804109670221
1772366233433201000,2.934200927734375,-0.022864742758870123,-0.004761213919287547,-0.00870155817605555
1772366233443271000,2.94427099609375,-0.03453121515512466,0.0009869926101993768,0.0019041531208902596
1772366233453340700,2.954340576171875,-0.031233342653512953,0.010172023454261943,0.003841916250437498
1772366233463411000,2.964410888671875,-0.02763502590060234,0.0029288291266653687,0.004619951418228447
1772366233473482000,2.97448193359375,-0.030924715095758438,0.002897529806103557,0.0007716054270043969
1772366233483552000,2.984552001953125,-0.027931963020563125,0.004110421860357746,0.0015298764484003185
1772366233493621800,2.994621826171875,-0.020752865171432495,0.002436953956494108,0.001293072017841041
1772366233503692000,3.004692138671875,-0.026892683100700376,0.010920604198705405,-0.0022270283997058867
1772366233513762000,3.014761962890625,-0.019115034836530684,0.00904207870941609,-0.007409399473667144
1772366233523832800,3.024832763671875,-0.02764496277272701,0.008366280073393136,-0.0038526933727785944
1772366233533902800,3.03490283203125,-0.027948914155364036,0.0026502679136116056,0.0027759675193578005
1772366233543972900,3.044972900390625,-0.03213525992929935,0.005646024796646088,0.0017655483677983283
1772366233554043000,3.05504296875,-0.0331833076775074,0.002555529701709747,-0.002148921662196517
1772366233564113000,3.06511279296875,-0.02973813565969467,-0.0023495496676769105,0.004959156777337193
1772366233574184000,3.075183837890625,-0.02629997790455818,0.007975846850546076,0.006264905613660812
1772366233584253700,3.085253662109375,-0.0364729968726635,0.006918236689548939,0.0007462883226573467
1772366233594324000,3.095323974609375,-0.033467385315895076,-0.0001441942436620593,0.0005383081277832389
1772366233604394000,3.10539404296875,-0.029722353568673133,0.008963825841434299,0.004515212402120232
1772366233614465000,3.115465087890625,-0.025077158111333847,0.0051354905917774885,0.0034510537693277
1772366233624534800,3.12553466796875,-0.03434709075987339,-0.003773956447606906,-0.00194236623942852
1772366233634605000,3.13560498046875,-0.03149403941631317,-0.00019394253636710344,0.0032207521447911855
1772366233644674800,3.1456748046875,-0.029693127474188803,0.0013031915530562401,0.001093859651312232
1772366233654744800,3.155744873046875,-0.027589433193206784,0.008692836013482884,0.0023176658252254127
1772366233664815900,3.16581591796875,-0.028490765947103498,0.0017593012901023029,-0.0034610271740704774
1772366233674885000,3.175885009765625,-0.02833995929956436,-0.0016398213625885545,-0.010904730776138603
1772366233684955100,3.185955078125,-0.031333295896649356,0.00026069676280021664,0.004067870493419468
1772366233695025200,3.196025146484375,-0.02564823599755764,0.0025519129725173114,-0.0010388049958273769
1772366233705096200,3.20609619140625,-0.03806289641261101,-0.002885382710583508,0.004908924427442252
1772366233715166200,3.216166259765625,-0.0380675725877285,0.0036279081735759973,0.00986899452023208
1772366233725236200,3.226236328125,-0.02923310874700546,0.004188053673831745,-0.0012285919468849897
1772366233735306000,3.236305908203125,-0.028936756148934362,-0.0002421564591117203,0.0033285233682021497
1772366233745376000,3.2463759765625,-0.02638882523179054,0.0004340988346375525,0.0002630713829770684
1772366233755447000,3.256447021484375,-0.03132102093696594,-0.0009184300191700458,0.006676774350181222
1772366233765517300,3.266517333984375,-0.022489479705691335,0.004054910547146574,0.004057056838460266
1772366233775587000,3.276587158203125,-0.03236556155383587,0.009189469557162374,0.00779741241056472
1772366233785657000,3.286656982421875,-0.027423428976535796,0.004577756244316697,-0.0064966685429215425
1772366233795727000,3.29672705078125,-0.022488310661911964,-0.008812754332413896,-0.002203099534846842
1772366233805798100,3.306798095703125,-0.03222118464708328,0.0064119494015350935,0.0010817673547193407
1772366233815868200,3.3168681640625,-0.03716214818060398,0.0038922216655686496,0.0019262553548440337
1772366233825938200,3.326938232421875,-0.021304069313406945,0.0011230583463329822,-0.002218443234451115
1772366233836008200,3.33700830078125,-0.030284663626551626,0.005390963190188631,0.001345898183621466
1772366233846079200,3.347079345703125,-0.032683541461825366,0.0022911066118627785,-0.0008491641752421856
1772366233856149200,3.357149169921875,-0.02625906137228012,0.0019740308861713857,-0.003919511531293392
1772366233866219000,3.367218994140625,-0.03883212721943855,-0.004347664682334289,0.005430573681369424
1772366233876289000,3.3772890625,-0.049157706400752066,-0.001956677892571315,0.005108903978951275
1772366233886359300,3.387359375,-0.04511690657734871,0.002092761895013973,0.0013549948055297135
1772366233896430000,3.39743017578125,-0.03389174820780754,0.005701426512002944,-0.004273950992152094
1772366233906500000,3.4075,-0.03883212721943855,-0.00006156659466214478,-0.002548953830450773
1772366233916570000,3.417570068359375,-0.03105097182393074,-0.000047337139910086986,-0.0003267842689529061
1772366233926640000,3.42764013671875,-0.029095161581039426,0.0034641689792275425,-0.00741213942002505
1772366233936711200,3.437711181640625,-0.03193535344302654,0.0033604346101172265,-0.0056885670304298395
1772366233946781200,3.44778125,-0.02804009957015514,0.0036870818817522377,-0.002323109185323119
1772366233956851200,3.457851318359375,-0.03701777127385139,-0.00034150691404938695,-0.0006600713439285754
1772366233966921200,3.467921142578125,-0.01905950525701046,-0.0028940957400016487,-0.000033281215094029903
1772366233976991200,3.4779912109375,-0.023102058646082876,0.004945329181384295,-0.0017189692797139285
1772366233987062300,3.488062255859375,-0.02624327928125858,0.003456204868480563,0.01136208262220025
1772366233997132000,3.498132080078125,-0.029980712243914603,0.007429958204505965,0.008049633605964482
1772366234007202000,3.5082021484375,-0.028777766194939613,0.00478624789584428,0.0035461847068741915
1772366234017272300,3.518272216796875,-0.039542321315407754,-0.0007550835504662245,0.0022678353341296312
1772366234027343000,3.528343017578125,-0.03145312288403511,-0.0040555133353453125,-0.0020376433074474334
1772366234037413000,3.5384130859375,-0.03534603866934776,0.005144377151131629,-0.0005685206029564142
1772366234047483100,3.548483154296875,-0.030852818903326987,0.0015850772343575955,-0.002757628145068884
1772366234057553200,3.55855322265625,-0.027560207098722457,-0.004802139584720135,0.005954597555473447
1772366234067623200,3.568623046875,-0.02771218279004097,-0.0009742153270170092,-0.0021674436995759603
1772366234077694200,3.578694091796875,-0.024125556474924086,-0.0011441559332888572,-0.0036231589332222937
1772366234087764000,3.588763916015625,-0.022620997130870818,0.002721433453680947,-0.0044905528848990794
1772366234097834000,3.598833984375,-0.036086043381690976,-0.0012049005440436303,-0.005488331750594079
1772366234107904300,3.608904296875,-0.044908232262730594,0.005333442582981661,-0.00023629297390580177
1772366234117974000,3.61897412109375,-0.024558687195181846,0.002040794245759025,0.00032886662818491455
1772366234128045000,3.629045166015625,-0.022761866906285285,-0.0015861458134371787,-0.001145443708077073
1772366234138115000,3.639114990234375,-0.01916881085038185,0.0024100842158775774,0.00041153994295746086
1772366234148185000,3.64918505859375,-0.03263911779820919,0.0027462573676835743,-0.0024549188714474437
1772366234158255000,3.659255126953125,-0.03159340813755989,0.005314646550966426,-0.0014389832945540546
1772366234168326100,3.669326171875,-0.02919745291173458,0.0040018195198848845,-0.0068179363865405315
1772366234178396200,3.679396240234375,-0.03368950363397598,0.0011374065320938825,0.001073985907062888
1772366234188466200,3.689466064453125,-0.03982522991001606,0.00715590876978822,0.0073919003495946526
1772366234198536200,3.6995361328125,-0.03952244757115841,-0.00037929077432490883,0.0029669235141947864
1772366234208606200,3.709606201171875,-0.0414659828543663,0.0026211696832906454,0.0009501768643036485
1772366234218677000,3.719677001953125,-0.03907236571609974,-0.0032976989716757086,-0.005641951409727335
1772366234228747000,3.7297470703125,-0.03354161959588527,-0.007263816990517079,0.0008328340949490666
1772366234238817300,3.7398173828125,-0.034146015229821206,-0.002756340370280668,0.00310439575612545
1772366234248887000,3.749886962890625,-0.027412907582521438,-0.002933660565409809,0.0005372852144762873
1772366234258958000,3.7599580078125,-0.030847558206319806,0.005094044336536899,-0.01080992863215506
1772366234269028000,3.770028076171875,-0.03188859169185161,-0.008534448847686872,-0.009612718204222619
1772366234279098000,3.78009814453125,-0.02710428002476692,0.0026455004069488495,0.0012064531803131103
1772366234289168100,3.790168212890625,-0.03234451876580715,0.00920119652757421,-0.0033832126975059506
1772366234299238100,3.800238037109375,-0.03563011630773544,0.0013322897833772003,-0.007567768373154103
1772366234309309200,3.81030908203125,-0.03578209199905395,0.007310176882892846,0.002278977782651782
1772366234319379200,3.820379150390625,-0.04042378032505512,0.00721673557893373,0.0032504896959289907
1772366234329449200,3.83044921875,-0.03877893572747707,-0.001856286258017644,0.007689312393590808
1772366234339519000,3.84051904296875,-0.03324643604159355,0.006511738247890025,0.0005664382437244057
1772366234349589000,3.850589111328125,-0.033089199653267856,0.0006103869833052158,-0.0007512932913377881
1772366234359660000,3.860659912109375,-0.03398234910070896,-0.0022213567107450217,-0.00018960428796708581
1772366234369730300,3.870730224609375,-0.024255904856324194,0.004164691064553335,-0.005102328107692301
1772366234379800000,3.880800048828125,-0.020956278789043426,0.005499145405553281,0.00377597487475723
1772366234389870000,3.8908701171875,-0.02229717200398445,0.007556452394695952,0.0026980069123208523
1772366234399941000,3.900941162109375,-0.03142038965821266,0.005651486423052847,-0.003029211628064513
1772366234410011100,3.91101123046875,-0.025287585991621016,0.00029917474281974135,0.004262004826031625
1772366234420081200,3.9210810546875,-0.04084697417318821,0.0029393870532978326,-0.004479008577577769
1772366234430151200,3.931151123046875,-0.013907529321312903,-0.0010081175966188312,0.004023483362421393
1772366234440221200,3.94122119140625,-0.02169160732626915,-0.00022813706691376864,0.0027269042132422325
1772366234450292200,3.951292236328125,-0.017055764219164847,-0.0022598894896917045,0.002987418312951922
1772366234460362200,3.9613623046875,-0.029172902992367744,0.009490845390222966,0.00020651889014989137
1772366234470432000,3.971431884765625,-0.0166220489770174,0.0013948975576553494,0.002210186862759292
1772366234480502000,3.981501953125,-0.02680149768590927,0.004179459375422447,0.0031828312871977683
1772366234490573000,3.991572998046875,-0.023808745610713958,0.01106348326811567,-0.013126133152656256
1772366234500640300,4.00164013671875,-0.03593231412470341,0.0030743659440428017,-0.0036233781289309263
1772366234510711300,4.011711181640625,-0.011098317119479178,-0.0022448928499594328,0.00011847528051584958
1772366234520781000,4.021781005859375,-0.014103344154357909,-0.005132778044883162,0.0047635611400008195
1772366234530851000,4.03185107421875,-0.026819033342599868,0.010415869546961038,0.0005112009251490235
1772366234540921000,4.041921142578125,-0.031016485032439232,0.0017566709415987134,-0.0017562690827995539
1772366234550992100,4.0519921875,-0.00006312836408615112,-0.0010877678372431545,-0.0067261299172416324
1772366234561062100,4.062062255859375,-0.015637129592895507,-0.006692465109657496,-0.002505260819196701
1772366234571132200,4.072132080078125,-0.02013736362159252,0.006968085446953773,-0.0024452011950314044
1772366234581202000,4.082201904296875,-0.008178045758605004,-0.0000405694724060595,-0.001207220365293324
1772366234591272200,4.092272216796875,-0.010437807384133338,-0.005422746567940339,-0.005768719594553113
1772366234601343200,4.10234326171875,-0.026752982369065283,-0.002006526649976149,0.004304090402089059
1772366234611413200,4.112413330078125,-0.03139993139207363,-0.006658845967845991,-0.004268434566818177
1772366234621483000,4.12248291015625,-0.024825813698768615,-0.0001666983364149928,-0.001660590155981481
1772366234631553300,4.13255322265625,-0.021091887867450712,0.0012760752172674983,0.00398282255847007
1772366234641624300,4.142624267578125,-0.011667641440033912,-0.002525810416880995,0.003595138415135443
1772366234651694000,4.152694091796875,-0.029338322687149046,0.006120464774826541,-0.006127469904348254
1772366234661764000,4.16276416015625,-0.02740355523228645,-0.005548226977977902,0.0008144581880420446
1772366234671834000,4.172834228515625,-0.02350713231563568,-0.0008281122540589422,0.005429843029007315
1772366234681905200,4.1829052734375,-0.008097966259717941,-0.0036158067438285795,-0.005896328029595315
1772366234691975200,4.19297509765625,-0.025164251872897146,0.005506397130247205,-0.005654335967265069
1772366234702045200,4.203045166015625,-0.021880407896637914,0.004155064719682559,-0.000895451002381742
1772366234712115000,4.213114990234375,-0.025931729114055634,-0.0003617094518616795,0.013666194846108554
1772366234722185200,4.223185302734375,-0.021747136905789374,-0.011373663462139666,0.00040441608242690563
1772366234732256300,4.23325634765625,-0.01053834514915943,0.0011342007948551326,-0.011263079227134584
1772366234742326000,4.243325927734375,-0.017571897047758103,0.0027308588691521436,-0.012187281399965286
1772366234752396000,4.25339599609375,-0.032848961156606675,-0.005047976705105975,0.0018338278310373424
1772366234762466300,4.26346630859375,-0.023576105898618697,0.0001976140644866973,-0.0006505728632211685
1772366234772537000,4.273537109375,-0.010709025540947914,-0.006293428455246612,-0.005192563674412667
1772366234782607000,4.283607177734375,-0.02088029094338417,-0.003017667320743203,0.005478285280615091
1772366234792677000,4.293677001953125,-0.020578093126416206,-0.011795094611449166,-0.0019523761767894028
1772366234802747100,4.3037470703125,-0.015787936240434647,0.00292897525713779,0.0018085107266902923
1772366234812818200,4.313818115234375,-0.021619711133837698,-0.0013099592205602674,0.002937624354474246
1772366234822888200,4.32388818359375,-0.025799627166986465,-0.00024354469859972594,-0.0021143252728506924
1772366234832958000,4.3339580078125,-0.04061024280786514,-0.0023303426437079906,0.00799541920069605
1772366234843028000,4.344028076171875,-0.03297930953800678,0.004371456549875438,0.005315021010302007
1772366234853099000,4.35409912109375,-0.02625204710960388,-0.0012047452804166822,0.004593830596283078
1772366234863169300,4.364169189453125,-0.018023147946596145,-0.0037865602008532733,0.0020484934950247406
1772366234873239000,4.374239013671875,-0.024608371555805204,0.004811181407701224,-0.0044023266121745105
1772366234883309000,4.38430908203125,-0.017131167542934415,-0.006154083916638046,0.0004328384593129158
1772366234893379000,4.394379150390625,-0.02536415835916996,0.005758673124574124,-0.002188888346403837
1772366234903450000,4.4044501953125,-0.013246435064077376,0.00282798083438538,-0.0010751549508422613
1772366234913520000,4.41452001953125,-0.02058627643287182,-0.003166693003149703,0.0017797960888594388
1772366234923590100,4.424590087890625,-0.026721418187022207,0.004289376890147105,-0.00271291222050786
1772366234933660000,4.434659912109375,-0.02327273903787136,0.007270612057484686,0.002526011346280575
1772366234943731000,4.44473095703125,-0.030150223591923712,0.002417683000443503,0.0035408509446308014
1772366234953801200,4.45480126953125,-0.02985094838440418,0.005455927318334579,-0.00005224164389073848
1772366234963871000,4.46487109375,-0.027156886994838713,0.003913684578705579,-0.0027391426403075457
1772366234973941000,4.47494091796875,-0.02506079149842262,-0.0015739621852990239,0.004449124895967543
1772366234984012000,4.485011962890625,-0.02730944720804691,0.004246113137155771,0.00439206094648689
1772366234994082000,4.49508203125,-0.024767946031689643,-0.0005934632479678839,-0.0019220541037619113
1772366235004152000,4.505152099609375,-0.021475334227085113,0.00201493828529492,-0.0056756710162386296
1772366235014222000,4.51522216796875,-0.034789573830366134,-0.000786958259763196,-0.006936923123709857
1772366235024293000,4.525293212890625,-0.02864800233542919,0.0017042831672355531,0.004119418017566204
1772366235034363100,4.535363037109375,-0.027151041775941846,-0.002343421320989728,-0.0006212006382644176
1772366235044433200,4.54543310546875,-0.03448269983828067,-0.004292080303886905,0.00012859481573104857
1772366235054503200,4.555503173828125,-0.0253536369651556,-0.0019335527453105896,0.005989303542673587
1772366235064574000,4.565573974609375,-0.02146890448629856,0.0019906258279457686,0.003766293730959296
1772366235074644000,4.57564404296875,-0.030745266875624656,-0.0032056641735136505,-0.000714541477523744
1772366235084714200,4.58571435546875,-0.02192073990702629,-0.000028605039976537225,0.000997632735222578
1772366235094784000,4.595783935546875,-0.018027824121713637,-0.0020468860598281025,0.0013688406677916645
1772366235104854000,4.60585400390625,-0.03583528349101543,-0.0006168897893279791,0.00031889322344213724
1772366235114925000,4.615925048828125,-0.025519056659936902,-0.00456370031950064,-0.004042809117399156
1772366235124995000,4.6259951171875,-0.022827333357930184,0.005041446499619633,-0.002575038119778037
1772366235135065000,4.636065185546875,-0.019840426501631734,-0.0012605397214181721,0.00012855828311294316
1772366235145135000,4.646135009765625,-0.03345627939999103,-0.0016529183061793446,-0.00027465222291648384
1772366235155206100,4.6562060546875,-0.032408816173672673,-0.005030605445196852,0.0024237200155854226
1772366235165276200,4.666276123046875,-0.039895957058668136,0.00032747838869690894,0.004555617477744817
1772366235175346200,4.67634619140625,-0.03271452112197876,0.003025768428808078,0.000032842823676764966
1772366235185416000,4.686416015625,-0.03406476668715477,0.004102293352829293,-0.004964380941726267
1772366235195487000,4.696487060546875,-0.026726678884029388,-0.008987736439984292,-0.0041151802338659765
1772366235205557000,4.706556884765625,-0.03450724975764751,0.0004563563322182744,-0.0021417978016659615
1772366235215627300,4.716627197265625,-0.02523380997776985,0.0042179190891329195,-0.003013027678243816
1772366235225697000,4.726697021484375,-0.024790157863497732,0.0033794589709956195,-0.0010107479451224206
1772366235235768000,4.73676806640625,-0.032871172988414764,-0.0009851020472124218,0.0037579642940312624
1772366235245838000,4.746838134765625,-0.018507132071256635,0.0015798713362775742,0.0013068082822486758
1772366235255908000,4.756908203125,-0.03078384532034397,0.006169573746714741,-0.008543700733222068
1772366235265978000,4.76697802734375,-0.0343728097230196,-0.007680864225653931,-0.004278481036797166
1772366235276049200,4.777049072265625,-0.026288287466764447,0.0018293251858558504,-0.004176810760609806
1772366235286119000,4.787118896484375,-0.0401981548756361,0.00017938428805209695,-0.0059846639001742
1772366235296189200,4.797189208984375,-0.03360825509130955,0.003984420860512182,-0.0015365619175136088
1772366235306259200,4.80725927734375,-0.010569909331202507,0.002165900196461007,-0.00328727804236114
1772366235316330200,4.817330322265625,-0.037945992034673685,-0.004068254085909575,0.00003894377090036869
1772366235326400000,4.82739990234375,-0.03673953885436058,0.004290052743582054,-0.00005921937394887209
1772366235336470000,4.837469970703125,-0.03194529031515121,0.002177554101636633,-0.0027851006738841533
1772366235346540000,4.8475400390625,-0.024767946031689643,-0.0028672807983122764,-0.0031804931996390223
1772366235356610000,4.857610107421875,-0.029107436540722845,-0.0019315617176238447,0.005349434736557305
1772366235366681000,4.86768115234375,-0.030596798315644262,0.003413397773215547,-0.0013802753772586584
1772366235376751000,4.877751220703125,-0.018918050959706306,0.00029499175804667175,-0.003770531514659524
1772366235386821000,4.887821044921875,-0.02714753464460373,-0.0029584205473307517,-0.0021021233784034848
1772366235396891100,4.89789111328125,-0.031039281386137006,0.0006035736500285565,-0.005276734826527536
1772366235406962200,4.907962158203125,-0.03612637539207935,-0.01069496048297733,-0.006291939751058817
1772366235417032000,4.918031982421875,-0.02251812127828598,-0.008970292114838957,-0.005275383119657635
1772366235427102200,4.928102294921875,-0.02971592382788658,-0.0015786109609529375,-0.005597820007055997
1772366235437172200,4.938172119140625,-0.018650924456119537,-0.0021757183375768364,-0.005777487422898411
1772366235447243000,4.948242919921875,-0.025533669707179067,-0.0025750746523961424,0.0012153306065127254
1772366235457313000,4.95831298828125,-0.03766366796195507,-0.008598143467353657,-0.001989237588457763
1772366235467383000,4.968383056640625,-0.0409603714197874,-0.0030042507167439905,-0.0012121522687375545
1772366235477453000,4.978453125,-0.03423486255705356,-0.0008363046936690807,0.0003558642329648137
1772366235487524000,4.988524169921875,-0.028999299991130826,-0.006963692399626597,-0.00028257980104535817
1772366235497594000,4.998593994140625,-0.02690612710416317,0.01027360239890404,0.004473784413188696
1772366235507664100,5.0086640625,-0.040077158844470974,0.007817678880458697,-0.004425597889907658
1772366235517734100,5.018734130859375,-0.028552725267410276,-0.005659514465881511,-9.133154526352882e-7
1772366235527805200,5.02880517578125,-0.034088732084631916,-0.003887344561051577,-0.006702456780709326
1772366235537875200,5.038875244140625,-0.037084991291165346,0.007968768655788152,-0.0019845614133402706
1772366235547945000,5.048945068359375,-0.03723638246059417,-0.00419209966128692,0.00007098287697881459
1772366235558015200,5.05901513671875,-0.036035189977288246,-0.004381731348717585,-0.003770714177750051
1772366235568086300,5.069086181640625,-0.03454173654913902,-0.0034709731793496758,0.0027218992445617912
1772366235578156000,5.079156005859375,-0.037078561550378794,-0.0011156604911666363,0.001817643881216645
1772366235588226000,5.08922607421875,-0.02584814248383045,0.0054300804910250005,0.0018196531752124427
1772366235598296000,5.099296142578125,-0.036623803520202634,-0.004083579519204795,0.0008672112885862588
1772366235608366000,5.109365966796875,-0.03317746245861053,-0.012773438124312086,0.0002183919910341501
1772366235618437000,5.11943701171875,-0.032280221357941626,-0.004442265896918252,-0.006359853888116777
1772366235628507100,5.129507080078125,-0.020901333731412886,0.0007628832644317299,0.00024312457349151372
1772366235638577000,5.139576904296875,-0.02465162617564201,-0.002185390348220244,0.0005036752058193087
1772366235648647200,5.149647216796875,-0.026899112841486928,0.0017145853655412791,-0.00019223463647067546
1772366235658718200,5.15971826171875,-0.02839431983530521,0.003428367013484239,-0.0020633988032117486
1772366235668788200,5.169788330078125,-0.02899696190357208,-0.01049682582868263,-0.003953888724930584
1772366235678858500,5.1798583984375,-0.03393383378386497,-0.004024999466072768,-0.0027544498072937127
1772366235688928500,5.189928466796875,-0.021069676035642623,-0.0035823154661804436,-0.007202478724718094
1772366235698999300,5.199999267578125,-0.022888708156347273,-0.011413557081110776,-0.006827069541066885
1772366235709069600,5.210069580078125,-0.03186053464114666,0.0029840116463135924,-0.0016272358756512402
1772366235719139600,5.2201396484375,-0.03486673071980476,0.00553565975734964,0.0004487666808068752
1772366235729209300,5.230209228515625,-0.03861351603269577,-0.0017722795026842504,-0.0016514935340732335
1772366235739280400,5.2402802734375,-0.02605389418900013,0.0037688144816085695,0.0036611528560519216
1772366235749350700,5.2503505859375,-0.026073767933249472,0.0008653755245264619,-0.008566789347864687
1772366235759420400,5.26042041015625,-0.028322423642873764,-0.007503580563142895,-0.0013241978084668517
1772366235769490400,5.270490478515625,-0.018904606956243512,-0.004238532618898898,-0.005392287497594952
1772366235779561500,5.2805615234375,-0.025493337696790692,0.009141785357380285,-0.010903890525922178
1772366235789631500,5.290631591796875,-0.0228004453510046,0.008099308833433315,-0.00014028525352478027
1772366235799701500,5.300701416015625,-0.020251345390081405,-0.011492239207355304,-0.0030163886791095135
1772366235809771500,5.310771484375,-0.017408815440535543,-0.003575547798676416,-0.0016838249010965227
1772366235819842600,5.320842529296875,-0.02399111644029617,0.00025796594959683717,-0.0043803339760750525
1772366235829912300,5.330912353515625,-0.023994039049744606,0.0026688812825363126,0.0003096870036795735
1772366235839982600,5.340982666015625,-0.030882044997811317,0.0003505761364940554,-0.005432144583947956
1772366235850052600,5.351052490234375,-0.02684592134952545,0.0029548951496835797,-0.009580131108872592
1772366235860123400,5.361123291015625,-0.02385433831810951,0.004100603719241917,0.0013376418119296432
1772366235870193400,5.371193359375,-0.035976737788319585,-0.002440926878713071,-0.007371734344400465
1772366235880263700,5.381263671875,-0.028194997870922087,-0.001217805691389367,-0.0021122429136186836
1772366235890333400,5.39133349609375,-0.02729892581403255,0.004413459927542135,-0.0022835443599149583
1772366235900403500,5.401403564453125,-0.023553894066810608,0.0001224664690438658,0.002420760873518884
1772366235910474500,5.411474609375,-0.01771101325750351,0.008452725380985066,0.004372223734855652
1772366235920544500,5.42154443359375,-0.027286066332459447,-0.0014694332317449152,-0.0014044234378263354
1772366235930614500,5.431614501953125,-0.027731472012400626,0.000275793867232278,-0.006876571238599717
1772366235940684500,5.4416845703125,-0.03401625137031078,0.0001667531353421509,-0.00047368192635476584
1772366235950755600,5.451755615234375,-0.03221417038440704,-0.00007918444974347948,-0.005107442674227059
1772366235960825300,5.461825439453125,-0.02458031450510025,-0.004455088845873251,-0.005327076774276793
1772366235970895600,5.4718955078125,-0.0268219559520483,-0.006023169279657304,-0.006298625220172107
1772366235980965600,5.481965576171875,-0.027264439022541043,-0.003608335823426023,-0.009408866195194423
1772366235991036400,5.492036376953125,-0.023966566520929336,0.003986293157190084,-0.0020785233071073887
1772366236001106400,5.5021064453125,-0.025012276181578634,0.0001586154946591705,-0.0059113794682547445
1772366236011176700,5.5121767578125,-0.019320202019810676,-0.001729563738964498,-0.0012854001680389045
1772366236021246500,5.52224658203125,-0.019622984358668327,0.0027423209780827163,-0.004802979834936559
1772366236031317500,5.5323173828125,-0.021265490868687627,-0.0011677651377394794,-0.0021571415012702345
1772366236041387500,5.542387451171875,-0.02561550277173519,0.0016617500666063277,-0.008047076322697102
1772366236051457300,5.552457275390625,-0.022913842597603797,0.0020994473641272634,-0.0077275985773652784
1772366236061527600,5.562527587890625,-0.02829670467972755,0.005731794250803068,0.001500979147478938
1772366236071598600,5.5725986328125,-0.018719313517212868,0.001595187636418268,-0.007122143497504294
1772366236081668600,5.582668701171875,-0.020367665246129034,-0.014374151319218799,0.001969254246354103
1772366236091738400,5.59273828125,-0.02814531351029873,-0.0028534897349774837,-0.004692578263022005
1772366236101808600,5.60280859375,-0.03203472216427326,-0.0031003132360521704,-0.0037909167155623434
1772366236111879700,5.612879638671875,-0.03413023313879966,-0.0047976917384658,-0.0038085254374891518
1772366236121949400,5.622949462890625,-0.023213702327013013,-0.0061985441128723315,-0.008613806827366352
1772366236132019500,5.63301953125,-0.024255320334434508,-0.0019817392685916274,-0.0032761355938389896
1772366236142089700,5.64308984375,-0.02844458871781826,0.00565596166877076,-0.0074875427437946195
1772366236152160500,5.653160400390625,-0.031140403673052788,0.002255532974982634,-0.00138575526997447
1772366236162230500,5.66323046875,-0.033681320327520366,0.0002870185141451657,-0.010164945259504019
1772366236172300500,5.673300537109375,-0.027986323556303976,-0.004058207615930587,-0.009214403069019318
1772366236182370300,5.683370361328125,-0.01645779832601547,0.002437136619584635,-0.008920023232325911
1772366236192441300,5.69344140625,-0.03052490212321281,0.004699008003808558,-0.010583718660846352
1772366236202511600,5.70351171875,-0.02125321590900421,-0.008159185794508084,-0.0035228403639048335
1772366236212581400,5.713581298828125,-0.029191607692837712,0.0006080214962828904,-0.003532923366501927
1772366236222651400,5.7236513671875,-0.025600889724493026,0.0017519491007085889,-0.002199446273036301
1772366236232722400,5.733722412109375,-0.02275777525305748,0.0037720293520018457,-0.004588606431894004
1772366236242792700,5.743792724609375,-0.028135376638174055,0.008232534158509225,-0.0003489961007609963
1772366236252862500,5.753862548828125,-0.029928689795732495,0.002874651254015043,-0.006864405876770615
1772366236262932500,5.763932373046875,-0.031575872480869294,0.004399486201116815,-0.007221329555660486
1772366236273003500,5.77400341796875,-0.03127309014201164,0.0026943171178922054,-0.009404226552695035
1772366236283073500,5.784073486328125,-0.03261222979128361,0.007780552607309072,-0.0014549845812842248
1772366236293143600,5.7941435546875,-0.025423195070028305,0.0052531712878495455,-0.007894735305197537
1772366236303213600,5.804213623046875,-0.0191448454529047,-0.00580198254333809,-0.00324022403024137
1772366236313284400,5.814284423828125,-0.03231412362754345,-0.0026870379937347024,-0.010272241558879614
1772366236323354400,5.824354248046875,-0.03710077338218689,-0.004437470990791916,-0.007719744064472615
1772366236333424600,5.834424560546875,-0.027674773389101025,0.003041559652984142,-0.0010103095537051558
1772366236343494400,5.844494384765625,-0.020638298881053924,0.006338838499551638,-9.133154526352882e-7
1772366236353565400,5.8545654296875,-0.02318213814496994,-0.0018291973216924815,-0.004023702558130025
1772366236363635500,5.864635498046875,-0.022284897044301033,-0.007996990103274584,-0.0019492343716323375
1772366236373705700,5.874705810546875,-0.02154430781006813,0.00535159929418005,-0.007348463066667318
1772366236383776500,5.884776611328125,-0.032628011882305144,0.008421645256131887,-0.00576762361600995
1772366236393846500,5.894846435546875,-0.025452421164512632,-0.00011197247449308633,-0.0018853022899478673
1772366236403916500,5.90491650390625,-0.019617723661661146,-0.006305886078020557,-0.005813764312677085
1772366236413986600,5.914986572265625,-0.01977788265943527,-0.008926754367211832,-0.006322663682885468
1772366236424057600,5.9250576171875,-0.028452187502384183,0.0020161986606195567,-0.0036684959122911093
1772366236434127600,5.935127685546875,-0.03742752111852169,-0.0022821743867360053,0.0052238355955109
1772366236444197400,5.945197265625,-0.029208558827638623,-0.00755846168869175,-0.007594875575788319
1772366236454267400,5.955267333984375,-0.02965980972647667,0.001043051912682131,-0.006321494639106095
1772366236464338400,5.96533837890625,-0.03385492332875729,0.003745661934884265,-0.005077084068581462
1772366236474408700,5.97540869140625,-0.029519524472951888,-0.00018211510125547647,-0.007238317223079502
1772366236484478500,5.985478515625,-0.03595803308784962,0.0024598690412007272,-0.007156776419468223
1772366236494548500,5.995548583984375,-0.032063363736867904,0.0020868984098080545,-0.004516783304698765
1772366236504619500,6.00561962890625,-0.028028993654251096,0.0033499223492573947,0.0010534545756876468
1772366236514689500,6.015689453125,-0.035360651716589926,0.0035148397205397486,-0.0019136516015976666
1772366236524759600,6.025759521484375,-0.02128945626616478,0.005518936951411888,-0.001787979395315051
1772366236534829600,6.03582958984375,-0.035357729107141495,0.0017843352666590362,-0.004058773871511221
1772366236544900400,6.045900390625,-0.021000702452659607,-0.007606063690083101,0.0011597644943743943
1772366236554970600,6.055970703125,-0.023103812211751937,0.002146647506719455,-0.004994995275698602
1772366236565040600,6.06604052734375,-0.027748423147201537,0.000534042944619432,-0.006615837943181395
1772366236575110400,6.0761103515625,-0.015188801303505896,0.001627847797004506,-0.0005399886282160878
1772366236585181400,6.086181396484375,-0.022077391773462293,0.0059767271888908,-0.0032283509293571113
1772366236595251500,6.09625146484375,-0.041533202871680254,0.009202338171890005,-0.00019541297424584625
1772366236605321500,6.106321533203125,-0.04347673815488815,0.009469903066894039,-0.0033015257634222504
1772366236615391500,6.1163916015625,-0.035542438024282454,0.0017264675995800644,-0.00486292986124754
1772366236625462500,6.126462646484375,-0.03434007649719715,-0.0033922179878689345,-0.00457582001555711
1772366236635532500,6.136532470703125,-0.032543840730190274,0.0013574333577882497,-0.0027370968136936425
1772366236645602600,6.1466025390625,-0.04211655571758747,-0.003155851948726922,-0.000408799996599555
1772366236655672600,6.156672607421875,-0.03432780153751373,0.002273653153562918,-0.005181128964945674
1772366236665743600,6.16674365234375,-0.03297580240666866,-0.0022625289713498202,-0.001962130385823548
1772366236675813400,6.1768134765625,-0.03506429911851883,-0.00443728832770139,-0.005395356237515807
1772366236685883600,6.186883544921875,-0.03026654344797134,0.0074451740399468684,-0.004723302194848657
1772366236695953400,6.196953369140625,-0.02487958971261978,-0.0017357103519607335,-0.009939977397210895
1772366236706024400,6.2070244140625,-0.030118659409880635,0.0011234510719776152,-0.00892791427783668
1772366236716094500,6.217094482421875,-0.03491699960231781,0.0050346788321156055,-0.012283654446527362
1772366236726164500,6.22716455078125,-0.031031098079681393,0.002835625284723937,-0.0016021014343947171
1772366236736234500,6.237234375,-0.0322334596067667,0.0011746058704797178,-0.005287950340285897
1772366236746305500,6.247305419921875,-0.047341596889495845,0.004196218713978305,-0.0035198812218382954
1772366236756375600,6.25737548828125,-0.03357844447493553,0.0023675602484028785,-0.0074601067475974555
1772366236766445300,6.2674453125,-0.02984451864361763,-0.01280623528221622,-0.004753332006931304
1772366236776515600,6.277515625,-0.034337738409638406,0.0021476612868718803,-0.007091711826622485
1772366236786586600,6.287586669921875,-0.028657939207553863,0.0020096684551332146,-0.001390906369127333
1772366236796656400,6.297656494140625,-0.026418635848164555,0.008311846472416073,-0.007791676789522171
1772366236806726400,6.307726318359375,-0.027318215036392212,0.008264783327141777,-0.01067329664044082
1772366236816796400,6.31779638671875,-0.036600422644615174,0.00008421681788749992,-0.0022693697040900586
1772366236826867500,6.327867431640625,-0.030021628776192664,0.005841857896000146,-0.0031543358450755476
1772366236836937500,6.3379375,-0.034650457620620724,0.005590248621953651,-0.0035502398274838923
1772366236847007500,6.348007568359375,-0.031195348730683324,0.003081544603500515,-0.004628901909664273
1772366236857077200,6.3580771484375,-0.028801147070527076,0.009156781997112557,-0.0030284809757024048
1772366236867148300,6.368148193359375,-0.029696634605526923,0.004431141714705154,-0.001957271547615528
1772366236877218600,6.378218505859375,-0.029985388419032095,0.001008555988036096,0.0015746654381975532
1772366236887288600,6.38828857421875,-0.020256606087088583,0.000002082359232008457,-0.011865173306129873
1772366236897358300,6.3983583984375,-0.02714695012271404,-0.0004287833387032151,-0.007221877544932067
1772366236907429400,6.408429443359375,-0.03328559900820255,0.0015098109079059213,0.004517988881096243
1772366236917499600,6.418499755859375,-0.033441081830859185,0.00042782435747794806,0.0021727043965831397
1772366236927569400,6.4285693359375,-0.021631986093521117,0.005594687335053458,-0.00047934448216110465
1772366236937639400,6.438639404296875,-0.03136719816625118,0.00731958403205499,-0.005617912947013974
1772366236947710500,6.44871044921875,-0.024913491982221602,0.006737308898381889,-0.008930909952521323
1772366236957780500,6.458780517578125,-0.02341828498840332,-0.0024124405697453764,-0.004333974083699285
1772366236967850500,6.4688505859375,-0.031928339180350304,0.0039492216829676175,-0.0006263517374172806
1772366236977920500,6.47892041015625,-0.036704467540979384,0.005595783313596621,-0.000696603962033987
1772366236987991600,6.488991455078125,-0.03175765878856182,-0.0021811525645200162,-0.0009528802780434489
1772366236998061300,6.499061279296875,-0.023825112223625183,0.0011326116259675473,-0.007642879435978829
1772366237008131600,6.509131591796875,-0.025020459488034247,-0.000767778635257855,-0.002657090380042791
1772366237018201300,6.519201416015625,-0.030555881783366202,0.007774241597531363,-0.0007925386171787977
1772366237028272400,6.5292724609375,-0.032793431577086446,0.006091814069077372,-0.0037597543923184274
1772366237038342400,6.53934228515625,-0.030237317353487014,0.00985657343007624,0.0022066066661849616
1772366237048412700,6.54941259765625,-0.023199673801660537,0.001682564525771886,-0.005310308302566409
1772366237058482400,6.559482421875,-0.031878070297837256,0.002115119857294485,0.0038195948207750915
1772366237068553500,6.569553466796875,-0.030979660153388974,-0.0012939944664482027,-0.008093399682454764
1772366237078623500,6.57962353515625,-0.024248890593647956,0.007904178986977786,-0.0073961746659129855
1772366237088693500,6.589693603515625,-0.021261399215459824,-0.0008606354173272847,-0.006308525559678674
1772366237098763500,6.599763427734375,-0.010789689561724661,0.008315673264162615,-0.003066584496386349
1772366237108834600,6.60983447265625,-0.02171031202673912,-0.004900731987832114,0.00226147865857929
1772366237118904300,6.619904296875,-0.02036182002723217,-0.0058988305139355355,-0.006669467826560139
1772366237128974300,6.629974365234375,-0.019606033223867416,0.005394598185690119,-0.0018480390194803476
1772366237139045400,6.64004541015625,-0.03201251033246517,-0.0012928162895143032,-0.0034898879423737525
1772366237149115600,6.65011572265625,-0.021375380983948707,0.006914610827201977,-0.007401106569357216
1772366237159185400,6.660185302734375,-0.019721184036135674,0.00607839746507816,-0.006049582362547517
1772366237169255400,6.67025537109375,-0.021808511704206467,-0.003989836821146309,-0.008275697446800769
1772366237179326500,6.680326416015625,-0.023755554118752478,0.006037636196427047,-0.003645809156447649
1772366237189396500,6.690396484375,-0.021518004325032234,0.0017714483856223523,-0.006174925775267183
1772366237199466500,6.700466552734375,-0.020626023921370504,0.0007068696277216076,-0.003465338023006916
1772366237209536500,6.71053662109375,-0.021525603109598158,-0.00042989758355543015,0.00039407735150307415
1772366237219607300,6.720607177734375,-0.014343582651019095,0.005890144883980974,0.0015830679403617976
1772366237229677300,6.73067724609375,-0.014499649995565413,0.003636968262866139,-0.009628208034299313
1772366237239747600,6.74074755859375,-0.013753215542435646,-0.0008078001183923334,-0.0017629545519128442
1772366237249817300,6.7508173828125,-0.010161328530311584,-0.003127466104459017,-0.00041314737815409896
1772366237259888400,6.760888427734375,-0.01824994243979454,-0.006152330350968987,-0.0037456528017297385
1772366237269958400,6.77095849609375,-0.03037643356323242,0.005151345748035237,0.000005151099152863026
1772366237280028700,6.781028564453125,-0.03083645229041576,0.005334228034270927,-0.0038251843113452193
1772366237290098400,6.791098388671875,-0.026059154886007307,-0.0032456125914119183,-0.00947425958160311
1772366237300169500,6.80116943359375,-0.04028057246208191,0.012411390745732933,-0.009452157347649336
1772366237310239500,6.811239501953125,-0.0360936421662569,0.0018690544080454854,0.005193988446518779
1772366237320309500,6.8213095703125,-0.030408582267165182,-0.0048648204242344945,0.003971059055440127
1772366237330379500,6.831379638671875,-0.021880992418527603,-0.005123078634776175,-0.005667853035964072
1772366237340450600,6.841450439453125,-0.017543255475163458,0.005239882548013702,-0.005854717377573251
1772366237350520300,6.851520263671875,-0.025171850657463073,0.006187209868105128,0.0005109086642041802
1772366237360590300,6.86159033203125,-0.024868483796715735,0.0033815139307640492,-0.0023828765485435725
1772366237370660600,6.87166064453125,-0.019486206236481667,0.001190031768474728,-0.00022588117774575948
1772366237380731600,6.881731689453125,-0.022934885385632514,0.0013177680676802993,-0.00185980252251029
1772366237390801400,6.891801513671875,-0.02038695446848869,0.016167437077313662,-0.0025090602114796637
1772366237400871400,6.901871337890625,-0.02847147672474384,0.004668959925416856,-0.003039769554696977
1772366237410942500,6.9119423828125,-0.032817396974563595,-0.0039276674382854255,-0.00031933161485940217
1772366237421012500,6.922012451171875,-0.02263970183134079,-0.0011680208660662173,-0.001904189653508365
1772366237431082500,6.93208251953125,-0.02504091775417328,0.001825142201082781,-0.0017502046681940554
1772366237441152500,6.942152587890625,-0.026539047357439994,0.006883046645158901,-0.0056873979866504665
1772366237451223300,6.952223388671875,-0.03402092754542827,0.008819138407427818,-0.0029620646759867665
1772366237461293600,6.96229345703125,-0.028930910930037496,-0.004229244200745597,-0.007977700880914927
1772366237471363600,6.972363525390625,-0.02982698298692703,0.004666585305240005,-0.009154051183909178
1772366237481433300,6.982433349609375,-0.0257850141197443,0.0029630145240575074,-0.004642747771926224
1772366237491504400,6.99250439453125,-0.03281505888700485,0.005864224991435184,-0.00022164339404553174
1772366237501574400,7.002574462890625,-0.03312017931342125,0.012662634693598374,-0.0007830036038532853
1772366237511644400,7.01264453125,-0.027439211067557333,0.004380114780366421,-0.001180770749785006
1772366237521714400,7.02271435546875,-0.02354337267279625,0.0028545674472115934,-0.00432319696135819
1772366237531785500,7.032785400390625,-0.021149171012639998,0.004904878439987078,-0.008082330299168824
1772366237541855500,7.04285546875,-0.03177285635769367,0.0049236744720023125,-0.00683203797712922
1772366237551925500,7.052925537109375,-0.03402209658920765,0.005125772915361449,-0.005733429085463285
1772366237561995500,7.06299560546875,-0.03072714669704437,0.014669234408810733,0.0011006547182798386
1772366237572066600,7.073066650390625,-0.02101005480289459,0.0015395575921982527,0.0008939166324213147
1772366237582136300,7.08313623046875,-0.030734745481610298,-0.0002956858777906745,-0.005653897575847804
1772366237592206600,7.09320654296875,-0.039267596027255054,0.0014078392376191914,-0.007215119010582566
1772366237602276600,7.103276611328125,-0.026100071418285367,0.004164663665089756,-0.0005131006212905049
1772366237612347400,7.113347412109375,-0.02790039883852005,-0.006171537374937907,-0.003607303776964545
1772366237622417400,7.12341748046875,-0.03432254084050655,0.0018258637202903628,-0.003362206442095339
1772366237632487400,7.1334873046875,-0.03746142338812351,0.015356275958055629,-0.0009901070158928633
1772366237642558500,7.143558349609375,-0.027291911551356313,0.006816676011215895,-0.00004248743485659361
1772366237652628500,7.15362841796875,-0.0226566529661417,-0.005317596559878439,0.0005038944015279412
1772366237662698500,7.163698486328125,-0.03582476209700108,-0.005136349108302966,-0.007123458671756088
1772366237672768300,7.173768310546875,-0.03522913429141045,0.0055916825272142884,-0.0022160686142742633
1772366237682843100,7.183843017578125,-0.02475625559389591,0.006325869420124217,0.0047730230880901215
1772366237692913400,7.193913330078125,-0.03405073816180229,0.001022712377551943,-0.004889963998645544
1772366237702983200,7.203983154296875,-0.035839375144243235,0.004869304803106934,0.002432926235347986
1772366237713053200,7.21405322265625,-0.023861352580785748,0.0028286110220476983,0.002573248021490872
1772366237723124200,7.224124267578125,-0.02326104860007763,0.004828799262782559,-0.010245317019335926
1772366237733194200,7.2341943359375,-0.022657237488031386,0.001849116731714457,-0.005789470121636987
1772366237743264300,7.24426416015625,-0.01906067430078983,-0.0036478184504434466,-0.0022289646284654736
1772366237753334300,7.254334228515625,-0.027287819898128507,0.004092703540576621,-0.003786094409972429
1772366237763405300,7.2644052734375,-0.02624327928125858,0.0011817114647012204,0.0015514672257006168
1772366237773475000,7.27447509765625,-0.03073416095972061,0.0036606870651710774,-0.005381510375253856
1772366237783545300,7.28454541015625,-0.03088496760725975,0.0058352820247411724,-0.003922361075505614
1772366237793615000,7.294614990234375,-0.03552957854270935,0.0002897493273485452,-0.002561192257516086
1772366237803686100,7.30468603515625,-0.030585692399740218,0.009684851858671755,0.0035506051536649463
1772366237813756200,7.314756103515625,-0.035523733323812486,-0.0016225779668428003,-0.009641432842053472
1772366237823826400,7.324826416015625,-0.03238017460107803,0.004786211363226175,-0.011118519657291472
1772366237833897200,7.334897216796875,-0.0367255103290081,0.007160575811751187,-0.0030142332546412944
1772366237843967200,7.34496728515625,-0.028652678510546682,0.009381649394705892,-0.006931662426702677
1772366237854037200,7.355037353515625,-0.024018004447221755,0.012435328743746504,-0.0031183877488598225
1772366237864107000,7.36510693359375,-0.023576105898618697,0.003090759956417605,-0.005382423690706491
1772366237874178000,7.375177978515625,-0.03299684519469738,-0.003179662082577124,-0.0022768223581835626
1772366237884248300,7.385248291015625,-0.024774375772476195,0.0024259485052898523,-0.010806165772490203
1772366237894318000,7.395318115234375,-0.02792027258276939,0.0036978864035569128,-0.0028163725949823856
1772366237904388000,7.40538818359375,-0.04363865071833133,0.010059722186205908,-0.005218173039704561
1772366237914459100,7.415459228515625,-0.032570728737115855,0.007827332624793052,-0.0008492372404783964
1772366237924529400,7.425529296875,-0.03587503097951412,0.0015508735706564038,-0.0017057444719597696
1772366237934599200,7.43559912109375,-0.041566520619392394,-0.0009368150592315942,-0.011115377852134406
1772366237944669200,7.445669189453125,-0.0400672219723463,0.014777270493702963,-0.005816906117834151
1772366237954740200,7.455740234375,-0.02017009684741497,-0.0017018628812860697,-0.0057458867082372305
1772366237964810200,7.465810302734375,-0.024666823744773865,0.0012397983274888248,-0.006784691704064608
1772366237974880300,7.47588037109375,-0.03020049247443676,-0.0007695596003904938,-0.005052899475395679
1772366237984950300,7.4859501953125,-0.03304185338020325,0.004657369952322915,-0.008003017985261976
1772366237995021000,7.49602099609375,-0.023766660034656523,0.006178560770768672,-0.008201572764664888
1772366238005091000,7.506091064453125,-0.0325993703097105,0.003984238197421655,-0.00124992699585855
1772366238015161300,7.516161376953125,-0.0296060337126255,0.007889154947781935,-0.00901000307071954
1772366238025231000,7.526231201171875,-0.03858896611332893,0.006111687813326716,-0.009256561710312961
1772366238035302100,7.53630224609375,-0.03529518526494503,0.0048918545616324985,-0.0014100494610145688
1772366238045372200,7.5463720703125,-0.04711187978684902,0.004270270330877974,-0.011789843047596513
1772366238055442400,7.5564423828125,-0.041562428966164584,0.005266213432513177,-0.0011941051553934813
1772366238065513200,7.56651318359375,-0.05037585001885891,0.004860838368861004,-0.0034254444040358063
1772366238075583200,7.576583251953125,-0.025972645646333694,0.003950984381791204,-0.0021095029672607776
1772366238085653200,7.5866533203125,-0.04601765480935573,0.003482444421434775,0.004151858982443809
1772366238095723300,7.59672314453125,-0.004099836534261703,0.004595812490815297,-0.00471738391071558
1772366238105794300,7.606794189453125,-0.048535190588235855,0.012565686258301139,0.021329240287281573
1772366238115864300,7.6168642578125,-0.05016425309479236,-0.001447869853908196,-0.046179567372798914
1772366238125934000,7.62693408203125,-0.07903846540153026,0.005559460758045315,0.023728739177063106
1772366238136004000,7.637004150390625,0.012406477108597755,0.007489707301417365,-0.006733728701807558
1772366238146075100,7.6470751953125,-0.01483048938512802,0.003938152299681678,-0.007844356824830173
1772366238156145400,7.6571455078125,-0.04983692083656788,-0.00025297924722544846,-0.0013296777011826634
1772366238166215200,7.667215087890625,-0.02409574585855007,0.006476840464444831,-0.00496507506147027
1772366238176285200,7.67728515625,-0.019006898286938665,0.00776753786210902,-0.0044662586938589805
1772366238186356200,7.687356201171875,-0.026343232524394987,0.00036930823642760514,-0.0018061361065134405
1772366238196426200,7.69742626953125,-0.03098375180661678,-0.007213593773776665,-0.0004887698976323009
1772366238206496300,7.707496337890625,-0.03277648044228554,0.0007909311819821595,-0.006729929309524595
1772366238216566300,7.717566162109375,-0.03367722867429256,0.0004598269309382885,-0.008558971367590129
1772366238226637000,7.727636962890625,-0.03307984730303287,0.005685005100164562,-0.006677249274216592
1772366238236707300,7.737707275390625,-0.022287819653749465,0.006422014137823134,-0.007667575485818087
1772366238246777300,7.74777734375,-0.03365910849571228,-0.0008577858731150627,-0.007503690160997212
1772366238256847000,7.75784716796875,-0.037681788140535355,0.00533414583588019,0.0024343144748359916
1772366238266918100,7.767918212890625,-0.02602642166018486,-0.005254760456737131,-0.01182864068802446
1772366238276988200,7.77798828125,-0.03156710465252399,-0.0015580704964231699,0.0024374928126111627
1772366238287058200,7.78805810546875,-0.03275543765425682,0.007905348030757159,-0.0002155059142038226
1772366238297129200,7.798129150390625,-0.029466917502880094,-0.0003021521511953324,0.002711231720075011
1772366238307199200,7.80819921875,-0.029756255838274955,-0.000031829043524339795,0.00023026509191840887
1772366238317269200,7.818269287109375,-0.025857494834065436,0.00805640127346851,-0.008723587344773112
1772366238327339300,7.82833935546875,-0.028087445843219757,0.0028600930057000365,-0.004828223874047398
1772366238337410300,7.838410400390625,-0.025094109246134755,0.0006826667682267725,0.0019037512620911
1772366238347480300,7.848480224609375,-0.026130466556549072,0.002023916176194325,-0.005223872128129005
1772366238357550000,7.858550048828125,-0.025833529436588287,0.006397299821674823,0.005500972036458551
1772366238367620400,7.868620361328125,-0.027924948757886883,0.0003188384245149791,0.0013982859579846263
1772366238377691400,7.87869140625,-0.022979309049248695,0.007287015203014015,0.00006155746150761842
1772366238387761200,7.88876123046875,-0.023733926808834075,0.008843560462631284,-0.0030937282316386696
1772366238397831200,7.8988310546875,-0.01953822868466377,0.006825516904797405,0.0028219620855525133
1772366238407901200,7.908901123046875,-0.017149872243404387,0.006814127861103043,-0.005508424690552055
1772366238417972200,7.91897216796875,-0.01909165396094322,-0.0002451612669508904,-0.00004701747950166464
1772366238428042200,7.929042236328125,-0.02821370257139206,-0.00244348416198045,-0.004431808434985578
1772366238438112300,7.9391123046875,-0.025970307558774948,0.00014647753229364753,0.001839198125898838
1772366238448182000,7.94918212890625,-0.02567570852637291,0.006700410954095423,-0.003207308141328394
1772366238458253000,7.959253173828125,-0.01729015749692917,-0.002916937759472057,0.0015160305861383675
1772366238468323300,7.9693232421875,-0.02282441074848175,-0.008659856192488222,0.0045505759764462705
1772366238478393300,7.979393310546875,-0.013093874850869177,0.00018114698687568306,0.0014982757337391375
1772366238488464100,7.989464111328125,-0.02236731463074684,0.004111006382247433,-0.0014253931606188416
1772366238498534100,7.9995341796875,-0.009651625442504882,-0.0012182623491156846,-0.009760456111840904
1772366238508604400,8.0096044921875,-0.014137830945849418,0.0038347467241343107,0.005259527963399887
1772366238518674200,8.019674072265625,-0.018632219755649566,-0.0016866561789996922,0.002314560552686453
1772366238528745200,8.0297451171875,-0.01055062010884285,-0.0021790062732063233,-0.010089359272643924
1772366238538815200,8.039815185546875,-0.028504794472455977,0.007332973236590623,0.0019488690454512834
1772366238548885000,8.049885009765624,-0.029542320826649666,0.0018100907624233513,0.0072537705205380915
1772366238558955300,8.059955322265624,-0.02205576446354389,0.010801635727845132,-0.0028072394404560328
1772366238569026300,8.0700263671875,-0.01486322261095047,0.009648054379085079,-0.004677344161272049
1772366238579096300,8.080096435546874,-0.01874269439280033,0.0014000577899627386,0.0018535189121961593
1772366238589166000,8.090166015625,-0.01918283937573433,0.0019567418246529997,0.0018832564633339643
1772366238599236400,8.100236328125,-0.004518354207277297,-0.0018422394663561135,0.002357376781105995
1772366238609307400,8.110307373046876,-0.021870471024513245,0.005069485284015536,-0.0036478184504434466
1772366238619377200,8.120377197265626,-0.027861820393800734,0.0063185902959667145,-0.004215170009620487
1772366238629447200,8.130447265625,-0.007068038690090179,0.002693814794393256,-0.004952580906078219
1772366238639518200,8.140518310546875,-0.0019891279906034467,-0.0019070391977205872,-0.012347623060829937
1772366238649588200,8.150588134765625,-0.023245851030945775,-0.005306326247192919,-0.0013301526252180336
1772366238659658200,8.160658203125,-0.024148352828621863,0.00758543189400807,-0.004578377298824489
1772366238669728300,8.170728271484375,-0.020256606087088583,0.0020064261852763593,-0.005600852214358747
1772366238679795700,8.180795654296874,-0.026841245174407957,-0.002577705000899732,-0.002461165949143469
1772366238689865700,8.19086572265625,-0.020997779843211172,0.006302990868035704,-0.0061675461864098904
1772366238699935700,8.200935791015626,-0.019342413851618764,0.011791834075283258,0.0009337006535381078
1772366238710006800,8.2110068359375,-0.010955693778395652,0.006370183485886082,0.006512012242525816
1772366238720076800,8.221076904296876,-0.013345803785324096,0.00028599560083821413,-0.004463263019174337
1772366238730146600,8.231146484375,-0.015440730237960814,-0.002285992045328021,-0.010870134386792778
1772366238740216800,8.241216796875,-0.02232464453279972,0.0020219342816621064,0.0005094108268618584
1772366238750288000,8.251287841796875,-0.005872691425681114,0.0041975521545391525,-0.008954838817380368
1772366238760357600,8.261357666015625,-0.015449498066306114,-0.001977437552809715,-0.005085340440273285
1772366238770427600,8.271427734375,-0.026375965750217435,0.002028263557748869,0.002930171700380742
1772366238780498700,8.281498779296875,-0.02113689605295658,-0.004789864625036716,0.00043561493828892704
1772366238790568700,8.291568603515625,-0.017989245676994323,0.005079093362577259,0.005938413605652749
1772366238800638700,8.301638671875,-0.02427051790356636,-0.003353228551195934,-0.004024725471436977
1772366238810708700,8.311708740234375,-0.022929040166735647,0.006078698859177529,-0.006533383824117481
1772366238820779800,8.32177978515625,-0.02098082870841026,-0.0010149674625135959,-0.008685593421943485
1772366238830849500,8.331849609375,-0.019032617250084875,0.003217062350362539,-0.0032318580606952307
1772366238840919800,8.341919921875,-0.019031448206305503,0.005850799254281446,0.0012719561645761132
1772366238850990800,8.351990966796874,-0.017982231414318085,-0.0027798034442588684,-0.003503076217509806
1772366238861060600,8.362060546875,-0.026208207967877387,0.0011336893382016568,-0.007590528194233775
1772366238871130600,8.372130615234376,-0.016034604477882384,0.008465393066313118,-0.005953574642166495
1772366238881201000,8.382200927734376,-0.02006897456049919,-0.0031169355772901323,-0.00373600819054991
1772366238891272000,8.39227197265625,-0.013484335473179817,0.0008868475708179175,-0.0038873628273606298
1772366238901341700,8.402341796875,-0.017068623700737952,0.0014419059040024875,-0.008499971189349888
1772366238911411700,8.41241162109375,-0.03083177611529827,0.008821741356467828,-0.0031699718056246635
1772366238921482800,8.422482666015625,-0.01512158128619194,-0.0022618805173784495,0.0005611410140991211
1772366238931552800,8.432552734375,-0.007791092267632484,0.0029644666956271976,0.0005578165458515286
1772366238941622800,8.442622802734375,-0.014827566775679587,0.0071093844806309784,-0.003279642725177109
1772366238951692800,8.45269287109375,-0.019762100568413734,0.003723075643740594,0.003251147283054888
1772366238961763600,8.462763671875,-0.01736848343014717,0.0007473934343550354,-0.0009459756132215261
1772366238971833600,8.47283349609375,-0.02111117708981037,0.003523680614121258,-0.004150799536518752
1772366238981904000,8.48290380859375,-0.015436638584733008,-0.0018051862584426998,-0.004094466239400208
1772366238991975000,8.492974853515625,-0.02486789927482605,0.006766224465612322,-0.004777808861061931
1772366239002044700,8.503044677734374,-0.02637362766265869,-0.0035218265837524084,-0.0055646118571981784
1772366239012114700,8.51311474609375,-0.01949205145537853,0.0003922050548251718,-0.0014092457434162497
1772366239022184700,8.523184814453124,-0.020391630643606183,0.0016152440437581389,-0.000099514851719141
1772366239032255700,8.533255859375,-0.014561609315872191,-0.002790991558553651,0.00831493347864598
1772366239042325800,8.54332568359375,-0.02892857284247875,0.008474233959894627,-0.004279102091304957
1772366239052395800,8.553395751953126,-0.021886837637424467,-0.0013321710523683577,0.0002307400159537792
1772366239062466600,8.563466552734376,-0.01350070208609104,-0.0011850541992578655,-0.0029086174556985497
1772366239072538600,8.57353857421875,-0.019929273828864096,0.004615019514784217,-0.005929718842543661
1772366239082608600,8.583608642578126,-0.022470775005221367,0.00624109547981061,-0.004841156420856714
1772366239092679000,8.593678955078126,-0.01828092209994793,0.007101255973102525,-0.005901515661366283
1772366239102748700,8.603748779296875,-0.01768178716301918,0.0008091061594896018,-0.009927775502763688
1772366239112819700,8.61381982421875,-0.024860885012149808,0.0046526115788146855,-0.0017820245785638688
1772366239122889700,8.6238896484375,-0.028602994149923323,-0.0010728807953651993,0.00002075052708387375
1772366239132959500,8.63395947265625,-0.01827390783727169,-0.0018287771965842692,0.0011498641548678278
1772366239143030500,8.644030517578125,-0.02755143927037716,0.004229563861154019,-0.0013738821690902113
1772366239153100800,8.654100830078125,-0.02395019990801811,0.004148945506149903,-0.002482354867644608
1772366239163170800,8.6641708984375,-0.029031448695063588,0.007611059525609016,-0.0033528175592422486
1772366239173240600,8.674240478515625,-0.023940263035893437,0.003322166692651808,-0.003116853378899395
1772366239183311600,8.6843115234375,-0.01944938135743141,0.004071907347720116,0.0018569895109161734
1772366239193382000,8.6943818359375,-0.024689035576581954,0.0027320827118586747,-0.006266732244566082
1772366239203451600,8.70445166015625,-0.022753099077939987,0.009650776059133932,-0.0011139891238883138
1772366239213522700,8.714522705078124,-0.02170972750484943,0.0036327030797023326,-0.0016626725152134895
1772366239223592700,8.7245927734375,-0.027099603849649427,0.0018702234518248586,-0.005911452533490956
1772366239233662700,8.734662841796874,-0.016018822386860847,-0.001330627549253404,0.0009854308407753706
1772366239243733800,8.744733642578124,-0.023943185645341872,0.011108390988921746,0.002028181359358132
1772366239253803800,8.7548037109375,-0.024531214666366576,0.02083824189994484,0.0021036212157458066
1772366239263873800,8.764873779296876,-0.016443769800662995,0.004793453954765573,0.0017738047394901513
1772366239273943600,8.774943603515625,-0.009848024797439575,0.0016201302814297378,-0.0002189765129238367
1772366239284014600,8.7850146484375,-0.03033843964040279,0.0004005344917532056,-0.001464848388172686
1772366239294084900,8.7950849609375,-0.02614917125701904,0.0005502816933672875,0.0027178075913339853
1772366239304154600,8.805154541015625,-0.009974281525611877,0.0037115404695738105,-0.007889730336517095
1772366239314225700,8.8152255859375,-0.01549976694881916,0.0006168989224825054,-0.008838372830860317
1772366239324295700,8.825295654296875,-0.017010171511769295,0.0019107929242309183,-0.002725515973754227
1772366239334365700,8.83536572265625,-0.012069792500138283,0.0019838307609781622,-0.01047386507820338
1772366239344436700,8.845436767578125,-0.025994857478141783,0.007651501133851706,0.002501205698587
1772366239354506800,8.8555068359375,-0.041399931880831714,0.010578521895920857,0.0010055968459695577
1772366239364576800,8.86557666015625,-0.02688859144747257,0.003131576023995876,0.0037814547674730418
1772366239374647600,8.8756474609375,-0.013877134183049202,0.005997148922411724,-0.003997947062365711
1772366239384717800,8.8857177734375,-0.022255670949816703,0.0031729674803093076,-0.009361702585220337
1772366239394787800,8.895787841796874,-0.01731178480684757,0.007064568091370165,0.0022914719380438325
1772366239404857600,8.905857666015624,-0.015064298141002654,0.0055995096406433725,0.0031097660509869455
1772366239414928600,8.9159287109375,-0.03407353451550007,0.00048653227477334435,0.002724200799502432
1772366239424998700,8.92599853515625,-0.025694997748732566,-0.004368862733989954,0.001371361418440938
1772366239435068700,8.936068603515626,-0.030181203252077102,0.0073926766677293925,-0.0004922039637342095
1772366239445139700,8.9461396484375,-0.01835807898938656,0.006127488170657306,-0.0016347250623628495
1772366239455209700,8.956209716796875,-0.02613923438489437,0.004474533331859857,-0.003732099200412631
1772366239465279700,8.96627978515625,-0.025094109246134755,0.009177212863788009,-0.0015869038652628659
1772366239475350500,8.9763505859375,-0.020457097095251082,0.006402313923509791,-0.000741429484449327
1772366239485420800,8.9864208984375,-0.02180442005097866,0.004124505184637382,-0.0016612477431073784
1772366239495490800,8.99649072265625,-0.024498481440544128,0.0041512561942450696,-0.0022635244851931927
1772366239505560600,9.006560546875,-0.02749474064707756,0.0025421313640195875,0.0017011048294603823
1772366239515631600,9.016631591796875,-0.02226268521249294,0.004087844702368602,0.0038413682611659165
1772366239525702000,9.026701904296875,-0.025257190853357314,-0.003381276468746364,0.008621807470731437
1772366239535771600,9.036771728515625,-0.018083353701233863,0.00185824988624081,-0.0006983575277030468
1772366239545842700,9.0468427734375,-0.02003331872522831,0.005213359867269173,-0.002018427150323987
1772366239555912700,9.05691259765625,-0.02632277425825596,0.0020543661133851855,0.0037500001832842826
1772366239565982700,9.066982666015624,-0.02317980005741119,0.0013026344306301325,0.0028597733452916142
1772366239576053500,9.077053466796874,-0.04368132081627846,0.004117235193634406,0.004628426985628903
1772366239586123800,9.087123779296874,-0.032303017711639403,0.004855057082045823,-0.00392287253215909
1772366239596193800,9.09719384765625,-0.01852875938117504,0.002047726310044527,0.002534121587499976
1772366239606264800,9.107264892578126,-0.02301613392829895,0.003924507366819307,0.0065974985688924785
1772366239616334600,9.11733447265625,-0.024061843588948247,0.003177050000382587,0.0021495792493224143
1772366239626404900,9.12740478515625,-0.020026304462552068,-0.0027963070544879884,0.0009981076592579484
1772366239636474600,9.137474609375,-0.01748129615485668,0.0023617150295060126,-0.004166252833977342
1772366239646545700,9.147545654296875,-0.015084756407141684,-0.005627502759266645,-0.004728599424473941
1772366239656615700,9.15761572265625,-0.024210896670818327,0.0004161339196842164,-0.003994038072228432
1772366239666685700,9.167685791015625,-0.026009470525383948,0.0012128281221725045,-0.0006416589044034481
1772366239676756000,9.177755859375,-0.012842530438303947,-0.003783865920267999,0.0020216785533353687
1772366239686826000,9.187825927734375,-0.017478958067297934,0.0009793938256334512,-0.0009326777402311563
1772366239696896000,9.19789599609375,-0.014635843595862388,0.002459138388838619,0.000410042105615139
1772366239706966800,9.207966796875,-0.024058920979499816,0.006106856374582276,-0.001460318343527615
1772366239717037000,9.218037109375,-0.0233101484388113,-0.001112180759292096,0.00034530630633234976
1772366239727107000,9.228107177734374,-0.02914601498544216,-0.0018967917983420191,0.004666128647513687
1772366239737177900,9.238177734375,-0.015830606338381768,-0.003917374373134225,0.006101422147639096
1772366239747247900,9.248247802734374,-0.02211538569629192,-0.0005009535257704555,0.004188245470076799
1772366239757318100,9.258318115234376,-0.026599837633967397,0.006776517530763522,-0.003920534444600343
1772366239767388000,9.268387939453126,-0.031084874093532562,0.00555972561952658,0.004837722354754805
1772366239777459000,9.278458984375,-0.020762802043557165,-0.005718605975667014,0.005220364996790886
1772366239787529000,9.288529052734376,-0.019566285735368727,-0.0035819501399993892,0.008207344918325542
1772366239797599000,9.298598876953125,-0.021810265269875524,0.003643014411162585,-0.0022112828413024545
1772366239807669800,9.308669677734375,-0.014772037196159361,0.003572798719163984,-0.003755918467417359
1772366239817740000,9.318739990234375,-0.021957564786076543,0.005438419061107561,-0.001448956699296832
1772366239827810000,9.32881005859375,-0.01641688179373741,0.005917078556679189,0.0019414894565939903
1772366239837880800,9.338880859375,-0.02329670443534851,0.002534843106707558,-0.000997011680714786
1772366239847950800,9.348950927734375,-0.024641104781627652,0.006689378103427589,0.006086882165633142
1772366239858021000,9.359021240234375,-0.01686228747367859,0.00801542994226329,0.006657667790912091
1772366239868092200,9.369092041015625,-0.01926291887462139,0.002590025626355782,-0.002920307893492281
1772366239878162000,9.379161865234375,-0.02300561253428459,0.0012943780589383094,-0.003879544847086072
1772366239888232000,9.38923193359375,-0.024210896670818327,0.0036855109791737047,0.0038633974298834797
1772366239898303000,9.399302978515625,-0.03572890050709247,-0.0035137437419965863,0.001413994983769953
1772366239908373000,9.409373046875,-0.020607903742790222,0.0010356449243612586,0.00025021190140396354
1772366239918443000,9.419443115234374,-0.022554946157336234,-0.0029061789034400135,0.0013951076202094554
1772366239928513000,9.429512939453126,-0.020759879434108734,0.003167834647465497,-0.006675897567346691
1772366239938583800,9.439583740234376,-0.01567278542816639,0.002084322860231623,0.005870901327393948
1772366239948653800,9.44965380859375,-0.0177636202275753,-0.0006661083590704947,-0.003629406010918319
1772366239958724000,9.45972412109375,-0.026443185767531394,0.005582795967860147,-0.0017044658303260803
1772366239968795100,9.469795166015626,-0.034519524717330934,0.004189916837355122,-0.002368994153663516
1772366239978865000,9.479864990234375,-0.026744214540719985,0.006485334298154339,0.006375380250811576
1772366239988935000,9.489934814453125,-0.027332828083634374,0.0033801074249669907,-0.0048087154559791085
1772366239999006000,9.500005859375,-0.020442484048008917,0.006518807309493422,0.0009255904123187064
1772366240009076000,9.510075927734375,-0.019853870505094528,0.002695723623689264,-0.0010848360946401953
1772366240019146000,9.52014599609375,-0.033623452660441394,0.005659678862662986,0.00007726648729294538
1772366240029217000,9.530217041015625,-0.02300561253428459,0.00759279321655631,0.00038019495662301777
1772366240039286800,9.540286865234375,-0.025553543451428413,-0.001537237770948559,0.0020867796787992117
1772366240049357000,9.550357177734375,-0.023913375028967856,-0.005055538957053795,0.0013719459403306244
1772366240059428000,9.560427978515625,-0.023167525097727775,0.0043156621088739485,0.0043321474527940156
1772366240069498000,9.570498046875,-0.02556757197678089,-0.0040053266512230035,0.0028419454276561737
1772366240079568000,9.58056787109375,-0.018232991304993628,0.0008146043185144662,0.00046389118470251556
1772366240089639000,9.590638916015624,-0.017945406535267827,0.0023068247708026316,0.006347286667488515
1772366240099709000,9.600708984375,-0.029613047975301742,0.0007977171157952398,0.0063154667571187015
1772366240109779000,9.610779052734374,-0.027218261793255805,0.007086953453114256,-0.008038746885769069
1772366240119849000,9.620848876953126,-0.024528292056918144,0.00013744484246708453,-0.007673968693986535
1772366240129920000,9.630919921875,-0.021539631634950637,0.0030119134333916006,-0.0022285993022844192
1772366240139989800,9.64098974609375,-0.025890228059887884,0.00429755106344819,0.0012909531259909272
1772366240150060000,9.65106005859375,-0.019905308431386947,0.004504353081388399,-0.00020578823778778313
1772366240160131000,9.661131103515626,-0.019311434191465377,-0.003429709587199613,-0.0067442135632038115
1772366240170201000,9.671201171875,-0.028735096096992492,-0.004767652793228626,-0.0008277195284143089
1772366240180270800,9.681270751953125,-0.02963350624144077,-0.002491131829144433,0.0030474414044991136
1772366240190342000,9.691341796875,-0.020211597901582716,-0.0061492159452755,-0.00799940125606954
1772366240200412200,9.701412109375,-0.024844518399238586,0.0052904528246261176,-0.006813479407131671
1772366240210482000,9.71148193359375,-0.029341245296597478,-0.0023039295608177778,0.006945873615145683
1772366240220553000,9.721552978515625,-0.025752280893921852,0.008968894742196426,-0.005963694177381694
1772366240230623000,9.731623046875,-0.016025836649537085,0.0009643789195921272,-0.0031372020471841094
1772366240240692700,9.741692626953125,-0.022315292182564735,0.0025813673958647995,-0.004138926435634494
1772366240250763800,9.751763671875,-0.02112812822461128,0.002070166470715776,-0.006318937355838715
1772366240260834000,9.761833984375,-0.027708091136813162,0.005716797611070796,-0.0035580578077584503
1772366240270904000,9.771904052734374,-0.03145721453726291,0.0061291595379356295,-0.0006085968850180506
1772366240280973800,9.781973876953124,-0.02172375603020191,0.00752244966039434,0.0022570947444066403
1772366240291044900,9.792044921875,-0.02935001312494278,0.0006795066967606545,-0.003972995284199714
1772366240301115100,9.802115234375,-0.031893267866969104,-0.000554437278676778,0.002158895066939294
1772366240311185000,9.812184814453126,-0.02606032392978668,0.003748977269977331,-0.007632723368145525
1772366240321256000,9.822255859375,-0.025756372547149655,0.011107486806623637,0.0063552873108536
1772366240331326000,9.832325927734376,-0.032786417314410204,0.0012730156105011702,0.00655051762200892
1772366240341396000,9.84239599609375,-0.032927287089824675,0.00412729079676792,-0.0028611250521615146
1772366240351467000,9.852467041015625,-0.041596915757656096,0.010031208477774634,0.004508526933006942
1772366240361537000,9.862537109375,-0.024983050087094307,-0.007167243014555424,0.008194339306280017
1772366240371607000,9.87260693359375,-0.02362520573735237,0.007887474447349085,-0.004591090649925172
1772366240381677800,9.882677734375,-0.021681670454144476,0.0030385913777630775,0.0017845818618312478
1772366240391747800,9.892747802734375,-0.020629531052708625,-0.0037174678868614136,0.002790324838273227
1772366240401818000,9.902818115234375,-0.028249358406662938,-0.00506323820631951,0.006376695425063372
1772366240411889200,9.91288916015625,-0.03169862207770347,0.000015252368059009313,0.004401194101013243
1772366240421959000,9.922958984375,-0.014341829085350036,-0.005774391283513978,0.0004928250182420015
1772366240432029000,9.93302880859375,-0.025858079355955122,-0.0013880476917605847,0.0019785335313528777
1772366240442099000,9.943098876953124,-0.03469195867478847,0.002682498815935105,0.00603211977109313
1772366240452170000,9.953169921875,-0.020638298881053924,-0.0011902509641833602,0.00366634048782289
1772366240462240000,9.963239990234374,-0.028127193331718443,0.008129000718798489,-0.003815101308748126
1772366240472310000,9.97331005859375,-0.03829670516848564,0.006307091654418036,0.001402962133102119
1772366240482380800,9.983380859375,-0.030516134294867513,0.001358912928821519,0.0012327201327309012
1772366240492451000,9.993451171875,-0.030372341910004614,0.00575587837928906,-0.001640972140058875
1772366240502521000,10.00352099609375,-0.025291677644848822,-0.0032790034043602644,0.0023849223751574752
1772366240512592100,10.013592041015626,-0.02753741074502468,-0.006939453007513657,-0.004847659226879477
1772366240522662000,10.023661865234375,-0.03218085263669491,0.0033368436719756573,0.00012596446722745895
1772366240532732000,10.03373193359375,-0.026048633491992948,0.00745085486206226,0.0064554597496986384
1772366240542803000,10.043802978515625,-0.03143558722734451,0.011257517136028036,0.002425802374817431
1772366240552873000,10.053873046875,-0.03413432479202747,-0.0055285632962826636,0.007119549681618809
1772366240562943000,10.06394287109375,-0.02680149768590927,-0.003952664882224053,0.0023618337605148553
1772366240573014000,10.074013916015625,-0.03218143715858459,0.004702451203064993,0.0007266703067347407
1772366240583083800,10.084083740234375,-0.022446809607744214,0.0013860749303828924,-0.0005970525776967406
1772366240593154000,10.094154052734375,-0.028578444230556485,0.0011434344140812754,0.009672777828387916
1772366240603224000,10.10422412109375,-0.02872515922486782,0.0005880472873337567,-0.00013714344836771486
1772366240613295000,10.114295166015625,-0.02079261265993118,-0.0005188910412602126,-0.0029475977592170236
1772366240623364900,10.12436474609375,-0.03291208952069282,-0.0034695301409345116,0.0004016396034508943
1772366240633435100,10.13443505859375,-0.03755027071535587,0.0035213607928715643,0.005088043854013085
1772366240643506200,10.144506103515624,-0.028868367087841032,0.004335837247222662,-0.0045953284336253996
1772366240653576000,10.154575927734374,-0.02752396674156189,-0.0010415632084943354,0.005977868833206594
1772366240663646000,10.16464599609375,-0.033356326156854625,-0.0009131875884719193,-0.002329465860873461
1772366240673717000,10.174717041015626,-0.03170797442793846,-0.005607409819308668,-0.0031856808314099905
1772366240683787300,10.184787353515626,-0.02856441570520401,-0.0005150368500500917,-0.005556099757179618
1772366240693857500,10.194857421875,-0.040081250497698784,0.003340076808677986,-0.007053790969029069
1772366240703928600,10.204928466796876,-0.030654665982723234,0.004338540660962462,0.00178034407813102
1772366240713998300,10.214998291015625,-0.028572599011659622,0.0009892758988309651,0.00301386792846024
1772366240724068400,10.225068359375,-0.026932430589199065,0.0063401354074943805,0.0024610198186710477
1772366240734139400,10.235139404296875,-0.029326047727465627,0.0017136081180069594,0.0011602394184097647
1772366240744209400,10.24520947265625,-0.037410569983720776,-0.0004865596742369234,0.005418773645721376
1772366240754279400,10.255279541015625,-0.03425999699831009,0.0033308523226063696,0.009951229443587362
1772366240764349400,10.265349365234375,-0.04846972413659095,0.005558209515875205,0.0008052519682794809
1772366240774420500,10.27542041015625,-0.037540918365120884,-0.0019492617710959166,0.00002246756013482809
1772366240784490200,10.285490234375,-0.023619945040345192,0.004939374364633113,0.008241174122691155
1772366240794560500,10.295560546875,-0.034842765322327614,-0.003755005151964724,0.0032968130556866523
1772366240804631600,10.305631591796875,-0.023916882160305974,0.007374108964577317,-0.00471880868282169
1772366240814701300,10.315701416015624,-0.01867255176603794,0.005658537218347192,-0.002481039693392813
1772366240824771300,10.325771240234374,-0.027039982616901395,-0.0037229934453498568,0.00917027166634798
1772366240834842400,10.33584228515625,-0.031984453281760215,-0.006596082929940894,0.0024353373881429432
1772366240844912400,10.345912353515626,-0.03647182782888412,-0.006508148918161169,-0.0020326748713850973
1772366240854982400,10.355982421875,-0.01882102032601833,0.0005072188697755336,-0.0024408538134768603
1772366240865053400,10.366053466796876,-0.033035423639416694,-0.0006017013533506542,-0.0004557078782469034
1772366240875123500,10.37612353515625,-0.03198854493498802,0.0005155483067035675,-0.0030277137907221913
1772366240885193500,10.386193359375,-0.0164303257972002,0.0009729366853833199,0.011809680259227752
1772366240895263500,10.396263427734375,-0.042324645510315895,-0.001328919649356976,-0.0015153364663943647
1772366240905334500,10.40633447265625,-0.036187165668606754,0.0010074234768748284,-0.003570369300059974
1772366240915404300,10.416404296875,-0.020635376271605492,0.004342741912044585,-0.000686922818236053
1772366240925474300,10.426474365234375,-0.013760229805111884,0.00690318525088951,0.006873173705115914
1772366240935545300,10.43654541015625,-0.03623275837600231,0.002317355297971517,0.0035703327674418686
1772366240945615400,10.446615478515625,-0.003053542351722717,-0.003441555288620293,0.0019104732638224957
1772366240955685400,10.456685302734375,-0.018064064478874205,0.006136347330547869,0.0016382321937009692
1772366240965756400,10.46675634765625,-0.02253507241308689,0.0080954911748413,-0.000988755309022963
1772366240975826400,10.476826416015625,0.09167290604710579,0.011556180422194301,-0.015134806093946098
1772366240985896400,10.486896484375,-0.1784124473452568,-0.013880632181232795,0.04374696993101388
1772366240995967500,10.496967529296874,-0.10313479578197002,0.0014619714444968849,0.0018492445958778261
1772366241006037500,10.50703759765625,-0.050128012737631795,0.00247210746826604,0.005148688000068068
1772366241016107300,10.517107177734376,-0.03631225335299969,0.005646152660809457,0.0014088438846170902
1772366241026177300,10.52717724609375,-0.06318272462189198,0.0008403050153516233,0.008107245544716715
1772366241036248300,10.537248291015626,-0.056363107734918594,0.0016228519614785908,0.007150456276535987
1772366241046318300,10.547318359375,0.003837386205792427,-0.003784404776385054,-0.010388890208490192
1772366241056388400,10.557388427734375,0.014466916769742965,0.0075868201334960755,-0.0015082856711000202
