time,seconds_elapsed,z,y,x
1772366599022054100,0.11805419921875,-0.023112580040097235,-0.0001943991940934211,-0.002254756656847894
1772366599032124200,0.128124267578125,-0.03476853104233742,-0.008030947171803563,0.0030229645503684877
1772366599042194200,0.138194091796875,-0.03131342215240002,-0.0025511320878053084,0.009436484854482114
1772366599052263700,0.148263671875,-0.043265141230821605,-0.0037044440085068344,0.009415880457870661
1772366599062333700,0.158333740234375,-0.04352349990606308,-0.0063511591250076885,0.0028507497886195777
1772366599072403700,0.16840380859375,-0.04840834933817386,0.005498629382322542,0.0031464082669466734
1772366599082473700,0.1784736328125,-0.03906710501909256,0.002261423859652132,0.009265402603894472
1772366599092543500,0.18854345703125,-0.039299744731187816,0.0067128000782104204,0.006733326843008399
1772366599102613800,0.19861376953125,-0.04027881889641285,-0.00159280388308689,0.0031928046919405457
1772366599112683800,0.208683837890625,-0.021957564786076543,0.00522566222641617,0.0010607245666906238
1772366599122753500,0.21875341796875,-0.026680501654744147,-0.0012994195602368563,0.005970818037912249
1772366599132823800,0.22882373046875,-0.017654899156093598,-0.011277801872231066,-0.006253397838957607
1772366599142893800,0.238893798828125,-0.026736615756154058,-0.0020572065244428813,0.0006239405846223234
1772366599152964600,0.248964599609375,-0.022051088288426397,-0.003699726734193973,0.000168671097792685
1772366599163034600,0.25903466796875,0.007290157008171081,0.008112136348965578,-0.0023966493455693126
1772366599173104600,0.269104736328125,-0.02561199564039707,0.008098185455426574,0.008502090081200004
1772366599183174700,0.279174560546875,0.008784779480099678,-0.004469478130829521,-0.00825282802786678
1772366599193244700,0.28924462890625,-0.04463467601835727,-0.003778230763925239,0.008940481498464941
1772366599203314700,0.299314697265625,-0.022635610178112983,-0.0036747840891825033,-0.0016518223276361821
1772366599213384700,0.309384765625,-0.02172901672720909,-0.005870819129003211,-0.007873034930042922
1772366599223454700,0.319454833984375,-0.021567688685655593,-0.000594577492820099,-0.003574351355433464
1772366599233524700,0.329524658203125,-0.029644612157344815,-0.003901391352713108,-0.005128741190582513
1772366599243594800,0.3395947265625,-0.022304770788550376,-0.004718361158249899,0.004613265949115157
1772366599253664800,0.349664794921875,-0.024543489626049995,0.0016245461616432293,0.00012176321614533662
1772366599263734800,0.35973486328125,-0.025590952852368353,0.001996745041478425,0.003280336844921112
1772366599273804500,0.369804443359375,-0.03456102577149868,0.0075538266127696254,0.005083440744131803
1772366599283874800,0.379874755859375,-0.034403789383172984,-0.012512060941499658,-0.00463394341096282
1772366599293944600,0.389944580078125,-0.030364158603549,-0.00724566027931869,-0.003895619199052453
1772366599304014600,0.4000146484375,-0.025869769793748856,-0.0024477082459488883,-0.0004873451255261898
1772366599314084900,0.4100849609375,-0.023021394625306127,-0.006192415766185149,-0.005163447177782655
1772366599324154600,0.420154541015625,-0.029445874714851376,-0.00035195980940479785,0.0016358575735241174
1772366599334224600,0.430224609375,-0.02420680501759052,-0.0009495147106004878,-0.002059014889039099
1772366599344295000,0.440294921875,-0.02868424269258976,0.005496674887253902,-0.002377177460119128
1772366599354364700,0.45036474609375,-0.03646013739109039,0.0016765731764025985,0.002074796980060637
1772366599364434700,0.4604345703125,-0.02329319730401039,-0.0011839399544056504,-0.0020202537812292576
1772366599374504700,0.470504638671875,-0.02194119817316532,0.007589222153136507,0.002432122517749667
1772366599384575500,0.480575439453125,-0.03151157507300377,-0.0017568627378437666,0.0019788988575339317
1772366599394645800,0.490645751953125,-0.0315016382008791,0.000133316656621173,0.003553673893585801
1772366599404715800,0.5007158203125,-0.03598725918233395,0.009079236948606557,0.005433057899400591
1772366599414785500,0.51078564453125,-0.027307693642377853,-0.006418872332666069,-0.00040134734250605106
1772366599424855800,0.520855712890625,-0.025508535265922543,0.001050974924233742,-0.0036086189512163397
1772366599434925800,0.53092578125,-0.024757424637675284,0.003719426948507316,0.00034903263337910176
1772366599444995600,0.54099560546875,-0.026399931147694587,-0.0014834891565609722,0.0016392916396260262
1772366599455065600,0.551065673828125,-0.03148001089096069,-0.00401456483702641,-0.005964497894980013
1772366599465135900,0.561135986328125,-0.031177813073992727,-0.0013525242872303351,-0.005295585657469928
1772366599475205600,0.57120556640625,-0.025041502276062964,-0.0034559080409584564,0.0027921149365603922
1772366599485275600,0.581275634765625,-0.024736966371536252,-0.0007538460080279037,-0.0006811141319572926
1772366599495345700,0.591345703125,-0.025776246291399,0.0007547456237487494,0.005803827440552413
1772366599505415700,0.601415771484375,-0.026821371430158614,-0.008532727248058654,0.0049707376172766085
1772366599515485700,0.611485595703125,-0.021733108380436895,-0.006191593782277778,-0.008198504024744034
1772366599525555700,0.6215556640625,-0.026820786908268928,-0.0018896268386160953,-0.0008645078748464583
1772366599535625700,0.631625732421875,-0.03189735952019691,0.00320122089383658,-0.005692183759622276
1772366599545695700,0.64169580078125,-0.03653028001785278,-0.0004097863772884011,-0.00045863048769533634
1772366599555765500,0.651765625,-0.02141395942866802,-0.005439729668782092,-0.0020510873109102247
1772366599565835800,0.661835693359375,-0.019306758016347885,0.0009479986069491133,-0.005920768351107835
1772366599575905800,0.67190576171875,-0.03231704623699188,-0.004896306974464096,0.0027695012459531426
1772366599585975600,0.6819755859375,-0.034706571722030635,-0.0037974377878941595,0.0021450492046773432
1772366599596046600,0.692046630859375,-0.03291150499880314,0.0015199898086255415,0.005436857291683555
1772366599606116900,0.702116943359375,-0.03215688723921776,-0.00814697476690635,0.0018610080989077686
1772366599616186600,0.7121865234375,-0.030353052687644957,-0.0007505215397803112,0.0005607026226818561
1772366599626256600,0.722256591796875,-0.03364157283902168,0.0014898321323795244,-0.005492679132148623
1772366599636327000,0.732326904296875,-0.032143443235754965,-0.00037556444727815684,0.0035157165033742784
1772366599646396700,0.742396728515625,-0.04276829762458801,-0.0053442014390137045,0.003190868463180959
1772366599656466700,0.752466796875,-0.03648293374478817,0.004047334595466964,0.0014099398631602525
1772366599666536700,0.76253662109375,-0.02600245626270771,-0.002066618240182288,0.009782229552231729
1772366599676606700,0.772606689453125,-0.028245266753435132,-0.004691158057493158,-0.005001205820776522
1772366599686676700,0.7826767578125,-0.03482230705618858,-0.003490317200636491,-0.00003434066101908684
1772366599696746800,0.792746826171875,-0.022696400454640386,0.001944334434228949,0.004288344843685627
1772366599706816800,0.802816650390625,-0.04049918364882469,-0.0038998341498663646,0.006035042380541563
1772366599716886800,0.81288671875,-0.03360416343808174,0.0015544446340762079,-0.0002880596937611699
1772366599726956500,0.82295654296875,-0.029115035325288773,-0.0061051941404584795,-0.00044266573358327146
1772366599737026800,0.83302685546875,-0.040032735180854796,-0.008958391614491119,-0.006132876731827855
1772366599747096800,0.843096923828125,-0.03060088996887207,-0.011194895662018096,0.00010579846203327178
1772366599757166600,0.85316650390625,-0.03359364204406738,0.002557315233419649,0.003127849696949124
1772366599767236600,0.863236572265625,-0.04181728051006794,0.005514215110521763,0.00028725597616285084
1772366599777307000,0.873306884765625,-0.04106967701315879,-0.0014527423918480054,-0.0022570582117885348
1772366599787376600,0.883376708984375,-0.053635728597640986,0.0033067727606976402,-0.0021855638781562445
1772366599797446700,0.89344677734375,-0.036870471757650375,0.0048459924261784176,-0.0021885960854589937
1772366599807517000,0.903516845703125,-0.036274259430170055,0.0030266954439925027,-0.0013177315350621937
1772366599817586700,0.913586669921875,-0.03747428286969662,0.0006165016302606091,0.004295870563015341
1772366599827657700,0.92365771484375,-0.0341851781964302,-0.004584163152216933,0.003178630036115646
1772366599837727700,0.933727783203125,-0.036274843952059745,-0.00830077252255287,-0.00494110966399312
1772366599847797800,0.9437978515625,-0.04539689256250858,0.0018707942739827558,-0.004058152817003429
1772366599857867800,0.95386767578125,-0.03850888661444187,0.009424798983265646,-0.0011106281230226158
1772366599867937800,0.963937744140625,-0.0382025971442461,0.006908331783465109,0.0038375323362648483
1772366599878007600,0.974007568359375,-0.03879588686227798,-0.006044641325948759,0.0011003624573349953
1772366599888077800,0.984077880859375,-0.029960838499665257,-0.0017208781090099364,-0.005771569138765335
1772366599898147800,0.99414794921875,-0.031157939329743384,-0.004642231748695485,0.012348499843664467
1772366599908217600,1.004217529296875,-0.03369710241854191,0.0015450922838412225,0.004506006182357669
1772366599918288000,1.014287841796875,-0.04506956030428409,-0.013247247914830222,0.0018181188052520155
1772366599928357600,1.024357666015625,-0.028909868142008778,-0.001381718415673822,0.004048690868914127
1772366599938427600,1.034427734375,-0.0336930107653141,-0.0006418917998438701,0.0029756182773038745
1772366599948497700,1.04449755859375,-0.03982581443190574,-0.0068740687542594965,-0.0021978023052215577
1772366599958567700,1.054567626953125,-0.04461071062088012,-0.005400342939887196,0.0019030936749652027
1772366599968637700,1.0646376953125,-0.034437107130885124,0.00020432693306356669,0.0005163154916837811
1772366599978707700,1.074707763671875,-0.02741056949496269,-0.00931423758114688,0.0044167935289442534
1772366599988777700,1.08477783203125,-0.03264847014844417,-0.004981396008608863,-0.0002182823931798339
1772366599998847700,1.09484765625,-0.039673254218697544,-0.0036039519092533733,0.00866557354722172
1772366600008917800,1.104917724609375,-0.03189034525752067,0.013354014491243286,0.0022889877200126646
1772366600018987800,1.11498779296875,-0.040270635589957235,0.0063872122525004665,0.002711852774582803
1772366600029057800,1.125057861328125,-0.03652735740840435,0.00811528728727717,-0.003801986098848283
1772366600039127800,1.1351279296875,-0.03817337104976177,-0.005695069836452603,0.0005554053930565715
1772366600049197600,1.145197509765625,-0.04206102613806724,0.0004099188080290332,0.0016815964113920925
1772366600059268400,1.155268310546875,-0.037270284730195995,-0.005514964029192924,0.005491619686223566
1772366600069339400,1.16533935546875,-0.02948503768146038,-0.0030983222083654253,0.00619677228089422
1772366600079409400,1.175409423828125,-0.040406829190254206,0.006813150613568723,0.004903773328289389
1772366600089479400,1.1854794921875,-0.03696457978188991,-0.004568878818117082,-0.00031889322344213724
1772366600099549400,1.195549560546875,-0.040407998234033585,-0.0029288291266653687,-0.0007923194214701652
1772366600109619500,1.205619384765625,-0.035463527569174765,0.002818098761187866,0.0020708514573052525
1772366600119689500,1.215689453125,-0.043239422267675395,-0.01061830591703765,0.00010441022254526615
1772366600129759500,1.225759521484375,-0.040842297998070716,-0.0022446736542508007,0.005272971966862678
1772366600139829500,1.23582958984375,-0.040243163061141965,0.001909523415751755,0.006922200478613376
1772366600149899500,1.2458994140625,-0.0426338575899601,0.006933128298004157,0.0013088541088625788
1772366600159969500,1.255969482421875,-0.03769347857832908,-0.0035123555025085803,-0.006413228043168783
1772366600170039300,1.266039306640625,-0.04921498954594135,-0.0055678130278596655,-0.003861461201123893
1772366600180109600,1.276109619140625,-0.037544425496459005,-0.00825266819766257,0.01002162779867649
1772366600190179300,1.286179443359375,-0.038140053302049635,-0.012550854015350341,0.002769099387153983
1772366600200249300,1.296249267578125,-0.0468207878857851,0.0037728833019500595,-0.0017586071703583
1772366600210319600,1.306319580078125,-0.03993687359094619,-0.00204531515724957,-0.0017492548201233147
1772366600220389400,1.316389404296875,-0.029316110855340957,0.0011949362724553794,-0.004655132329463958
1772366600230459400,1.32645947265625,-0.03963818290531635,-0.005957542997808195,0.0035057065660133954
1772366600240529700,1.33652978515625,-0.051608022162318225,-0.008311184318712911,-0.0003628419630229473
1772366600250599400,1.346599365234375,-0.0435270070374012,0.005543162643793039,0.005780665760673582
1772366600260669400,1.35666943359375,-0.039333062478899956,0.0008057086260057986,-0.0023366993192583323
1772366600270739500,1.366739501953125,-0.04217734599411487,-0.004823387868725695,-0.0001353168174624443
1772366600280809500,1.3768095703125,-0.03693944534063339,-0.00567894981871359,-0.002686426072381437
1772366600290879500,1.38687939453125,-0.03693126203417778,-0.0007155415579443797,-0.0029535525759682058
1772366600300949500,1.396949462890625,-0.033038346248865126,-0.006062492076470517,-0.002287782143615186
1772366600311019500,1.40701953125,-0.03169920659959316,-0.007247683273046277,-0.004991415079124271
1772366600321089500,1.417089599609375,-0.03559446047246456,0.0010048570604529231,0.001923880734667182
1772366600331159300,1.4271591796875,-0.02586684718430042,0.004122390859364532,-0.004782229307852685
1772366600341229300,1.437229248046875,-0.032898645517230034,0.0023014910085592416,-0.00011606412772089242
1772366600351299600,1.447299560546875,-0.045320320194959636,0.005137636883091181,0.0044693639663979405
1772366600361369300,1.457369384765625,-0.03797989430427551,0.0034318102127406745,-0.0014741276731714606
1772366600371440400,1.4674404296875,-0.05399111790657043,0.0022956686225486917,-0.0005903305759653449
1772366600381510400,1.477510498046875,-0.04111877685189247,0.004500900748977438,0.0111855570115149
1772366600391580400,1.487580322265625,-0.040215690532326695,0.00253148210584186,0.0005670227656140923
1772366600401650400,1.497650390625,-0.03901625161468982,-0.009294418635824695,-0.004144406328350305
1772366600411720400,1.507720458984375,-0.04305588239431381,-0.002386000087391585,0.006806757405400276
1772366600421790500,1.51779052734375,-0.04365151019990444,-0.0038472911118762566,-0.0052417731110006565
1772366600431860500,1.527860595703125,-0.03122866647839546,0.0017967700565466656,0.0015543898351490497
1772366600441930500,1.537930419921875,-0.04245207128226757,0.003994412531564012,0.0064731415368616575
1772366600452000300,1.548000244140625,-0.039455812075734134,-0.0020072025034110993,-1.8266309052705763e-7
1772366600462070500,1.558070556640625,-0.03555588202774525,-0.009721832001348957,-0.0016992416659370063
1772366600472140500,1.568140625,-0.04079144459366798,0.004221919410815463,0.01405548642463982
1772366600482210300,1.578210205078125,-0.0400455946624279,0.0013247412311611696,0.0012754632959142327
1772366600492280600,1.588280517578125,-0.031662966242432596,0.007614680821378715,0.006436353190429509
1772366600502350600,1.5983505859375,-0.027177345260977745,-0.0032554489988368004,0.003515314644575119
1772366600512420400,1.60842041015625,-0.0418406613856554,-0.011114893794944508,0.0037059053132310507
1772366600522490600,1.61849072265625,-0.04034311630427837,-0.013086687058256939,0.0007325155256316066
1772366600532560400,1.628560302734375,-0.04393266522884369,-0.0016757968582678585,-0.00041303778029978274
1772366600542630400,1.63863037109375,-0.04857376903295517,-0.003545805680961348,-0.0004643295761197805
1772366600552700400,1.648700439453125,-0.04168576308488846,-0.0002673000335227698,0.003546111641637981
1772366600562770400,1.6587705078125,-0.0452782346189022,-0.008532343655568547,0.00440400711260736
1772366600572840400,1.66884033203125,-0.03600011866390705,0.0011165738066192716,0.00230455061532557
1772366600582910500,1.678910400390625,-0.031662381720542906,-0.003143325827294029,-0.0036765696208924054
1772366600592980500,1.68898046875,-0.036305823612213135,-0.003226661295769736,-0.007368263745680451
1772366600603050500,1.699050537109375,-0.04213993659317493,0.00248530487655662,-0.0033171982565894723
1772366600613120500,1.70912060546875,-0.04079261363744736,0.007525285504874773,-0.0008874503590166568
1772366600623190500,1.7191904296875,-0.04109247336685657,-0.0017411217460175975,0.0000063201429322361944
1772366600633260500,1.729260498046875,-0.03211363261938095,-0.005778350506001151,0.007194587679207325
1772366600643330600,1.73933056640625,-0.031214053431153296,-0.0009395687053212895,0.005306581975519657
1772366600653400300,1.749400390625,-0.03375789269506931,-0.006335043673845939,0.006225011994689703
1772366600663470600,1.759470703125,-0.040486324167251585,-0.0007089839529944584,0.002779145857132971
1772366600673540400,1.769540283203125,-0.027767712369561194,-0.005816527091921307,-0.0002110489347949624
1772366600683610400,1.7796103515625,-0.04318389268815517,0.0032437265950022265,-0.005392872019484639
1772366600693680600,1.7896806640625,-0.034059505990147586,-0.003332418658607639,0.0008074073927477001
1772366600703750400,1.79975048828125,-0.030919454398751257,-0.0040194967404706405,0.0042085210731253025
1772366600713820400,1.8098203125,-0.03810205937922,0.006838490550802089,0.004367766755446791
1772366600723890400,1.819890380859375,-0.03166822693943977,0.0008151523077860474,0.0019456541750580072
1772366600733960400,1.82996044921875,-0.0349608387440443,-0.0034120186668820675,0.00028787703067064286
1772366600744030500,1.840030517578125,-0.04408697900772095,-0.000398990988638252,-0.0007131897706538438
1772366600754101500,1.8501015625,-0.04109071980118751,-0.00013422083891928194,-0.0012344371657818556
1772366600764171300,1.860171142578125,-0.040189971569180485,-0.0011033261659787966,-0.00579199087228626
1772366600774241500,1.870241455078125,-0.0372007266253233,0.005994308511354029,0.005807224974036216
1772366600784311600,1.8803115234375,-0.04213993659317493,0.003987544399360194,0.0020305194469168782
1772366600794381300,1.89038134765625,-0.02987374473810196,-0.0014582040182547643,-0.002251030329801142
1772366600804451600,1.90045166015625,-0.036463644522428514,0.00348511130255647,-0.0013191563071683048
1772366600814521600,1.910521484375,-0.03736439275443554,-0.006770590113475919,-0.004668941659107804
1772366600824591400,1.92059130859375,-0.037813305565714835,0.002402124671707861,-0.005261244996450841
1772366600834661400,1.930661376953125,-0.033169279152154924,-0.003688958745007403,0.001286861472763121
1772366600844731600,1.940731689453125,-0.030475217762589452,-0.00015705829181242734,-0.001681888672336936
1772366600854801400,1.950801513671875,-0.0411000721514225,-0.0013607486928813159,0.004440137871913612
1772366600864871400,1.960871337890625,-0.037809798434376714,-0.009284468063968234,0.0073863473916426295
1772366600874941400,1.97094140625,-0.04125204784274101,-0.004777658164012245,-0.009234422943741083
1772366600885011500,1.981011474609375,-0.03466974684298038,-0.00029277696807403117,0.00015329086557030677
1772366600895081500,1.99108154296875,-0.042454409369826314,-0.010133180148061364,0.003370791607350111
1772366600905151500,2.0011513671875,-0.04274900840222835,-0.005640590569702908,-0.0015839447231963276
1772366600915221500,2.011221435546875,-0.032721535384655,-0.0052009570434223855,-0.007075016420148313
1772366600925291500,2.02129150390625,-0.038702363359928126,0.004419789203628897,-0.0015722908180207014
1772366600935361300,2.031361328125,-0.04722352346777916,0.004919770048442297,-0.002409106968343258
1772366600945431600,2.041431640625,-0.0339110374301672,0.010184028985886833,0.001631290996260941
1772366600955501600,2.05150146484375,-0.03615677053034305,-0.004435096370615065,0.007454517257027327
1772366600965571300,2.0615712890625,-0.04124737166762352,-0.0001061637882143259,-0.0051935500551015135
1772366600975641600,2.0716416015625,-0.03810089033544063,0.0005195029626134783,0.001167984333448112
1772366600985711600,2.081711669921875,-0.03496434587538242,-0.003841016634716652,-0.006311667364835739
1772366600995781400,2.091781494140625,-0.03706570206880569,-0.0037618504512822253,-0.005427212680503725
1772366601005851400,2.101851318359375,-0.02524725398123264,0.0000605345482006669,-0.006530315084196627
1772366601015921400,2.11192138671875,-0.04409983848929405,-0.0004996566178277135,-0.007084039976820349
1772366601025991400,2.121991455078125,-0.0429039067029953,0.0024875698988791554,0.002281279337592423
1772366601036061400,2.1320615234375,-0.03452303184866905,-0.002855028671515174,0.0008335647473111748
1772366601046131500,2.14213134765625,-0.04769698619842529,0.004546548255300149,-0.004691957208514213
1772366601056201000,2.152200927734375,-0.04799684592783451,0.014618636732734738,0.005155263871327042
1772366601066271000,2.16227099609375,-0.03617430618703365,-0.0035312702655326575,0.002328954404219985
1772366601076341000,2.172341064453125,-0.0351221667855978,0.0007009696098975837,0.00003251403011381626
1772366601086411000,2.182410888671875,-0.04948854579031467,-0.00036439916586969044,-0.008533763861097395
1772366601096481000,2.19248095703125,-0.04230594080984592,-0.00983273589676246,0.003459346673637628
1772366601106551000,2.202551025390625,-0.038865444967150685,0.0024321910164086147,-0.003304959829524159
1772366601116621000,2.21262109375,-0.039461072772741315,0.00026310791559517384,0.00005224164389073848
1772366601126691000,2.222691162109375,-0.03526654369235038,-0.00340990890818648,-0.0002972293809056282
1772366601136760800,2.2327607421875,-0.04933072488009929,-0.006140639913175255,-0.0052037426555529235
1772366601146831000,2.2428310546875,-0.03661386664807796,0.002856037885090336,0.004019537839666009
1772366601156900900,2.25290087890625,-0.03781213652193546,-0.0044188028229400515,0.0015836524622514843
1772366601166971000,2.262970947265625,-0.038412440502643586,-0.004435749391163699,0.0019818214669823646
1772366601177041200,2.273041259765625,-0.030774492970108983,-0.003594174867332913,-0.0008613295370712876
1772366601187111000,2.28311083984375,-0.03361176222264767,0.0015524353400804102,-0.004023812155984342
1772366601197181000,2.293180908203125,-0.046779286831617355,-0.003002145524625666,-0.002374327915906906
1772366601207251000,2.3032509765625,-0.02822539300918579,0.00370019709165208,-0.0011768617596477268
1772366601217321000,2.313321044921875,-0.0345078342795372,0.003747762560425326,-0.0035080081209540367
1772366601227391000,2.323390869140625,-0.03944178355038166,0.00019475538711994885,0.007523417774774134
1772366601237461000,2.3334609375,-0.03929389951229095,0.006670746468193828,-0.0022392302941530943
1772366601247531000,2.343531005859375,-0.042889293655753134,0.007978865358117036,0.0015450009522959588
1772366601257601000,2.35360107421875,-0.033464462706446645,0.0039751415755134075,-0.0033199016703292727
1772366601267671000,2.363671142578125,-0.02987374473810196,0.005640681901248171,-0.00007438041046261786
1772366601277741000,2.373740966796875,-0.04034837700128555,0.001529812516318634,0.005012969323806464
1772366601287811000,2.38381103515625,-0.040649405774474144,0.004936944945529103,0.004988090610876679
1772366601297880800,2.393880859375,-0.03631809857189655,0.0008867151400772854,0.005850479593873023
1772366601307950800,2.403950927734375,-0.03812251764535904,-0.0005189230073010549,0.0013155030453577638
1772366601318021000,2.414021240234375,-0.029894203004240987,-0.00021528671849519013,-0.006809022427722812
1772366601328091000,2.4240908203125,-0.037681203618645666,0.0014242104171076789,-0.006630122196860611
1772366601338161000,2.434160888671875,-0.03439326798915863,0.0011229167824378236,-0.010438538036495446
1772366601348231200,2.444231201171875,-0.03229658797085285,-0.006496330616204068,-0.004870528645813465
1772366601358301000,2.454301025390625,-0.04801262801885604,0.00011076689809560775,0.002963891306892037
1772366601368371000,2.464370849609375,-0.04322773182988167,0.000050985835143364966,-0.0008402136838063598
1772366601378442000,2.47444189453125,-0.045326165413856506,0.008966953946859575,-0.0036019334821030496
1772366601388512000,2.484511962890625,-0.038895840105414387,0.006900911095412448,-0.007586071214824915
1772366601398582000,2.49458203125,-0.03680032913088798,0.004888278931635431,0.006053747081011533
1772366601408652000,2.504652099609375,-0.033811668708920474,0.0009084520478500052,-0.0013708499617874621
1772366601418721800,2.5147216796875,-0.03486147002279758,0.004866628788830712,-0.006225267723016441
1772366601428792000,2.5247919921875,-0.04593406817913055,0.001795048456918448,-0.0014416501756757496
1772366601438862000,2.534862060546875,-0.036510406273603434,0.0015968544371193275,-0.004796075170114636
1772366601448931800,2.544931884765625,-0.035762218254804606,-0.0016016036774730309,-0.0031614962382242083
1772366601459002000,2.555002197265625,-0.03890519245564937,0.00021063337626401333,0.00009743249248713255
1772366601469072100,2.565072021484375,-0.03786182088255882,0.003404903939506039,-0.002837707643955946
1772366601479142000,2.575141845703125,-0.04894143330156803,0.012499155794153921,-0.006744615422002971
1772366601489212200,2.585212158203125,-0.0333791225105524,0.009573217310896142,-0.00656213499456644
1772366601499282000,2.595281982421875,-0.042353287082910536,0.0018925311817554755,-0.005226685139723122
1772366601509352000,2.60535205078125,-0.04908814829587936,-0.0002863335275556892,0.0014908230796456337
1772366601519422000,2.615421875,-0.033681904849410055,0.0006248904326930642,-0.0007545812269672751
1772366601529492000,2.625491943359375,-0.033682489371299744,-0.0003031293987296521,0.003441811016947031
1772366601539562000,2.63556201171875,-0.03457973047196865,0.013000579677382483,-0.0014876812744885682
1772366601549632000,2.645632080078125,-0.03771802849769592,-0.002256364092044532,0.002350691311992705
1772366601559702000,2.655701904296875,-0.03621697628498077,0.000024001930095255374,0.006219276373647153
1772366601569772000,2.66577197265625,-0.032630934491753576,-0.003986087661213241,-0.008098185455426574
1772366601579842000,2.675842041015625,-0.033082769912481304,0.0042948339499766005,-0.004542210006900131
1772366601589912000,2.685912109375,-0.03682371000647545,0.006674824421689846,0.00610178747382015
1772366601599982000,2.695982177734375,-0.04206570231318474,-0.0049336341770133,-0.0038677448114380238
1772366601610052000,2.706052001953125,-0.04356090930700302,-0.006300442717922851,-0.002053936855122447
1772366601620121900,2.716121826171875,-0.037577158722281456,-0.004140858097816817,-0.002141834334284067
1772366601630192000,2.726192138671875,-0.03234159615635872,0.0013946144298650324,0.0003628784956410527
1772366601640262000,2.736261962890625,-0.03309270678460598,0.003183963798359036,-0.003866246974095702
1772366601650332000,2.746331787109375,-0.03698445352613926,0.008381564407492987,-0.003308576558716595
1772366601660402200,2.756402099609375,-0.03698503804802895,0.005513973081926815,-0.0006278130421414971
1772366601670472000,2.766471923828125,-0.04387187495231628,0.0011547960583120583,0.0014931246345862746
1772366601680542000,2.7765419921875,-0.02561900990307331,0.00215425999101717,0.002339877657033503
1772366601690612000,2.786612060546875,-0.04282616529166698,0.002671420299494639,-0.0046592605153098696
1772366601700682000,2.796681884765625,-0.04851823945343494,0.0065457181493053206,-0.006150156660191714
1772366601710752000,2.806751953125,-0.03804360719025135,-0.00357126891578082,-0.0019753551935777066
1772366601720822000,2.816822021484375,-0.03534954580068588,-0.0020872865688754245,0.00045300446450710294
1772366601730892000,2.82689208984375,-0.04447042536735534,0.0017437794939847663,-0.006409063324704766
1772366601740962000,2.836962158203125,-0.03788637080192566,0.0043454087931662794,-0.004036744702793658
1772366601751032000,2.847031982421875,-0.026813188123703,0.0019666467307368294,-0.0014599895499646663
1772366601761102000,2.85710205078125,-0.03234393424391746,0.0024564395416760815,0.000033573476038873195
1772366601771172000,2.867172119140625,-0.0434177014440298,-0.0026202107020653785,-0.009260434167832135
1772366601781241900,2.877241943359375,-0.04281915102899074,0.003484124921867624,-0.004175385988503694
1772366601791312000,2.887311767578125,-0.042673020556569095,0.0003356982277706265,-0.0075554203482344744
1772366601801382100,2.897382080078125,-0.043272740015387536,-0.002790187840955332,-0.008751132938824593
1772366601811452000,2.907451904296875,-0.03983049060702323,0.00578031870080158,-0.00047203795854002233
1772366601821522000,2.91752197265625,-0.031151509588956832,0.0036757065377896647,0.0028131577245891094
1772366601831592200,2.92759228515625,-0.04776069908440113,0.0005014923818875104,-0.0042058176593855025
1772366601841662000,2.937661865234375,-0.03788753984570503,0.004165188821475021,-0.007257862173765897
1772366601851732000,2.94773193359375,-0.035488662010431285,0.0038059407547581937,-0.005179119670949876
1772366601861802000,2.957802001953125,-0.043570261657238006,-0.0020127737276721745,0.0045149932064116
1772366601871872000,2.9678720703125,-0.03922901758253574,0.00876285990923643,-0.006654051061719656
1772366601881942000,2.97794189453125,-0.04102233074009418,0.01155757322825957,-0.005989705401472747
1772366601892012000,2.988011962890625,-0.038330022916197776,0.013403593820589593,-0.004808459727652371
1772366601902082000,2.99808203125,-0.030998364853858946,0.0074177837095223366,-0.0022756533144041896
1772366601912152000,3.008152099609375,-0.03414718427360058,0.005301919500133954,-0.0055850335907191035
1772366601922221800,3.018221923828125,-0.028457448199391364,0.007941341792745514,-0.004913308341614902
1772366601932292000,3.0282919921875,-0.03818038531243801,-0.0031765659431926903,-0.009500490001402795
1772366601942362000,3.038362060546875,-0.026802666729688642,-0.009424136829562484,-0.003842719968035817
1772366601952431900,3.048431884765625,-0.03877250598669052,-0.00377936784166377,-0.00033105858527123926
1772366601962502000,3.058501953125,-0.04700140514969826,-0.00004620919532608241,-0.003890906491316855
1772366601972572200,3.068572265625,-0.04370820882320404,-0.0013951624191366136,-0.0010182736644521356
1772366601982642000,3.078641845703125,-0.039216158100962635,0.00024175003373529762,0.002930025569908321
1772366601992712000,3.0887119140625,-0.03009060235917568,-0.0006598110490245744,-0.0027844796193763613
1772366602002782200,3.0987822265625,-0.03353109820187092,0.002296349042560905,-0.005005297474004328
1772366602012852000,3.10885205078125,-0.041460137635469435,0.004805628449749202,-0.006311776962690055
1772366602022922000,3.118921875,-0.039817046603560446,-0.0073357908147620035,-0.00264412130061537
1772366602032992000,3.128991943359375,-0.04265957655310631,-0.007432848847913555,0.006351378320716321
1772366602043062000,3.13906201171875,-0.035335517275333406,-0.0010403576320968568,-0.002654460031539202
1772366602053132000,3.149132080078125,-0.039382746839523315,0.0060153695656917985,-0.003567264027521014
1772366602063202000,3.1592021484375,-0.03953004635572433,-0.000469932766421698,-0.0047235944557934995
1772366602073272000,3.16927197265625,-0.033243513432145114,0.001374576288834214,-0.002731178529560566
1772366602083342000,3.179342041015625,-0.04326806384027004,0.011655681574181653,-0.0016623071890324353
1772366602093412000,3.189412109375,-0.04461246418654918,0.0031807626276975495,-0.0014614873873069882
1772366602103482000,3.199482177734375,-0.04207213205397129,0.0030450348182814195,-0.008138006009161472
1772366602113552100,3.20955224609375,-0.04611819257438182,0.007504886604240164,-0.006639949471130967
1772366602123622100,3.2196220703125,-0.036841245663166045,0.00712543143313378,0.0015602350540459154
1772366602133692000,3.22969189453125,-0.03863923499584198,0.008579973056423478,0.002727744463458657
1772366602143762200,3.23976220703125,-0.03175707426667213,0.00003739570120815188,-0.004320055156201124
1772366602153832200,3.249832275390625,-0.038790626165270806,-0.010296695580123923,0.004166325899213552
1772366602163902000,3.25990185546875,-0.04193476940989494,0.008441875193407758,-0.0036473800590261815
1772366602173972200,3.26997216796875,-0.03340308790802955,0.0021117360235424713,-0.0002722776027396321
1772366602184042000,3.2800419921875,-0.03489244968295097,-0.002154511152766645,-0.0035609073519706725
1772366602194112000,3.290112060546875,-0.033993455016613,0.0067799013645155354,-0.0028135230507701633
1772366602204182300,3.300182373046875,-0.03758768011629581,0.00038535518893040717,0.00445504318010062
1772366602214252000,3.310251953125,-0.03489595681428909,0.006167354390164837,-0.004556165467016399
1772366602224322000,3.320322021484375,-0.03804185362458229,0.001377010274515487,-0.0041689197150990365
1772366602234392000,3.33039208984375,-0.03744388773143291,0.003199261832190677,-0.00029262627102434634
1772366602244462000,3.340462158203125,-0.03549742983877659,0.0026765987981110808,-0.002183481518924236
1772366602254532000,3.350531982421875,-0.0405856928884983,-0.002687965008919127,-0.007157141745649278
1772366602264602000,3.36060205078125,-0.03520283080637455,-0.000010571626364253461,0.0017160101376473902
1772366602274672000,3.370672119140625,-0.046430327263474465,-0.0009286911182804033,0.0062620926020666955
1772366602284742100,3.3807421875,-0.0314665668874979,0.005010037581203505,-0.006764781427197158
1772366602294812200,3.390812255859375,-0.05016659118235111,0.004878437957633286,-0.008451821198686957
1772366602304882200,3.400882080078125,-0.04537818786203861,0.0052497417883249,-0.006632314153946935
1772366602314952200,3.4109521484375,-0.0386427421271801,0.0037090836510062218,0.0020786694375798105
1772366602325022000,3.42102197265625,-0.041783378240466115,0.0072632187688956035,-0.0010092866403982042
1772366602335092000,3.431092041015625,-0.037737902241945266,-0.001138685173727572,-0.008938691400177777
1772366602345162200,3.441162353515625,-0.032196050205826755,0.010946615422796457,-0.0034292803289368745
1772366602355232000,3.45123193359375,-0.045211014601588245,0.0037781850981526074,-0.001416186940856278
1772366602365302000,3.461302001953125,-0.03787468036413193,0.0016942458304110913,-0.011306151183880864
1772366602375372300,3.471372314453125,-0.04071545674800873,0.003666573383263312,-0.005563662009127438
1772366602385442000,3.481442138671875,-0.03712766138911247,0.0022991620541550216,-0.00772551621813327
1772366602395512000,3.491511962890625,-0.0440063149869442,0.001989287820807658,-0.002547346395254135
1772366602405582000,3.50158203125,-0.03712064712643623,0.005919969200086779,-0.0030851795990020033
1772366602415652000,3.511652099609375,-0.032332828328013416,-0.004378479945706204,0.0013982128927484154
1772366602425722000,3.52172216796875,-0.03113455845415592,0.0003723952426575124,-0.004714205572940409
1772366602435792000,3.5317919921875,-0.02679799055457115,0.005045072361966595,-0.006873721694387495
1772366602445862100,3.541862060546875,-0.03847323077917099,0.013470119718159548,0.0025966654296964405
1772366602455932200,3.55193212890625,-0.043261634099483484,0.007642683073156513,-0.0012926701590418815
1772366602466002000,3.562001953125,-0.03922375688552856,-0.0019094275176292283,-0.0070568231763318175
1772366602476072200,3.572072265625,-0.0395230320930481,0.0025235773605993017,-0.00649327100943774
1772366602486142200,3.58214208984375,-0.025753449937701223,0.004814862068975344,-0.006742898388952016
1772366602496212000,3.5922119140625,-0.03413490931391716,0.003924795061186887,-0.0011268120728433132
1772366602506282000,3.602281982421875,-0.03787701845169067,0.0077464631080394605,-0.011018712544627487
1772366602516352300,3.612352294921875,-0.04565817384719848,0.005103789412416518,-0.004419095083884894
1772366602526422000,3.622422119140625,-0.030397476351261138,0.0017964366964064538,-0.0053822044949978585
1772366602536492000,3.632491943359375,-0.03997720560133457,-0.0012888616336043923,0.002184540964849293
1772366602546562300,3.642562255859375,-0.040429625543951984,-0.002178175156144425,-0.00912281579542905
1772366602556632000,3.652632080078125,-0.03893091141879558,0.004562796137202531,-0.007112900745123624
1772366602566702000,3.6627021484375,-0.03758709559440612,0.004119591547502205,-0.005987988368421793
1772366602576772000,3.672772216796875,-0.03504676346182823,0.005780122337979264,-0.006813881265930831
1772366602586842000,3.682842041015625,-0.035498014360666276,0.004914678314793855,0.0001378375681117177
1772366602596912000,3.692912109375,-0.03623918811678886,0.004096562298364006,-0.00042078269533813
1772366602606982000,3.70298193359375,-0.03818213887810707,-0.0007131806374993174,-0.0030664748985320327
1772366602617052200,3.71305224609375,-0.03563946865797043,0.001366571078891866,-0.010273410602658987
1772366602627122200,3.7231220703125,-0.031900866651535034,0.0029360032195458186,-0.0034430531259626146
1772366602637192000,3.73319189453125,-0.027103110980987548,0.003875873318966478,-0.01039144749175757
1772366602647262200,3.74326220703125,-0.050453006908297536,0.004734599906997755,-0.010249299074709416
1772366602657332200,3.753332275390625,-0.03863222073316574,0.0007177791808033362,-0.0011397811522707343
1772366602667402000,3.763402099609375,-0.03175006000399589,0.003289451733138412,0.0027338819433003663
1772366602677472000,3.773471923828125,-0.033840894803404804,0.0024025219639297575,-0.0008983370792120694
1772366602687542300,3.783542236328125,-0.02920212908685207,0.0019106787597993388,-0.004030205364152789
1772366602697612000,3.793612060546875,-0.026952888855338097,0.0006151225239271297,0.005965666938759386
1772366602707682000,3.80368212890625,-0.026215806752443314,-0.0020819071408594027,-0.0034293533941730857
1772366602717752000,3.813751953125,-0.03309972104728222,0.0003404931338969618,-0.006136639591492712
1772366602727822000,3.823822021484375,-0.0443155270665884,-0.0019589931472437454,-0.00791643568035215
1772366602737892000,3.83389208984375,-0.0417711032807827,0.0008526302073849364,-0.005216054147854447
1772366602747962000,3.843962158203125,-0.04281739746332169,-0.004632897664769552,-0.001017798740416765
1772366602758032100,3.8540322265625,-0.041019992652535434,-0.005313751501822844,0.0005422171179205179
1772366602768102100,3.86410205078125,-0.041918987318873405,-0.0030017116997856645,-0.0029177506102249025
1772366602778172000,3.874171875,-0.03608721242547035,0.0045639240817865355,-0.0018017887249588964
1772366602788242200,3.8842421875,-0.03369417980909347,0.005022819430963136,-0.00019468232188373804
1772366602798312200,3.894312255859375,-0.03699088326692581,0.0016242904333164914,-0.0013464827055111527
1772366602808382000,3.9043818359375,-0.037436873468756675,0.0038971124698175116,-0.0044081718310713764
1772366602818452200,3.9144521484375,-0.041621465677022934,-0.003649302588053979,-0.0029393048549070954
1772366602828522000,3.92452197265625,-0.03683481592237949,-0.004736481336830183,-0.005246631949208677
1772366602838592000,3.934592041015625,-0.033842648369073865,0.002615822221315466,0.0008874138263985515
1772366602848662000,3.944662109375,-0.034734628772735594,-0.0009481675703078508,-0.010935125914402306
1772366602858732000,3.95473193359375,-0.032487142106890673,0.00020185184818692504,-0.0036988545179367062
1772366602868802000,3.964802001953125,-0.029345921471714973,0.008992586145037784,0.0006080488957464694
1772366602878872000,3.9748720703125,-0.04954524441361427,-0.0027860916211502624,0.004256561465933919
1772366602888942000,3.984942138671875,-0.034878421157598496,0.005437012555310502,0.00475917722582817
1772366602899012000,3.99501220703125,-0.03292962517738342,-0.0038786360982106995,-0.008627798820100724
1772366602909079000,4.0050791015625,-0.024845687443017957,-0.004431922599417157,-0.0065877078272402285
1772366602919149000,4.015149169921875,-0.032171500286459924,0.003859881165390834,-0.007043452238105237
1772366602929219000,4.025218994140625,-0.03680968148112297,0.007888168567093089,-0.007026939494721591
1772366602939289000,4.0352890625,-0.042642040896415705,0.0018855169190792366,-0.0035155703729018565
1772366602949359000,4.045359130859375,-0.03082300828695297,0.00227670362717472,-0.0004277238927781582
1772366602959429000,4.05542919921875,-0.023340543577075004,0.0012169974072137847,-0.003719787708111107
1772366602969499100,4.0654990234375,-0.03830664204061031,0.005688293035794049,-0.003032499563694
1772366602979569200,4.075569091796875,-0.03172960173785686,0.0020501009302213787,-0.009334668447822332
1772366602989639200,4.08563916015625,-0.04025193088948727,-0.0011391281317221,-0.0037852176271378993
1772366602999709200,4.095709228515625,-0.02588204475343227,0.0008624985808506607,-0.0012724676212295888
1772366603009779000,4.105779052734375,-0.029622984847426412,0.004152548535610549,-0.008431691726110874
1772366603019849000,4.115848876953125,-0.032172084808349606,0.004220371341123246,0.0019224924951791761
1772366603029919200,4.125919189453125,-0.02574351306557655,-0.0060208403252530835,-0.000020604396611452103
1772366603039989000,4.135989013671875,-0.029182255342602728,-0.00040298674374353137,-0.004880830844119191
1772366603050059000,4.14605908203125,-0.03950491191446781,-0.003714042953914031,-0.002723652810230851
1772366603060129300,4.15612939453125,-0.030820670199394225,0.0063711470336886115,-0.0070701575819402925
1772366603070199000,4.166198974609375,-0.03321662542521953,0.008314084095275029,-0.004424501911364495
1772366603080269000,4.17626904296875,-0.03621405367553234,0.005441022010147571,0.0027807532923296093
1772366603090339000,4.186339111328125,-0.025290508601069447,0.0016420772517565638,-0.006195164845697582
1772366603100409000,4.1964091796875,-0.03545943591594696,-0.0014874529456254094,-0.004873962711915374
1772366603110479000,4.20647900390625,-0.039649873343110084,0.0009467793308198452,-0.0036804055457934737
1772366603120549000,4.216549072265625,-0.0315711963057518,0.0030888785265851763,-0.004314538730867207
1772366603130619100,4.226619140625,-0.03202303172647953,0.0013609724551672114,0.0029400355072692033
1772366603140689200,4.236689208984375,-0.03815408182740211,0.008286333005246706,-0.006410816890373826
1772366603150759200,4.24675927734375,-0.0338104996651411,-0.00036755467075854536,-0.00001910655926913023
1772366603160829200,4.2568291015625,-0.04009469450116157,0.0021561916531994936,0.0016608458843082189
1772366603170899200,4.266899169921875,-0.04234393473267555,0.005285648785345256,0.001127433127351105
1772366603180969200,4.27696923828125,-0.039653380474448205,0.0052339642638806255,-0.0040214010031893845
1772366603191039000,4.2870390625,-0.037407062852382655,-0.005456868033250794,-0.004557078782469034
1772366603201109200,4.297109130859375,-0.03172492556273937,-0.00019439006093889473,-0.004502754779346287
1772366603211179000,4.307178955078125,-0.03411737365722656,0.0025885551884770393,-0.004183532762341201
1772366603221249000,4.3172490234375,-0.03023264117836952,0.006411652574012987,-0.005228256042301655
1772366603231319300,4.3273193359375,-0.04115969338417053,0.003802374257915653,-0.0005103972075507045
1772366603241389000,4.33738916015625,-0.03831365630328655,-0.001525615831813775,0.0004630509344860911
1772366603251459000,4.347458984375,-0.03891746741533279,0.003399113519536331,-0.005643924171105027
1772366603261529000,4.357529052734375,-0.03652385027706623,-0.005572274573845789,-0.0056642728393897415
1772366603271599000,4.36759912109375,-0.03383329601883888,0.00011929726442322135,-0.0031673779897391794
1772366603281669000,4.377669189453125,-0.029195114824175833,0.005313116747583262,0.0007336480367928742
1772366603291739100,4.3877392578125,-0.039221418797969816,0.008095655571622774,0.0049283597802743315
1772366603301809200,4.39780908203125,-0.040271804633736606,0.004421264208084904,-0.005917334285005927
1772366603311879200,4.407879150390625,-0.03698211543858051,0.0011471379082417116,-0.007766323152557015
1772366603321949200,4.41794921875,-0.04312251788973808,0.0004822579584550112,-0.0017434826664626598
1772366603332019200,4.428019287109375,-0.030398060873150824,0.003781276670959778,0.0016769933015108108
1772366603342089200,4.438089111328125,-0.03084697368443012,0.004055033844732679,-0.0008433920215815305
1772366603352159000,4.448158935546875,-0.03637538171708583,0.005807544634444639,0.0005548574037849903
1772366603362229000,4.45822900390625,-0.03906768954098224,0.0007904699576785787,-0.001823306437022984
1772366603372299300,4.46829931640625,-0.039222003319859505,-0.0019120213335147127,-0.0037388942673802373
1772366603382369000,4.478369140625,-0.032035891208052635,0.005413343985355459,-0.0018566241847351192
1772366603392439000,4.48843896484375,-0.03054243777990341,0.004882506777974777,0.0010744608310982585
1772366603402509300,4.49850927734375,-0.03353402081131935,-0.0008684214315610006,-0.001460062615200877
1772366603412579000,4.5085791015625,-0.03248363497555256,0.0008346333263907582,-0.0043941067731007935
1772366603422649000,4.518649169921875,-0.029044892698526382,0.004096964157163165,0.0010966726629063487
1772366603432719000,4.528718994140625,-0.03742869016230106,0.0034991078618681055,-0.0048440424976870415
1772366603442789000,4.5387890625,-0.038028994143009184,-0.005129101950186304,0.002904927661269903
1772366603452859100,4.548859130859375,-0.03906827406287193,0.006945357591914944,-0.0019868995008990166
1772366603462929000,4.558928955078125,-0.0371264923453331,-0.000016508176806382833,-0.014779161056689917
1772366603472999200,4.568999267578125,-0.03458031499385834,0.0034323490688577293,-0.003630282793752849
1772366603483069200,4.579069091796875,-0.02709726576209068,0.0057658746169181535,-0.007174312076158821
1772366603493139000,4.589138916015625,-0.03502455163002014,-0.0027318452498409896,-0.00976684932000935
1772366603503209200,4.599209228515625,-0.039214989057183264,0.004656150676193647,-0.002301883734203875
1772366603513279200,4.609279296875,-0.03442366312742233,0.0002448370399652049,-0.00014693419001996516
1772366603523349000,4.619348876953125,-0.021700375154614447,0.004826050183270127,-0.004538191418908536
1772366603533419000,4.6294189453125,-0.03591887012124061,-0.0009826269623357802,-0.005082856222242116
1772366603543489300,4.6394892578125,-0.034870237851142884,0.0016297748926095664,-0.00461801518946886
1772366603553559000,4.64955908203125,-0.029182839864492414,0.006503226147871464,0.0006675239980220794
1772366603563629000,4.659629150390625,-0.03876373815834522,0.010965484520047902,-0.007670205834321677
1772366603573699300,4.66969921875,-0.033528175592422486,0.004877154749422334,-0.007254355042427778
1772366603583769000,4.67976904296875,-0.0330786782592535,0.0020074993309332056,-0.0069446680387482045
1772366603593839000,4.689839111328125,-0.04250234016478061,0.0021644114922732115,-0.0016266148211434483
1772366603603909000,4.6999091796875,-0.03801671918332577,0.006816899773501791,-0.011433175097033382
1772366603613979100,4.709979248046875,-0.033822774624824525,0.004798618753650226,-0.006090060503408313
1772366603624049200,4.720049072265625,-0.03860883985757828,0.00040927492063492533,-0.0027513810673728584
1772366603634119000,4.730118896484375,-0.03277121974527836,0.008815992035693488,-0.002872157902829349
1772366603644188200,4.740188232421875,-0.03142506583333015,0.005104762093373574,-0.004252141019143164
1772366603654258000,4.7502578125,-0.03576572538614273,0.005033139895577915,-0.00788395818285644
1772366603664328200,4.760328125,-0.026631401816010473,0.009626440768898464,-0.003253339240141213
1772366603674398200,4.770398193359375,-0.04833469958007335,0.007520248570153489,-0.001602174499630928
1772366603684468000,4.780468017578125,-0.03800970492064953,0.00595642875295598,-0.006698036333918571
1772366603694538200,4.790538330078125,-0.03471300146281719,-0.000563337537762709,0.004208849866688251
1772366603704608300,4.800608154296875,-0.04608195221722126,0.004267991608823649,-0.0028881957221776246
1772366603714678000,4.810677978515625,-0.03919803792238235,0.007242112048785202,-0.007362674255110323
1772366603724748000,4.820748046875,-0.03829261351525783,0.004801102971681393,0.001039352985098958
1772366603734818300,4.830818359375,-0.03813420808315277,-0.0026454090754035858,-0.0030699089646339414
1772366603744888000,4.84088818359375,-0.03753448862433433,0.005171196659398265,-0.007382913325540721
1772366603754958000,4.8509580078125,-0.04471826264858245,0.004283732600649818,-0.009681143797934055
1772366603765028400,4.8610283203125,-0.03828618377447128,-0.003923082594713196,0.0029931539339944717
1772366603775098000,4.87109814453125,-0.0373965414583683,0.008197385213314555,0.004876739190891385
1772366603785168100,4.881168212890625,-0.03126081518232822,0.0009432082674000412,-0.0016993512637913225
1772366603795238100,4.891238037109375,-0.041430911540985105,0.002779839976876974,-0.002310943823494017
1772366603805308200,4.90130810546875,-0.03934007674157619,0.007916440246929415,-0.013507095294259489
1772366603815378200,4.911378173828125,-0.039186932006478305,0.006991676385095342,-0.012975728363916278
1772366603825448000,4.921447998046875,-0.03934007674157619,0.004738997520902194,0.000550838815793395
1772366603835518200,4.931518310546875,-0.03410743678510189,-0.0032015953531721606,0.0010339826902374624
1772366603845588200,4.941588134765625,-0.03829612064659595,0.006718124707299284,-0.004036452441848814
1772366603855658000,4.951657958984375,-0.041887423136830325,-0.00330775000823196,0.0030152196353301405
1772366603865728300,4.961728271484375,-0.04098901299238205,0.005819043275993317,0.002610219031013548
1772366603875798300,4.97179833984375,-0.03290682882368565,0.010181467136042193,-0.0030270927362143992
1772366603885868000,4.981867919921875,-0.033656770408153534,0.004584825305920094,-0.008018873141519724
1772366603895938000,4.99193798828125,-0.03665186057090759,0.0031730725115863604,-0.0017734028806909918
1772366603906008300,5.00200830078125,-0.02678454655110836,0.0008826691526221111,-0.0076621321257203815
1772366603916078000,5.012078125,-0.0371089566886425,0.005074161459133029,0.006418854066357016
1772366603926148000,5.022148193359375,-0.04159925384521484,0.00477394097012002,0.00581460456289351
1772366603936218000,5.032218017578125,-0.0378583137512207,-0.00625294118123129,-0.0000029591420665383336
1772366603946288000,5.0422880859375,-0.030529578298330307,-0.00008207509315107017,-0.0068199456805363295
1772366603956358100,5.052358154296875,-0.033519992285966874,0.004639779496705159,-0.004354176621511579
1772366603966428200,5.06242822265625,-0.03606558511555195,0.01621137211716268,0.0011436901424080133
1772366603976498200,5.072498291015625,-0.04354921886920929,0.003636680568498559,-0.0024856793358922005
1772366603986568200,5.082568115234375,-0.04190320522785187,0.011906665227143093,-0.004606617012619972
1772366603996638000,5.092637939453125,-0.038915129327774044,0.005587093117064796,-0.003976392817683518
1772366604006708200,5.102708251953125,-0.04698971471190452,0.007389617060963064,-0.009516893146932125
1772366604016778200,5.1127783203125,-0.03547346444129944,0.003890573131176643,-0.0015662994686514138
1772366604026848000,5.122847900390625,-0.04071136509478092,0.0034082558072172104,-0.004278261841088533
1772366604036918300,5.132918212890625,-0.02918400890827179,0.005425975138065405,-0.005686411605961621
1772366604046988000,5.142988037109375,-0.033519992285966874,0.00590687225649599,-0.005925298395752907
1772366604057058000,5.15305810546875,-0.03726210142374038,0.0031479380703298373,-0.000539477171562612
1772366604067128000,5.163128173828125,-0.04519172537922859,0.005144020958105102,-0.0019967267751693726
1772366604077197800,5.17319775390625,-0.027683541217446327,0.0016646133105503395,-0.004241254298947751
1772366604087267800,5.183267822265625,-0.03590717968344688,0.0020353143530432135,-0.013081124967150389
1772366604097337600,5.193337646484375,-0.03365910849571228,-0.0006235752584412694,-0.006244666543230414
1772366604107408000,5.203407958984375,-0.04009586354494095,-0.0017885228180093689,-0.007820756753534079
1772366604117478000,5.213477783203125,-0.028723990181088444,0.002392475493950769,-0.0009362579368054866
1772366604127547600,5.223547607421875,-0.030368250256776808,0.010060379773331806,0.0001622413570061326
1772366604137618000,5.233617919921875,-0.041593408626317975,0.008963012990681455,0.0019263284200802444
1772366604147688000,5.24368798828125,-0.028431144714355466,-0.00004775726501829922,-0.00540624295771122
1772366604157757700,5.2537578125,-0.020057868644595144,0.0015439552061026914,-0.007673786030896007
1772366604167828000,5.263827880859375,-0.03877016789913177,0.0019287121734116225,-0.006820384071953595
1772366604177898000,5.27389794921875,-0.035925299862027166,-0.001691419119085185,-0.011120602016523479
1772366604187967700,5.2839677734375,-0.037568390893936154,0.006793464098987169,-0.0022302798027172685
1772366604198037800,5.294037841796875,-0.0315799641340971,0.0028175736048026007,-0.00376443056743592
1772366604208108000,5.30410791015625,-0.034275779089331625,0.0070096139005851,-0.0008352452477440237
1772366604218177800,5.314177734375,-0.039060675278306006,0.010676858570706098,-0.005996390870586037
1772366604228247800,5.324247802734375,-0.03711597095131874,-0.0003439591660397127,-0.002713533275015652
1772366604238317800,5.33431787109375,-0.03547287991940975,0.0014969833923736586,-0.0038145898520946502
1772366604248387800,5.344387939453125,-0.03546937278807163,0.0010031491605564952,-0.00894782455470413
1772366604258457900,5.354457763671875,-0.034274025523662564,-0.003526493625715375,-0.00526117193121463
1772366604268527900,5.36452783203125,-0.03442249408364296,-0.000016631474392488597,0.0002879866285249591
1772366604278596900,5.374596923828125,-0.0368126040905714,-0.002059005755884573,-0.0006741729345172644
1772366604288666600,5.38466650390625,-0.037408816418051716,0.0009941164707299322,-0.0055666211511939765
1772366604298737000,5.39473681640625,-0.03396715153157711,0.0025886145539814605,-0.0048012628018856045
1772366604308807000,5.404806884765625,-0.025734160715341566,0.0013948016595328227,0.001548288887925446
1772366604318876700,5.414876708984375,-0.03665945935547352,0.0029443235233193262,-0.00880626065954566
1772366604328947000,5.424947021484375,-0.026792729857563972,0.004748801962286234,0.00008731295727193355
1772366604339017000,5.435016845703125,-0.029936873102188108,-0.0012707186221377923,-0.0015990326944738625
1772366604349086700,5.445086669921875,-0.02888940987586975,-0.007615374941122717,-0.0017399390025064348
1772366604359156700,5.45515673828125,-0.035328503012657164,0.0025917426594067364,-0.006790281194634735
1772366604369227000,5.46522705078125,-0.03712532330155372,0.0162697421077406,-0.007851919076777994
1772366604379296800,5.475296875,-0.028601240584254263,-0.0005365499955369159,-0.0015551935527473688
1772366604389366800,5.48536669921875,-0.037275545427203176,0.003503802303294651,-0.002034172708727419
1772366604399437000,5.49543701171875,-0.03607552198767662,-0.0011747520009521395,-0.006281418357044458
1772366604409506800,5.5055068359375,-0.03337444633543491,0.0010210273105418308,0.007661474538594484
1772366604419576800,5.515576904296875,-0.0350175373673439,0.009918948308913968,-0.00721325584705919
1772366604429646800,5.525646728515625,-0.04280161537230014,0.007347421887051313,-0.010712496139667928
1772366604439716900,5.535716796875,-0.022447394129633903,0.0026837820241460576,0.0015150442054495214
1772366604449787000,5.545786865234375,-0.024688451054692268,0.0039656978937331585,-0.00260415461640805
1772366604459856600,5.555856689453125,-0.028283845198154446,-0.0054779245210113,-0.009434365962632
1772366604469927000,5.565927001953125,-0.03636486032307148,0.003573301042662933,-0.003929484936036169
1772366604479997000,5.575996826171875,-0.02289806050658226,0.0022481716524343936,-0.004834909343160688
1772366604490066700,5.586066650390625,-0.02589139710366726,0.000028116416209377347,0.00010002630837261676
1772366604500137000,5.596136962890625,-0.03442132503986359,0.0010589390349807217,0.001092982868477702
1772366604510207000,5.60620703125,-0.033974165794253344,0.0027497599324444308,0.0020879121899604796
1772366604520276700,5.61627685546875,-0.03710544955730438,0.004476195565983653,-0.004815656653419137
1772366604530346800,5.6263466796875,-0.03441664886474609,0.005749197476753033,-0.006704685270413756
1772366604540416800,5.636416748046875,-0.03815758895874023,0.012060440149903297,0.002572371238656342
1772366604550486800,5.64648681640625,-0.027981062859296798,0.00033867563614621755,0.0006448007095605135
1772366604560556800,5.656556884765625,-0.02737783626914024,-0.0017006162056932225,-0.010925737031549214
1772366604570626800,5.666626708984375,-0.03410568321943283,-0.0028089245074661446,-0.0024175094705075023
1772366604580696800,5.67669677734375,-0.029167057773470877,0.00036087376822251826,-0.004063230850920081
1772366604590766800,5.686766845703125,-0.026918986585736274,0.005959355928981677,-0.00160056706443429
1772366604600836900,5.6968369140625,-0.025867431706190106,0.0030326091615483163,-0.0029885142914950844
1772366604610907000,5.706906982421875,-0.015089432582259176,0.012722210260573774,-0.008126753962785005
1772366604620977000,5.716976806640625,-0.032742578172683716,0.0005627438827184959,-0.001907112262956798
1772366604631046700,5.727046630859375,-0.031099487140774724,0.0053803047988563776,-0.00510576217379421
1772366604641117000,5.737116943359375,-0.024969021561741828,0.0010034962204284966,0.004343362966552376
1772366604651187000,5.74718701171875,-0.038434067812561985,0.011776038284529932,0.006801569773629308
1772366604661256700,5.757256591796875,-0.024808278042078018,0.0037239432934205977,-0.0006392112189903855
1772366604671327000,5.767326904296875,-0.033626959791779515,0.005111424729600548,0.005279145979322493
1772366604681396700,5.777396728515625,-0.02644552385509014,0.0022974313213722777,-0.002832045088149607
1772366604691466800,5.787466796875,-0.0367693494707346,-0.00035583226692397147,-0.00040065322276204823
1772366604701536800,5.797536865234375,-0.019564532169699667,-0.001997046435577795,-0.0012293956644833088
1772366604711606800,5.807606689453125,-0.032580081087350846,0.003783235732605681,0.003486600006744265
1772366604721676800,5.8176767578125,-0.026598668590188026,0.006917309674364514,-0.008133877823315561
1772366604731746800,5.827746826171875,-0.030341946771740912,0.005179635694180615,-0.00492119938712567
1772366604741816800,5.83781689453125,-0.025849311527609824,-0.0035884529460221528,-0.00002659574598073959
1772366604751886800,5.847886962890625,-0.02734744113087654,-0.0012757235908182336,-0.004847293900698423
1772366604761956900,5.857956787109375,-0.034681437280774115,-0.0024937576110707596,-0.00086154873277992
1772366604772027000,5.86802685546875,-0.02091419321298599,0.0010566374800400808,-0.004732946806028485
1772366604782097000,5.878096923828125,-0.03033551703095436,0.0022536287122638895,-0.01491568345054984
1772366604792165600,5.88816552734375,-0.03138414930105209,0.006825083079957403,-0.002392557692341506
1772366604802236000,5.89823583984375,-0.03482522966563702,-0.002755025196028873,0.0007722630141302943
1772366604812306000,5.908305908203125,-0.0369172335088253,-0.002879866285249591,-0.0027534634266048667
1772366604822375700,5.918375732421875,-0.037061610415577886,0.00642496871331241,-0.008304594747722148
1772366604832446000,5.928446044921875,-0.038706455013155935,0.0022726759060285985,-0.009911956879124044
1772366604842516000,5.938515869140625,-0.03930734351575375,0.0081410656159278,0.0006622267683967948
1772366604852585700,5.948585693359375,-0.0393090970814228,0.011145704491739161,0.0031621538253501055
1772366604862656000,5.958656005859375,-0.027037060007452964,0.0018444177237106486,-0.001886069474928081
1772366604872725800,5.968725830078125,-0.02838087583184242,0.007151547688501887,-0.003030380671843886
1772366604882795800,5.978795654296875,-0.03122399030327797,0.0024631752431392667,-0.0034832390058785676
1772366604892865800,5.98886572265625,-0.03960077350437641,-0.0014349966726033016,0.002255048917792737
1772366604902935800,5.998935791015625,-0.0418453375607729,-0.00035796942508313804,-0.0036075229726731774
1772366604913005800,6.009005859375,-0.041246202623844146,0.005591445065196603,-0.004947283676452935
1772366604923075800,6.019075927734375,-0.030922961530089377,0.012834680491988546,0.0009787088390439747
1772366604933145900,6.029145751953125,-0.03675473642349243,-0.005736570890620351,0.0003074950465932488
1772366604943215900,6.0392158203125,-0.04408873257339001,-0.0004687089237151667,-0.002732968627847731
1772366604953286000,6.049285888671875,-0.03181903358697891,0.0020429999025771395,-0.0018490254001691936
1772366604963356000,6.05935595703125,-0.025534838750958442,0.0038100872069131582,-0.004830379298515618
1772366604973426000,6.069426025390625,-0.028221301355957983,-0.0022120682925917206,0.0008344049975275993
1772366604983496000,6.079495849609375,-0.03794131585955619,-0.0005884080469375476,0.0003687967797741294
1772366604993565700,6.089565673828125,-0.026273089897632596,0.007321556793432682,-0.0010692366667091845
1772366605003636000,6.099635986328125,-0.02462649173438549,0.0019525816727662458,-0.001926474550552666
1772366605013705700,6.109705810546875,-0.030462358281016347,-0.004202890483359806,-0.007428907891735434
1772366605023775700,6.119775634765625,-0.03375146295428276,-0.006411492743808775,-0.012736476247943936
1772366605033846000,6.129845947265625,-0.041976854985952376,-0.0012274959683418274,-0.0018637480452656744
1772366605043915800,6.139915771484375,-0.0400368268340826,0.006970341336121782,0.002062741216085851
1772366605053985800,6.14998583984375,-0.02388064180314541,0.002347385110054165,0.0006115194944664835
1772366605064059400,6.160059326171875,-0.033760230782628055,-0.002797750092903152,-0.002306925235502422
1772366605074129700,6.170129638671875,-0.03315875775814056,0.011158006850886158,-0.0001325038058683276
1772366605084199700,6.18019970703125,-0.020889058771729467,0.0019946124498965217,-0.006733984430134296
1772366605094269400,6.19026953125,-0.03420563646256924,-0.005058173872134648,-0.007457038007676601
1772366605104339700,6.200339599609375,-0.02971592382788658,-0.003186260786722414,-0.00640807694401592
1772366605114409700,6.21040966796875,-0.030315643286705014,-0.0005406051161466166,-0.005846899397298693
1772366605124479500,6.2204794921875,-0.03420388289690018,-0.0007755326834507286,-0.003416676575690508
1772366605134549500,6.230549560546875,-0.047075054907798765,0.004253109133522957,-0.0018289689928293227
1772366605144619800,6.240619873046875,-0.03240413999855518,0.004126286149770021,-0.007806983956508338
1772366605154689500,6.250689453125,-0.03045709758400917,0.004390380446054041,-0.0041781259348616
1772366605164759600,6.260759521484375,-0.030910102048516273,0.0048993346151895815,-0.003102349929511547
1772366605174829600,6.27082958984375,-0.03763736447691917,0.011591324800811707,-0.0005201879492029547
1772366605184899600,6.280899658203125,-0.04227846828103065,-0.00008160016911569983,-0.0017529446145519614
1772366605194969600,6.290969482421875,-0.043027825343608855,0.007599670481914654,-0.007017660209722817
1772366605205039600,6.30103955078125,-0.04392682000994682,0.0009764986156485974,-0.0059977060448378324
1772366605215109600,6.311109619140625,-0.03868658126890659,-0.0007955799576360732,-0.0016037819348275661
1772366605225179600,6.3211796875,-0.028804069679975508,0.004440827425080352,-0.0030943127535283566
1772366605235249400,6.33124951171875,-0.02881049942076206,0.004071487222611904,-0.0014504910692572594
1772366605245319700,6.341319580078125,-0.03001519903540611,0.0020742398576345292,0.0023986951721832153
1772366605255389700,6.3513896484375,-0.029567455267906186,0.007274073523050173,0.005652144010178745
1772366605265459500,6.36145947265625,-0.03285889802873134,0.005857393391849473,-0.004947539404779672
1772366605275529700,6.37152978515625,-0.04109247336685657,-0.01010679446463473,-0.002359313009865582
1772366605285599500,6.381599609375,-0.030769232273101806,-0.002064403450209647,-0.002277918336726725
1772366605295669500,6.39166943359375,-0.030017537122964857,-0.0007144455794012174,-0.0030931802423670887
1772366605305739500,6.401739501953125,-0.03661152856051922,0.005788502007257193,-0.003744191497005522
1772366605315809500,6.4118095703125,-0.04184767564833164,-0.000596623319434002,-0.0052072497868910425
1772366605325878500,6.42187841796875,-0.03137245886325836,0.002881012496142648,-0.006536196835711598
1772366605335948500,6.431948486328125,-0.03884790931046009,0.0015148113100090994,-0.004124788312427699
1772366605346018600,6.4420185546875,-0.04258417322933673,0.0024873324368614703,-0.0026782427659258244
1772366605356088600,6.452088623046875,-0.036900866895914076,-0.001262142590037547,-0.006500723663531244
1772366605366158600,6.46215869140625,-0.026130466556549072,0.00037497079223394394,-0.003147175451926887
1772366605376228600,6.472228515625,-0.027028292179107665,-0.0023409873353084547,-0.005697261793538928
1772366605386298600,6.482298583984375,-0.02912380315363407,0.004746486707613803,-0.004799253507889807
1772366605396368400,6.492368408203125,-0.03331131797134876,0.0059114205674501135,-0.0104348482420668
1772366605406438700,6.502438720703125,-0.032409985217452045,0.0010713053262094035,-0.009154197314381598
1772366605416508700,6.5125087890625,-0.03540390633642673,-0.0017530542124062774,-0.008309307455457746
1772366605426578400,6.522578369140625,-0.03749941731095314,0.0020549049695022404,-0.0008299845507368444
1772366605436648700,6.532648681640625,-0.04378536571264267,0.0005987604775931686,-0.0034014059413224455
1772366605446718700,6.54271875,-0.0407908600717783,0.004664055421436206,-0.0006771686092019081
1772366605456788500,6.55278857421875,-0.02791851901710033,-0.0051335041306680065,-0.0013630319815129042
1772366605466858800,6.562858642578125,-0.03734568805396556,0.0040276846135035155,-0.004648410327732563
1772366605476928500,6.572928466796875,-0.03255670021176338,0.007115435195504687,0.006316818463988602
1772366605486998500,6.58299853515625,-0.0377975234746933,0.005783300675754435,0.002787402228824794
1772366605497068500,6.593068603515625,-0.036301731958985325,-0.003807009333837777,-0.004234861090779305
1772366605507138600,6.603138671875,-0.03240530904233455,0.0009712150857551022,-0.000503967466764152
1772366605517208600,6.61320849609375,-0.041378889092802996,0.004901946697384119,0.004823401568457484
1772366605527278600,6.623278564453125,-0.03824000654518604,0.008505437382333912,-0.0018343027550727128
1772366605537348600,6.6333486328125,-0.031057401564717292,0.006747414733865298,-0.008111044936999679
1772366605547418600,6.643418701171875,-0.03449614384174347,0.005401142090908252,-0.00295304111931473
1772366605557488600,6.653488525390625,-0.03255494664609432,0.006973400942888111,-0.0029229382419958707
1772366605567558400,6.663558349609375,-0.030014029991626737,0.004631450059777126,0.0026760873414576054
1772366605577628700,6.673628662109375,-0.03285480637550354,0.0036069019181653853,-0.0033991774516180157
1772366605587698700,6.68369873046875,-0.03674538407325744,0.0016056450983509421,-0.008497523503936826
1772366605597768400,6.6937685546875,-0.030161329507827756,0.00559113910451997,-0.0073064870884642
1772366605607838700,6.703838623046875,-0.03150689889788628,-0.0034748091042507436,-0.004124422986246645
1772366605617908500,6.713908447265625,-0.031814357411861414,-0.0034117766382871194,-0.013749964139424264
1772366605627978500,6.723978515625,-0.028229484662413595,-0.00572087099798955,-0.006281089563481509
1772366605638048800,6.734048828125,-0.031069092002511022,0.008893486851849593,0.0014211553769186138
1772366605648118500,6.744118408203125,-0.03436521093845367,0.005160351038398221,-0.0025617767794057725
1772366605658188500,6.7541884765625,-0.032721535384655,0.00531291125160642,-0.007290522334352135
1772366605668258600,6.764258544921875,-0.03630933074355125,0.004906125115579925,-0.009466660797037185
1772366605678328600,6.77432861328125,-0.027779987329244613,-0.0032569285698700696,0.0011674728767946362
1772366605688398600,6.784398681640625,-0.03167056502699852,-0.0045086319642839955,-0.0003269669320434332
1772366605698468600,6.794468505859375,-0.03825286602675915,-0.0029982867668382823,-0.014506481595151126
1772366605708538600,6.80453857421875,-0.03870060979425907,0.0023982613473432137,-0.0046023426963016385
1772366605718608600,6.814608642578125,-0.03810498198866844,-0.0029127730410080403,0.003406337844766676
1772366605728678700,6.8246787109375,-0.03241816852390766,0.004385380043950863,-0.0029978666417300698
1772366605738748700,6.834748779296875,-0.036760581642389295,-0.004927012639981694,-0.004871989950537681
1772366605748818700,6.844818603515625,-0.03915127617120743,-0.0029239428889937698,-0.008390848259069024
1772366605758887400,6.854887451171875,-0.033465047228336334,0.006921278030006215,-0.005558291714265942
1772366605768958500,6.86495849609375,-0.025831775870919227,0.0012938620357075706,0.0006360694138333201
1772366605779027700,6.87502783203125,-0.034653380230069156,-0.007346951529593206,-0.004872611005045473
1772366605789097500,6.885097412109375,-0.027470190727710724,0.0019156563290162012,-0.005307056899555027
1772366605799167700,6.895167724609375,-0.036592823860049244,-0.004983441835222766,-0.0011440920012071728
1772366605809237500,6.905237548828125,-0.03658873220682144,0.004442188265104778,-0.009576806640625
1772366605819307500,6.9153076171875,-0.035843466797471045,-0.0006916263928171247,-0.003788030638732016
1772366605829377500,6.92537744140625,-0.03539046233296394,-0.0033604254769627005,-0.001173318095691502
1772366605839447600,6.935447509765625,-0.0333007965773344,0.0024911683617625385,-0.00473649046998471
1772366605849517600,6.945517578125,-0.036734862679243085,0.0007279580815229565,-0.007094853631779551
1772366605859587600,6.955587646484375,-0.03868482770323753,-0.008533033208735287,0.00027899960447102785
1772366605869657600,6.96565771484375,-0.03658464055359363,0.0019903837993508204,-0.0046694896483793855
1772366605879727600,6.9757275390625,-0.036433249384164805,0.005045629484392702,-0.003116634183190763
1772366605889797600,6.985797607421875,-0.04077157084941864,-0.004207292663841508,-0.0060808542836457485
1772366605899867600,6.99586767578125,-0.03493570430278778,0.0018534549801144749,-0.00008281944524496794
1772366605909937700,7.005937744140625,-0.03747954356670379,-0.0009331343979574739,0.0037969445975497363
1772366605920007400,7.01600732421875,-0.031041619473695752,0.0013768047785386443,-0.0012158785957843065
1772366605930077400,7.026077392578125,-0.036873394367098807,-0.0026426599958911537,-0.0066453562986105675
1772366605940147700,7.036147705078125,-0.04076806371808052,0.0009278874006820843,0.00043218087218701835
1772366605950217500,7.046217529296875,-0.03328676805198193,0.0013675254935398696,-0.0015353928737342356
1772366605960287500,7.05628759765625,-0.03942074076235294,0.000906529518822208,-0.005100318813696503
1772366605970357800,7.066357666015625,-0.035227380725741386,0.004030383460666052,-0.0023248262183740735
1772366605980427500,7.076427490234375,-0.03417874845564365,-0.0012742394532077013,-0.004101626632548868
1772366605990497500,7.08649755859375,-0.038218963757157325,-0.0010496414836728945,0.0014194748764857648
1772366606000567600,7.096567626953125,-0.03417465680241585,0.005686096512130461,-0.0019239172672852873
1772366606010637600,7.106637451171875,-0.036864626538753505,0.0026219231685390694,0.00042330344598740335
1772366606020707600,7.11670751953125,-0.034621231526136394,0.0014603320432594045,-0.0016874416302889584
1772366606030777600,7.126777587890625,-0.02743979558944702,-0.0022230052451370284,-0.003976319752447307
1772366606040847600,7.13684765625,-0.027885201269388198,-0.0069081628201063715,-0.00581778290066868
1772366606050917600,7.146917724609375,-0.03266775937080383,-0.0010886948524275793,-0.003280775236338377
1772366606060987400,7.1569873046875,-0.030873277169466015,-0.0005591773858759552,-0.0028562296813353896
1772366606071054000,7.16705419921875,-0.03656242872178554,0.009488210475142114,-0.0005013371182605624
1772366606081124000,7.1771240234375,-0.034466917747259136,0.0034249786131549625,-0.00498107634820044
1772366606091194000,7.187194091796875,-0.04120177896022796,0.0039088531399611385,-0.006052687635086477
1772366606101264000,7.197263916015625,-0.0326689284145832,-0.0028704134703148153,-0.0002913110967725515
1772366606111334100,7.207334228515625,-0.04045300641953945,-0.001528154848772101,-0.0039253202175721525
1772366606121404200,7.217404052734375,-0.032820904105901716,0.002845374927180819,-0.0016328253662213682
1772366606131474000,7.227473876953125,-0.02698503755927086,0.008539581680530681,-0.0029815000288188455
1772366606141544200,7.237544189453125,-0.02354161910712719,0.0034876320532057433,-0.005634644886106252
1772366606151614200,7.2476142578125,-0.04149754703640938,-0.002585906573664397,0.0035273704085499046
1772366606161684000,7.25768408203125,-0.03431494205594063,0.0018891701808897777,-0.005600779149122536
1772366606171753200,7.267753173828125,-0.044045477953553194,0.007443899964890442,-0.0012387114821001887
1772366606181823000,7.277822998046875,-0.03342413069605827,-0.006966162917925975,-0.003712663847580552
1772366606191893000,7.28789306640625,-0.02145312239527702,-0.000744922916055657,-0.0022342983907088637
1772366606201963300,7.29796337890625,-0.031929508224129675,-0.00037979309782385824,0.00027859774567186833
1772366606212033000,7.308032958984375,-0.02938566896021366,0.0009995689639821649,0.006120309511199593
1772366606222103000,7.31810302734375,-0.019511925199627876,-0.000313116503204219,-0.003200841867923736
1772366606232173000,7.328173095703125,-0.036862872973084444,0.000054022609023377294,-0.005239727284386753
1772366606242243000,7.3382431640625,-0.051074938198924065,-0.0018758905742084606,-0.00005717354733496904
1772366606252313000,7.34831298828125,-0.033117256703972815,0.0018516922812908886,0.006369900358095764
1772366606262383000,7.358383056640625,-0.03954758201241493,0.006085900351521558,0.002143697497807443
1772366606272453000,7.368453125,-0.030423779836297033,0.005760408423934132,-0.012183518540300428
1772366606282523100,7.378523193359375,-0.0284819981187582,0.0060157394584501155,-0.004497786343283951
1772366606292593000,7.388593017578125,-0.03417582584619522,0.007639705664780921,-0.005998290566727519
1772366606302663200,7.3986630859375,-0.04300327542424202,0.00033024116794113067,-0.003906761647574603
1772366606312733200,7.408733154296875,-0.03671966511011123,0.01197620049912948,-0.004533259515464305
1772366606322803000,7.418802978515625,-0.040762218499183656,0.002235129507770762,-0.006845445447973907
1772366606332873200,7.428873291015625,-0.033731589210033414,-0.0021741474349983034,-0.005532572751119733
1772366606342943200,7.438943115234375,-0.036433249384164805,-0.000797333523305133,0.00040587738715112205
1772366606353013000,7.449012939453125,-0.03283610167503357,-0.009547457248554565,-0.005274981260858476
1772366606363083000,7.4590830078125,-0.036571781072020526,0.0035628481473075225,-0.005871193588338792
1772366606373153000,7.469153076171875,-0.042406478574872015,0.0028085637478623537,-0.001212992518953979
1772366606383223000,7.47922314453125,-0.0403156437754631,-0.0030246404842240735,0.007958594321645796
1772366606393293000,7.48929296875,-0.03746843765079975,0.0015412061265902594,-0.00017703706733882427
1772366606403363000,7.499363037109375,-0.04793430208563804,0.008382176328846252,-0.003557473285868764
1772366606413433000,7.50943310546875,-0.046887423381209374,0.0008238699037814512,-0.0034438203109428286
1772366606423503000,7.519503173828125,-0.03731003221869469,-0.0012689696230459957,0.00001936228759586811
1772366606433573000,7.529572998046875,-0.04074994353950023,0.00847600579187274,-0.010109415679983793
1772366606443643100,7.53964306640625,-0.035061961030960084,0.004431292411754838,-0.011262348574772476
1772366606453713200,7.549713134765625,-0.032961773881316186,0.0010037884813733399,-0.0053280631549656385
1772366606463783000,7.559782958984375,-0.04523381095528602,-0.0040221544884378084,0.0001572729209437966
1772366606473853200,7.569853271484375,-0.035955110478401185,-0.0061644363472936675,-0.00131871791575104
1772366606483923200,7.579923095703125,-0.028922727623581886,0.00655622584358789,-0.003283369052223861
1772366606493993000,7.589992919921875,-0.03969838865995407,-0.008422581404470839,0.002512567342817783
1772366606504063200,7.600063232421875,-0.031015900510549543,0.0005943034981843084,-0.0014297040095552801
1772366606514132000,7.610132080078125,-0.034010406151413916,0.0021023517072666434,-0.003578881400078535
1772366606524202000,7.620201904296875,-0.030115152278542518,-0.007267324121855199,0.0014979469401761889
1772366606534272300,7.630272216796875,-0.03370645476877689,-0.00625952618564479,-0.0013566387733444571
1772366606544342000,7.640342041015625,-0.03086217125356197,-0.003036011261609383,-0.00836827110107988
1772366606554412000,7.650412109375,-0.035651159095764155,-0.000397826511436142,-0.007780863134562969
1772366606564482000,7.66048193359375,-0.03924655323922634,-0.00010198993659578264,-0.0050334641225636
1772366606574552000,7.670552001953125,-0.03356149334013462,-0.004994246357027441,-0.003563355037383735
1772366606584622000,7.6806220703125,-0.02742985871732235,-0.004699199800053611,-0.003493760399892926
1772366606594692000,7.690692138671875,-0.0359673854380846,0.006456044271588325,-0.004126541878096759
1772366606604762000,7.70076220703125,-0.05257774397730827,0.005516612563584931,0.005120667481981218
1772366606614832000,7.71083203125,-0.037621582385897634,-0.0013946509624831378,0.0037628596648573874
1772366606624902000,7.72090185546875,-0.03253799551129341,0.006284039572393521,-0.0015709025785326956
1772366606634972200,7.73097216796875,-0.04465571880638599,0.00009900796164292841,-0.006293035729601979
1772366606645042200,7.741042236328125,-0.041809681725502014,-0.006054327036323957,-0.0009586524317041039
1772366606655112000,7.75111181640625,-0.03896306012272834,0.00041068599300924687,0.0026962533466517924
1772366606665182200,7.76118212890625,-0.03865910874009132,0.00034421946094371375,0.0021990078816190362
1772366606675252200,7.771252197265625,-0.033870120897889135,-0.004852801192877814,0.0012981135191395877
1772366606685322000,7.781322021484375,-0.04225625644922256,0.0027812738821376116,-0.001550700040720403
1772366606695392300,7.791392333984375,-0.04075929588973522,0.010066014929674565,-0.003493833465129137
1772366606705462000,7.8014619140625,-0.03014028671979904,0.0049366161519661545,-0.0022790143152698872
1772366606715532000,7.811531982421875,-0.04555354442894458,0.0031626013499218967,-0.0006434124700725078
1772366606725602000,7.82160205078125,-0.04390402365624904,0.0008157048636348918,-0.008504866560176015
1772366606735672000,7.831672119140625,-0.033874212551116945,0.0011743227426894009,-0.00749861212708056
1772366606745742000,7.8417421875,-0.043135961893200875,-0.004162859867070801,0.0009592369535937904
1772366606755812000,7.85181201171875,-0.04373042065501213,0.004752363892551511,-0.004195917319878935
1772366606765882000,7.861882080078125,-0.04342705379426479,-0.0057325340363197025,0.0009696852823719382
1772366606775952100,7.8719521484375,-0.0428209045946598,-0.0090044272798812,-0.0009428703406825661
1772366606786022100,7.882022216796875,-0.03548632392287254,-0.0004801938655320555,-0.0028194048022851348
1772366606796092200,7.892092041015625,-0.030096447578072547,0.0043293344411998985,-0.008129895767942071
1772366606806161200,7.9021611328125,-0.03981996921300888,-0.004289445388806052,-0.002244016067124903
1772366606816231000,7.91223095703125,-0.036226913157105446,0.004450777996936813,-0.002218187506124377
1772366606826301200,7.92230126953125,-0.04490647869706153,0.0022328462191391735,-0.0011823051197454332
1772366606836371200,7.93237109375,-0.038626375514268875,-0.0009453636918682604,-0.002495835403725505
1772366606846441000,7.94244091796875,-0.03728197516798973,-0.0029034069910412654,0.00268185949511826
1772366606856511200,7.95251123046875,-0.04865384853184223,0.003804082157812081,0.002114727131649852
1772366606866581200,7.962581298828125,-0.039375732576847074,0.002481866243877448,0.00019464578926563263
1772366606876651000,7.972651123046875,-0.04251870677769184,-0.00154332045186311,-0.004341572868265212
1772366606886721000,7.982720947265625,-0.038325931262969966,-0.007112028528866358,0.00006323796194046735
1772366606896791000,7.992791015625,-0.03623100481033325,0.0012346380951814354,0.007991948601976037
1772366606906861000,8.002861083984374,-0.0321896204650402,0.0008406064094509929,0.0007029606375843286
1772366606916931000,8.01293115234375,-0.0342857159614563,0.001380964930425398,-0.00038552871886640786
1772366606927001000,8.0230009765625,-0.04012158250808716,-0.0004902677349746227,0.002442168987728655
1772366606937071000,8.033071044921876,-0.025160744741559028,0.0008430084290914237,0.005662884599901735
1772366606947141000,8.04314111328125,-0.03204407451450825,-0.00255981771775987,-0.0013919292824342846
1772366606957211100,8.053211181640625,-0.027117724028229713,0.0027057837934000416,-0.0015198299784213304
1772366606967281200,8.06328125,-0.0278764334410429,0.004651780461752787,-0.004624956386908888
1772366606977351200,8.07335107421875,-0.03597381517887115,0.007395243084151297,-0.003542567977681756
1772366606987421000,8.0834208984375,-0.034493805754184724,-0.0014026333395391701,-0.007377214237116277
1772366606997491200,8.0934912109375,-0.01894084731340408,-0.005224762610695324,-0.008501651689782739
1772366607007561000,8.10356103515625,-0.03091886987686157,-0.005790771596156992,0.0034237273709848523
1772366607017631000,8.113630859375,-0.027040567138791084,0.0025424966902006414,-0.0036144276374951005
1772366607027701200,8.123701171875,-0.0345294615894556,-0.0006814155260566622,-0.0028728520225733516
1772366607037771000,8.13377099609375,-0.028852000474929806,0.001890005864528939,-0.0008395560966804623
1772366607047841000,8.143841064453126,-0.030658173114061354,-0.003343908167001791,-0.0018188129249960183
1772366607057911000,8.1539111328125,-0.017220599392056463,0.006501847041537985,-0.005235745229013264
1772366607067980800,8.163980712890625,-0.015749357795715332,0.008784542018081992,-0.000273775440081954
1772366607078050800,8.17405078125,-0.023254034337401388,-0.0005722195305395871,-0.003790807117708027
1772366607088120800,8.184120849609375,-0.029723522612452504,-0.005230479965428822,-0.010747421322576702
1772366607098189800,8.19418994140625,-0.03379413305222988,-0.0027336581810144707,-0.003390080829709768
1772366607108259800,8.204259765625,-0.035005846929550166,-0.0024815100508509204,-0.0024082667181268332
1772366607118329900,8.214329833984374,-0.025715456014871595,0.006139114676369354,-0.0003160071466118097
1772366607128400000,8.22439990234375,-0.0176589908093214,-0.004280577095760963,-0.008377185059897601
1772366607138470000,8.234469970703126,-0.026198271095752713,0.00023732958694454282,0.0002445128129795194
1772366607148540000,8.244539794921875,-0.023669044879078862,-0.0035735659041441973,0.0015306071007624268
1772366607158610000,8.25460986328125,-0.03026362083852291,-0.005592559310048819,-0.0021840660408139227
1772366607168680000,8.264679931640625,-0.03895370777249336,0.002283758989046328,-0.002888962907157838
1772366607178749700,8.274749755859375,-0.029389760613441465,-0.002113238427462056,0.0032556042624637483
1772366607188820000,8.284820068359375,-0.021018238109350204,0.002344311803556047,0.0006498056782409549
1772366607198889700,8.2948896484375,-0.019231939214468002,-0.0036264514354290437,0.000577909485809505
1772366607208959700,8.304959716796875,-0.014901801055669784,0.0037416250805836168,0.010413476660475134
1772366607219030000,8.315030029296874,-0.021348492977023122,0.005495081151789054,0.0022023323498666287
1772366607229099800,8.325099853515624,-0.025989596781134605,-0.001270088434475474,-0.0011326207591220736
1772366607239169800,8.335169677734376,-0.020155483800172805,0.0033229475773638114,0.0021210107419639824
1772366607249239800,8.34523974609375,-0.017470190238952635,-0.0009747176505159586,0.002072239696793258
1772366607259309800,8.355309814453125,-0.026004794350266456,-0.004295130777498707,-0.0028182357585057613
1772366607269379800,8.3653798828125,-0.009401450073719024,0.004337079356238246,-0.00041716596614569426
1772366607279449900,8.375449951171875,-0.015249007058143615,0.0010878911348292603,0.0011131488736718892
1772366607289519900,8.385519775390625,-0.01795709697306156,-0.004926638180646114,-0.005655066619627177
1772366607299590000,8.39558984375,-0.023658523485064507,0.0019946763819782064,0.009100494365766643
1772366607309659600,8.40565966796875,-0.029804186633229254,0.005382880348432809,-0.0023896350828930732
1772366607319730000,8.41572998046875,-0.015153145468235015,0.005380176934693008,-0.006002893676608801
1772366607329800000,8.425800048828124,-0.01352116035223007,-0.0010216848976677283,-0.0008026581523939967
1772366607339869700,8.43586962890625,-0.02653963187932968,0.0004116541073890403,0.008463219375535845
1772366607349939700,8.445939697265626,-0.025794366469979284,0.0058717781102284785,0.00014587474409490824
1772366607360010000,8.456010009765626,-0.027592940324544905,-0.00013283716600853948,0.0026449980834499
1772366607370079700,8.466079833984375,-0.03821779471337795,-0.006007268457626924,-0.004709748593531548
1772366607380149800,8.476149658203125,-0.01876490622460842,-0.00828060195078142,0.0024683628749102354
1772366607390220000,8.486219970703125,-0.02475625559389591,0.0014462441524025053,0.005443615826033055
1772366607400289800,8.496289794921875,-0.022816227442026136,-0.0010665880518965422,0.00009359656758606433
1772366607410359800,8.50635986328125,-0.023713468542695043,0.0016400314251426606,-0.001090754378773272
1772366607420429800,8.516429931640625,-0.03374269512593746,-0.0026796127391047774,0.0033198286050930615
1772366607430499800,8.526499755859374,-0.029103929409384725,0.006889120192918926,-0.00461969568990171
1772366607440569900,8.53656982421875,-0.03269581642150879,0.007076039333455264,0.0004335325790569186
1772366607450639600,8.5466396484375,-0.03448679149150848,0.0013259468075586481,-0.0021335048973560333
1772366607460708900,8.556708984375,-0.02925064440369606,0.004901120146899484,-0.0012554799538105725
1772366607470779000,8.56677880859375,-0.019530629900097844,-0.0018461164904525502,-0.0014135931249707936
1772366607480849000,8.576848876953125,-0.033306641796231266,-0.0026979932125890628,-0.002378602232225239
1772366607490921700,8.586921630859376,-0.03345394131243229,-0.002319305226462893,-0.006233122235909104
1772366607500991700,8.59699169921875,-0.025825346130132674,-0.0028208752401638775,-0.0031629575429484246
1772366607511062000,8.60706201171875,-0.026575287714600562,-0.0036335387633414937,0.002766980495303869
1772366607521131800,8.6171318359375,-0.026133389165997504,-0.003974264792678877,0.0020124723335728048
1772366607531201800,8.627201904296875,-0.025393968975543975,-0.005277013387740589,-0.0014995178427547216
1772366607541271800,8.637271728515625,-0.036625557085871695,-0.0036000931514659894,0.0008076265884563327
1772366607551341800,8.647341796875,-0.03588847498297691,-0.004263726425659842,-0.0033524887656792997
1772366607561411800,8.657411865234375,-0.038137130692601204,-0.004651520166848786,-0.0034321664057672023
1772366607571480800,8.667480712890624,-0.03261164526939392,-0.0007451695112278685,0.0019901509039103983
1772366607581550800,8.67755078125,-0.0356143342167139,-0.002584248906117864,-0.0018452990731224416
1772366607591620900,8.687620849609376,-0.027391280272603034,0.0006696474564494565,-0.0004784676993265748
1772366607601691000,8.69769091796875,-0.029194530302286147,-0.007698879372957162,0.004724580836482346
1772366607611761000,8.707760986328125,-0.028760230538249013,-0.0025009271373739464,-0.0026295082533732057
1772366607621831000,8.717830810546875,-0.03295709770619869,0.0018867544615175575,-0.00024875059667974706
1772366607631900700,8.727900634765625,-0.03625613925158977,-0.0033275461206678297,0.004082410475425422
1772366607641971000,8.737970947265625,-0.032818566018342966,-0.007436246381397359,-0.003816964472271502
1772366607652040700,8.748040771484375,-0.030587445965409278,0.0017049590206705033,-0.006820128343626856
1772366607662110700,8.75811083984375,-0.03044657618999481,-0.0018324852573219687,0.00012501461915671825
1772366607672181000,8.768180908203124,-0.030609657797217367,0.004707529236981645,-0.005550948658026755
1772366607682250800,8.778250732421874,-0.03690320498347282,-0.0002652633400633931,0.005751878057606518
1772366607692320800,8.78832080078125,-0.03271802825331688,-0.004747847547638229,0.0009748729141429067
1772366607702390800,8.798390869140626,-0.03212240044772625,-0.0013278099710820241,-0.003881809869408607
1772366607712460800,8.808460693359375,-0.027046996879577637,-0.006929959093383513,0.006313749724067747
1772366607722530800,8.81853076171875,-0.027057518273591992,-0.002892684667627327,0.0009727174896746873
1772366607732600800,8.828600830078125,-0.026018822875618932,-0.0062110885006142775,-0.003883307706750929
1772366607742670800,8.8386708984375,-0.02886661352217197,-0.007817761078849435,0.0016788564650341868
1772366607752740900,8.848740966796875,-0.031117022797465324,-0.005198870117613114,-0.00026413082890212533
1772366607762811000,8.858810791015625,-0.029929274317622184,-0.0028860676971729842,-0.004988309806585311
1772366607772881000,8.868880859375,-0.03382686627805233,-0.015789443210931495,-0.010995989256165921
1772366607782951000,8.878950927734374,-0.035624855610728264,-0.005995737850037403,-0.0006011076983064412
1772366607793020700,8.889020751953124,-0.030838790377974507,-0.0007696965977083891,0.0020397256666794417
1772366607803090700,8.899090576171876,-0.02979424976110458,-0.005665186154842377,0.0012346198288723826
1772366607813161000,8.909160888671876,-0.029947979018092152,0.004931560950935818,0.0044199718667194245
1772366607823230700,8.919230712890625,-0.034440614262223244,-0.009558754960703663,0.002843918189033866
1772366607833300700,8.92930078125,-0.0416314025491476,-0.0001478794715134427,-0.006027589726448059
1772366607843371000,8.93937109375,-0.03819032218456268,0.0053268941111862655,-0.002317008238099515
1772366607853440800,8.949440673828125,-0.03340191886425018,-0.002839552541170269,0.0006694967593997717
1772366607863510800,8.9595107421875,-0.025775661769509316,-0.0020758061936357987,0.0026573095757514236
1772366607873581000,8.9695810546875,-0.03415829018950462,0.00434162766719237,0.0011002163268625735
1772366607883650800,8.97965087890625,-0.03221767751574516,-0.006354232431505806,-0.00618880817014724
1772366607893720800,8.989720947265624,-0.02278992395699024,-0.0009772703672060743,0.0013060776298865675
1772366607903790800,8.999790771484374,-0.028938509714603423,-0.005859274821681902,0.0008540960786864162
1772366607913860900,9.00986083984375,-0.025507950744032858,-0.007031862265011295,-0.00494246137086302
1772366607923931000,9.019930908203126,-0.04571428794860839,0.00024385522585362195,0.0003087371556088328
1772366607934000600,9.030000732421875,-0.04885375501811504,0.0011652306873584165,0.002476582713983953
1772366607944071000,9.04007080078125,-0.03404197033345699,-0.010143372748512774,0.0018276538185775279
1772366607954141000,9.050140869140625,-0.029258243188261986,-0.005608455565501935,0.005924860004335642
1772366607964210700,9.060210693359375,-0.03674129242002964,-0.00006953983856365084,0.005448292001150548
1772366607974281000,9.070281005859375,-0.03943827641904354,-0.007604588685627095,0.011666801189817487
1772366607984351000,9.08035107421875,-0.04168634760677814,-0.010212684258213266,-0.002926774166896939
1772366607994420700,9.090420654296874,-0.03285597541928291,-0.007101799395796842,0.0026722148839384316
1772366608004490800,9.10049072265625,-0.036598669078946114,-0.002438259997591376,-0.00441872975770384
1772366608014561000,9.11056103515625,-0.030319150418043134,-0.008571789749967865,-0.004272964611463249
1772366608024630800,9.120630859375,-0.030176527076959607,-0.00803685175620485,-0.0015754691557958722
1772366608034700800,9.13070068359375,-0.04095218811333179,-0.01018899742194917,0.00001844897214323282
1772366608044770800,9.140770751953125,-0.042300680112838746,-0.0036549834101693704,0.004757898584194481
1772366608054840800,9.1508408203125,-0.03048223202526569,-0.0033721250479109583,-0.0008547171331942081
1772366608064910800,9.160910888671875,-0.03706920920014381,-0.005817015715688467,0.0032609380247071384
1772366608074980900,9.17098095703125,-0.04635784654915333,-0.013045117505430243,0.0014998466363176702
1772366608085051000,9.18105078125,-0.03529518526494503,-0.0018749772587558253,-0.0017500220051035284
1772366608095120000,9.191119873046874,-0.0321551336735487,0.00196876105600968,0.007939414697140455
1772366608105190000,9.20118994140625,-0.03515490001142025,-0.005914877466438337,0.002098250920884311
1772366608115260000,9.211260009765626,-0.03875497032999992,-0.015209570096898823,0.0059251157326623794
1772366608125330000,9.221329833984376,-0.02618190448284149,-0.0034875315885059535,0.006923296457156539
1772366608135400000,9.23139990234375,-0.028274492847919462,0.004015021494752727,0.0017642697261646388
1772366608145470000,9.241469970703125,-0.04009878615438938,-0.009410752191604114,-0.0005605564922094345
1772366608155540000,9.2515400390625,-0.03590250350832939,-0.009645561027899385,-0.00716532505210489
1772366608165609700,9.261609619140625,-0.033658523973822595,-0.007627042546030133,-0.0010484861396253108
1772366608175680000,9.271679931640625,-0.039048400318622584,-0.003693644053279422,-0.0036884792543947693
1772366608185749800,9.281749755859375,-0.035011692148447036,-0.004694742820644751,-0.003131576023995876
1772366608195819800,9.29181982421875,-0.03126841396689415,0.00020495255414862185,0.0051617666773498055
1772366608205890000,9.30189013671875,-0.04233925855755806,0.0005392534092767164,0.005203706122934818
1772366608215959800,9.311959716796874,-0.03142097418010235,-0.0018140773843741043,-0.0060055605577304955
1772366608226029800,9.32202978515625,-0.02991933744549751,0.0013082604538183658,0.002194733565300703
1772366608236099800,9.332099853515626,-0.02902268086671829,-0.0036805060104932634,0.00008201572764664887
1772366608246169900,9.342169921875,-0.03291968830525875,-0.0033620831445092332,0.0035253245819360014
1772366608256239900,9.352239990234375,-0.02739186479449272,-0.0049981827466282994,-0.0035666064403951166
1772366608266310000,9.362309814453125,-0.02575403445959091,-0.0016828522201394662,0.005534070588462055
1772366608276380000,9.3723798828125,-0.03818038531243801,0.0017480538103030994,0.008389898410998284
1772366608286450000,9.382449951171875,-0.02487082188427448,-0.00380198153227102,0.003134352502971887
1772366608296520000,9.39252001953125,-0.027118893072009084,-0.004223481180239469,0.0006916720585897565
1772366608306590000,9.40258984375,-0.034164135408401484,-0.005794653186830692,0.004903188806399702
1772366608316660000,9.412659912109374,-0.03162906397283077,-0.009814876013086176,0.003505377772450447
1772366608326729700,9.422729736328124,-0.03792728733420372,-0.002001115255919285,-0.0029360899845138192
1772366608336799700,9.4327998046875,-0.030447745233774182,-0.0020975431014085186,-0.0023924846271052955
1772366608346870000,9.4428701171875,-0.035388124245405196,-0.006899714652169495,0.0007263049805536865
1772366608356939800,9.452939697265625,-0.020430793610215187,-0.004948945910576731,-0.0064652504913508884
1772366608367009800,9.463009765625,-0.027317045992612837,0.0009092192328302189,0.002004581288062036
1772366608377080000,9.473080078125,-0.04407938022315502,-0.0014836078875698148,0.0034294264594092964
1772366608387149800,9.48314990234375,-0.043785950234532356,-0.0021973684803815556,0.002857983247004449
1772366608397219800,9.4932197265625,-0.03944996685683727,-0.005365664352150633,0.0027673823541030287
1772366608407289900,9.503289794921875,-0.03092880674898624,-0.010020856047119013,-0.007927724259346723
1772366608417360000,9.51335986328125,-0.03767126674652099,-0.0031382934591500087,-0.004059650654345751
1772366608427430000,9.523429931640624,-0.0427601143181324,-0.0025945922036189582,-0.0019821502605453134
1772366608437499600,9.533499755859374,-0.03542904077768325,-0.007584039087942801,0.00040226065795868633
1772366608447570000,9.54356982421875,-0.03782733409106731,-0.012362500969553365,0.0050927565617486835
1772366608457640000,9.553639892578126,-0.0340939927816391,-0.0013381487020058557,-0.0025722616408020258
1772366608467709700,9.563709716796875,-0.038135961648821826,-0.00295623315682169,-0.0012593158787116408
1772366608477780000,9.573780029296875,-0.03783376383185386,0.008442605845769866,0.0022562910268083213
1772366608487850000,9.58385009765625,-0.04007657432258129,-0.002083596774446778,0.0006602174744009972
1772366608497918700,9.593918701171875,-0.03618424305915832,-0.0023663409722736103,-0.0018352160705253481
1772366608507989000,9.603989013671875,-0.03064180650115013,0.0021767366843065245,0.006663768738135695
1772366608518058800,9.614058837890624,-0.03393149569630623,-0.0006454400303773581,0.004172171118110418
1772366608528128800,9.624128662109374,-0.02973638209402561,-0.00037876561793964356,0.005796265188604593
1772366608538199000,9.634198974609374,-0.0247960030823946,-0.007953991211764514,0.004655534188263118
1772366608548268800,9.644268798828126,-0.020749358040094375,-0.00846460761502385,-0.004780877600982785
1772366608558338800,9.6543388671875,-0.02210369525849819,-0.009020446832920423,-0.0007567366514354943
1772366608568409000,9.6644091796875,-0.03482873679697513,-0.006247822048119269,-0.010004640131257474
1772366608578478800,9.674478759765625,-0.03737140701711177,-0.005345662743737921,-0.0009976692678406833
1772366608588548900,9.684548828125,-0.029437691408395767,0.0041187147646676745,-0.0015555223463103174
1772366608598619000,9.694618896484375,-0.049638767915964124,-0.0019173276962945237,-0.0033322496952489017
1772366608608689000,9.70468896484375,-0.03213350636363029,-0.0029913044702028855,-0.0009758592948317527
1772366608618759000,9.714759033203125,-0.0291442614197731,-0.004137880689441226,0.00043272886145859956
1772366608628828700,9.72482861328125,-0.029444705671072005,-0.003464721535076387,0.0038253669744357463
1772366608638899000,9.73489892578125,-0.03498772675096989,0.0011075091507518663,-0.0006750497173517942
1772366608648969000,9.744968994140624,-0.034545828202366825,-0.0026587708804756403,0.005598331463709473
1772366608659038700,9.755038818359376,-0.043082185879349706,0.005945300004165619,0.0037727234717458485
1772366608669109000,9.76510888671875,-0.033358079722523686,-0.0011470100440783425,0.009688852180354297
1772366608679179000,9.775178955078125,-0.03321604090332985,-0.005209852735931053,0.0017613105840981005
1772366608689248800,9.785248779296875,-0.028576690664887428,-0.011472771888482385,0.004642090184800327
1772366608699318800,9.79531884765625,-0.03771335232257843,-0.00915358082645107,0.005027947697229683
1772366608709389000,9.80538916015625,-0.03607143033444881,-0.005014791388134472,0.0026808365818113086
1772366608719458800,9.815458740234375,-0.03742342946529388,-0.00013171378800179808,-0.003747041041217744
1772366608729528800,9.82552880859375,-0.04550269102454185,0.0009341070789145305,0.0037462738562375306
1772366608739599000,9.83559912109375,-0.03294073109328747,-0.0014163833036785944,0.005648673411458731
1772366608749668900,9.8456689453125,-0.037133506608009334,0.0013713979510590433,0.0013765855828300117
1772366608759739000,9.85573876953125,-0.038487843826413154,-0.0026791652145329863,-0.004484232741966843
1772366608769809000,9.865808837890626,-0.039536476096510884,-0.007969764169631525,0.002830620316043496
1772366608779879000,9.87587890625,-0.041782209196686744,-0.0033468947085319085,0.008221154247969388
1772366608789949000,9.885948974609375,-0.03250584680736065,-0.014572066777804865,0.002256510222516954
1772366608800018700,9.896018798828125,-0.041486441120505334,-0.00961463160009589,-0.0009349427625536918
1772366608810089000,9.9060888671875,-0.03161561996936798,-0.002806737116957083,-0.0031986133782193065
1772366608820157700,9.91615771484375,-0.03656242872178554,-0.006186543147824704,0.003020005408301949
1772366608830228000,9.92622802734375,-0.044641690281033514,-0.004698670077091083,0.01005794122107327
1772366608840298000,9.936298095703124,-0.0440367101252079,-0.0023535499893594532,0.004504764073342085
1772366608850367700,9.94636767578125,-0.03999591030180454,-0.005736968182842247,0.003014927374385297
1772366608860437800,9.956437744140626,-0.026081951239705085,-0.003004643442388624,0.0014403715340420603
1772366608870508000,9.966508056640626,-0.03820961140692234,-0.011055688120727427,0.0003808160111308098
1772366608880577800,9.976577880859375,-0.030435470274090767,-0.004966568332235329,-0.001127688855677843
1772366608890647800,9.986647705078125,-0.04435761264264583,-0.0040445855159545316,0.010530965560302138
1772366608900718000,9.996718017578125,-0.03388824107646942,0.0014047385316574945,0.0002509790863841772
1772366608910787800,10.006787841796875,-0.04945288995504379,-0.0006543402894632891,0.004241802288219332
1772366608920857900,10.01685791015625,-0.03448445340394973,-0.007711419194121844,0.008980557780526578
1772366608930927900,10.026927978515625,-0.01638648665547371,-0.007845955126872285,0.00908810980822891
1772366608940998000,10.036997802734374,-0.048697103151679036,-0.0065257439403561875,0.004230842502787709
1772366608951068000,10.04706787109375,-0.012044658058881759,0.00008130334159359335,0.006876242445036768
1772366608961137700,10.0571376953125,-0.034931612649559976,-0.010259336411533877,0.009593721242807805
1772366608971208000,10.0672080078125,-0.039869069051742555,-0.003921534525020979,0.00360105669926852
1772366608981278000,10.07727783203125,-0.026702713486552235,-0.0010121590174967422,0.003978109850734472
1772366608991347700,10.08734765625,-0.04242050710022449,-0.012136017003608867,0.006200608205795288
1772366609001418000,10.09741796875,-0.04870762454569339,-0.0061860271245939655,0.010178535393439233
1772366609011488000,10.107488037109375,-0.02626081493794918,-0.005030390816065483,0.0064601724574342365
1772366609021557800,10.117557861328125,-0.040623686811327935,0.0014498289155540987,0.0014306173250079155
1772366609031627800,10.127627685546875,-0.0485503881573677,-0.005606354939960874,0.0016477672070264815
1772366609041698000,10.137697998046875,-0.030744682353734967,-0.007902032695664092,0.00014127163421362638
1772366609051767800,10.147767822265624,-0.043914545050263404,0.0007893283133627847,0.012220379951968788
1772366609061837800,10.157837890625,-0.04451777164041996,-0.005374477846268564,0.008812471204623579
1772366609071907300,10.1679072265625,-0.03777355807721615,-0.001070693404856138,0.004714095975086092
1772366609081977300,10.177977294921876,-0.031188334468007086,-0.010199582748045213,0.004748473168723285
1772366609092046300,10.18804638671875,-0.04046352781355381,-0.00652304509319365,0.00030318419765681026
1772366609102116400,10.198116455078125,-0.03642272799015045,-0.004125587463448755,0.0059800242576748125
1772366609112186400,10.208186279296875,-0.023701778104901313,-0.006519542528432794,0.0015270999694243072
1772366609122256400,10.21825634765625,-0.03687631697654724,-0.0003548961185850203,-0.000566547841578722
1772366609132326400,10.228326416015625,-0.03822831610739231,-0.003991713684401475,0.007534596755914389
1772366609142396400,10.238396484375,-0.04017009782493114,-0.009138698351150379,0.010898922089859842
1772366609152466200,10.248466064453124,-0.04749707971215248,-0.003722176028019748,0.008478307346813381
1772366609162536400,10.258536376953124,-0.0349216757774353,-0.0013881709893466905,0.00756795103624463
1772366609172606200,10.268606201171876,-0.046592239826917646,-0.010655706184823066,0.006374174674414098
1772366609182676200,10.27867626953125,-0.0467377857774496,-0.0035412345371209084,0.0070568597089499235
1772366609192746500,10.28874658203125,-0.030872108125686644,-0.0038186404061270876,0.0005669862329959869
1772366609202816300,10.298816162109375,-0.025181787529587746,-0.0022290194273926318,0.009931319166719913
1772366609212886300,10.30888623046875,-0.0314665668874979,-0.007903073875280097,0.007818893590010702
1772366609222956500,10.31895654296875,-0.045231472867727274,-0.003057862333813682,-0.0006613134529441595
1772366609233026300,10.3290263671875,-0.04387947373688221,-0.004813263766933232,0.004250862377509474
1772366609243096300,10.339096435546875,-0.031309915021061896,-0.005666569827753118,0.006053272156976163
1772366609253166300,10.349166259765624,-0.03700082013905048,-0.006190178143326193,0.006556582036614417
1772366609263236400,10.359236328125,-0.03311082696318626,0.0027128528550034387,0.007146729949489236
1772366609273306400,10.369306396484374,-0.04073766857981682,-0.005183535551163368,0.011002711257897316
1772366609283376000,10.379376220703126,-0.04297580289542675,-0.004168417391600087,0.0021785130828619
1772366609293446400,10.3894462890625,-0.036389410242438316,-0.003522205609665252,0.0071713894667103885
1772366609303516400,10.399516357421875,-0.03698211543858051,-0.006323079241416417,0.011189575599506497
1772366609313586200,10.409586181640625,-0.032332828328013416,-0.005834053615457378,0.007848777271620928
1772366609323655400,10.419655517578125,-0.028731004443764686,0.000959716444206424,0.007174787000194191
1772366609333725400,10.429725341796875,-0.026785131072998045,-0.006534256040374748,0.006569879909604787
1772366609343795200,10.439795166015625,-0.03591360942423343,-0.0025533605775097386,0.011200900711119174
1772366609353865500,10.449865478515624,-0.043538112953305244,-0.002432172750099562,0.012703633424267172
1772366609363935200,10.459935302734374,-0.03260638457238674,-0.003101710608694702,0.0013616437420248984
1772366609374005200,10.470005126953126,-0.03439852868616581,-0.010319784194766543,0.004860810969397425
1772366609384075500,10.480075439453126,-0.029008652341365813,-0.00038758367863483723,0.003115136345848441
1772366609394145300,10.490145263671875,-0.04158054914474487,0.0006735929792048409,0.0027713644094765183
1772366609404215300,10.50021533203125,-0.04232932168543339,0.004616585850785486,0.0055744025988504285
1772366609414285300,10.510285400390625,-0.023320085310935972,-0.005121146972593851,0.006446326595172286
1772366609424355300,10.520355224609375,-0.03468962058722973,-0.009582706658449023,0.01609572354797274
1772366609434425300,10.53042529296875,-0.04007306719124317,-0.0019007601539837195,0.00960658072438091
1772366609444495400,10.540495361328125,-0.03857610663175583,-0.0008028545152163133,0.007080204051919281
1772366609454565400,10.5505654296875,-0.024212650236487387,0.00212350865972694,0.009727613288164138
1772366609464635400,10.560635498046874,-0.03587970715463161,-0.014818086561281233,0.009079415045119821
1772366609474705200,10.570705078125,-0.03347849123179912,-0.0042301118504256005,0.00833356511387974
1772366609484775400,10.580775390625,-0.032874680119752885,-0.012210817539179696,0.003809183024615049
1772366609494845400,10.590845458984376,-0.03033200989961624,-0.007349317016615532,0.009786248140223323
1772366609504915200,10.600915283203125,-0.034522447326779365,0.0004815044732065871,0.012325338163785636
1772366609514985200,10.610985107421875,-0.0437970561504364,-0.010985650525242089,0.010307495535351336
1772366609525055500,10.621055419921875,-0.03421849594414234,-0.00924613621442113,0.008099610227532684
1772366609535124200,10.631124267578125,-0.03091886987686157,-0.012891420214483513,0.013347228557430207
1772366609545194500,10.641194580078125,-0.03465805640518665,-0.007421062511997297,0.012188706172071396
1772366609555264300,10.65126416015625,-0.03241115426123142,-0.006119624524610116,0.011188698816671967
1772366609565334300,10.661334228515624,-0.04362988288998604,-0.004782685965579003,0.005140650824084878
1772366609575404300,10.671404296875,-0.02747369785904884,-0.004033744461531751,0.007127952183783054
1772366609585474300,10.681474365234376,-0.03645253860652446,-0.003206349160103127,-0.0014317498361691831
1772366609595544300,10.69154443359375,-0.03495908517837524,0.000023988230363465843,0.011962277005054056
1772366609605614300,10.7016142578125,-0.03525894490778446,-0.004969627939001657,0.014179624260962009
1772366609615684400,10.711684326171875,-0.037974049085378644,-0.0029459263919387013,0.005762874375656247
1772366609625754400,10.72175439453125,0.11438158146142959,0.002317537961062044,-0.026049400676973162
1772366609635824400,10.731824462890625,-0.04746083935499191,-0.013655148295708932,0.02965118802860379
1772366609645894400,10.741894287109375,-0.07459376095235347,-0.011227985080867075,0.017607443285174666
1772366609655964400,10.75196435546875,-0.0909270561158657,0.003927571540162898,0.01809475187808275
1772366609666034200,10.7620341796875,-0.08580839792788028,-0.010859238533442839,0.018211729321256278
1772366609676104200,10.772104248046874,-0.13568097459971903,-0.008827358246501535,0.02695866100899875
1772366609686174500,10.782174560546874,-0.10008359151780605,-0.009654721581889316,0.017107165612839162
1772366609696244200,10.792244140625,0.029276947888731954,-0.013451963006961158,-0.010718889347836375
1772366609706314200,10.802314208984376,-0.009279284998774527,-0.01054534571210388,-0.002091053995117545
1772366609716384500,10.812384521484375,0.04709609769582748,0.006050815338408574,0.002728365517966449
