time,seconds_elapsed,z,y,x
1772366308941378800,0.11537890625,-0.00319477217271924,0.001017163973301649,-0.000001821666955947876
1772366308951448800,0.12544873046875,0.0000026365742087364197,-0.0022125598043203354,-0.0009520631283521652
1772366308961518800,0.135518798828125,-0.003326048143208027,-0.000410664826631546,-0.003002963960170746
1772366308971588900,0.1455888671875,-0.00048553477972745895,0.0022064074873924255,0.001032395288348198
1772366308981659000,0.155658935546875,-0.0008932650089263916,-0.0023846160620450974,-0.00004085805267095566
1772366308991729000,0.16572900390625,-0.0002987133339047432,0.0024980204179883003,-0.0021637622267007828
1772366309001799000,0.175798828125,-0.00032960623502731323,-0.0006447760388255119,0.0019020866602659225
1772366309011869000,0.185868896484375,-0.0013366895727813244,0.0006567020900547504,0.0005037290975451469
1772366309021938700,0.195938720703125,0.0003584129735827446,-0.002069043228402734,-0.0002502119168639183
1772366309032009000,0.206009033203125,0.00023747282102704048,0.0010030684061348438,0.0000649821013212204
1772366309042079000,0.216078857421875,0.00023294519633054733,0.005208466202020645,0.0005858959630131721
1772366309052148700,0.226148681640625,-0.0016112825833261013,-0.0008213766850531101,-0.0012215245515108109
1772366309062219000,0.236218994140625,-0.0012703980319201946,-0.0011739791370928288,0.0008863676339387894
1772366309072289000,0.2462890625,0.00018824869766831398,-0.0020645486656576395,-0.0018861787393689156
1772366309082358800,0.25635888671875,-0.0021129888482391834,-0.0016123440582305193,0.000595887191593647
1772366309092428800,0.2664287109375,-0.000021986663341522217,-0.002928182715550065,0.0006112223491072655
1772366309102498800,0.276498779296875,0.00010185036808252335,-0.000681806355714798,0.0008857939392328262
1772366309112567800,0.28656787109375,-0.001174483448266983,-0.002826057141646743,-0.0011944156140089035
1772366309122638800,0.296638916015625,-0.0008463822305202484,0.00006187474355101585,-0.001177370548248291
1772366309132707800,0.306707763671875,-0.002010083757340908,-0.0032829195261001587,-0.0017577577382326126
1772366309142777900,0.31677783203125,0.0015718676149845123,-0.0021281728986650705,-0.0009308457374572754
1772366309152848000,0.326847900390625,0.0012338138185441494,-0.0024312494788318872,0.0011941595003008842
1772366309162918000,0.33691796875,0.0013738963752985,-0.004436343442648649,0.0007243780419230461
1772366309172988000,0.34698779296875,0.0007473044097423553,-0.0027558840811252594,0.0020097186788916588
1772366309183057700,0.3570576171875,0.0003670048899948597,-0.001559325959533453,-0.00019431393593549728
1772366309193128000,0.3671279296875,0.0008201268501579762,-0.0032172345090657473,-0.0002445448189973831
1772366309203198000,0.377197998046875,-0.0016616731882095337,-0.0013618101365864277,0.0005235103890299797
1772366309213267700,0.387267822265625,-0.0007511721923947334,-0.003129119984805584,0.00009225588291883469
1772366309223338000,0.397337890625,-0.0021171066910028458,-0.0004300065338611603,0.000731414183974266
1772366309233408000,0.407407958984375,-0.002317595761269331,-0.0008713044226169586,0.0004906365647912025
1772366309243477800,0.417477783203125,0.0011823303066194057,-0.004350191913545132,0.00018437299877405167
1772366309253548000,0.427548095703125,0.0010938318446278572,-0.005185604561120272,-0.0021355459466576576
1772366309263618000,0.4376181640625,-0.00008754618465900421,-0.004316082689911127,-0.002140606753528118
1772366309273687800,0.447687744140625,0.00010556215420365334,-0.003111327299848199,0.0013643335551023483
1772366309283757800,0.4577578125,-0.0012236214242875576,-0.0031579325441271067,0.0030325371772050858
1772366309293827800,0.467827880859375,0.0004704156890511513,-0.00030511198565363884,-0.0005590831860899925
1772366309303897900,0.47789794921875,0.0007487162947654724,-0.0011205719783902168,-0.0008767982944846153
1772366309313967900,0.4879677734375,-0.000514443963766098,-0.0004552905447781086,0.0019861580803990364
1772366309324038000,0.498037841796875,-0.00100686214864254,0.002139161340892315,-0.00000881589949131012
1772366309334108000,0.50810791015625,0.0000061211176216602325,0.0014267582446336746,0.000575019046664238
1772366309344178000,0.518177978515625,-0.0002815001644194126,0.0008539119735360146,-0.0005419105291366577
1772366309354248000,0.528248046875,-0.0010426845401525497,-0.0012293937616050243,0.0002291407436132431
1772366309364318000,0.53831787109375,-0.0008464092388749123,0.0015171244740486145,0.00033220555633306503
1772366309374388000,0.548387939453125,0.0001845681108534336,0.00035818619653582573,0.0005834167823195457
1772366309384457700,0.558457763671875,0.00019282428547739983,0.0006617866456508636,0.001577042043209076
1772366309394528000,0.568528076171875,-0.0006262157112360001,-0.00014905957505106926,-0.00047858618199825287
1772366309404597800,0.57859765625,0.0013988520950078964,-0.002758158603683114,-0.0007299892604351044
1772366309414667800,0.588667724609375,0.0004519163630902767,0.0001455112360417843,-0.0002802954986691475
1772366309424738000,0.598738037109375,-0.0017188265919685364,0.0025189202278852463,-0.00042943190783262253
1772366309434807800,0.608807861328125,-0.00029925303533673286,-0.00020042993128299713,0.0015969984233379364
1772366309444877800,0.6188779296875,0.0018006493337452412,-0.0015820781700313091,-0.0007199514657258987
1772366309454947800,0.62894775390625,-0.0014467979781329632,-0.0018864853773266077,-0.002127879299223423
1772366309465017900,0.639017822265625,0.0002331240102648735,-0.0006600995548069477,-0.0005539506673812866
1772366309475088000,0.649087890625,-0.001181701198220253,0.0006570457480847836,-0.0003377282992005348
1772366309485158000,0.659157958984375,-0.0007454752922058105,-0.0005040927790105343,0.0007610926404595375
1772366309495228000,0.669227783203125,-0.0009419480338692665,-0.0002930141054093838,0.0008898740634322166
1772366309505298000,0.6792978515625,0.00042531872168183327,0.0019371169619262218,0.00046643149107694626
1772366309515368000,0.689367919921875,-0.0006464403122663498,0.0006613610312342644,-0.0004110559821128845
1772366309525438000,0.69943798828125,-0.002069101668894291,0.0007146238349378109,-0.001660611480474472
1772366309535508000,0.709508056640625,0.0003142985515296459,-0.00026211654767394066,-0.0010421928018331528
1772366309545577700,0.71957763671875,0.00023307232186198235,0.00032963789999485016,-0.00075483787804842
1772366309555647700,0.729647705078125,0.0005077463574707508,0.0008182334713637829,-0.0006159842014312744
1772366309565718000,0.739718017578125,-0.00027469033375382423,0.0012230337597429752,-0.00290523748844862
1772366309575787800,0.749787841796875,-0.0005262475460767746,-0.0012321141548454762,-0.001480909064412117
1772366309585857800,0.75985791015625,-0.0007238537073135376,-0.0011490234173834324,0.003857397474348545
1772366309595928000,0.769927978515625,-0.0006828419864177704,-0.0015418841503560543,-0.002094665542244911
1772366309605997800,0.779997802734375,0.0005312925204634666,-0.0014827619306743145,0.0005509182810783386
1772366309616067800,0.79006787109375,-0.00003793230280280113,0.001784161664545536,0.002064064145088196
1772366309626137900,0.800137939453125,0.0008220025338232517,0.0003439243882894516,-0.0004864446818828583
1772366309636207900,0.810207763671875,-0.002458028495311737,-0.0005066776648163795,0.0016877083107829094
1772366309646278000,0.82027783203125,0.000485297292470932,-0.00351897906512022,0.0006765061989426613
1772366309656348000,0.830347900390625,0.000836648978292942,0.0016753412783145905,0.0009888149797916412
1772366309666418000,0.84041796875,-0.0021868376061320305,0.0013453755527734756,0.0015936186537146568
1772366309676488000,0.850488037109375,-0.00008094869554042816,-0.0005838293582201004,-0.0006504366174340248
1772366309686557700,0.8605576171875,-0.003352375701069832,0.00022284220904111862,0.0012369463220238686
1772366309696628000,0.8706279296875,0.001091834157705307,-0.0012053395621478558,0.000026110559701919556
1772366309706698000,0.880697998046875,-0.000758530106395483,0.00019841268658638,0.001711891032755375
1772366309716767700,0.890767822265625,0.00150395929813385,0.0011336281895637512,-0.001556864008307457
1772366309726837800,0.900837646484375,0.002276275772601366,-0.0004661325365304947,0.0004721982404589653
1772366309736908000,0.910907958984375,0.00030820490792393684,0.00042612478137016296,-0.0006936881691217422
1772366309746977800,0.920977783203125,0.0001193871721625328,-0.0004410003311932087,0.0018096836283802986
1772366309757044200,0.931044189453125,0.0006510657258331776,-0.001414524158462882,-0.0002643801271915436
1772366309767114200,0.9411142578125,0.0018891692161560059,-0.0012118576560169458,-0.0007147202268242836
1772366309777184300,0.951184326171875,0.0004841303452849388,-0.00005371076986193657,0.002357327379286289
1772366309787254000,0.96125390625,0.0010844068601727486,0.0015345984138548374,0.00011334754526615143
1772366309797324300,0.97132421875,0.000562403816729784,0.004426596220582724,-0.0019910400733351707
1772366309807394300,0.981394287109375,0.0003991522826254368,-0.00022647902369499207,0.001552828587591648
1772366309817464000,0.991464111328125,-0.0021598972380161285,0.00029739178717136383,0.0004264712333679199
1772366309827534000,1.0015341796875,0.000052656978368759155,-0.000860284548252821,0.0015372755005955696
1772366309837604400,1.011604248046875,0.0010814969427883625,0.004005879629403353,-0.0002793995663523674
1772366309847674000,1.021674072265625,-0.0011150785721838474,-0.0018943538889288902,-0.000023203901946544647
1772366309857744100,1.031744140625,0.002359253354370594,-0.0011267992667853832,-0.0007897373288869858
1772366309867814400,1.041814453125,-0.0002253446727991104,-0.0006109448149800301,-0.00019239075481891632
1772366309877884200,1.05188427734375,-0.00046297814697027206,0.001743375789374113,-0.002025303430855274
1772366309887954200,1.0619541015625,-0.001940765418112278,0.0014224648475646973,0.00015049893409013748
1772366309898024400,1.0720244140625,0.000593140721321106,0.0025843908078968525,-0.0004075877368450165
1772366309908094200,1.08209423828125,0.0018826434388756752,0.0017233910039067268,0.001218804158270359
1772366309918164200,1.092164306640625,-0.0022035748697817326,0.0031287516467273235,0.0015186062082648277
1772366309928234000,1.10223388671875,-0.00009088870137929916,-0.0005727759562432766,-0.001982918009161949
1772366309938304300,1.11230419921875,-0.0005226824432611465,0.0016145147383213043,0.0014348654076457024
1772366309948374300,1.122374267578125,0.0008621616289019585,-0.0011514443904161453,0.000229518860578537
1772366309958444000,1.132444091796875,-0.00034155789762735367,-0.00032370444387197495,-0.00020564161241054535
1772366309968514300,1.142514404296875,-0.0017546312883496284,0.0012997589074075222,-0.002417130395770073
1772366309978584300,1.152584228515625,0.0003353036008775234,-0.003632210660725832,-0.0003394298255443573
1772366309988654000,1.162654052734375,-0.0011131898500025272,0.0016427123919129372,-0.001977805979549885
1772366309998724000,1.17272412109375,-0.0016249129548668861,-0.0006958111189305782,0.00011822767555713654
1772366310008794400,1.18279443359375,-0.00007042568176984787,-0.003366162534803152,-0.0003891047090291977
1772366310018864000,1.192864013671875,-0.00046407151967287064,0.0019193445332348347,0.0016954727470874786
1772366310028934100,1.20293408203125,-0.0021277479827404022,0.00011318875476717949,0.002369784750044346
1772366310039004400,1.21300439453125,0.0024050334468483925,-0.00012200884521007538,-0.00028466153889894485
1772366310049074200,1.22307421875,-0.00047970283776521683,-0.0009236200712621212,-0.00011075753718614578
1772366310059144200,1.233144287109375,0.001980820670723915,0.0028093168511986732,-0.0011821119114756584
1772366310069214200,1.243214111328125,0.0018958658911287785,-0.00017608655616641045,0.0025010397657752037
1772366310079284200,1.2532841796875,-0.0008943108841776848,0.0017969845794141293,0.0016855383291840553
1772366310089354200,1.263354248046875,0.0006119729951024055,-0.009719323366880417,0.0003584856167435646
1772366310099424000,1.273424072265625,-0.002558552660048008,0.004355036187916994,-0.0007160045206546783
1772366310109494300,1.283494384765625,0.001740588340908289,0.006027235183864832,-0.000052877701818943024
1772366310119564300,1.293564208984375,0.00041634775698184967,0.010033674538135529,-0.002431838773190975
1772366310129634000,1.303634033203125,-0.0008899322710931301,-0.0011840933002531528,-0.002657407894730568
1772366310139704300,1.313704345703125,0.0002855304628610611,-0.0012405561283230782,-0.0008212560787796974
1772366310149774300,1.3237744140625,0.001069564837962389,-0.0005188393406569958,-0.0007285773754119873
1772366310159844000,1.333843994140625,0.0025404924526810646,0.003943979274481535,-0.0009371303021907806
1772366310169914400,1.343914306640625,-0.000995919108390808,0.00005310075357556343,0.0005063023418188095
1772366310179984100,1.353984130859375,-0.0005458388477563858,0.005189767573028803,0.0016895774751901627
1772366310190054100,1.36405419921875,-0.0012417230755090714,0.000601673498749733,-0.00027476996183395386
1772366310200124200,1.374124267578125,0.0007771537639200687,-0.0010285335592925549,0.0011046119034290314
1772366310210194200,1.384194091796875,-0.000860690139234066,-0.0007206723093986511,-0.00033722352236509323
1772366310220264200,1.39426416015625,0.00016518309712409973,-0.0014246650971472263,0.0009034611284732819
1772366310230334200,1.404334228515625,0.00011431658640503883,-0.0016100211068987846,0.0002358071506023407
1772366310240404200,1.414404296875,0.0005626026540994644,0.00048431847244501114,0.0002490552142262459
1772366310250474200,1.42447412109375,-0.00026484159752726555,-0.0006331442855298519,0.00014812126755714417
1772366310260544300,1.434544189453125,-0.00014162342995405197,0.0005657412111759186,0.0008180504664778709
1772366310270614300,1.4446142578125,0.0024107503704726696,-0.0007240273989737034,-0.00010926183313131332
1772366310280684300,1.454684326171875,-0.0012498577125370502,0.00047591235488653183,0.0013280780985951424
1772366310290754300,1.46475439453125,-0.000053565483540296555,-0.0004215729422867298,0.0027850931510329247
1772366310300824000,1.474823974609375,-0.001226527150720358,-0.0007399246096611023,0.00011912081390619278
1772366310310894300,1.484894287109375,0.0016017504967749119,-0.001836347859352827,-0.000511515885591507
1772366310320964000,1.494964111328125,0.0013817804865539074,0.00109135452657938,0.00007822178304195404
1772366310331034000,1.5050341796875,-0.000974052120000124,-0.0037657187785953283,0.001959744840860367
1772366310341104400,1.5151044921875,-0.0003768797032535076,-0.00006086425855755806,-0.0010814378038048744
1772366310351174100,1.525174072265625,-0.0028794524259865284,-0.002231606747955084,0.0004765111953020096
1772366310361244200,1.535244140625,0.00038469675928354263,-0.002404843457043171,0.0010712584480643272
1772366310371314200,1.545314208984375,-0.0024180137552320957,0.001096148043870926,0.0020489050075411797
1772366310381384200,1.55538427734375,-0.0002470784820616245,-0.0016500067431479692,-0.0005069039762020111
1772366310391454200,1.5654541015625,-0.00030034128576517105,-0.0007642391137778759,0.0007032370194792747
1772366310401524200,1.575524169921875,-0.00016611069440841675,0.0000645667314529419,0.00018785987049341202
1772366310411594200,1.58559423828125,0.0016424423083662987,0.0012763049453496933,0.0011082477867603302
1772366310421664300,1.595664306640625,0.001907890196889639,-0.000814441591501236,-0.0005698148161172867
1772366310431734300,1.605734375,0.00012250710278749466,0.0005552219226956367,0.0007114317268133163
1772366310441804300,1.61580419921875,-0.0013153092004358768,0.0012786458246409893,0.00043499656021595
1772366310451874300,1.625874267578125,0.0016431966796517372,0.0010488149709999561,-0.0003189435228705406
1772366310461944000,1.635944091796875,0.0005626562051475048,0.0016608312726020813,0.00202210433781147
1772366310472014000,1.64601416015625,-0.002552975434809923,-0.0022412321995943785,-0.0016645099967718124
1772366310482084400,1.65608447265625,-0.0001687966287136078,0.00042982539162039757,-0.002058090642094612
1772366310492154000,1.666154052734375,0.00028447341173887253,0.001333968248218298,-0.0011116033419966698
1772366310502224100,1.67622412109375,-0.00026670191437005997,0.002603856846690178,0.00047424621880054474
1772366310512294400,1.68629443359375,0.0010829884558916092,0.004428654909133911,-0.0006213784217834473
1772366310522364200,1.6963642578125,-0.0010423790663480759,0.0006900997832417488,0.0013117659837007523
1772366310532434200,1.70643408203125,0.0004601767286658287,0.0014006313867866993,0.0022537261247634888
1772366310542504200,1.716504150390625,0.00017873384058475494,0.002136864233762026,-0.001069110818207264
1772366310552574200,1.72657421875,-0.000012214761227369308,0.0024665636010468006,-0.001544484868645668
1772366310562644200,1.736644287109375,0.00005788542330265045,0.0000073607079684734344,0.00021806731820106506
1772366310572714200,1.74671435546875,0.0003393813967704773,-0.0010363319888710976,0.0009592249989509583
1772366310582784300,1.7567841796875,-0.0009972895495593548,-0.0003357366658747196,0.0012415377423167229
1772366310592854300,1.766854248046875,0.0014664004556834698,0.0050121573731303215,-0.00002932269126176834
1772366310602924000,1.776924072265625,-0.0010045645758509636,-0.0008123330771923065,0.0009243069216609001
1772366310612994300,1.786994384765625,-0.0012266719713807106,-0.0015300551895052195,0.0015533454716205597
1772366310623065300,1.7970654296875,-0.0002874992787837982,0.0011870288290083408,0.0016000261530280113
1772366310633135400,1.80713525390625,0.000983893871307373,0.0017995559610426426,-0.0002780351787805557
1772366310643205000,1.817205078125,-0.0012047253549098969,0.0004009990952908993,-0.00007093232125043869
1772366310653275100,1.827275146484375,-0.0010579852387309074,0.002396239433437586,-0.0006778668612241745
1772366310663345200,1.83734521484375,0.0007211375050246716,-0.0006625643000006676,0.0004450567066669464
1772366310673415200,1.847415283203125,-0.00017501600086688995,0.00040989043191075325,0.0005071088671684265
1772366310683485200,1.857485107421875,-0.0001569674350321293,-0.0006187213584780693,-0.0005103759467601776
1772366310693555200,1.86755517578125,-0.0021700505167245865,-0.000491422601044178,-0.0010403450578451157
1772366310703625200,1.877625244140625,-0.0001887436956167221,-0.0001099766232073307,0.000680040568113327
1772366310713695200,1.8876953125,0.0006610709242522717,0.002111632376909256,0.0007492825388908386
1772366310723765200,1.89776513671875,-0.0008052187040448189,0.0015129167586565018,-0.0011676065623760223
1772366310733835300,1.907835205078125,0.000909857451915741,0.0023933579213917255,0.0006976714357733727
1772366310743905300,1.9179052734375,-0.000019865576177835464,0.0007318346761167049,0.00025290530174970627
1772366310753975600,1.9279755859375,-0.0005980376154184341,-0.0003856276161968708,-0.0009479140862822533
1772366310764045800,1.9380458984375,0.0004850979894399643,0.0009443336166441441,-0.00011633243411779404
1772366310774115600,1.948115478515625,0.00031865062192082405,0.0005576424300670624,-0.0015512434765696526
1772366310784185600,1.958185546875,0.00026831962168216705,0.00022899731993675232,0.0008378764614462852
1772366310794255600,1.968255615234375,0.0017738048918545246,0.00001168297603726387,0.0014517344534397125
1772366310804325600,1.97832568359375,0.0013467036187648773,-0.0006340444087982178,-0.00007917918264865875
1772366310814395600,1.988395751953125,-0.0022682715207338333,-0.0010915757156908512,-0.0005100788548588753
1772366310824465400,1.99846533203125,-0.0013828855007886887,-0.0010000253096222878,-0.00044091325253248215
1772366310834535700,2.00853564453125,0.00004243804141879082,-0.0010008243843913078,0.00047841016203165054
1772366310844605700,2.018605712890625,-0.0001764926128089428,0.0013951212167739868,-0.00021297112107276917
1772366310854675500,2.028675537109375,-0.0010476126335561275,0.0030896910466253757,0.0008379118517041206
1772366310864745700,2.038745849609375,0.00018192268908023834,-0.0011228597722947598,-0.00021829642355442047
1772366310874815700,2.048815673828125,0.000799509696662426,-0.0015601508785039186,0.0015604281798005104
1772366310884885500,2.058885498046875,0.00021358672529459,0.0013443413190543652,0.002460828982293606
1772366310894955500,2.06895556640625,-0.0015235929749906063,-0.000031181611120700836,-0.0015743924304842949
1772366310905025800,2.07902587890625,0.0012938948348164558,0.0005207015201449394,0.0008877785876393318
1772366310915095600,2.089095458984375,-0.0002462114207446575,0.0016450881958007812,0.0004427647218108177
1772366310925165600,2.09916552734375,0.00011406419798731804,-0.0006142919883131981,-0.00029697176069021225
1772366310935235800,2.10923583984375,0.0018198192119598389,-0.0009133652783930302,-0.00012919213622808456
1772366310945305600,2.1193056640625,0.0004066671244800091,0.0010488536208868027,-0.0022917017340660095
1772366310955375600,2.129375732421875,-0.00006444565951824188,-0.0002920478582382202,-0.00007142499089241028
1772366310965445600,2.139445556640625,-0.001870698295533657,0.00080898217856884,0.002639787271618843
1772366310975515600,2.149515625,0.0007178941741585732,-0.0003183339722454548,-0.0014700032770633698
1772366310985585700,2.159585693359375,0.0017250538803637028,0.0010893773287534714,-0.0013539856299757957
1772366310995655400,2.169655517578125,-0.0013237334787845612,-0.0025695394724607468,0.00014564022421836853
1772366311005725700,2.1797255859375,0.0016713622026145458,-0.00002512941136956215,-0.00018461886793375015
1772366311015795700,2.189795654296875,-0.0010184305720031261,-0.0006251395680010319,-0.00026584602892398834
1772366311025866500,2.199866455078125,-0.0017934725619852543,0.002815099898725748,0.0012975828722119331
1772366311035936500,2.2099365234375,0.000988198909908533,0.001403091475367546,-0.0009432015940546989
1772366311046006800,2.2200068359375,0.000286308117210865,-0.010783903300762177,-0.0003939075395464897
1772366311056076500,2.23007666015625,0.0006109476089477539,0.0024693175218999386,-0.0017145685851573944
1772366311066146600,2.240146484375,-0.00011894805356860161,-0.0003661555238068104,0.0003940397873520851
1772366311076216600,2.250216552734375,0.00005335872992873192,0.0016250903718173504,0.0015818094834685326
1772366311086286600,2.26028662109375,0.000027463305741548538,-0.0030334400944411755,0.0010720109567046165
1772366311096356600,2.270356689453125,-0.0011190278455615044,0.001614308450371027,-0.001765587367117405
1772366311106426600,2.280426513671875,-0.0026135477237403393,-0.0001463363878428936,0.0013091713190078735
1772366311116496600,2.29049658203125,0.0005694618448615074,-0.001126113347709179,0.00022499822080135345
1772366311126566700,2.300566650390625,0.0020262794569134712,-0.0008590794168412685,0.00045749731361866
1772366311136636700,2.31063671875,-0.0008992026560008526,-0.003217042423784733,-0.0017518606036901474
1772366311146706700,2.320706787109375,0.001202097162604332,0.001994374208152294,0.00020502693951129913
1772366311156776700,2.330776611328125,-0.0021180659532546997,-0.0006408235058188438,0.0004604235291481018
1772366311166846500,2.340846435546875,0.001482423860579729,0.00003316020593047142,0.0013003377243876457
1772366311176916500,2.35091650390625,0.001268305815756321,0.0016470360569655895,-0.0013843951746821404
1772366311186986800,2.36098681640625,-0.0010127034038305283,0.0011646384373307228,-0.002528841607272625
1772366311197056500,2.371056396484375,0.002544746734201908,-0.0012122327461838722,-0.0018239021301269531
1772366311207126500,2.38112646484375,0.00035248976200819016,0.00156032619997859,-0.0010567083954811096
1772366311217196800,2.39119677734375,-0.0015556653961539268,0.0007403385825455189,0.0008402615785598755
1772366311227266600,2.4012666015625,0.0005623078905045986,0.0004976196214556694,0.00018158089369535446
1772366311237336600,2.411336669921875,-0.002975967712700367,-0.0025279975961893797,-0.0010629147291183472
1772366311247406800,2.42140673828125,-0.001860850490629673,-0.0019166904967278242,-0.00028993748128414154
1772366311257476600,2.4314765625,-0.0009521795436739922,0.00052303122356534,0.0012938445433974266
1772366311267546600,2.441546630859375,-0.0022533158771693707,0.0002843686379492283,-0.0026133013889193535
1772366311277616600,2.45161669921875,-0.0005025542341172695,-0.0013260447885841131,-0.0017419150099158287
1772366311287686700,2.461686767578125,0.0005916059017181396,0.0005272170528769493,-0.0003270125016570091
1772366311297756700,2.471756591796875,-0.0003887033089995384,-0.001663765637204051,-0.0016639195382595062
1772366311307826400,2.481826416015625,0.0002148561179637909,-0.0008341609500348568,0.00006251875311136246
1772366311317896700,2.491896728515625,0.000745091587305069,-0.0001875455491244793,-0.0006730463355779648
1772366311327966700,2.501966796875,0.0010356833226978779,-0.002421801909804344,-0.002087261527776718
1772366311338036500,2.512036376953125,-0.0005568871274590492,-0.00026277732104063034,-0.0010254597291350365
1772366311348107500,2.522107421875,-0.0011596051044762135,0.0005186949856579304,0.00030205119401216507
1772366311358177500,2.532177490234375,0.00040153972804546356,-0.0006552268750965595,-0.0021680304780602455
1772366311368247600,2.54224755859375,-0.001512708142399788,-0.001193795818835497,-0.0026930999010801315
1772366311378317600,2.552317626953125,-0.0008546411991119385,0.0008251466788351536,-0.0008360780775547028
1772366311388387600,2.5623876953125,-0.00280274311080575,-0.0010863151401281357,-0.0000722324475646019
1772366311398457600,2.57245751953125,0.0008559073321521282,-0.0029603817965835333,-0.00039873551577329636
1772366311408527600,2.582527587890625,0.0028326078318059444,-0.0007088445127010345,-0.0012666704133152962
1772366311418597600,2.59259765625,-0.0007030046544969082,0.0021516564302146435,0.0009179208427667618
1772366311428667600,2.602667724609375,0.0006701918318867683,-0.00037273112684488297,-0.0021271714940667152
1772366311438737700,2.612737548828125,0.00010187318548560143,-0.002206583973020315,-0.0007085055112838745
1772366311448807700,2.6228076171875,0.001173725351691246,-0.0008029784075915813,0.00005878973752260208
1772366311458877400,2.63287744140625,-0.0016337791457772255,-0.004139120224863291,-0.0009785117581486702
1772366311468947700,2.64294775390625,0.0009700548835098743,-0.001753464573994279,-0.0020518479868769646
1772366311479017700,2.653017822265625,0.0008893609046936035,0.0011970512568950653,-0.0014800671488046646
1772366311489087500,2.66308740234375,0.0011860947124660015,0.00017788633704185486,-0.00026790983974933624
1772366311499157800,2.67315771484375,-0.0007468275725841522,-0.002216028980910778,-0.0024402495473623276
1772366311509227500,2.6832275390625,0.001944142859429121,-0.001657289918512106,-0.0006409501656889915
1772366311519297500,2.693297607421875,0.00037127966061234474,-0.0033159065060317516,-0.0010540066286921501
1772366311529367800,2.703367919921875,0.00025153858587145805,0.0010181558318436146,-0.0009284131228923798
1772366311539437600,2.7134375,0.003212441224604845,0.0012016473338007927,-0.0014328164979815483
1772366311549507600,2.723507568359375,-0.001533382572233677,-0.0013013931456953287,-0.00028513651341199875
1772366311559577600,2.73357763671875,-0.00006944267079234123,-0.0015330882743000984,-0.00006515905261039734
1772366311569647600,2.743647705078125,-0.0009957128204405308,-0.002030319534242153,0.0014168396592140198
1772366311579717600,2.753717529296875,0.0009957989677786827,-0.001030302606523037,0.0009222906082868576
1772366311589787600,2.76378759765625,0.0020038681104779243,-0.00013333279639482498,0.0018622661009430885
1772366311599857700,2.773857666015625,0.0003479141741991043,-0.003784526837989688,0.0005828831344842911
1772366311609927700,2.783927734375,0.004150514490902424,-0.002750988584011793,0.0021270085126161575
1772366311619997700,2.793997802734375,0.0019030729308724403,-0.0008750581182539463,0.00147906132042408
1772366311630067700,2.804067626953125,0.0010818149894475937,-0.0003710729070007801,0.0007041031494736671
1772366311640138800,2.814138671875,0.0009033833630383015,-0.0032030786387622356,-0.0004072338342666626
1772366311650208800,2.824208740234375,0.0004551112651824951,-0.00009353319182991982,-0.0014963187277317047
1772366311660278500,2.834278564453125,0.0019595306366682053,-0.0007944772951304913,-0.00021587032824754715
1772366311670348500,2.8443486328125,0.0006917747668921947,0.00035833893343806267,0.0003426680341362953
1772366311680418800,2.854418701171875,-0.00027149077504873276,-0.0018046803306788206,-0.0004616072401404381
1772366311690488600,2.864488525390625,-0.0004137996584177017,-0.0020643682219088078,0.001348285935819149
1772366311700558600,2.87455859375,0.001067983452230692,0.0024909689091145992,0.0016401680186390877
1772366311710628600,2.884628662109375,-0.0003588269464671612,-0.00016356678679585457,-0.0010751700028777122
1772366311720698600,2.89469873046875,0.0004097609780728817,0.0013877246528863907,0.0002817101776599884
1772366311730768600,2.9047685546875,-0.0020696152932941914,0.0003545847721397877,0.00026725325733423233
1772366311740838400,2.91483837890625,0.001080105546861887,-0.0020859360229223967,-0.0027631577104330063
1772366311750908700,2.92490869140625,-0.00044382549822330475,0.00011460762470960617,-0.0008976692333817482
1772366311760978700,2.934978759765625,0.0007388843223452568,0.00005362136289477348,-0.0013261716812849045
1772366311771048400,2.94504833984375,-0.00022020377218723297,-0.0009724781848490238,0.0010371804237365723
1772366311781118700,2.95511865234375,0.0016165790148079395,0.0026922980323433876,0.0026483936235308647
1772366311791188700,2.965188720703125,0.00045014964416623116,0.0011046850122511387,0.0005352310836315155
1772366311801258500,2.975258544921875,-0.0007788995280861855,0.0006860359571874142,-0.0019790595397353172
1772366311811328800,2.985328857421875,-0.000161775853484869,-0.0009008888155221939,0.003065011464059353
1772366311821398800,2.995398681640625,-0.0004446031525731087,0.00005412101745605469,0.0017853621393442154
1772366311831468500,3.005468505859375,0.0005409829318523407,-0.0020188619382679462,0.0008198535069823265
1772366311841538600,3.01553857421875,-0.000883542001247406,-0.002872138749808073,0.0011671297252178192
1772366311851608600,3.025608642578125,-0.0007647550664842129,-0.0015343974810093641,-0.001402469351887703
1772366311861678600,3.0356787109375,0.0007929275743663311,-0.0024601120967417955,0.0004673358052968979
1772366311871748600,3.04574853515625,0.00059549231082201,0.0001629609614610672,-0.0007778964936733246
1772366311881818600,3.055818603515625,-0.00010358728468418121,-0.0003062877804040909,0.0023214910179376602
1772366311891888600,3.065888671875,0.0007371082901954651,-0.0007799630984663963,-0.0004144711419939995
1772366311901958700,3.075958740234375,0.0015565631911158562,-0.0009812978096306324,-0.0001438939943909645
1772366311912028700,3.086028564453125,-0.0001837192103266716,-0.0016599742230027914,0.0016332650557160378
1772366311922099700,3.096099609375,0.0012586484663188457,-0.0030109956860542297,-0.0008227014914155006
1772366311932169700,3.106169677734375,0.0010900860652327538,0.0005820835940539837,-0.0007580714300274849
1772366311942239500,3.116239501953125,-0.00015547452494502068,0.0015698503702878952,0.0018188031390309334
1772366311952309500,3.1263095703125,0.001699997577816248,-0.00003736792132258415,0.00012346263974905014
1772366311962379800,3.1363798828125,-0.00022866344079375267,-0.0007356484420597553,0.0007506376132369041
1772366311972449500,3.146449462890625,0.0015313709154725075,-0.0007874704897403717,-0.0013825735077261925
1772366311982519600,3.15651953125,0.000306849367916584,-0.0017992053180932999,-0.0006645852699875832
1772366311992589800,3.16658984375,-0.00041444599628448486,-0.0003283889964222908,0.0018730228766798973
1772366312002659600,3.17665966796875,-0.0016538817435503006,-0.0011201470624655485,-0.0005690958350896835
1772366312012729600,3.1867294921875,-0.0018574874848127365,-0.00033136550337076187,0.0006648972630500793
1772366312022799600,3.196799560546875,0.0003113914281129837,0.0027336664497852325,0.0007772818207740784
1772366312032869600,3.20686962890625,0.00003248872235417366,-0.00108610768802464,0.0002959761768579483
1772366312042939600,3.216939697265625,0.00004420662298798561,0.000054790638387203217,0.0005553681403398514
1772366312053009400,3.227009521484375,0.0007095616310834885,-0.0022011883556842804,0.0005737366154789925
1772366312063079700,3.23707958984375,0.0001457706093788147,0.00044572725892066956,0.0006285971030592918
1772366312073149700,3.247149658203125,-0.0011537792161107063,-0.0005157617852091789,-0.0003716805949807167
1772366312083219500,3.257219482421875,-0.0005630897358059883,-0.0003354656510055065,-0.00016049202531576157
1772366312093289700,3.267289794921875,0.0006673764437437057,-0.002973583061248064,-0.0006836224347352982
1772366312103359700,3.27735986328125,-0.0005805804394185543,-0.0016681014094501734,0.00006099790334701538
1772366312113429500,3.287429443359375,0.0023348359391093254,0.0007252232171595097,-0.0005976604297757149
1772366312123499500,3.29749951171875,-0.0005136812105774879,0.0029460331425070763,-0.0007710326462984085
1772366312133569800,3.30756982421875,0.0003934423439204693,0.0007939217612147331,0.00036267656832933426
1772366312143639600,3.3176396484375,-0.0009929994121193886,0.0015318836085498333,-0.00021203327924013138
1772366312153709600,3.32770947265625,-0.0004086419939994812,0.0034258756786584854,0.00018831994384527206
1772366312163779800,3.33777978515625,-0.00038067903369665146,0.0011595254763960838,0.0017534596845507622
1772366312173849600,3.347849609375,0.00044963276013731956,-0.001300496980547905,0.0013597644865512848
1772366312183919600,3.357919677734375,-0.0008582454174757004,-0.0004845042712986469,0.001035924069583416
1772366312193989600,3.36798974609375,-0.0009656599722802639,-0.002130903070792556,0.00215054489672184
1772366312204059600,3.3780595703125,-0.00010252930223941803,-0.0004925266839563847,0.0015406813472509384
1772366312214129700,3.388129638671875,-0.0015009921044111252,0.0026125400327146053,-0.0006420817226171494
1772366312224200700,3.39820068359375,0.0007080999203026295,-0.00017951801419258118,-0.00052596814930439
1772366312234270500,3.4082705078125,0.0006519597955048084,-0.00036500487476587296,0.0008312314748764038
1772366312244340700,3.4183408203125,-0.000748596154153347,0.0012014666572213173,-0.000013257376849651337
1772366312254410800,3.42841064453125,-0.001093410886824131,-0.0025298974942415953,0.0008635120466351509
1772366312264480500,3.43848046875,-0.0014172513037919998,-0.0026550660841166973,-0.0020031146705150604
1772366312274550800,3.44855078125,0.0011292621493339539,-0.002011725213378668,0.00024239905178546906
1772366312284620500,3.45862060546875,0.0005960972048342228,-0.0007549794390797615,-0.0005024876445531845
1772366312294690600,3.468690673828125,0.0004840879701077938,0.0007110768929123878,-0.0009764693677425385
1772366312304760600,3.478760498046875,0.0003282930701971054,0.0027236277237534523,0.000728219747543335
1772366312314830600,3.48883056640625,-0.001039688941091299,0.001097280066460371,0.001657775603234768
1772366312324900600,3.498900634765625,0.000974725466221571,-0.0006574769504368305,0.0017965268343687057
1772366312334970600,3.508970703125,0.00009537208825349808,0.0009559295140206814,0.0010687736794352531
1772366312345040600,3.51904052734375,0.0016131075099110603,0.0008017322979867458,0.00086983572691679
1772366312355110700,3.529110595703125,-0.0011379537172615528,-0.0042265718802809715,-0.0014514727517962456
1772366312365180700,3.5391806640625,0.0006594136357307434,0.0019524944946169853,-0.002766542136669159
1772366312375250700,3.549250732421875,-0.0001382194459438324,-0.00009859958663582802,0.0004389053210616112
1772366312385320700,3.55932080078125,0.00026871170848608017,0.0014026239514350891,-0.0031291982159018517
1772366312395390500,3.569390380859375,0.0014623175375163555,0.0008335532620549202,0.00029683858156204224
1772366312405460500,3.57946044921875,0.0005850722081959248,-0.0032485397532582283,0.0010353336110711098
1772366312415530800,3.58953076171875,-0.00042744679376482964,-0.0021687091793864965,0.0002618171274662018
1772366312425600500,3.5996005859375,-0.0011749961413443089,-0.0015932000242173672,-0.0007387325167655945
1772366312435670500,3.60967041015625,0.0011815950274467468,0.0005307616665959358,0.000022345222532749176
1772366312445740800,3.61974072265625,0.0005730628035962582,-0.003985426854342222,0.0006343396380543709
1772366312455810600,3.629810546875,-0.00006013549864292145,-0.0010885423980653286,0.001216614618897438
1772366312465880600,3.639880615234375,0.0012970115058124065,-0.00437861168757081,-0.00013973284512758255
1772366312475950600,3.64995068359375,0.0014562755823135376,-0.002914110431447625,0.0030079754069447517
1772366312486020600,3.6600205078125,-0.0020556352101266384,0.0007754326798021793,-0.0027106311172246933
1772366312496090600,3.670090576171875,-0.0009988448582589626,-0.0015460795257240534,0.0017374735325574875
1772366312506160600,3.68016064453125,0.0016440763138234615,0.0021064458414912224,0.0007920516654849052
1772366312516230700,3.690230712890625,-0.0003572688437998295,0.00021021999418735504,-0.000018722377717494965
1772366312526300700,3.70030078125,0.0014550122432410717,0.0016206302680075169,0.0005314871668815613
1772366312536370400,3.710370361328125,0.0009196070022881031,0.0004938133060932159,0.0037201885133981705
1772366312546440700,3.720440673828125,-0.0005374085158109665,0.00047437241300940514,0.0010074935853481293
1772366312556510700,3.7305107421875,0.0004775463603436947,0.00020225625485181808,0.0005914196372032166
1772366312566580500,3.74058056640625,-0.0016431286931037903,-0.0006374386139214039,-0.0003185821697115898
1772366312576650500,3.750650390625,0.0006935582496225834,0.000908298883587122,-0.002154211513698101
1772366312586720800,3.760720703125,-0.0001493324525654316,-0.0010387380607426167,-0.001003991812467575
1772366312596790500,3.77079052734375,0.00048145512118935585,0.00022865738719701767,0.000009605661034584045
1772366312606861600,3.780861572265625,-0.0008874097838997841,0.00034663546830415726,0.001152900978922844
1772366312616931600,3.790931640625,-0.00010538753122091293,-0.0016330047510564327,-0.0006614001467823982
1772366312627001600,3.801001708984375,-0.0001221657730638981,-0.0029946789145469666,0.0007354281842708588
1772366312637071600,3.811071533203125,-0.0012640813365578651,-0.0030860023107379675,-0.00015059299767017365
1772366312647141600,3.8211416015625,-0.0026963287964463234,0.0016456358134746552,0.0007128035649657249
1772366312657211600,3.831211669921875,-0.000367684755474329,0.0025393464602530003,0.0018718242645263672
1772366312667281700,3.84128173828125,0.0011899983510375023,-0.00025697285309433937,-0.000895199365913868
1772366312677351700,3.8513515625,-0.002147356513887644,-0.0020832442678511143,0.001650436781346798
1772366312687421400,3.86142138671875,-0.0001372024416923523,-0.0016933574806898832,-0.0003456026315689087
1772366312697491700,3.87149169921875,-0.0018494022078812122,-0.001051013357937336,0.0007412964478135109
1772366312707561700,3.881561767578125,0.0017253588885068893,-0.0003418135456740856,0.0003442186862230301
1772366312717631500,3.891631591796875,0.000808284617960453,0.0003274134360253811,-0.002031402662396431
1772366312727701800,3.90170166015625,-0.0005786898545920849,0.00022141961380839348,0.0001441342756152153
1772366312737771500,3.911771484375,0.0014599747955799103,0.0026475791819393635,-0.0005064466968178749
1772366312747841500,3.921841552734375,-0.0008415286429226398,0.0004523354582488537,0.0017796112224459648
1772366312757915100,3.9319150390625,-0.0002580564469099045,-0.0005817348137497902,-0.0006029410287737846
1772366312767985400,3.9419853515625,-0.0010958868078887463,-0.00004564039409160614,0.0005656545981764793
1772366312778055200,3.95205517578125,-0.0012450837530195713,-0.0024277064949274063,-0.0012006014585494995
1772366312788125200,3.962125244140625,-0.0008570612408220768,0.0011406629346311092,0.001997854560613632
1772366312798195500,3.972195556640625,0.00006185006350278854,0.001854931004345417,0.00083212461322546
1772366312808265200,3.98226513671875,0.0003779674880206585,0.001653862651437521,-0.0009210342541337013
1772366312818333200,3.992333251953125,-0.0007758187130093575,0.0008653504773974419,-0.0018556974828243256
1772366312828403200,4.0024033203125,0.0013595037162303925,-0.0014990037307143211,0.0024591563269495964
1772366312838473200,4.01247314453125,-0.000014390796422958374,0.0006804182194173336,0.000024431385099887848
1772366312848543200,4.022543212890625,-0.00006286054849624634,-0.0005606147460639477,-0.00016598496586084366
1772366312858613200,4.03261328125,0.0005007889121770859,0.001728706993162632,-0.00021034572273492813
1772366312868683300,4.042683349609375,-0.0007282602600753307,0.0010131155140697956,-0.0023336848244071007
1772366312878753300,4.052753173828125,-0.0009400080889463425,0.00382649851962924,0.0007983222603797913
1772366312888823300,4.0628232421875,-0.0006558485329151154,-0.0018737316131591797,0.0015325555577874184
1772366312898893300,4.072893310546875,0.00023184018209576607,0.003129085525870323,-0.0011090310290455818
1772366312908963300,4.08296337890625,-0.0006288937292993069,0.0008893669582903385,-0.0009188810363411903
1772366312919033300,4.093033447265625,-0.00006592134013772011,0.0033242013305425644,0.00018722284585237503
1772366312929103000,4.10310302734375,0.00014473497867584229,0.0004980545490980148,0.00007829908281564713
1772366312939173000,4.113173095703125,-0.000010682269930839539,-0.00024517951533198357,-0.0016745813190937042
1772366312949243400,4.123243408203125,-0.00007859291508793831,0.0010379315353929996,-0.0010415483266115189
1772366312959313200,4.133313232421875,-0.0008021723479032516,0.0014657513238489628,0.0019482532516121864
1772366312969383200,4.143383056640625,-0.0009747445583343506,0.0028077182359993458,0.0009487690404057503
1772366312979453400,4.153453369140625,0.0003509102389216423,0.002296924125403166,0.0013907942920923233
1772366312989523200,4.163523193359375,0.0007956577464938164,0.0004036827012896538,0.00024270545691251755
1772366312999593200,4.17359326171875,-0.0005084509029984474,0.00020611239597201347,0.000649280846118927
1772366313009663200,4.183663330078125,-0.0011164499446749687,0.0029670116491615772,-0.0018908428028225899
1772366313019733200,4.193733154296875,-0.00043852999806404114,-0.0013627714943140745,-0.0011913180351257324
1772366313029803300,4.20380322265625,0.0000954335555434227,0.001565640326589346,-0.0006451038643717766
1772366313039873300,4.213873291015625,0.0012170011177659035,-0.0005228766240179539,0.0007140375673770905
1772366313049943300,4.223943359375,0.00009261444211006165,0.0013101771473884583,0.0005646347999572754
1772366313060013300,4.234013427734375,0.001209428533911705,-0.00039648404344916344,-0.0009835576638579369
1772366313070083000,4.2440830078125,0.00031966622918844223,-0.00034668296575546265,0.00036959443241357803
1772366313080153300,4.2541533203125,-0.000027881469577550888,0.0021143550984561443,0.0021013356745243073
1772366313090223400,4.264223388671875,0.002318895887583494,0.0007521482184529305,0.0015668394044041634
1772366313100293000,4.274293212890625,-0.0009733769111335278,0.00044785672798752785,0.0017765825614333153
1772366313110363100,4.284363037109375,-0.00045992014929652214,0.0018095308914780617,0.0013424865901470184
1772366313120433400,4.294433349609375,-0.0009395205415785313,0.0017548976466059685,-0.0009688436985015869
1772366313130503200,4.304503173828125,-0.001508904155343771,0.0004637972451746464,0.002386205829679966
1772366313140573200,4.3145732421875,-0.0016933376900851727,-0.0031429578084498644,-0.00016963202506303787
1772366313150644200,4.324644287109375,0.0004273378290235996,0.0015711034648120403,0.0028823502361774445
1772366313160714200,4.33471435546875,0.000347040593624115,-0.001012988854199648,0.0009403042495250702
1772366313170784300,4.3447841796875,0.003013131208717823,0.003092806786298752,-0.001474650576710701
1772366313180854300,4.354854248046875,0.0003119274042546749,0.0013780486769974232,-0.0005625896155834198
1772366313190924300,4.36492431640625,0.0005446877330541611,-0.002239056397229433,0.0002672513946890831
1772366313200994300,4.374994384765625,-0.001986356917768717,-0.0017392958980053663,0.0017664982005953789
1772366313211064300,4.385064208984375,-0.0005815397016704082,0.0010008304379880428,-0.0007880060002207756
1772366313221134000,4.395134033203125,-0.0006313296034932137,0.0027412916533648968,0.00027783215045928955
1772366313231204400,4.405204345703125,-0.0013471869751811028,0.00044298358261585236,0.00124455988407135
1772366313241274400,4.4152744140625,0.00043658073991537094,0.0016258228570222855,0.00036663375794887543
1772366313251344100,4.42534423828125,0.0007729381322860718,0.00002979068085551262,-0.0025809528306126595
1772366313261414400,4.435414306640625,-0.0006910329684615135,0.004083463456481695,-0.00028350111097097397
1772366313271484200,4.445484130859375,-0.0007056808099150658,0.0017294958233833313,-0.0005322406068444252
1772366313281554200,4.45555419921875,-0.00009771063923835754,0.0007638474926352501,0.0008687768131494522
1772366313291624200,4.465624267578125,0.00012199999764561653,0.0012152534909546375,0.00033028610050678253
1772366313301694200,4.475694091796875,-0.002005362883210182,0.0021716938354074955,0.000655551441013813
1772366313311764200,4.48576416015625,0.0008612633682787418,0.00024649500846862793,-0.0015197182074189186
1772366313321834200,4.495834228515625,0.0000924910418689251,0.0019452739506959915,0.0009811585769057274
1772366313331904300,4.505904296875,0.002811578568071127,0.00029917387291789055,0.0030408473685383797
1772366313341974300,4.515974365234375,0.0009543108753859997,-0.0007840101607143879,-0.0011386815458536148
1772366313352044300,4.526044189453125,0.00191944045946002,0.0005590217188000679,-0.0005328124389052391
1772366313362114300,4.5361142578125,-0.001903248019516468,0.000633604358881712,-0.0014634625986218452
1772366313372184300,4.546184326171875,-0.0015336014330387115,-0.0018750934395939112,-0.000029882416129112244
1772366313382254300,4.55625439453125,0.0009012222290039062,-0.0006380248814821243,0.0009439690038561821
1772366313392324000,4.566323974609375,-0.0019150711596012115,-0.0011786464601755142,0.0010004276409745216
1772366313402394400,4.576394287109375,0.0009688534773886204,-0.0006626560352742672,-0.00008162297308444977
1772366313412466200,4.586466064453125,-0.0009752539917826653,0.0024817385710775852,0.0019788648933172226
1772366313422536200,4.5965361328125,0.0008408175781369209,-0.0015577401500195265,-0.0017374297603964806
1772366313432606200,4.606606201171875,0.0007531996816396713,-0.0007294970564544201,0.0009124148637056351
1772366313442676200,4.61667626953125,0.000510083045810461,0.00038552144542336464,0.0016572186723351479
1772366313452746200,4.626746337890625,0.0017705569043755531,-0.0016645798459649086,-0.0007995478808879852
1772366313462816300,4.636816162109375,-0.000042854342609643936,-0.001802841667085886,0.0019701076671481133
1772366313472886300,4.64688623046875,0.002891683019697666,0.0007186392322182655,0.00048672687262296677
1772366313482956300,4.656956298828125,-0.0011802264489233494,0.0010767895728349686,-0.00014855340123176575
1772366313493026300,4.6670263671875,0.0008568251505494118,0.0005974206142127514,-0.0003387033939361572
1772366313503096300,4.677096435546875,-0.000694389920681715,-0.00024931132793426514,0.0014927657321095467
1772366313513166000,4.687166015625,-0.0014219661243259907,-0.0019579955842345953,0.00024427566677331924
1772366313523236400,4.697236328125,-0.0021234797313809395,0.0035768216475844383,-0.0002545667812228203
1772366313533306400,4.707306396484375,0.000033414922654628754,0.0004294980317354202,0.0003920486196875572
1772366313543376100,4.717376220703125,0.001579472329467535,-0.0007122284732758999,-0.002131405286490917
1772366313553446400,4.7274462890625,0.0008705388754606247,0.001781289465725422,-0.0013444414362311363
1772366313563516200,4.73751611328125,0.001209112349897623,0.0008338936604559422,0.0023213867098093033
1772366313573586200,4.747586181640625,-0.0008492451161146164,-0.0007355073466897011,-0.0009021041914820671
1772366313583656200,4.75765625,0.00011677155271172523,0.0007717348635196686,-0.000525427982211113
1772366313593727200,4.767727294921875,-0.0016457084566354752,0.0010556280612945557,0.0012333234772086143
1772366313603797200,4.77779736328125,0.0017943046987056732,0.002272535115480423,0.0017508119344711304
1772366313613867300,4.7878671875,-0.0012795161455869675,0.001734310295432806,-0.0005616107955574989
1772366313623937300,4.797937255859375,-0.000570863950997591,0.0013370923697948456,0.00046727992594242096
1772366313634007300,4.80800732421875,-0.00009815255180001259,-0.0009857169352471828,0.00011494383215904236
1772366313644077300,4.818077392578125,-0.0021519195288419724,0.0006341105327010155,-0.0026984605938196182
1772366313654147000,4.82814697265625,0.00013067619875073433,0.001566216815263033,0.0005956031382083893
1772366313664217300,4.83821728515625,0.0006450433284044266,0.0005656639114022255,-0.0013066288083791733
1772366313674287400,4.848287353515625,-0.002179771661758423,0.002263961359858513,-0.004813212435692549
1772366313684357000,4.858357177734375,-0.0009397999383509159,0.00003165891394019127,0.00113704614341259
1772366313694427100,4.86842724609375,-0.000989601481705904,-0.002741757081821561,-0.0021538222208619118
1772366313704497400,4.878497314453125,0.0008066240698099136,0.0007529282011091709,-0.00045672617852687836
1772366313714567200,4.888567138671875,0.0008417777717113495,-0.0004396354779601097,0.0009121391922235489
1772366313724637200,4.89863720703125,0.0018725809641182423,-0.0007132361643016338,0.001374715007841587
1772366313734707500,4.90870751953125,-0.0022377418354153633,-0.0012836852110922337,-0.0003366321325302124
1772366313744777200,4.918777099609375,-0.00010841386392712593,-0.0019675304647535086,0.0024295002222061157
1772366313754843400,4.928843505859375,0.00047268765047192574,0.0019182879477739334,0.00005742255598306656
1772366313764913700,4.93891357421875,0.00017191516235470772,-0.0015218972694128752,-0.0011078128591179848
1772366313774983400,4.9489833984375,-0.0013029430992901325,-0.0019125828985124826,-0.0032782889902591705
1772366313785053400,4.959053466796875,0.000584564171731472,-0.0012222712393850088,0.001211456023156643
1772366313795123500,4.96912353515625,0.0003816313110291958,-0.0030356175266206264,0.001748615875840187
1772366313805193500,4.979193359375,-0.0022449279204010963,-0.00007979618385434151,-0.0007880693301558495
1772366313815263500,4.989263427734375,-0.00009309407323598862,-0.000028131064027547836,0.0002540256828069687
1772366313825333200,4.999333251953125,0.0018643643707036972,-0.0017603791784495115,-0.0019465340301394463
1772366313835403500,5.009403564453125,0.0002685985527932644,-0.0014967264141887426,0.0020543327555060387
1772366313845473500,5.0194736328125,0.0013933675363659859,-0.00038745952770113945,0.0005539925768971443
1772366313855543300,5.029543212890625,-0.0002652490511536598,-0.00046362588182091713,-0.00039675645530223846
1772366313865613600,5.039613525390625,0.000667815562337637,-0.0013834931887686253,-0.0007126610726118088
1772366313875683600,5.04968359375,-0.0021977457217872143,0.00252922298386693,-0.002401372417807579
1772366313885753300,5.05975341796875,0.0011756988242268562,-0.0030159878078848124,-0.002052074298262596
1772366313895823400,5.0698232421875,0.00018713343888521194,-0.00040768785402178764,-0.0003106324002146721
1772366313905893600,5.0798935546875,0.0004465105012059212,-0.0005308240652084351,-0.001116754487156868
1772366313915963400,5.08996337890625,0.0006086970679461956,0.00003642914816737175,-0.0005239341408014297
1772366313926033400,5.100033447265625,0.0017014439217746258,-0.0007611028850078583,0.0010140473023056984
1772366313936103400,5.110103515625,0.00048730894923210144,-0.002726515755057335,-0.000008606351912021637
1772366313946173400,5.12017333984375,-0.0020930892787873745,-0.0013444055803120136,-0.001206323504447937
1772366313956243500,5.130243408203125,0.0025314902886748314,-0.0028562822844833136,-0.0008398732170462608
1772366313966313500,5.1403134765625,-0.0005805240944027901,0.001267608255147934,-0.00037992000579833984
1772366313976383500,5.150383544921875,0.0003720889799296856,0.0011339173652231693,-0.0007857857272028923
1772366313986453500,5.16045361328125,0.0005570263601839542,-0.004222380928695202,0.0006146607920527458
1772366313996523300,5.170523193359375,0.00032826047390699387,0.0001638457179069519,0.00099922064691782
1772366314006593500,5.180593505859375,-0.0006669196300208569,-0.002795505104586482,0.0017418721690773964
1772366314016663600,5.19066357421875,-0.0005958131514489651,0.001635462511330843,-0.0015601813793182373
1772366314026733300,5.2007333984375,-0.0001240014098584652,-0.0018754955381155014,0.0006101960316300392
1772366314036803600,5.210803466796875,0.001362574752420187,-0.0015178329776972532,-0.00009101349860429764
1772366314046873600,5.22087353515625,-0.00015057437121868134,-0.000054951757192611694,-0.0006907964125275612
1772366314056943400,5.230943359375,-0.0004493813030421734,0.0017426819540560246,0.0007795346900820732
1772366314067013400,5.241013427734375,0.0010207737796008587,-0.0009240522049367428,-0.00010324083268642426
1772366314077083400,5.25108349609375,-0.00009455811232328415,-0.0003022043965756893,0.0007196757942438126
1772366314087153400,5.2611533203125,0.00023659784346818924,-0.0033049280755221844,0.0008286219090223312
1772366314097223400,5.271223388671875,-0.0010928520932793617,-0.0003911638632416725,-0.00048165395855903625
1772366314107293400,5.28129345703125,-0.0022310069762170315,-0.0012249152641743422,0.00093825813382864
1772366314117363500,5.291363525390625,-0.0011343169026076794,-0.001771395793184638,0.0030112620443105698
1772366314127433500,5.30143359375,-0.0033775982446968555,-0.0043664537370204926,0.002109217457473278
1772366314137503500,5.31150341796875,-0.0008934014476835728,-0.0028234184719622135,0.00035179778933525085
1772366314147573500,5.321573486328125,0.00008731987327337265,-0.004971708636730909,-0.0016622021794319153
1772366314157643500,5.3316435546875,0.0014900066889822483,-0.0030454443767666817,-0.0019764555618166924
1772366314167713300,5.34171337890625,0.002013439778238535,0.001084440853446722,-0.000010171905159950256
1772366314177783600,5.351783447265625,0.0003777262754738331,0.0002175820991396904,0.0004753218963742256
1772366314187853600,5.361853515625,0.00032903021201491356,-0.00039396993815898895,-0.0011078575626015663
1772366314197923300,5.37192333984375,-0.0022078966721892357,-0.002507188357412815,0.000988849438726902
1772366314207993600,5.38199365234375,-0.0009106509387493134,-0.004970942623913288,-0.0006177416071295738
1772366314218063400,5.3920634765625,0.0010792631655931473,-0.0008339881896972656,0.00021076761186122894
1772366314228133400,5.40213330078125,0.0011393721215426922,-0.002060229191556573,-0.0005011996254324913
1772366314238203600,5.41220361328125,0.001457353588193655,0.0008956133387982845,0.0010892394930124283
1772366314248273400,5.4222734375,-0.0012991013936698437,0.0003910055384039879,0.0002148328348994255
1772366314258343400,5.432343505859375,-0.0011973683722317219,0.0002770223654806614,-0.0002482915297150612
1772366314268413400,5.442413330078125,-0.0010470724664628506,-0.00024422258138656616,-0.00109084602445364
1772366314278483500,5.4524833984375,0.0008214013651013374,0.0027973735705018044,-0.0021462561562657356
1772366314288553500,5.462553466796875,-0.002112419344484806,0.0016216305084526539,0.00015679839998483658
1772366314298623500,5.47262353515625,-0.000782436691224575,0.0028370972722768784,-0.0006211111322045326
1772366314308693500,5.482693603515625,-0.0010069929994642735,0.0024525467306375504,-0.0018905438482761383
1772366314318763500,5.492763427734375,0.002678555902093649,0.0004876665771007538,0.0002008369192481041
1772366314328833500,5.50283349609375,0.00019728252664208412,-0.0006354772485792637,0.000623614527285099
1772366314338903600,5.512903564453125,-0.0009729103185236454,-0.0005095098167657852,-0.0006355280056595802
1772366314348973600,5.5229736328125,0.0025826282799243927,-0.0021396728698164225,0.0017250394448637962
1772366314359043300,5.533043212890625,-0.0007979879155755043,-0.0018129029776901007,-0.00031440984457731247
1772366314369113300,5.54311328125,0.00005902722477912903,-0.00017969869077205658,-0.0005273576825857162
1772366314379183600,5.55318359375,0.00195945892482996,-0.0009365691803395748,-0.0006812876090407372
1772366314389253400,5.56325341796875,0.00257865060120821,0.002842398826032877,0.003604973666369915
1772366314399323400,5.573323486328125,-0.0008152816444635391,-0.00015152664855122566,0.0017436901107430458
1772366314409393700,5.5833935546875,0.0006896620616316795,-0.00043164147064089775,-0.0009469110518693924
1772366314419463400,5.59346337890625,0.0016031265258789062,0.0019257888197898865,-0.0008140187710523605
1772366314429533400,5.603533447265625,-0.0005179755389690399,-0.0022150869481265545,-0.0009777061641216278
1772366314439603500,5.613603515625,-0.0004918761551380157,-0.0012877744156867266,-0.00016251299530267715
1772366314449673500,5.623673583984375,-0.0014985003508627415,-0.0016895912121981382,0.00041055213660001755
1772366314459743500,5.633743408203125,-0.000014054588973522186,0.000767973717302084,0.002188212238252163
1772366314469813200,5.643813232421875,-0.0002401689998805523,-0.0017118684481829405,-0.0007752217352390289
1772366314479883500,5.653883544921875,-0.00010541314259171486,0.0016290671192109585,0.0010154880583286285
1772366314489953500,5.66395361328125,0.0003258190117776394,-0.0010745630133897066,-0.00012347381561994553
1772366314500023300,5.674023193359375,0.00020144926384091377,-0.003256224561482668,0.00013991352170705795
1772366314510093600,5.684093505859375,0.0030030980706214905,-0.0010257968679070473,-0.0006940672174096107
1772366314520163600,5.69416357421875,-0.00013064313679933548,-0.0013807963114231825,-0.00004478916525840759
1772366314530233300,5.7042333984375,0.003099159337580204,-0.0006360532715916634,0.00033568311482667923
1772366314540303400,5.714303466796875,0.0008581094443798065,-0.0032893605530261993,-0.0017040316015481949
1772366314550373600,5.72437353515625,-0.0006553987041115761,-0.0007526902481913567,-0.0008457209914922714
1772366314560443400,5.734443359375,-0.0031321384012699127,-0.0014805321116000414,0.0006821341812610626
1772366314570513400,5.744513427734375,-0.00023145833984017372,0.0011912798509001732,0.00021070148795843124
1772366314580583700,5.754583740234375,0.0005914587527513504,-0.00012884894385933876,0.0005957940593361855
1772366314590653400,5.7646533203125,0.00047230301424860954,-0.0004445798695087433,-0.0008516870439052582
1772366314600723500,5.774723388671875,-0.0003234492614865303,-0.0020651132799685,0.00014726445078849792
1772366314610793500,5.78479345703125,-0.0005098665133118629,0.0004042242653667927,0.0009583039209246635
1772366314620863500,5.794863525390625,0.0003093220293521881,0.0014463188126683235,-0.0006963182240724564
1772366314630933500,5.80493359375,0.002741335891187191,-0.004348483402282,0.0018429653719067574
1772366314641003300,5.815003173828125,0.0004885680973529816,0.0005019316449761391,0.000060245394706726074
1772366314651073500,5.825073486328125,0.0006380393169820309,-0.00021977070719003677,0.0019117789342999458
1772366314661143600,5.8351435546875,0.0005698627792298794,-0.0019060843624174595,0.0033759847283363342
1772366314671213300,5.84521337890625,0.0002530328929424286,-0.0013803597539663315,-0.0012290896847844124
1772366314681283600,5.85528369140625,0.0002042972482740879,0.0006455066613852978,-0.00006289128214120865
1772366314691353600,5.865353515625,0.00028744107112288475,-0.000257167499512434,0.001474662683904171
1772366314701423400,5.87542333984375,0.000532984733581543,0.0023218379355967045,0.0015481654554605484
1772366314711493400,5.885493408203125,-0.0009304643608629704,-0.000363093800842762,0.002888517454266548
1772366314721563600,5.895563720703125,-0.0027906824834644794,0.0012931260280311108,0.0019931625574827194
1772366314731633400,5.90563330078125,0.0007616081275045872,-0.0004986817948520184,-0.0015705227851867676
1772366314741703400,5.915703369140625,-0.00016437331214547157,-0.0002763080410659313,0.0016116881743073463
1772366314751773400,5.9257734375,-0.001069360412657261,-0.000302119180560112,0.0005394546315073967
1772366314761843700,5.93584375,0.00021774554625153542,-0.0017119965050369501,-0.000145777128636837
1772366314771913500,5.94591357421875,-0.0017725196667015553,0.0017982316203415394,0.0005273772403597832
1772366314781983500,5.9559833984375,0.0013351235538721085,-0.0029073073528707027,-0.0004263008013367653
1772366314792053800,5.9660537109375,0.0007865414954721928,-0.00208379072137177,-0.0004544481635093689
1772366314802123500,5.97612353515625,-0.0022894092835485935,-0.0017887125723063946,0.00043824315071105957
1772366314812193500,5.986193603515625,-0.0007525929249823093,-0.0004970510490238667,0.001516854390501976
1772366314822263600,5.996263671875,0.0005760584026575089,-0.0007298113778233528,0.0005791550502181053
1772366314832333600,6.00633349609375,-0.0003966572694480419,-0.002103571081534028,0.0008077975362539291
1772366314842403600,6.016403564453125,-0.0009609810076653957,0.0015707924030721188,0.0007657194510102272
1772366314852473600,6.0264736328125,-0.000384314451366663,-0.0013885106891393661,0.0024039624258875847
1772366314862543600,6.036543701171875,-0.0014708847738802433,-0.00014747772365808487,0.001195685938000679
1772366314872613600,6.046613525390625,-0.00010606227442622185,-0.0014311333652585745,-0.001441245898604393
1772366314882683400,6.056683349609375,0.00041538476943969727,-0.000915545504540205,0.0005529299378395081
1772366314892753700,6.066753662109375,-0.0005714800208806992,0.0028477986343204975,-0.0015419786795973778
1772366314902823700,6.07682373046875,0.0030112704262137413,0.001917290035635233,-0.00047458335757255554
1772366314912893400,6.0868935546875,0.0003551170229911804,0.000681812409311533,0.0005498044192790985
1772366314922963700,6.096963623046875,0.00029439711943268776,0.003118072170764208,-0.00035274121910333633
1772366314933033700,6.10703369140625,-0.00027390243485569954,0.0014062384143471718,-0.0019132895395159721
1772366314943103500,6.117103515625,0.0009077424183487892,0.001898124348372221,0.00020232610404491425
1772366314953173800,6.127173828125,-0.0006370050832629204,-0.0008646734058856964,-0.0006301682442426682
1772366314963243500,6.137243408203125,-0.00019918149337172508,0.002260546199977398,0.0017789267003536224
1772366314973313500,6.1473134765625,-0.00023664114996790886,0.0008167680352926254,-0.0007247179746627808
1772366314983383600,6.157383544921875,-0.001169812399893999,-0.0004295916296541691,-0.00030846521258354187
1772366314993453600,6.16745361328125,0.0010672062635421753,0.0020348201505839825,-0.0019903825595974922
1772366315003523600,6.177523681640625,0.0009447005577385426,0.00042866775766015053,-0.0008265813812613487
1772366315013593600,6.187593505859375,0.0004845559597015381,0.0013460451737046242,0.0035408437252044678
1772366315023663600,6.19766357421875,0.0003117169253528118,0.0012001041322946548,0.0032055508345365524
1772366315033733600,6.207733642578125,0.0005430933088064194,0.0015477389097213745,0.00040857959538698196
1772366315043803600,6.2178037109375,0.0003958204761147499,-0.0018722922541201115,-0.00022179074585437775
1772366315053873700,6.227873779296875,0.00040903687477111816,0.0037097870372235775,-0.0011360449716448784
1772366315063943700,6.237943603515625,0.0018921513110399246,0.0030911345966160297,0.0013137971982359886
1772366315074013400,6.248013427734375,-0.0012539615854620934,-0.0007657092064619064,-0.002555597573518753
1772366315084083500,6.25808349609375,0.001050738152116537,0.0015957155264914036,0.0018242374062538147
1772366315094153700,6.26815380859375,0.003177677746862173,-0.0015602849889546633,-0.001028822734951973
1772366315104223500,6.278223388671875,-0.0003664572723209858,-0.0010255221277475357,0.0016268817707896233
1772366315114293500,6.28829345703125,0.0007180352695286274,-0.0015089972876012325,-0.0004874132573604584
1772366315124363800,6.29836376953125,-0.0022133062593638897,-0.0013007379602640867,0.00015600677579641342
1772366315134433500,6.30843359375,-0.00021450966596603394,-0.00210966682061553,-0.001122838817536831
1772366315144503600,6.318503662109375,-0.0024856533855199814,0.00021527288481593132,-0.0009401459246873856
1772366315154573600,6.328573486328125,0.0024535292759537697,0.0023936848156154156,-0.00027217529714107513
1772366315164643600,6.3386435546875,-0.0015888828784227371,0.0008482523262500763,0.001995239406824112
1772366315174713600,6.348713623046875,-0.00012721074745059013,-0.0019160339143127203,-0.00008599646389484406
1772366315184783600,6.35878369140625,-0.00021110055968165398,-0.000048891641199588776,0.001190456561744213
1772366315194853600,6.368853515625,-0.0003826478496193886,-0.0014258858282119036,0.0006794007495045662
1772366315204923600,6.378923583984375,0.0012176455929875374,-0.0018685031682252884,0.002905271016061306
1772366315214993400,6.388993408203125,0.0010655857622623444,-0.00031018443405628204,-0.00037727318704128265
1772366315225063700,6.399063720703125,-0.0011325874365866184,-0.0016750541981309652,0.0022701751440763474
1772366315235133700,6.4091337890625,-0.0019486001692712307,0.0011106273159384727,-0.00020549725741147995
1772366315245203500,6.419203369140625,0.001383547205477953,-0.00001722155138850212,-0.0007088342681527138
1772366315255273500,6.4292734375,-0.0009617474861443043,0.0020006555132567883,0.0011227941140532494
1772366315265343700,6.43934375,-0.0002269810065627098,0.0009987740777432919,-0.0018737949430942535
1772366315275413500,6.44941357421875,0.002922238316386938,-0.000972251407802105,0.0005749491974711418
1772366315285483500,6.4594833984375,0.00040368689224123955,-0.0003120535984635353,0.0013243621215224266
1772366315295553800,6.4695537109375,0.0006495495326817036,0.0001392778940498829,0.00006273854523897171
1772366315305623600,6.47962353515625,0.0023483801633119583,-0.000018913764506578445,-0.0014616549015045166
1772366315315693600,6.489693603515625,0.0011428645811975002,-0.0002007284201681614,0.0014706924557685852
1772366315325763600,6.499763671875,0.0007212860509753227,0.0024757483042776585,0.001325284130871296
1772366315335833600,6.50983349609375,0.0022335019893944263,-0.002208790509030223,0.0009543132036924362
1772366315345903600,6.519903564453125,0.000048644840717315674,-0.0014908022712916136,-0.0008987141773104668
1772366315355973400,6.529973388671875,0.0005855564959347248,-0.0004306337796151638,-0.00014211703091859818
1772366315366043600,6.540043701171875,-0.0025109006091952324,-0.00020719459280371666,0.000586523674428463
1772366315376113700,6.55011376953125,-0.0009631696157157421,0.005237494595348835,0.00298151932656765
1772366315386183400,6.560183349609375,-0.0009019165299832821,-0.0014222725294530392,-0.0009839283302426338
1772366315396253700,6.570253662109375,-0.0008832546882331371,-0.0018189398106187582,0.0016460539773106575
1772366315406323700,6.58032373046875,0.0012925476767122746,-0.002184059005230665,-0.00014838390052318573
1772366315416393500,6.5903935546875,0.000036661047488451004,-0.0024711797013878822,-0.0013726428151130676
1772366315426463500,6.60046337890625,-0.0007979734800755978,0.005255715921521187,-0.002664809115231037
1772366315436533800,6.61053369140625,0.0010473169386386871,0.00034109922125935555,-0.0022832732647657394
1772366315446603500,6.620603515625,-0.0004184870049357414,0.0016958494670689106,-0.00009282305836677551
1772366315456673500,6.630673583984375,0.0006743688136339188,0.0013235644437372684,-0.0015675732865929604
1772366315466743600,6.64074365234375,-0.0011363145895302296,-0.0010812701657414436,-0.0013406714424490929
1772366315476813600,6.6508134765625,0.0011362126097083092,-0.0007474613375961781,-0.00020122434943914413
1772366315486883600,6.660883544921875,0.0000693504698574543,-0.0005748881958425045,-0.00015887990593910217
1772366315496953600,6.67095361328125,-0.0007713665254414082,-0.0019854505080729723,0.0007482748478651047
1772366315507023600,6.681023681640625,0.0018859361298382282,-0.00022936193272471428,0.0002555903047323227
1772366315517093600,6.69109375,0.0002493378706276417,0.0025332639925181866,0.0033626165241003036
1772366315527163400,6.701163330078125,0.0012389682233333588,-0.0008183238096535206,0.0003910604864358902
1772366315537233700,6.711233642578125,-0.0018992372788488865,0.0008103670552372932,0.0018934980034828186
1772366315547303700,6.7213037109375,0.0005631214007735252,-0.0006288052536547184,0.0012380937114357948
1772366315557373400,6.73137353515625,-0.0032693417742848396,-0.0007270746864378452,0.0004476429894566536
1772366315567443700,6.741443603515625,-0.0002224193885922432,-0.003237636759877205,-0.0007814057171344757
1772366315577513700,6.751513671875,0.0002228822559118271,-0.0002525895833969116,-0.00016770604997873306
1772366315587583500,6.76158349609375,-0.000557157676666975,-0.00002169329673051834,-0.0004816921427845955
1772366315597653500,6.771653564453125,-0.0007175360806286335,0.0007224404253065586,-0.00038615334779024124
1772366315607723500,6.7817236328125,-0.0018733483739197254,-0.0017100907862186432,0.00030839908868074417
1772366315617793500,6.79179345703125,0.001295747235417366,-0.001274739159271121,-0.0006984490901231766
1772366315627863600,6.801863525390625,-0.0019288086332380772,0.0017223823815584183,0.002932504750788212
1772366315637933600,6.81193359375,-0.0004932768642902374,0.0012316112406551838,0.0007882248610258102
1772366315648003600,6.822003662109375,-0.0008906209841370583,-0.0017021268140524626,-0.000495152547955513
1772366315658073600,6.832073486328125,-0.0009791613556444645,-0.0016781706362962723,0.0004890542477369308
1772366315668143600,6.8421435546875,0.0020864037796854973,-0.0015580619219690561,0.00023765210062265396
1772366315678213600,6.852213623046875,-0.0008683456107974052,0.0009025759063661098,-0.0001913728192448616
1772366315688283600,6.86228369140625,0.0012169093824923038,0.0023979409597814083,-0.000027055852115154266
1772366315698353400,6.872353515625,-0.0019109821878373623,0.0004311390221118927,-0.00020375940948724747
1772366315708423700,6.882423583984375,0.0003433837555348873,-0.00028924597427248955,0.0006178263574838638
1772366315718493700,6.89249365234375,-0.0009617707692086697,0.002102223224937916,-0.0019228523597121239
1772366315728563500,6.9025634765625,0.0007900567725300789,0.0011789053678512573,-0.0023731933906674385
1772366315738633700,6.9126337890625,-0.000996740534901619,0.00014044437557458878,0.0014788322150707245
1772366315748703500,6.922703369140625,-0.0008601201698184013,-0.000715229194611311,0.0010023927316069603
1772366315758773800,6.932773681640625,0.0013610180467367172,0.0009462074376642704,0.0015877904370427132
1772366315768843800,6.94284375,0.00029122596606612206,0.0025289240293204784,0.00046660006046295166
1772366315778913800,6.952913818359375,0.00046999286860227585,-0.00020774593576788902,-0.0011985180899500847
1772366315788983800,6.96298388671875,-0.0009297640062868595,0.0018641934730112553,-0.00035855732858181
1772366315799053600,6.973053466796875,0.001995170023292303,0.0008069067262113094,0.00015899166464805603
1772366315809123800,6.983123779296875,-0.0002293684519827366,0.0006559053435921669,-0.0021068258211016655
1772366315819193600,6.993193603515625,-0.0012360862456262112,0.0025252806954085827,-0.0008000042289495468
1772366315829263600,7.003263671875,-0.0016776383854448795,0.0026523135602474213,0.0008506234735250473
1772366315839334000,7.013333984375,0.0005432330071926117,0.0006051063537597656,-0.0001451391726732254
1772366315849403600,7.023403564453125,0.0010665440931916237,-0.00008731568232178688,0.0016940394416451454
1772366315859473700,7.0334736328125,0.0011154287494719028,0.002936804201453924,-0.00014463532716035843
1772366315869543700,7.043543701171875,0.00023951521143317223,-0.001751957694068551,-0.0023103179410099983
1772366315879613700,7.05361376953125,-0.0007336647249758244,-0.0023924033157527447,0.0002430332824587822
1772366315889683700,7.06368359375,0.0004274733364582062,0.000115229282528162,-0.0007489947602152824
1772366315899753700,7.073753662109375,0.00014957599341869354,-0.0009396690875291824,0.0008415402844548225
1772366315909823700,7.08382373046875,-0.0016419319435954094,-0.001319702249020338,0.000037797726690769196
1772366315919893800,7.093893798828125,-0.00033172452822327614,-0.0021921908482909203,0.0008918410167098045
1772366315929963800,7.1039638671875,-0.0005224072374403477,0.00011250888928771019,-0.0010714409872889519
1772366315940033800,7.11403369140625,-0.0004450432024896145,0.0012559760361909866,0.0011187326163053513
1772366315950103800,7.124103759765625,-0.0021542594768106937,0.0005299984477460384,0.0009205928072333336
1772366315960173600,7.134173583984375,0.000999907497316599,0.00003354717046022415,-0.0008380776271224022
1772366315970243600,7.14424365234375,0.000984727405011654,-0.0019182832911610603,-0.0014705788344144821
1772366315980313900,7.15431396484375,-0.0003059809096157551,0.00006792508065700531,0.00023925118148326874
1772366315990383600,7.164383544921875,0.0014138887636363506,-0.0003784205764532089,-0.0002691466361284256
1772366316000453600,7.17445361328125,0.00044231535866856575,0.00007555074989795685,0.000355500727891922
1772366316010524000,7.18452392578125,0.0019209026359021664,-0.000729789026081562,-0.0024349596351385117
1772366316020593700,7.19459375,0.0006364542059600353,0.0018248148262500763,-0.0005074013024568558
1772366316030663700,7.20466357421875,0.00035682227462530136,0.0007907096296548843,0.0008430881425738335
1772366316040733700,7.214733642578125,-0.001207983586937189,-0.0002944055013358593,0.00005468539893627167
1772366316050803700,7.2248037109375,0.0002767289988696575,0.0018294653855264187,-0.001265709288418293
1772366316060873700,7.234873779296875,-0.0015314500778913498,-0.0011620318982750177,-0.003315858542919159
1772366316070943500,7.244943603515625,0.00007177283987402916,-0.000641383696347475,0.002605414018034935
1772366316081013800,7.255013671875,-0.000009737443178892136,-0.002613834338262677,0.0005762670189142227
1772366316091083800,7.265083740234375,0.00022541964426636696,0.0009076637215912342,-0.00027780886739492416
1772366316101153500,7.275153564453125,0.00018634088337421417,0.003016325645148754,0.0012833168730139732
1772366316111223800,7.285223876953125,0.0012204460799694061,-0.0009967917576432228,0.000307534821331501
1772366316121293800,7.2952939453125,-0.00036421092227101326,0.002074261661618948,0.00018162839114665985
1772366316131363600,7.305363525390625,0.000946597196161747,-0.0008850428275763988,-0.00028975121676921844
1772366316141433600,7.31543359375,-0.0009996350854635239,0.001180041115731001,-0.0020807096734642982
1772366316151504000,7.32550390625,0.001178031787276268,-0.0032325508072972298,0.00009562540799379349
1772366316161573600,7.33557373046875,-0.0008980892598628998,-0.002498776651918888,0.001540742814540863
1772366316171643600,7.3456435546875,0.0024108882062137127,-0.000960801262408495,0.0016315560787916183
1772366316181714000,7.3557138671875,-0.003957102540880442,0.0020692339166998863,0.00022888462990522385
1772366316191783700,7.36578369140625,0.0018110377714037895,0.00003058416768908501,0.002508549951016903
1772366316201853700,7.375853759765625,0.00047318311408162117,0.0013266652822494507,0.0006135115399956703
1772366316211923700,7.385923828125,0.0008811792358756065,-0.0037642333190888166,0.0011679818853735924
1772366316221993700,7.39599365234375,-0.001243365928530693,-0.0006428197957575321,-0.0006067799404263496
1772366316232063700,7.406063720703125,-0.0007181912660598755,0.0010972893796861172,-0.00019319076091051102
1772366316242133500,7.416133544921875,-0.0002738870680332184,0.0010263496078550816,-0.000799594447016716
1772366316252203800,7.426203857421875,-0.0009825536981225014,0.0019480697810649872,-0.0005375389009714127
1772366316262273800,7.436273681640625,0.00014201505109667778,-0.0014944672584533691,0.001505761407315731
1772366316272343600,7.446343505859375,-0.00149955740198493,0.0006879931315779686,-0.0022985637187957764
1772366316282413800,7.456413818359375,-0.0010620402172207832,-0.004087828099727631,-0.0002259574830532074
1772366316292483800,7.46648388671875,-0.0014007948338985443,-0.0003535440191626549,0.001780468039214611
1772366316302553600,7.4765537109375,-0.0009130625985562801,-0.0002327864058315754,0.00011736154556274414
1772366316312623600,7.48662353515625,0.0006182552315294743,0.0027976245619356632,-0.001170276664197445
1772366316322694000,7.49669384765625,0.00011915527284145355,0.0019434178248047829,0.000858815386891365
1772366316332763600,7.506763671875,0.001081355381757021,-0.0010931184515357018,0.0006412351503968239
1772366316342833700,7.516833740234375,-0.001260632649064064,0.0007391618564724922,-0.0009689833968877792
1772366316352903700,7.526903564453125,0.00010423781350255013,-0.0007141251116991043,-0.0019820500165224075
1772366316362973700,7.5369736328125,0.0006750389002263546,0.0012682336382567883,-0.002937410958111286
1772366316373043700,7.547043701171875,-0.00005786307156085968,0.0004530400037765503,0.0006045931950211525
1772366316383113700,7.55711376953125,-0.0012537161819636822,0.0011294018477201462,-0.0014106137678027153
1772366316393183700,7.567183837890625,0.000823016744107008,0.001423148438334465,0.000791819766163826
1772366316403253800,7.577253662109375,0.00011489167809486389,-0.0028492179699242115,0.00013390928506851196
1772366316413323500,7.587323486328125,-0.0010883244685828686,0.0021524648182094097,0.0013062329962849617
1772366316423393800,7.597393798828125,0.0032942690886557102,0.0007742065936326981,0.0003128098323941231
1772366316433463800,7.6074638671875,-0.0008501419797539711,0.0012043071910738945,0.0008158804848790169
1772366316443533600,7.617533447265625,-0.0010502622462809086,0.0029429495334625244,-0.0007818965241312981
1772366316453603800,7.627603759765625,0.0006693410687148571,-0.0008837464265525341,0.0004977528005838394
1772366316463673900,7.637673828125,-0.0005461699329316616,0.002347040455788374,-0.0008044354617595673
1772366316473743600,7.64774365234375,-0.00008677411824464798,-0.00005433196201920509,-0.0007881894707679749
1772366316483814000,7.65781396484375,-0.0006213132292032242,0.0038455361500382423,-0.0011191461235284805
1772366316493883600,7.667883544921875,-0.0009669922292232513,0.004751543514430523,-0.0005348492413759232
1772366316503953700,7.67795361328125,-0.0013118414208292961,0.0019318843260407448,-0.0016266116872429848
1772366316514023700,7.688023681640625,-0.0008945241570472717,-0.009036345407366753,-0.0015453854575753212
1772366316524093700,7.69809375,-0.000608326867222786,0.003390796948224306,0.001405828632414341
1772366316534163700,7.708163818359375,0.0019320626743137836,0.010454565286636353,0.00002577807754278183
1772366316544233700,7.718233642578125,0.00015223026275634766,-0.005765941459685564,0.0003880281001329422
1772366316554303700,7.7283037109375,-0.0010704267770051956,-0.0027557706926018,0.0019004372879862785
1772366316564373800,7.738373779296875,0.00013810349628329277,0.0008479743264615536,-0.0016276789829134941
1772366316574443800,7.74844384765625,0.00032132863998413086,0.00022958824411034584,-0.0007459064945578575
1772366316584513800,7.758513671875,0.00111685274168849,-0.0002893148921430111,0.0013451306149363518
1772366316594583800,7.768583740234375,-0.0014688102528452873,-0.00008718110620975494,-0.0009587705135345459
1772366316604653600,7.778653564453125,0.00039472896605730057,-0.003493080846965313,0.0006570965051651001
1772366316614723600,7.7887236328125,0.0018850336782634258,-0.0013737373519688845,0.0011162254959344864
1772366316624793900,7.7987939453125,0.00008306140080094337,-0.0036477167159318924,0.0005862796679139137
1772366316634863600,7.808863525390625,0.002104400657117367,-0.00041836779564619064,-0.0014031017199158669
1772366316644933600,7.81893359375,-0.0007398230955004692,-0.0012392853386700153,-0.0011460762470960617
1772366316655004000,7.82900390625,0.0011587440967559814,-0.0016858973540365696,0.00017991196364164352
1772366316665073700,7.83907373046875,-0.0014008092693984509,-0.003583112731575966,-0.001632118597626686
1772366316675143700,7.849143798828125,0.0018610302358865738,-0.0013287467882037163,-0.001884319819509983
1772366316685213700,7.859213623046875,-0.0008115582168102264,0.00029881298542022705,0.0006470223888754845
1772366316695283700,7.86928369140625,-0.00042486656457185745,-0.0014596721157431602,-0.0006059948354959488
1772366316705353700,7.879353759765625,-0.0010677743703126907,0.0004993830807507038,0.0002746153622865677
1772366316715423700,7.889423828125,0.0005325190722942352,-0.0018029198981821537,0.000014690682291984558
1772366316725493800,7.89949365234375,-0.0003811134956777096,-0.0009119990281760693,-0.0015709726139903069
1772366316735563800,7.909563720703125,-0.0002926965244114399,-0.0009093359112739563,0.0008029695600271225
1772366316745633500,7.919633544921875,0.0017485241405665874,-0.0021306246053427458,-0.0006444714963436127
1772366316755703800,7.929703857421875,0.0003916439600288868,-0.0018880106508731842,0.0005741911008954048
1772366316765773300,7.939773193359375,0.0002725338563323021,-0.0004592370241880417,-0.0022902172058820724
1772366316775843300,7.94984326171875,-0.0003386610187590122,0.0008899206295609474,0.002009189687669277
1772366316785913300,7.959913330078125,-0.0008193268440663815,0.00013980502262711525,0.0007502259686589241
1772366316795983400,7.9699833984375,0.0016371728852391243,0.00026923464611172676,-0.0031648874282836914
1772366316806053400,7.980053466796875,-0.00007759919390082359,0.0001752167008817196,-0.0010513514280319214
1772366316816123400,7.990123291015625,0.0011551780626177788,0.0006250245496630669,0.00040699541568756104
1772366316826191400,8.00019140625,-0.0005693398416042328,-0.0027572871185839176,-0.003236415795981884
1772366316836261400,8.010261474609376,0.0011859498918056488,-0.0009737680666148663,-0.00177034642547369
1772366316846331400,8.020331298828125,-0.00046986108645796776,-0.0006109788082540035,0.000967957079410553
1772366316856401400,8.0304013671875,0.00044067343696951866,-0.0006205663084983826,-0.00008399132639169693
1772366316866471200,8.04047119140625,-0.0008861268870532513,0.0030631572008132935,0.0009455010294914246
1772366316876541400,8.05054150390625,-0.0006080935709178448,0.0027430448681116104,-0.002073724754154682
1772366316886611500,8.060611572265625,0.0002195741981267929,0.001093339640647173,-0.001233251765370369
1772366316896681200,8.07068115234375,0.000762060284614563,-0.00004276493564248085,0.0023268619552254677
1772366316906751500,8.08075146484375,0.0012582228519022465,-0.0002300073392689228,0.0002840440720319748
1772366316916821500,8.090821533203124,-0.0003828173503279686,0.0009444467723369598,0.0008140131831169128
1772366316926891300,8.100891357421874,0.00006294902414083481,0.0007238108664751053,0.0018719714134931564
1772366316936961500,8.11096142578125,-0.0006076344288885593,0.00042819976806640625,0.0002503730356693268
1772366316947031300,8.12103125,0.0017289421521127224,0.00006722332909703255,-0.000675286166369915
1772366316957101300,8.131101318359375,0.0012056310661137104,0.00033886590972542763,-0.0006646336987614632
1772366316967171300,8.14117138671875,0.0015077926218509674,-0.0005346680991351604,-0.00002240017056465149
1772366316977241300,8.151241455078125,0.0018646563403308392,0.0005641523748636246,0.00042794086039066315
1772366316987311400,8.161311279296875,0.0009447932243347168,0.00008200574666261673,-0.00009162351489067078
1772366316997381400,8.17138134765625,0.0004787398502230644,0.00034193042665719986,-0.0004934938624501228
1772366317007451400,8.181451416015625,-0.0016835350543260574,0.00017790962010622025,0.0023765554651618004
1772366317017521400,8.191521484375,-0.00028164684772491455,0.0004665963351726532,0.0008444394916296005
1772366317027591400,8.20159130859375,-0.0011259312741458416,-0.0016529259737581015,0.0004165312275290489
1772366317037661400,8.211661376953124,0.00041417451575398445,-0.0030564116314053535,0.0027611777186393738
1772366317047731500,8.2217314453125,0.0007194993086159229,0.0007448578253388405,-0.0006859954446554184
1772366317057801500,8.231801513671876,-0.0007281950674951077,-0.0004879194311797619,0.0016133785247802734
1772366317067871200,8.241871337890625,0.000656291376799345,0.0037149288691580296,0.001577259972691536
1772366317077941500,8.25194140625,-0.00040524406358599663,0.0018701576627790928,0.00028323009610176086
1772366317088011300,8.26201123046875,0.0009567518718540668,-0.002070400398224592,0.000775548629462719
1772366317098081300,8.272081298828125,-0.0009543322958052158,0.000514729879796505,0.00046688783913850784
1772366317108151600,8.282151611328125,0.0013591605238616467,-0.0002927444875240326,0.00021899957209825516
1772366317118221300,8.29222119140625,-0.001050999853760004,-0.000963328406214714,0.003459800034761429
1772366317128291300,8.302291259765624,-0.00033735577017068863,0.0007444443181157112,0.0007949080318212509
1772366317138361300,8.312361328125,0.0009643975645303726,0.004948243498802185,-0.00006955396384000778
1772366317148431400,8.322431396484374,-0.0008568190969526768,-0.0018612549174576998,-0.000722239725291729
1772366317158501400,8.33250146484375,0.0016683903522789478,0.0005720756016671658,-0.0007741712033748627
1772366317168571400,8.3425712890625,0.00197458453476429,-0.0021110298112034798,0.00008421111851930618
1772366317178641400,8.352641357421875,-0.0008054892532527447,0.0001441347412765026,-0.0005512190982699394
1772366317188711400,8.36271142578125,-0.00009422376751899719,0.0034501459449529648,-0.00022047758102416992
1772366317198781400,8.372781494140625,-0.0009094178676605225,-0.002670863177627325,-0.002066846936941147
1772366317208851500,8.3828515625,-0.0021733646281063557,0.002036827616393566,0.000936262309551239
1772366317218921500,8.39292138671875,0.0012581180781126022,-0.00018371641635894775,0.0003913799300789833
1772366317228991200,8.4029912109375,-0.00002217991277575493,0.0036035124212503433,0.0008920282125473022
1772366317239061200,8.413061279296874,-0.0031543239019811153,0.0017920304089784622,-0.00033169426023960114
1772366317249131500,8.423131591796874,-0.0009407647885382175,0.002123958431184292,-0.0018909741193056107
1772366317259201300,8.433201171875,0.002181525342166424,0.0006554913707077503,0.00037777330726385117
1772366317269271300,8.443271240234376,-0.001827721018344164,-0.0014414794277399778,-0.0005668336525559425
1772366317279342300,8.45334228515625,-0.0005797636695206165,0.0019628391601145267,-0.0032744696363806725
1772366317289412400,8.463412353515626,-0.001225766260176897,0.00027832435443997383,-0.0008976459503173828
1772366317299482400,8.473482421875,0.0013391240499913692,0.0011853971518576145,-0.00030029844492673874
1772366317309552400,8.483552490234375,0.0003037913702428341,-0.00009880634024739265,-0.00013039354234933853
1772366317319622400,8.493622314453125,0.0012020757421851158,0.00009373994544148445,-0.00023265928030014038
1772366317329692400,8.5036923828125,-0.0003360854461789131,0.0014590979553759098,-0.0012039700523018837
1772366317339762400,8.513762451171875,0.00007990002632141113,-0.002169725252315402,-0.003283632919192314
1772366317349832200,8.523832275390625,-0.0012852558866143227,0.001342623494565487,0.0007587438449263573
1772366317359902500,8.53390234375,-0.0022554462775588036,0.0017213253304362297,-0.00037895888090133667
1772366317369972500,8.543972412109374,-0.0011318088509142399,-0.0005377139896154404,0.0006691813468933105
1772366317380042200,8.554042236328126,0.000722816213965416,-0.002206184668466449,0.00032723136246204376
1772366317390112500,8.564112548828126,-0.0005029947496950626,0.00011706957593560219,-0.0009605903178453445
1772366317400182500,8.5741826171875,-0.000445737037807703,-0.00000543566420674324,-0.001132630743086338
1772366317410252300,8.584252197265625,-0.0017670928500592709,-0.0020921772811561823,-0.0008851485326886177
1772366317420322300,8.594322265625,-0.0005343160592019558,0.0011648684740066528,0.0001899702474474907
1772366317430392300,8.604392333984375,-0.00011829426512122154,0.00019421707838773727,0.002494281157851219
1772366317440462300,8.61446240234375,0.0009813248179852962,-0.0032356681767851114,0.00020635966211557388
1772366317450532400,8.624532470703125,0.000012234784662723541,-0.0014077613595873117,-0.0032043009996414185
1772366317460602400,8.634602294921875,0.002511344850063324,-0.0017065678257495165,0.0012783315032720566
1772366317470672400,8.64467236328125,-0.000954644288867712,0.00023937365040183067,0.0018511489033699036
1772366317480742400,8.654742431640624,0.0003356575034558773,0.002185611519962549,-0.00032412074506282806
1772366317490812400,8.6648125,0.0005882489494979382,0.0012267627753317356,0.0014570029452443123
1772366317500882400,8.67488232421875,-0.0018879575654864311,0.0008302181959152222,-0.00032704882323741913
1772366317510952400,8.684952392578126,-0.0009261337108910084,0.0007675518281757832,-0.0012456728145480156
1772366317521022200,8.695022216796875,0.00008533522486686707,-0.0022245098371058702,0.0004997625946998596
1772366317531092500,8.705092529296875,-0.00018987059593200684,0.002780480310320854,-0.0017507988959550858
1772366317541162500,8.71516259765625,-0.0007552593015134335,-0.00011171260848641396,-0.0009398665279150009
1772366317551232300,8.725232177734375,0.001619015820324421,0.0015257219783961773,-0.00004505924880504608
1772366317561302500,8.735302490234375,-0.0011914181523025036,-0.0014868455473333597,-0.00047329533845186234
1772366317571372300,8.745372314453125,-0.0008776448667049408,-0.0013699685223400593,0.0006599817425012589
1772366317581442300,8.7554423828125,-0.00015113502740859985,0.0005136854015290737,-0.00031952932476997375
1772366317591512300,8.76551220703125,-0.0010062092915177345,0.00044847000390291214,0.0004155132919549942
1772366317601582300,8.775582275390626,-0.0012251213192939758,-0.00027537718415260315,-0.0005171261727809906
1772366317611652400,8.78565234375,0.0006997301243245602,-0.0002655894495546818,-0.0016745179891586304
1772366317621722400,8.795722412109376,0.0005527236498892307,-0.0007774489931762218,-0.002316872589290142
1772366317631792400,8.80579248046875,0.0015154615975916386,0.002855241298675537,0.001540033146739006
1772366317641862400,8.8158623046875,-0.0002496815286576748,-0.0009773136116564274,0.0009080655872821808
1772366317651932400,8.825932373046875,-0.0008616587147116661,0.0010335827246308327,-0.0007689343765377998
1772366317662003200,8.836003173828125,-0.0008065309375524521,0.001788056455552578,0.002768009901046753
1772366317672073500,8.846073486328125,-0.001216348260641098,0.00020402949303388596,0.001412966288626194
1772366317682143500,8.8561435546875,-0.001690124161541462,0.0006386572495102882,-0.00020756665617227554
1772366317692213200,8.866213134765625,0.0007061841897666454,0.0014691101387143135,-0.0002552960067987442
1772366317702283300,8.876283203125,-0.0016975849866867065,0.00012261606752872467,-0.0010768808424472809
1772366317712353500,8.886353515625,0.00008370308205485344,-0.00010553933680057526,-0.0028028376400470734
1772366317722423300,8.89642333984375,-0.003010091371834278,-0.0012219364289194345,-0.002106953412294388
1772366317732493300,8.906493408203126,0.00011248746886849403,-0.0012087172362953424,-0.0009395712986588478
1772366317742563600,8.9165634765625,0.000154831912368536,-0.0024066069163382053,-0.0012967009097337723
1772366317752633300,8.92663330078125,-0.0004375698044896126,-0.0006505604833364487,0.000055653974413871765
1772366317762703400,8.936703369140625,0.0010093259625136852,-0.00042738765478134155,0.0011970847845077515
1772366317772773600,8.946773681640625,-0.0002647433429956436,-0.0013237209059298038,-0.0011515012010931969
1772366317782843400,8.956843505859375,0.0006343401037156582,-0.0038547890726476908,0.0027913087978959084
1772366317792913400,8.966913330078125,-0.0009668515995144844,-0.002477903850376606,0.0025055408477783203
1772366317802983400,8.9769833984375,-0.002064606174826622,0.001785817090421915,-0.00021407939493656158
1772366317813053400,8.987053466796874,0.0008187992498278618,0.001421402208507061,0.0005719829350709915
1772366317823123500,8.99712353515625,-0.001068582758307457,-0.00016451021656394005,-0.0010019447654485703
1772366317833193500,9.007193359375,0.000050175003707408905,-0.00007126061245799065,-0.00010386854410171509
1772366317843263500,9.017263427734376,0.00006828457117080688,-0.0004100147634744644,-0.0011736610904335976
1772366317853333500,9.02733349609375,0.00023827888071537018,-0.0032823202200233936,0.001108742319047451
1772366317863403500,9.037403564453125,0.0009964811615645885,-0.0032104146666824818,-0.0002324255183339119
1772366317873473300,9.047473388671875,-0.0017197267152369022,-0.000812143087387085,0.001624947413802147
1772366317883543600,9.05754345703125,-0.0017189276404678822,0.001296014990657568,-0.0009572543203830719
1772366317893613600,9.067613525390625,-0.0009717349894344807,0.0002301819622516632,-0.0008224118500947952
1772366317903683300,9.077683349609375,-0.00114830257371068,0.00012392178177833557,0.000695323571562767
1772366317913753600,9.087753662109375,0.0008870493620634079,0.00020722951740026474,-0.0013935379683971405
1772366317923823400,9.0978232421875,0.0018311399035155773,0.00046076206490397453,-0.00030537042766809464
1772366317933893400,9.107893310546874,0.00016751186922192574,-0.00048821279779076576,0.0026628319174051285
1772366317943963600,9.117963623046874,0.0008737817406654358,-0.00007142825052142143,-0.0008147237822413445
1772366317954033400,9.128033447265626,0.0013218396343290806,-0.0021540680900216103,0.0008598491549491882
1772366317964103400,9.138103515625,-0.0011517046950757504,0.00004783365875482559,-0.003335694782435894
1772366317974173400,9.14817333984375,0.0008142474107444286,-0.000569281168282032,0.000006363727152347565
1772366317984243500,9.158243408203125,0.0008296933956444263,0.001338607631623745,0.0017683105543255806
1772366317994313500,9.1683134765625,0.00204100226983428,-0.0021489406935870647,0.0024829283356666565
1772366318004383500,9.178383544921875,0.0006130151450634003,0.00014430750161409378,-0.0009895674884319305
1772366318014454300,9.188454345703125,0.0004362831823527813,0.0008618468418717384,-0.0010720156133174896
1772366318024524500,9.198524658203125,0.0005806265398859978,-0.0016979833599179983,-0.000640583224594593
1772366318034594600,9.208594482421875,0.0022157523781061172,0.0016275946982204914,-0.0009494181722402573
1772366318044664300,9.218664306640624,-0.0018423721194267273,0.002607904374599457,-0.0022122887894511223
1772366318054734600,9.228734619140624,-0.00006691645830869675,-0.0001679603010416031,0.0009961780160665512
1772366318064804600,9.2388046875,0.002966158092021942,-0.0006934022530913353,0.0015493165701627731
1772366318074874400,9.248874267578126,0.0010727113112807274,0.0006901142187416553,0.0004287129268050194
1772366318084944400,9.2589443359375,0.0012554037384688854,-0.0019738455303013325,0.000004737637937068939
1772366318095014700,9.2690146484375,-0.0002687242813408375,0.0017802957445383072,0.002181445248425007
1772366318105084400,9.27908447265625,0.0008649835363030434,0.001583488192409277,0.0028927763924002647
1772366318115154400,9.289154541015625,0.00032324623316526413,-0.001889979001134634,-0.0008109528571367264
1772366318125224400,9.299224365234375,0.0005498812533915043,-0.0018566895741969347,0.0014367550611495972
1772366318135294500,9.30929443359375,0.003810797818005085,0.0009825918823480606,0.0016581825911998749
1772366318145364500,9.319364501953125,0.0006863772869110107,0.0005098809488117695,-0.00047527533024549484
1772366318155434500,9.3294345703125,-0.0007629343308508396,-0.0011695874854922295,-0.0018818685784935951
1772366318165504500,9.33950439453125,-0.0007256497628986835,-0.0013629328459501266,0.00001004151999950409
1772366318175574500,9.349574462890626,0.000401573721319437,0.0022683958522975445,0.0018534082919359207
1772366318185644300,9.359644287109376,-0.0009358660317957401,0.0009019277058541775,-0.0007815230637788773
1772366318195714600,9.369714599609376,0.0017202580347657204,-0.0029750741086900234,0.00038623157888650894
1772366318205784600,9.37978466796875,-0.0008646058849990368,0.0013831891119480133,0.0035756323486566544
1772366318215854300,9.389854248046875,-0.000042115338146686554,0.0014765579253435135,0.002275644801557064
1772366318225924600,9.399924560546875,0.0028761764988303185,-0.0012859392445534468,-0.0009792707860469818
1772366318235994600,9.40999462890625,-0.0008489657193422318,-0.0013901847414672375,0.0014480194076895714
1772366318246064400,9.420064453125,-0.0006814524531364441,0.0006575197912752628,0.0017356406897306442
1772366318256134400,9.430134521484375,-0.0003930837847292423,0.00007300963625311852,-0.0004749298095703125
1772366318266204400,9.440204345703124,0.0015624752268195152,0.0011196318082511425,0.0004678294062614441
1772366318276274400,9.4502744140625,0.001447360496968031,-0.0017677794676274061,0.00004976429045200348
1772366318286344400,9.460344482421876,0.0006758426316082478,0.0013209548778831959,0.00045855995267629623
1772366318296414500,9.47041455078125,-0.00008752616122364998,-0.0009000217542052269,-0.0009490102529525757
1772366318306484500,9.480484375,-0.0008015194907784462,0.0014502182602882385,-0.0010619284585118294
1772366318316554500,9.490554443359375,0.0000821840949356556,-0.00035018613561987877,0.00020151864737272263
1772366318326624500,9.50062451171875,-0.0024752491153776646,0.0007518301717936993,0.0005336152389645576
1772366318336694500,9.510694580078125,0.0017737466841936111,0.0007975930348038673,0.0028168587014079094
1772366318346765600,9.520765625,-0.0008992678485810757,0.000578148290514946,-0.0010814759880304337
1772366318356835300,9.53083544921875,-0.00004436075687408447,0.005036499816924334,0.0004190020263195038
1772366318366905300,9.5409052734375,-0.0009370525367558002,0.0005964776501059532,0.0024821534752845764
1772366318376975600,9.5509755859375,-0.002192513085901737,0.0013016089797019958,0.0010547833517193794
1772366318387045400,9.56104541015625,-0.0010718544945120811,0.00453149015083909,0.0017615864053368568
1772366318397115400,9.571115478515624,0.0008329097181558609,0.0024275225587189198,0.000013456679880619049
1772366318407185700,9.581185546875,-0.00007975567132234573,-0.0019970531575381756,-0.001058998517692089
1772366318417255400,9.59125537109375,0.0013261125423014164,-0.00005316222086548805,-0.00011339783668518066
1772366318427325400,9.601325439453126,0.0013085356913506985,-0.004091846290975809,-0.0009946376085281372
1772366318437395500,9.6113955078125,-0.0010446184314787388,0.0016786516644060612,-0.00019159074872732162
1772366318447465500,9.621465576171875,-0.0002107829786837101,-0.0007706573233008385,0.0006915135309100151
1772366318457535500,9.631535400390625,-0.0007722517475485802,0.002934281714260578,-0.00022954586893320084
1772366318467605200,9.641605224609375,-0.0015003597363829613,0.0015382524579763412,0.0010423799976706505
1772366318477675500,9.651675537109375,0.0005602785386145115,0.0020230868831276894,-0.001757151447236538
1772366318487745500,9.66174560546875,-0.0019321744330227375,0.002127483021467924,0.00016165617853403091
1772366318497815300,9.671815185546874,0.001324336975812912,0.00036298949271440506,0.0008262749761343002
1772366318507885600,9.681885498046874,-0.0021758554503321648,-0.00003834860399365425,-0.002599349245429039
1772366318517955600,9.69195556640625,-0.0006767753511667252,-0.0009269691072404385,-0.00021190103143453598
1772366318528025300,9.702025390625,-0.0005007404834032059,0.0002589365467429161,-0.0010401448234915733
1772366318538095400,9.712095458984376,0.0026023644022643566,0.0029713488183915615,0.0015817945823073387
1772366318548165600,9.72216552734375,-0.00036519626155495644,-0.0025536452885717154,-0.001149010844528675
1772366318558235400,9.7322353515625,-0.00008762488141655922,0.004944774322211742,0.0023826854303479195
1772366318568305400,9.742305419921875,-0.000119050033390522,0.0013465778902173042,0.00108998641371727
1772366318578375700,9.752375732421875,0.000346258282661438,0.0002773548476397991,0.0004897573962807655
1772366318588445400,9.762445556640625,0.0008743628859519958,-0.001142109977081418,0.001468469388782978
1772366318598515500,9.772515380859375,0.00008801836520433426,-0.00037454627454280853,-0.001156332902610302
1772366318608585500,9.78258544921875,0.0016635446809232235,0.0011304058134555817,0.0015848586335778236
1772366318618655500,9.792655517578124,0.0024513998068869114,-0.0004553878679871559,-0.002255096100270748
1772366318628725500,9.8027255859375,-0.0003558383323252201,-0.00017655501142144203,0.002573215402662754
1772366318638795300,9.812795166015626,0.0025628753937780857,0.0017494512721896172,0.0015283720567822456
1772366318648865500,9.822865478515626,-0.0005729971453547478,0.0011054989881813526,-0.00033477507531642914
1772366318658935600,9.832935546875,0.0023611215874552727,0.0029828213155269623,-0.002193726599216461
1772366318669005300,9.84300537109375,-0.0004754108376801014,-0.000437210313975811,0.0006457353010773659
1772366318679075600,9.85307568359375,0.0005592326633632183,0.0005087531171739101,0.0016154665499925613
1772366318689145600,9.8631455078125,0.0006148931570351124,-0.003230059053748846,0.0008628563955426216
1772366318699215400,9.87321533203125,-0.0019307197071611881,-0.003214701311662793,-0.001210266724228859
1772366318709285400,9.883285400390625,-0.0008201817981898785,-0.002310558222234249,-0.00036631058901548386
1772366318719355400,9.89335546875,0.0008501331321895123,0.0015260297805070877,-0.0008678287267684937
1772366318729425400,9.90342529296875,0.0015814369544386864,-0.005069022066891193,-0.0020097922533750534
1772366318739496400,9.913496337890624,-0.0020878221839666367,0.002942197024822235,0.0008135735988616943
1772366318749566500,9.92356640625,0.0003471062518656254,0.0004675877280533314,-0.0020748907700181007
1772366318759636500,9.933636474609376,0.0009753284975886345,0.000051495619118213654,0.0005286466330289841
1772366318769706800,9.943706787109376,0.001105290837585926,-0.002997024916112423,-0.003039455972611904
1772366318779776800,9.95377685546875,0.000986604019999504,-0.000018621329218149185,0.0010714903473854065
1772366318789846800,9.9638466796875,-0.0017884103581309319,0.0039497544057667255,-0.0005069654434919357
1772366318799916800,9.973916748046875,0.0013931668363511562,0.005085994955152273,-0.001930510625243187
1772366318809986800,9.98398681640625,-0.000197539571672678,0.0017538480460643768,-0.000015164725482463837
1772366318820056600,9.994056640625,0.0005341013893485069,0.001081941183656454,0.0006596110761165619
1772366318830126800,10.004126953125,-0.002179659903049469,0.00159886060282588,0.0012590885162353516
1772366318840196600,10.014196533203124,-0.00016816891729831696,0.001604400109499693,0.00036868732422590256
1772366318850266600,10.0242666015625,0.0010875114239752293,0.00037588411942124367,0.000792396254837513
1772366318860337000,10.0343369140625,0.0011206637136638165,0.0027695652097463608,0.0015938905999064445
1772366318870406700,10.04440673828125,0.00021438999101519585,-0.0006571244448423386,0.0004154425114393234
1772366318880476700,10.0544765625,-0.0012656250037252903,-0.00031807832419872284,0.00044532399624586105
1772366318890546700,10.064546630859375,0.00019618449732661247,-0.0015015872195363045,-0.002757660113275051
1772366318900616700,10.07461669921875,0.001783961895853281,0.00002586236223578453,0.0015521198511123657
1772366318910686700,10.084686767578125,0.0008673020638525486,0.0013169627636671066,0.0012338720262050629
1772366318920756700,10.0947568359375,-0.0006667845882475376,0.0038578896783292294,0.00003288406878709793
1772366318930826800,10.10482666015625,-0.0007077972404658794,0.005017163697630167,0.0004422115162014961
1772366318940896800,10.114896728515625,0.0013775061815977097,0.0029728813096880913,-0.0030388860031962395
1772366318950966500,10.124966552734374,-0.0012363865971565247,0.005759613588452339,-0.000645502470433712
1772366318961036800,10.135036865234374,-0.0031222286634147167,0.01547208707779646,0.0008100345730781555
1772366318971106800,10.14510693359375,0.0004512006416916847,0.005339558236300945,-0.0023202449083328247
1772366318981176600,10.155176513671876,0.002978693228214979,0.05986332893371582,0.027952682226896286
1772366318991246600,10.16524658203125,-0.0014272406697273254,0.03812447935342789,0.03911186009645462
1772366319001316900,10.17531689453125,-0.0002748682163655758,0.020465705543756485,0.0028893696144223213
1772366319011386600,10.18538671875,0.0009251520968973637,0.014822201803326607,0.016292525455355644
1772366319021456600,10.19545654296875,-0.0009475862607359886,-0.014219259843230247,-0.0013203797861933708
1772366319031527000,10.20552685546875,-0.00039897486567497253,-0.015456564724445343,-0.0006633782759308815
1772366319041596700,10.2155966796875,0.0008201124146580696,-0.04903730750083923,-0.017423558980226517
1772366319051666700,10.225666748046875,-0.00047072162851691246,-0.03969520330429077,-0.020595651119947433
1772366319061736700,10.23573681640625,-0.0023403670638799667,-0.030884670093655586,-0.016385558992624283
1772366319071806700,10.245806640625,0.0020525166764855385,-0.013807150535285473,-0.011215563863515854
1772366319081876700,10.255876708984376,-0.0001874202862381935,-0.008939901366829872,-0.007918896153569221
1772366319091946500,10.265946533203126,0.001829125452786684,-0.0010902341455221176,-0.006322330329567194
1772366319102016800,10.276016845703126,0.0010530236177146435,0.0031910031102597713,0.0013243649154901505
1772366319112086800,10.286086669921875,-0.000038339756429195404,0.004763599950820208,0.0017155827954411507
