time,seconds_elapsed,z,y,x
1772568094763401000,0.11340087890625,-0.02840659479498863,-0.007868669282179325,0.0006047609601169824
1772568094773473000,0.12347314453125,-0.028405425751209256,-0.005008649341715499,0.005264971323497593
1772568094783545000,0.133545166015625,-0.0330482831209898,-0.00874635629900731,0.0011158157547935842
1772568094793617000,0.143616943359375,-0.026765841850638388,0.005750261489255354,-0.006005487492494284
1772568094803689000,0.15368896484375,-0.030661095723509786,0.000490715259546414,-0.007528587140236049
1772568094813761000,0.163760986328125,-0.022431612038612363,-0.006462583610229194,0.0018971023255959151
1772568094823833000,0.1738330078125,-0.032009587723016736,-0.010272131961025298,0.0044395898826420305
1772568094833905000,0.18390478515625,-0.03755260880291462,0.0042057719936128704,-0.0063471770696341984
1772568094843977000,0.19397705078125,-0.031415128961205484,0.0010899049954023212,-0.0038529308347962795
1772568094854049000,0.204049072265625,-0.033954292050004005,0.0026890016219578683,-0.002067033798713237
1772568094864120000,0.2141201171875,-0.027666005560755727,0.0025886099874041974,0.00107237847186625
1772568094874192000,0.22419189453125,-0.039487960779666896,-0.0005365545621141791,-0.0021995924035087227
1772568094884264000,0.234263916015625,-0.029762685579061508,-0.005319258794002235,0.003635561757069081
1772568094894336000,0.2443359375,-0.022877602240443228,-0.007346225443808361,-0.0030530856939963995
1772568094904408000,0.254407958984375,-0.03828384568691254,-0.006913944106921553,-0.0008876330221071839
1772568094914479900,0.26447998046875,-0.03154313925504684,0.0013235676208045333,0.006834175135288387
1772568094924552000,0.274552001953125,-0.033040099814534186,0.00014348185760900377,0.0025337745276279747
1772568094934624000,0.2846240234375,-0.03803834649324417,0.0009496562744956463,0.005213679527677595
1772568094944696000,0.294696044921875,-0.03987549879252911,-0.000755640672892332,-0.003746054660528898
1772568094954768000,0.304767822265625,-0.03537409572005272,-0.003090376363927498,-0.001215896862093359
1772568094964840000,0.31483984375,-0.04006196127533913,-0.001034156220173463,-0.003151376703009009
1772568094974912000,0.324912109375,-0.039755087283253665,0.0030502178834751247,-0.004124258589465171
1772568094984983800,0.33498388671875,-0.03137655051648617,-0.0009479301082901656,-0.0055697629563510416
1772568094995055900,0.345055908203125,-0.022270283997058868,-0.01134357885112986,-0.006383746220357716
1772568095005128000,0.3551279296875,-0.026018822875618932,-0.011689698008215054,0.002260894136689603
1772568095015200000,0.365199951171875,-0.040087680238485336,-0.00942565293321386,0.0017003376444801688
1772568095025271800,0.375271728515625,-0.030344869381189344,-0.007408422226132825,0.00021669322429224846
1772568095035342800,0.3853427734375,-0.03347498410046101,-0.01131475461544469,-0.003847122148517519
1772568095045415000,0.395414794921875,-0.03914776903986931,-0.010466814282909034,-0.003945413157530129
1772568095055487000,0.405487060546875,-0.03823533037006855,-0.003756795250251889,0.0006773330059833824
1772568095065558800,0.415558837890625,-0.03627893560528755,-0.005010585570475086,0.008028645616862923
1772568095075630800,0.425630859375,-0.041214638441801066,-0.007874551033694296,-0.0007774689122103154
1772568095085703000,0.435702880859375,-0.03359539560973644,-0.006398733726935461,0.0005503821580670774
1772568095095775000,0.44577490234375,-0.03704641284644603,0.004298510044673458,-0.0030669863551855085
1772568095105846800,0.4558466796875,-0.03704933545589447,0.0060773471523076295,0.007692527263984084
1772568095115918800,0.4659189453125,-0.03689677524268627,-0.003661965706804767,0.0034317828132770954
1772568095125991000,0.475990966796875,-0.043027240821719166,-0.003693703418783843,0.0014279504438862204
1772568095136063000,0.48606298828125,-0.04093172984719276,-0.00006042495034635067,0.003404419882316142
1772568095146134800,0.496134765625,-0.034956747090816497,0.0020806695984210816,0.009045220514573156
1772568095156206800,0.506206787109375,-0.03645370765030384,0.00016439678147435187,0.008065580093767493
1772568095166279000,0.51627880859375,-0.043344051685929294,0.004230687239160761,0.0096662567560561
1772568095176350700,0.526350830078125,-0.04168927021622657,0.0038074568584095685,0.004017747741378843
1772568095186422800,0.5364228515625,-0.03960428063571453,0.0064577339051757,0.001657357019279152
1772568095196494800,0.546494873046875,-0.037814474609494206,-0.007994578950479626,0.004025967580452561
1772568095206567200,0.556567138671875,-0.03736263918876648,-0.0005891341327223926,0.0038418797178193923
1772568095216638000,0.566637939453125,-0.038410102415084836,-0.0007228800476063043,0.0077495729471556835
1772568095226709800,0.576709716796875,-0.03542436460256576,0.002979070609714836,0.004798066197801381
1772568095236781800,0.58678173828125,-0.03543079434335231,-0.0010736571134999395,-0.000027801322378218173
1772568095246854000,0.59685400390625,-0.03842939163744449,0.002013148187007755,0.00482040589377284
1772568095256925700,0.60692578125,-0.049503158837556835,-0.000481216778839007,0.0073133917532861225
1772568095266997800,0.616997802734375,-0.0424637617200613,0.006643374404078349,0.004044270422123373
1772568095277070000,0.627070068359375,-0.03812777834236622,-0.0010903251205105335,-0.006393317766301334
1772568095287142100,0.63714208984375,-0.04052373356819153,-0.009215836974279955,0.002663118262030184
1772568095297214000,0.6472138671875,-0.042025370302796364,0.0077970744838472454,-0.00003251403011381626
1772568095307286000,0.6572861328125,-0.041429157975316044,-0.0020707783920690414,0.009160426125768572
1772568095317358000,0.667358154296875,-0.048612347477674483,0.001280029873177409,0.0036143728385679423
1772568095327430000,0.677429931640625,-0.04547288040816783,-0.0019015136392321436,-0.004011171870119869
1772568095337502000,0.687501953125,-0.0481716179728508,-0.00004923683605156838,-0.005989979396108538
1772568095347574000,0.697573974609375,-0.043082185879349706,-0.0007501425138674676,0.005077084068581462
1772568095357646000,0.70764599609375,-0.04636661437749862,0.000031070991698652504,0.004008961646724492
1772568095367718000,0.7177177734375,-0.049364627149701114,0.0008247147205751389,-0.00040576778929680583
1772568095377790200,0.727790283203125,-0.0335012875854969,0.00852390918736346,-0.0031192462653852997
1772568095387862300,0.7378623046875,-0.03814706756472588,0.0040433753729797895,-0.004847659226879477
1772568095397934000,0.74793408203125,-0.04846972413659095,0.005423047962039709,0.0023699440017342565
1772568095408005000,0.758005126953125,-0.05130816243290901,0.0033267880688421427,0.0029864684648811817
1772568095418077000,0.768076904296875,-0.04486790025234222,0.0017504147307481615,-0.0053210306259803474
1772568095428149000,0.77814892578125,-0.03873685015141964,-0.0017515472419094293,0.009393285033572465
1772568095438221300,0.78822119140625,-0.05011106160283088,0.003109126730170101,0.0017127039357088506
1772568095448293000,0.798293212890625,-0.04068272352218628,-0.009145310755027457,0.0038579358034767208
1772568095458365200,0.808365234375,-0.04501519976854324,-0.0015990144281648098,0.001177482814155519
1772568095468437200,0.818437255859375,-0.04995090260505676,-0.0108674035735894,0.002571932847239077
1772568095478509300,0.82850927734375,-0.04830138183236122,-0.0026667532575316726,0.0018856128172017633
1772568095488581000,0.8385810546875,-0.043963644888997074,-0.004786202230071649,-0.005064078456535935
1772568095498653200,0.848653076171875,-0.044858547902107235,-0.007919413088727742,0.0032373379534110427
1772568095508725200,0.858725341796875,-0.034834582015872,0.007602456094045191,0.0009156900728121399
1772568095518797000,0.868797119140625,-0.03707213180959224,-0.002723287484049797,0.0014603366098366677
1772568095528869000,0.878869140625,-0.032438042268157004,-0.004257438248768448,0.002263396621029824
1772568095538941200,0.888941162109375,-0.04500526289641857,0.002538953026244417,0.00031624460862949487
1772568095549013200,0.89901318359375,-0.040517303827404975,-0.0008125676250550895,-0.0005422353842295706
1772568095559085000,0.9090849609375,-0.03737199153900146,0.0034573556459508836,0.005513575789704918
1772568095569157000,0.9191572265625,-0.038414194068312646,0.005359636470163241,0.0005078947232104837
1772568095579229200,0.929229248046875,-0.03422960186004639,-0.008436660162173211,0.0017088497444987295
1772568095589301000,0.939301025390625,-0.03542494912445545,-0.004636738156247884,0.0044376171212643385
1772568095599373000,0.949373046875,-0.04754559502899647,0.010874089042702689,0.004853559244703501
1772568095609444000,0.959444091796875,-0.04156359800994396,0.012204068137984723,0.00418811760591343
1772568095619516200,0.96951611328125,-0.04276362144947052,0.004672311793128028,0.0003174684513360262
1772568095629588200,0.979588134765625,-0.03498480414152145,0.0063330846122000364,-0.0027398915589787066
1772568095639660000,0.989659912109375,-0.033490181669592854,0.006529968024324625,0.004789517565164715
1772568095649732000,0.999732177734375,-0.04486322407722473,0.003359667425137013,0.0086448412864469
1772568095659804200,1.00980419921875,-0.03828501473069191,0.011256813883129506,-0.0055865862269885835
1772568095669876200,1.019876220703125,-0.036034020933508874,0.009512536632223054,-0.006394961734116077
1772568095679948000,1.029947998046875,-0.04396189132332801,-0.001124711447302252,-0.005629804314207286
1772568095690020000,1.04002001953125,-0.03902209683358669,0.0008082111103460192,-0.005020495043136179
1772568095700092200,1.050092041015625,-0.049344753405451774,-0.00036372787901200353,0.007602602224517613
1772568095710164000,1.0601640625,-0.04455459651947021,0.0018253065978642551,0.008332523934263735
1772568095720236000,1.070236083984375,-0.049047816285490986,0.007220370574435218,-0.0030319698407314717
1772568095730308000,1.08030810546875,-0.0496487047880888,0.003390747549990192,0.001814429010823369
1772568095740380200,1.090380126953125,-0.04051788834929466,0.006034768385905772,0.00768885573586449
1772568095750452000,1.100451904296875,-0.04126373828053474,-0.006316325273644179,0.009981697647087276
1772568095760524000,1.11052392578125,-0.03647475043833256,-0.0013281798638403416,0.007339055917505175
1772568095770596000,1.12059619140625,-0.04379997875988483,0.0009528528785798698,0.003054601797647774
1772568095780668000,1.13066796875,-0.046643677753210065,-0.003167496720748022,-0.004773662408906966
1772568095790740000,1.140739990234375,-0.046047465425729746,-0.005077467661071569,0.000996883816551417
1772568095800811000,1.15081103515625,-0.04544949953258037,-0.007379780653538182,0.00020361454701051115
1772568095810883000,1.160883056640625,-0.05173310984671116,0.0022580354593228547,-0.0021726130650378764
1772568095820955100,1.170955078125,-0.03766483700573444,0.004445197639521211,0.0005785305403172969
1772568095831027000,1.18102685546875,-0.043506548771262164,0.00023520612851716578,-0.0009298829949460924
1772568095841099000,1.19109912109375,-0.040813656425476075,0.00017245222376659512,0.0031252376147545874
1772568095851171000,1.201171142578125,-0.04141337588429451,0.0016802903702948242,0.0003941686830483377
1772568095861243100,1.2112431640625,-0.046945291048288346,-0.0023973982642404735,-0.004798760317545384
1772568095871315000,1.22131494140625,-0.043351650470495225,-0.001967345417058095,-0.007717095449659973
1772568095881387000,1.231386962890625,-0.038113165295124055,-0.0010888820820953696,-0.007986760970205068
1772568095891459000,1.241458984375,-0.03886135331392288,-0.002058339035604149,0.002968750145100057
1772568095901531000,1.25153076171875,-0.04320376643240451,-0.010053091516019776,0.00567864842461422
1772568095911603200,1.261603271484375,-0.04948211604952812,-0.00011493161655962466,0.00604366407841444
1772568095921675300,1.27167529296875,-0.053370940181612966,0.006032722559291869,0.004914568716939538
1772568095931747000,1.2817470703125,-0.033318332234025,-0.004764447055989876,0.0013538805606774986
1772568095941819100,1.291819091796875,-0.036760581642389295,-0.0017297372689004987,-0.0013450579334050416
1772568095951891200,1.30189111328125,-0.03975216467380523,0.0003163633396383375,-0.006077968206815421
1772568095961963300,1.31196337890625,-0.04184416851699352,-0.0006229268044698983,-0.0005577069479972123
1772568095972035000,1.32203515625,-0.04289163174331188,0.0009601594022009522,-0.005167191771138459
1772568095982107100,1.332107177734375,-0.045130350580811496,-0.0027111221222206948,-0.0016771211656741796
1772568095992178200,1.34217822265625,-0.05456102674901485,-0.0012176960935350507,0.0012310396322980522
1772568096002250200,1.352250244140625,-0.04902735801935196,0.006418022949295118,-0.0008685081965290009
1772568096012322300,1.362322265625,-0.04214461276829243,0.003505332106677815,-0.002604465143661946
1772568096022394000,1.37239404296875,-0.0375011708766222,-0.0012123623312916606,-0.004111490439437329
1772568096032466200,1.382466064453125,-0.048124271699786184,0.00238333320626989,0.000023910598549991844
1772568096042538200,1.392538330078125,-0.037647301349043844,0.004367985951155424,0.005211122244410216
1772568096052610000,1.402610107421875,-0.049318449920415876,0.000189531222730875,0.007622731697093695
1772568096062682000,1.41268212890625,-0.03704524380266666,-0.00747286576447077,-0.004394782626535743
1772568096072754200,1.422754150390625,-0.04377425979673862,0.0033725086404010653,-0.001514203955233097
1772568096082826200,1.432826171875,-0.051557753279805184,0.005586851088469848,0.00047649493794888257
1772568096092898000,1.44289794921875,-0.04003507326841354,0.00006042495034635067,0.005753028835076839
1772568096102970000,1.45297021484375,-0.04167991786599159,-0.0013694251896813512,0.004596972401440144
1772568096113042200,1.463042236328125,-0.04945815065205097,0.009648730232520029,0.0059439665636047715
1772568096123114000,1.473114013671875,-0.046917818519473076,0.00421218346809037,-0.0014801555551588535
1772568096133186000,1.48318603515625,-0.04197860855162144,0.0027869455710984765,0.006299648133479058
1772568096143258000,1.493258056640625,-0.047663668450713154,0.005234932378260418,0.00795585437528789
1772568096153330200,1.503330078125,-0.04796177461445331,0.0014918733924161641,0.0005210099331103265
1772568096163402000,1.513402099609375,-0.038083354678750035,0.0022608758703805505,-0.00034684067629277705
1772568096173474000,1.52347412109375,-0.04795709843933582,0.0015479874938260764,0.0014020305513404308
1772568096183545000,1.533545166015625,-0.051394671672582624,-0.0012820939661003648,0.007831241614930332
1772568096193617200,1.5436171875,-0.04884907884299755,0.007310597008001059,0.006373973745014518
1772568096203689200,1.553689208984375,-0.03238017460107803,0.0015230174493510275,0.004605210506822914
1772568096213761000,1.563760986328125,-0.04046352781355381,0.00031070991698652507,-0.003133256524428725
1772568096223833000,1.5738330078125,-0.05362754529118537,0.004923774936702102,-0.0033017814917489885
1772568096233905200,1.5839052734375,-0.03866553848087787,0.010528527008043602,0.002740512613486498
1772568096243977000,1.59397705078125,-0.03807049519717693,0.010637366810534149,0.006050988868344574
1772568096254049000,1.604049072265625,-0.04555354442894458,0.005658254090556874,0.0034651736262254415
1772568096264121000,1.61412109375,-0.04240881666243076,0.00598776917271316,0.002197765772603452
1772568096274193200,1.624193115234375,-0.03732113813459873,-0.01049665229874663,-0.00040142040774226187
1772568096284265000,1.634264892578125,-0.03717559218406677,-0.0047757721676025535,0.002756112041417509
1772568096294337000,1.6443369140625,-0.04705225855410099,0.0002080806595738977,-0.005476476916018873
1772568096304409000,1.6544091796875,-0.04600304176211357,-0.0028858211020007726,-0.0006137114515528082
1772568096314481000,1.66448095703125,-0.047944238957762716,0.0025266780665609985,0.0009487520921975373
1772568096324553000,1.674552978515625,-0.04659925408959389,0.003496345082623884,0.012394713605567813
1772568096334624500,1.68462451171875,-0.043460956063866615,0.0038862394493538884,0.005344922958221286
1772568096344696600,1.694696533203125,-0.046751229780912396,-0.004091507097333669,0.004942041245754808
1772568096354768600,1.7047685546875,-0.04525310017764568,0.0011917396683711558,0.001427037128433585
1772568096364840400,1.71484033203125,-0.04390986887514591,-0.0009215626911725849,0.0030877003496512768
1772568096374911500,1.724911376953125,-0.04301087420880794,0.004980692755710333,-0.0020912001255899665
1772568096384983600,1.734983642578125,-0.0478010310947895,0.0014129903367720543,0.0017553375010378658
1772568096395055600,1.7450556640625,-0.027746669581532477,0.004506490239547565,0.0021471315639093515
1772568096405127400,1.75512744140625,-0.03761690621078014,-0.0006662727558519691,-0.0004196684504859149
1772568096415199500,1.765199462890625,-0.04479834214746952,-0.0015453297458589076,0.001878123630490154
1772568096425271600,1.775271484375,-0.04525017756819725,-0.0027269498790148646,0.008665463949367404
1772568096435343600,1.785343505859375,-0.03357844447493553,0.002532413687603548,0.009860190159268676
1772568096445415400,1.79541552734375,-0.04525076209008693,0.0025965101660694926,0.008818754814937711
1772568096455487500,1.805487548828125,-0.04659574695825577,0.007953096162620932,0.0028425116832368072
1772568096465559600,1.8155595703125,-0.03447217844426632,0.0007648651589639484,-0.004095105560217052
1772568096475631400,1.82563134765625,-0.04030862951278686,0.0025172891837079076,-0.00039046062231063843
1772568096485703400,1.835703369140625,-0.03462006248235702,-0.0018684516198467461,0.0055097033321857445
1772568096495775500,1.845775390625,-0.053175709870457645,-0.004146379089727997,0.006242785113397985
1772568096505847600,1.85584765625,-0.042402971443533895,-0.00232308178585954,-0.0033840712140314278
1772568096515919400,1.86591943359375,-0.04614449605941772,-0.0025038086476270108,-0.0014983487989753484
1772568096525991400,1.875991455078125,-0.041507483908534044,0.002780844623874873,0.005587828336004168
1772568096536063700,1.886063720703125,-0.04943710786402225,-0.004142479232745245,0.007410458919592201
1772568096546135600,1.896135498046875,-0.04689093051254749,0.001604841380752623,-0.0044654549762606615
1772568096556206600,1.90620654296875,-0.05003098210394382,-0.0008221574373077601,0.007085537814162672
1772568096566278400,1.9162783203125,-0.04778992517888546,0.005177265640581026,0.008609989168774337
1772568096576350500,1.9263505859375,-0.04150397677719593,-0.002602939906856045,0.0032732129843905567
1772568096586422500,1.936422607421875,-0.04734101236760616,-0.004350203699292615,-0.0017318470275960861
1772568096596494600,1.94649462890625,-0.04644143317937851,0.0008218651763629167,0.0017829926929436623
1772568096606566700,1.956566650390625,-0.05302665678858757,-0.0049518685200251635,0.0002623589969240129
1772568096616638700,1.966638671875,-0.049882513543963426,0.0038816546057816592,0.004068546346854419
1772568096626710500,1.97671044921875,-0.04165069177150726,-0.003694708065781742,0.00661189242042601
1772568096636782600,1.986782470703125,-0.0385118092238903,-0.003971817107265815,0.0036488596300594507
1772568096646854700,1.996854736328125,-0.040758126845955846,-0.0004962316848803311,0.0047894992988556625
1772568096656926700,2.0069267578125,-0.04075754232406616,-0.006465515352832153,0.008211966294515878
1772568096666998500,2.01699853515625,-0.04449380624294281,-0.0020276333700865504,0.007919760148599743
1772568096677070600,2.027070556640625,-0.04449322172105312,0.0015776976455003022,0.001058843136858195
1772568096687142700,2.037142578125,-0.04584171372056007,-0.006113276982214301,0.005772098861727863
1772568096697214700,2.047214599609375,-0.0418014984190464,-0.007211292218836024,-0.003665043579880148
1772568096707286500,2.05728662109375,-0.0516787493109703,0.0005290014433208853,0.005598934251908213
1772568096717358600,2.067358642578125,-0.043750878921151155,-0.004401413296721875,0.009541296935826539
1772568096727430700,2.0774306640625,-0.04973930568099021,-0.003735085741942748,0.0009297185981646179
1772568096737501700,2.087501708984375,-0.048691842454671855,0.00005775806922465562,-0.002954045766312629
1772568096747573500,2.097573486328125,-0.04494914879500866,-0.00017436105306260286,0.009557279956247658
1772568096757645600,2.1076455078125,-0.03447334748804569,-0.004233317587664351,0.000609564999397844
1772568096767717600,2.117717529296875,-0.0450952792674303,0.0024797245191410184,0.0006905760800465941
1772568096777789700,2.127789794921875,-0.03761164551377296,-0.0005620634627062827,0.0015142222215421496
1772568096787861500,2.137861572265625,-0.037010757011175156,0.0005094199600163847,0.006409154656250029
1772568096797933600,2.14793359375,-0.047931963998079294,-0.0007530285906977951,-0.003973744202870875
1772568096808005600,2.158005615234375,-0.03790566002428532,-0.008246206490835174,0.005933993158861994
1772568096818077400,2.168077392578125,-0.04449088363349438,0.003635534357605502,-0.002024948222655803
1772568096828149500,2.1781494140625,-0.03401742041409016,0.0032607096958439793,0.00003863324364647269
1772568096838221600,2.1882216796875,-0.039704233878850935,-0.009192556563392282,0.005412709231115877
1772568096848293600,2.198293701171875,-0.03820902688503265,0.002918462996277958,0.005353069732058793
1772568096858365400,2.208365478515625,-0.04000467813014984,0.009331818903610109,0.003568140810355544
1772568096868437500,2.2184375,-0.03686404201686382,0.0030178134512156246,0.006021233050897717
1772568096878509600,2.228509521484375,-0.03357143021225929,0.003336715807812288,-0.0008325235676951705
1772568096888581600,2.23858154296875,-0.042701077607274054,-0.006183693603612483,-0.0019147658464498817
1772568096898653400,2.2486533203125,-0.033417116433382035,-0.010963301696116104,0.0020013846839778125
1772568096908725500,2.2587255859375,-0.03910159181058406,0.0025738051439169792,0.0029359438540413974
1772568096918797600,2.268797607421875,-0.04299216950833797,-0.010560657445667311,0.00958632338764146
1772568096928868600,2.27886865234375,-0.02757891179919243,-0.0028986988498829304,0.010650390688888728
1772568096938940400,2.2889404296875,-0.037007249879837036,0.0008165496804285794,0.004327325147204101
1772568096949012500,2.299012451171875,-0.044637598627805704,0.00001638487922027707,0.004349281250685453
1772568096959084500,2.30908447265625,-0.041644846552610394,-0.00027201274125836786,0.003911309958528727
1772568096969156600,2.319156494140625,-0.03954641296863556,0.0012098781132604925,0.001638542720954865
1772568096979228400,2.329228515625,-0.0401414562523365,-0.005486477720225229,0.0007235833005048334
1772568096989300500,2.339300537109375,-0.03415595210194587,-0.003861050209170207,-0.0014902568240649997
1772568096999372500,2.34937255859375,-0.04672901794910431,-0.003224880330637097,0.005587663939222693
1772568097009444400,2.3594443359375,-0.04044891476631164,-0.000717126160254702,0.00646249227868393
1772568097019516400,2.369516357421875,-0.04164543107450008,-0.0005854991372209042,0.003515131981484592
1772568097029588500,2.37958837890625,-0.03879997851550579,-0.008118899449892341,-0.0004020779948681593
1772568097039660500,2.38966064453125,-0.03790332193672657,-0.005330501707224175,-0.0018115794666111469
1772568097049732400,2.399732421875,-0.05002455236315727,0.0017512458478100596,-0.003159267748519778
1772568097059804400,2.409804443359375,-0.04852817632555961,-0.008502519339462741,0.005231014254968613
1772568097069876700,2.419876708984375,-0.037303602477908135,-0.011548234577756375,0.007533701706770807
1772568097079948500,2.429948486328125,-0.04419043938219547,-0.0049068238019011915,-0.002596519299224019
1772568097090020600,2.4400205078125,-0.043135961893200875,-0.005318171948613598,0.0007885200291872024
1772568097100092700,2.4500927734375,-0.03804886788725853,-0.00959355684602633,0.007983454768266528
1772568097110164700,2.460164794921875,-0.04657353512644768,0.005401000527013093,0.0033595760935917493
1772568097120236500,2.470236572265625,-0.04298632428944111,0.008189252139208838,0.0037029827037826177
1772568097130307600,2.4803076171875,-0.040891397836804386,-0.00706170028084889,-0.00577228152481839
1772568097140379600,2.490379638671875,-0.047774727609753605,0.004749359084712341,0.009046955813933163
1772568097150451700,2.50045166015625,-0.044483869370818135,-0.0016332546244841068,0.0024351181924343107
1772568097160523800,2.510523681640625,-0.0440367101252079,-0.00046000046087428927,0.0016662892444059252
1772568097170595600,2.520595703125,-0.03430792779326439,-0.0029297333089634775,0.013997490893397479
1772568097180667600,2.530667724609375,-0.04104103544056415,-0.006869438244914636,-0.0018122735863551496
1772568097190739700,2.54073974609375,-0.04239011196196079,0.003962346026021987,0.008549217158555984
1772568097200811500,2.5508115234375,-0.029072949749231337,0.00426710112625733,0.004816003713291138
1772568097210883600,2.560883544921875,-0.035657004314661025,-0.000812604157673195,0.0015464439907111227
1772568097220955600,2.57095556640625,-0.04328793758451938,0.002147606487944722,0.01066788981296122
1772568097231027700,2.58102783203125,-0.042538580521941184,0.0002719944749493152,0.004907609253190458
1772568097241099500,2.591099609375,-0.04044599215686321,-0.00353486872841604,0.0033433190785348414
1772568097251171600,2.601171630859375,-0.04703296933174133,-0.006736322517693042,0.008165314141195267
1772568097261243600,2.61124365234375,-0.051070262023806566,0.007561904887948185,0.012179938343726097
1772568097271315500,2.6213154296875,-0.03879764042794704,0.004716379263717681,-0.00101357922302559
1772568097281387500,2.631387451171875,-0.04867079966664314,0.0016806374301668256,0.001629117305483669
1772568097291459600,2.64145947265625,-0.03893851020336151,-0.001623317752359435,-0.0023570845201611517
1772568097301531600,2.65153173828125,-0.04193360036611557,-0.000520662873238325,0.010740407059900462
1772568097311602700,2.661602783203125,-0.05210661933422088,0.0027406678771134466,0.006334408919606358
1772568097321674500,2.671674560546875,-0.04911386725902557,0.0034619222232140597,0.0003267477363348007
1772568097331747000,2.6817470703125,-0.04491992270052433,-0.00003445939202792942,0.004239537265896797
1772568097341819100,2.691819091796875,-0.03923252471387386,0.0053355432085227215,0.002753335562441498
1772568097351891000,2.701890869140625,-0.04357143070101738,0.00011400916795246303,0.004566467665322125
1772568097361963000,2.711962890625,-0.039832244172692294,-0.006858542391564697,0.008063698663935064
1772568097372035000,2.72203515625,-0.04222936844229698,0.000021216317964717745,0.0012297427243553101
1772568097382107100,2.732107177734375,-0.03863923499584198,0.008092705562710762,-0.00046440264135599136
1772568097392179000,2.742178955078125,-0.0405816012352705,0.0059667263846844435,0.009653561671264469
1772568097402251000,2.7522509765625,-0.04043722432851791,-0.0010311605454888194,0.007048055347986519
1772568097412323000,2.762322998046875,-0.03834814309477806,-0.007594007926108315,0.006085694855544716
1772568097422395000,2.772394775390625,-0.048825113445520395,-0.004719000479066744,0.0037659649373963473
1772568097432467000,2.782467041015625,-0.04209375936388969,-0.0012801394710317254,-0.0034916780406609176
1772568097442539000,2.7925390625,-0.03626198447048664,0.0015924842226784676,-0.0028790077687241137
1772568097452611000,2.802611083984375,-0.04539338543117046,-0.008329062468698249,0.0046204263422638175
1772568097462683000,2.812682861328125,-0.0542190814435482,-0.003382545977225527,0.0028866248195990917
1772568097472755000,2.8227548828125,-0.05003215114772319,-0.007546606854116544,-0.00394926734874025
1772568097482827000,2.832826904296875,-0.049583238336443895,-0.0002907083085738122,-0.0006357223539613187
1772568097492898800,2.84289892578125,-0.054069443839788435,0.00025619411761872466,0.0000519676492549479
1772568097502969900,2.852969970703125,-0.04104688065946102,0.0012464472639840095,0.009502663692180066
1772568097513042000,2.8630419921875,-0.042839609295129776,0.0009438932539895176,0.003029650019481778
1772568097523114000,2.873114013671875,-0.04583002328276634,0.0036700211490970102,0.005514050713740289
1772568097533186000,2.88318603515625,-0.044480362239480015,0.0013551226696930825,0.0045848618385382
1772568097543257900,2.8932578125,-0.038644495692849154,-0.009213462354103103,0.005910320022329688
1772568097553330000,2.903329833984375,-0.03939502179920673,-0.0034615568970330058,0.0025552009081467983
1772568097563402000,2.913402099609375,-0.042245150533318516,-0.00917583375745453,-0.0009463044067844748
1772568097573474000,2.92347412109375,-0.03910100728869438,0.003152299151616171,0.009865304725803435
1772568097583545900,2.9335458984375,-0.04209551292955875,-0.000012631152709946036,0.012022884618490933
1772568097593618000,2.943617919921875,-0.033117841225862504,-0.004534638621797785,0.0024256927769631146
1772568097603690000,2.95368994140625,-0.038355157357454296,0.004643286628043279,-0.00014370105331763623
1772568097613761800,2.96376171875,-0.04104688065946102,-0.00421917033130303,0.0040516682772897186
1772568097623833900,2.973833740234375,-0.04328969115018844,-0.004247565308725461,-0.0021832075242884455
1772568097633906000,2.983906005859375,-0.03236673059761524,-0.00007143953470513224,0.007771656914800405
1772568097643978000,2.99397802734375,-0.041944121760129925,0.00872056427062489,-0.0007372647659853101
1772568097654049800,3.0040498046875,-0.0335667540371418,0.001699616125272587,0.0006686930418014526
1772568097664121900,3.014121826171875,-0.03431611109972,0.009745605602581054,0.006200663004722446
1772568097674194000,3.02419384765625,-0.03910217633247375,0.006051728653861209,-0.0015239764305762945
1772568097684266000,3.034265869140625,-0.03685702775418758,-0.0017877510664518921,0.007614950249437242
1772568097694336800,3.044336669921875,-0.04044716120064258,0.0012255597395822405,0.004966171040013432
1772568097704408800,3.054408935546875,-0.0431347928494215,-0.0031314755592960863,0.004067797428183258
1772568097714481000,3.06448095703125,-0.03998714247345924,-0.004511020284192637,0.0016612660094164312
1772568097724553000,3.074552978515625,-0.051662382698059076,0.0007242682870943098,0.006513437014631926
1772568097734624800,3.084624755859375,-0.03295768222808838,-0.006116994176106527,0.007881035573408007
1772568097744696800,3.09469677734375,-0.04223521366119384,-0.002542661086982116,0.004884411040693521
1772568097754769200,3.10476904296875,-0.0492693500816822,-0.004429543412663042,-0.0002856668072752654
1772568097764841000,3.114841064453125,-0.04941840316355228,-0.0073823927357327184,0.009022387628257274
1772568097774913000,3.1249130859375,-0.04522855025827884,-0.0032646095528267322,0.006754954152926802
1772568097784985000,3.134985107421875,-0.03968786726593971,0.003980822397628799,-0.007476345496345311
1772568097795057200,3.14505712890625,-0.040136780077219006,-0.007920700863515958,0.001811999591719359
1772568097805129000,3.15512890625,-0.04403554108142853,0.005759111515991389,0.008534147453587502
1772568097815201000,3.165200927734375,-0.043588966357707974,0.0021392313852440564,0.009690240419842303
1772568097825273000,3.175273193359375,-0.0443371543765068,-0.004159576498018578,0.00523916102880612
1772568097835345200,3.18534521484375,-0.037303017956018446,-0.0012275781667325644,-0.005815390014182776
1772568097845417000,3.1954169921875,-0.04044716120064258,-0.004998703336436301,0.003840747206658125
1772568097855489000,3.205489013671875,-0.054663318079710005,0.001736112210759893,0.0033634668174199757
1772568097865561000,3.21556103515625,-0.03715338035225868,0.004537031508283689,0.01556970864618197
1772568097875633000,3.2256328125,-0.03550795123279094,0.002495214349217713,0.006139781396649778
1772568097885705000,3.235705078125,-0.040298108118772505,0.0009005199031438678,0.0026076982803642746
1772568097895776000,3.24577587890625,-0.04493687383532524,-0.007779739756556227,-0.0005499802992679179
1772568097905848000,3.25584814453125,-0.03506371459662914,-0.004042242861818522,0.00044220907585695385
1772568097915920100,3.265920166015625,-0.0428472080796957,0.0009587985621765256,-0.0000627447715960443
1772568097925992000,3.275991943359375,-0.04674129290878772,0.0037468492449726906,0.002224598980601877
1772568097936064000,3.28606396484375,-0.03537117311060428,-0.0008191069636959582,0.003066767159476876
1772568097946136000,3.296135986328125,-0.05078735342919826,-0.003983443612977862,0.0033817148601636288
1772568097956207900,3.306207763671875,-0.03911678937971592,-0.00011103175957687198,0.009162490218691527
1772568097966280000,3.316280029296875,-0.03417874845564365,-0.0022170367286540567,0.00842639449648559
1772568097976352000,3.32635205078125,-0.05213818351626396,0.0035367044924758373,0.010088555555045604
1772568097986424000,3.336424072265625,-0.039869069051742555,0.004760391935380175,0.01021267512505874
1772568097996496000,3.346495849609375,-0.038224224454164506,-0.006977401264570653,0.005696969532594085
1772568098006568000,3.35656787109375,-0.04316226537823677,0.001499298647046089,0.00043429976403713225
1772568098016640000,3.366639892578125,-0.04046645042300224,-0.0005235580832231789,0.0032009697320871055
1772568098026712000,3.376712158203125,-0.03987257618308067,-0.00805188949513249,0.002564717655163258
1772568098036783900,3.386783935546875,-0.032686464071273805,-0.00792169637735933,0.005685242562182247
1772568098046856000,3.39685595703125,-0.03134089468121529,-0.007840603098319843,0.005363518060836941
1772568098056928000,3.406927978515625,-0.042861821126937864,-0.0033412001866847275,0.003456131803244352
1772568098066999800,3.416999755859375,-0.047050504988431927,-0.007571841760072856,0.0019883425393141807
1772568098077072000,3.42707177734375,-0.04031798186302185,0.000426865376252681,-0.0017634477422572672
1772568098087143000,3.437142822265625,-0.04510813874900341,-0.001934676123317331,0.004173888151161372
1772568098097215000,3.447215087890625,-0.04690262095034122,-0.004977879744116217,0.002395005377754569
1772568098107287000,3.457287109375,-0.044509003812074656,0.0026063648398034272,0.0013254399174824356
1772568098117358800,3.46735888671875,-0.03672667937278747,0.0013445830093696712,-0.0032940365767106412
1772568098127431000,3.477430908203125,-0.0341810865432024,-0.004729786734562367,-0.007306030430737883
1772568098137503000,3.4875029296875,-0.051835985699296,-0.003433463313709944,-0.0027419921845197675
1772568098147574800,3.49757470703125,-0.055874447435140605,-0.00027061536861583586,0.0036027371997013687
1772568098157646800,3.507646728515625,-0.04480301832258701,0.005079705283930525,0.007264821637514979
1772568098167719000,3.517718994140625,-0.029542320826649666,0.003415397934056818,0.005379391483403742
1772568098177791000,3.527791015625,-0.040762218499183656,-0.00017996880994178353,-0.004990501763671636
1772568098187862800,3.53786279296875,-0.04914133978784084,0.0004792348843067884,0.003987243005260825
1772568098197934800,3.547934814453125,-0.04420271434187889,0.0005228456971701235,-0.0027195246243849397
1772568098208007000,3.5580068359375,-0.04974164376854896,0.00004161065202206373,0.002288914654776454
1772568098218079000,3.568078857421875,-0.03477612982690334,-0.001513738164352253,-0.0009223938082344829
1772568098228151000,3.578151123046875,-0.043002106380462646,-0.005057073327014223,0.000436674384213984
1772568098238223000,3.58822314453125,-0.04404606247544288,-0.011757612145273015,0.00142058912133798
1772568098248295200,3.598295166015625,-0.03715864104926586,-0.0011356803658884018,0.0020222813415341078
1772568098258367000,3.608366943359375,-0.04030278429389,0.004774256063951179,0.0029900303951464592
1772568098268439000,3.61843896484375,-0.03821078045070171,-0.005599354377016425,0.00047329833386465904
1772568098278511000,3.628510986328125,-0.04973404498398304,-0.0070874375103041525,0.0016259937666356563
1772568098288583200,3.638583251953125,-0.044644612890481945,-0.002786214918736368,-0.004916212684754282
1772568098298654000,3.648654052734375,-0.043595980620384216,0.002499187271436676,0.0018847543006762862
1772568098308726000,3.65872607421875,-0.05167758026719093,-0.0018387962670996785,0.002690937850717455
1772568098318798000,3.668798095703125,-0.04584171372056007,-0.01271668470208533,0.005516790660098195
1772568098328870100,3.6788701171875,-0.03521101411283016,0.0021199786955025048,0.004495119462162256
1772568098338942000,3.68894189453125,-0.044639352193474764,-0.0016718422023579477,0.006842815099470317
1772568098349014000,3.699013916015625,-0.042540334087610245,0.005661359363095834,0.0003964885042980313
1772568098359086000,3.709086181640625,-0.025928221982717513,-0.006337523325299844,-0.0005659633196890354
1772568098369158100,3.719158203125,-0.035350130322575564,-0.0016357297093607484,0.004564805431198329
1772568098379230000,3.72922998046875,-0.04432721750438213,0.0023005594267975537,0.0037354602012783285
1772568098389302000,3.739302001953125,-0.05240414097607136,-0.0045694268073886634,0.01133906707279384
1772568098399374000,3.7493740234375,-0.036539632368087764,0.00009534100010059773,-0.0005225077704526484
1772568098409446000,3.75944580078125,-0.03534311605989933,0.0025176545098889616,0.0006213285024277865
1772568098419518000,3.76951806640625,-0.044318449676036833,-0.0094436543807853,0.005521192840579897
1772568098429590000,3.779590087890625,-0.050752866637706756,-0.007535354807740077,-0.0010749357551336288
1772568098439662000,3.789662109375,-0.051499885612726205,-0.0033450087121222167,0.008682104556914419
1772568098449734000,3.79973388671875,-0.04640753090977669,-0.005618643599376082,0.01183322553159669
1772568098459806000,3.809805908203125,-0.038028409621119495,0.002453210971551016,0.003725632927007973
1772568098469878000,3.8198779296875,-0.038923897156119346,-0.005908100665779784,0.0027761867150664326
1772568098479949800,3.82994970703125,-0.032790508967638014,0.0043846448250114915,0.003197882725857198
1772568098490022000,3.84002197265625,-0.05029752408564091,-0.008827778371609746,0.0032578875510953366
1772568098500094200,3.85009423828125,-0.052686465048789974,-0.005859457484772428,0.0025277649119496344
1772568098510165000,3.8601650390625,-0.0429559291511774,-0.005951547081861645,0.0022012729039415715
1772568098520237000,3.870237060546875,-0.04190437427163124,0.00018024280457757413,0.004925327572971582
1772568098530308900,3.880308837890625,-0.0535784454524517,-0.0038514512637630102,0.0005553505941294133
1772568098540381000,3.890380859375,-0.03802197988033294,0.003963789064437151,0.007387388571258634
1772568098550453000,3.900452880859375,-0.0531383004695177,0.0005836725063156337,0.0035268954845145343
1772568098560525000,3.910525146484375,-0.04954232180416584,-0.0021644845575094222,0.00681934289233759
1772568098570597000,3.92059716796875,-0.04520283129513263,0.0017351532295346258,0.007871153500210493
1772568098580669200,3.930669189453125,-0.04654956972897052,-0.0006555412992835045,0.008501761287637055
1772568098590741200,3.9407412109375,-0.04744564178586006,0.002642833525827154,0.003896861308068037
1772568098600813000,3.95081298828125,-0.0523848517537117,0.00012086816700175404,0.0020508498488925396
1772568098610885000,3.960885009765625,-0.044453474232554434,0.0016555577878374606,0.00733045248594135
1772568098620957200,3.970957275390625,-0.03696867143511772,-0.004005892906803638,0.001415547620039433
1772568098631029200,3.981029296875,-0.03876958337724209,-0.004954928126791492,0.005705974822957069
1772568098641101000,3.99110107421875,-0.0401198289424181,-0.009849769229954107,0.004247921501751989
1772568098651173000,4.001173095703125,-0.04745557865798473,-0.005954761952254921,0.005305467730667442
1772568098661245200,4.0112451171875,-0.0511953497081995,0.002385196369793266,0.005199943263269961
1772568098671317000,4.02131689453125,-0.04476210179030895,0.00605345482006669,0.0003317892376333475
1772568098681389000,4.03138916015625,-0.0405728334069252,-0.009430155578395352,0.008234013729542492
1772568098691461000,4.041461181640625,-0.05464052172601223,-0.0015313286199700087,0.004114741842448711
1772568098701533200,4.051533203125,-0.03922492592930794,0.0028321181533858177,0.0066225964775308965
1772568098711605000,4.06160498046875,-0.035035073024034497,0.0013145897299051284,0.005906447564810514
1772568098721676000,4.071676025390625,-0.04117138382196426,0.0009386325569823384,0.004387932760640979
1772568098731748000,4.081748046875,-0.039976036557555196,-0.002422706235432997,-0.0002747983533889055
1772568098741820200,4.091820068359375,-0.039377486142516134,-0.003663207815820351,0.002286740963999182
1772568098751892000,4.10189208984375,-0.05164776965081692,-0.007058850736636668,0.0052927361132577054
1772568098761964000,4.111964111328125,-0.045963878795504565,-0.0037447942852042613,0.0008874686253257095
1772568098772036000,4.1220361328125,-0.04311901075839996,-0.00781506679826416,0.0018311061509884894
1772568098782108200,4.132108154296875,-0.03638707215487957,-0.002066522342059761,0.0026968196022324263
1772568098792180000,4.142179931640625,-0.04072656266391277,0.0016584986635949461,-0.0025489903630688785
1772568098802252000,4.152251953125,-0.036086043381690976,0.0026318463409319517,0.003178063780535012
1772568098812324000,4.162323974609375,-0.04506663769483566,-0.004072601467464119,0.007592446156684309
1772568098822396200,4.172396240234375,-0.041619712111353874,-0.006020520664844662,0.0070176054107956585
1772568098832468000,4.182468017578125,-0.04864566522538662,-0.000671369056077674,0.0051723611366003746
1772568098842540000,4.1925400390625,-0.03711889356076717,-0.0013729597204830497,0.0035195889608934518
1772568098852612000,4.202612060546875,-0.04250993894934654,-0.0020132851843256503,0.009390855614468455
1772568098862684000,4.212683837890625,-0.04640168569087982,0.003507770658936351,-0.002031706757005304
1772568098872756000,4.222755859375,-0.046702129942178726,0.0005670684313867241,-0.00030586934508755804
1772568098882828000,4.232828125,-0.04625555521845817,0.003085572324646637,0.004239409401733428
1772568098892900000,4.242900146484375,-0.03892506619989872,0.003034180064126849,0.0034580862983129915
1772568098902972000,4.252971923828125,-0.04176934971511364,0.003581109889782965,0.0009054974723607301
1772568098913044000,4.2630439453125,-0.04626081591546535,-0.0034971305339131504,0.0026002638925798236
1772568098923115000,4.273114990234375,-0.039084640675783155,-0.000913205854780972,0.0005906593695282936
1772568098933187000,4.28318701171875,-0.0402852486371994,0.0014703465471975505,0.0042073520293459295
1772568098943259000,4.2932587890625,-0.045526656422019,-0.0005739548298995941,0.007967526546772569
1772568098953331000,4.3033310546875,-0.041186581391096114,0.003970191405760124,0.0070894102716818445
1772568098963403000,4.313403076171875,-0.03385375428497791,-0.00036469599339179694,-0.0032457587218843397
1772568098973475000,4.32347509765625,-0.030410335832834243,-0.003972903952654451,0.004580331793893128
1772568098983547000,4.333546875,-0.041032267612218856,-0.004512490722071379,0.006637702715117484
1772568098993619000,4.343618896484375,-0.04357610687613487,0.0044619478449225425,0.008125091728661209
1772568099003691000,4.35369091796875,-0.04970832602083683,0.010033838826278224,0.011639127731602639
1772568099013763000,4.36376318359375,-0.051202363970875735,-0.005050141262728721,0.00664314607521519
1772568099023835000,4.3738349609375,-0.04162380376458168,-0.004193414835538715,0.0023633133315481246
1772568099033907200,4.3839072265625,-0.036384734067320824,-0.00576732222191058,0.009026789808738975
1772568099043979300,4.393979248046875,-0.04790741407871246,-0.0035129491575527933,0.003163542064838111
1772568099054051000,4.404051025390625,-0.05045242238640785,0.0004049275390803814,0.005386880670115351
1772568099064123100,4.414123046875,-0.05778817210197448,0.004815300460392609,-0.0008475384737364947
1772568099074195200,4.4241953125,-0.04252396747469902,0.002932025730749592,-0.0005069631414487957
1772568099084267300,4.434267333984375,-0.035191140368580814,0.0013257413115818054,0.0031263335932977497
1772568099094339000,4.444339111328125,-0.03728372873365879,-0.002774150021607056,-0.006083283702749759
1772568099104411100,4.4544111328125,-0.04641045351922512,-0.005238302512280643,0.00950578723102808
1772568099114483200,4.464483154296875,-0.05074994402825832,-0.00802835335591808,0.0045776649127714335
1772568099124554200,4.47455419921875,-0.04236848465204238,0.005680840381700545,0.0033100743960589167
1772568099134626000,4.4846259765625,-0.04850654901564121,0.0012167827780824154,0.00027344664651900527
1772568099144698000,4.494697998046875,-0.041620881155133245,-0.008098788243625312,0.0026317550093866884
1772568099154770200,4.504770263671875,-0.0429606053262949,0.004710817172611132,-0.0018847360343672334
1772568099164842200,4.51484228515625,-0.03622574411332607,-0.0007060933095868676,0.0006003039807081222
1772568099174914000,4.5249140625,-0.04146247572302818,-0.0037255689949262883,0.001913249742798507
1772568099184986000,4.534986083984375,-0.034276948133110996,-0.004353034977195784,0.015014358052052557
1772568099195058200,4.54505810546875,-0.03966448639035225,-0.012575732728280126,0.009654639383498578
1772568099205130000,4.5551298828125,-0.04474982683062553,0.0021924502766691146,0.0043368053616024554
1772568099215202000,4.5652021484375,-0.05207914680540562,-0.0019299086166545748,0.006666362554021179
1772568099225274000,4.575274169921875,-0.04654255546629429,0.004870145053323358,0.0104348482420668
1772568099235346200,4.58534619140625,-0.04445172066688537,-0.0019968546393327414,0.003564451015926897
1772568099245418000,4.59541796875,-0.04489361921548843,-0.0010567881770897655,0.002622822784259915
1772568099255490000,4.605489990234375,-0.05177519542276859,-0.007090296187670901,0.010603062682133168
1772568099265562000,4.61556201171875,-0.034115035569667815,-0.0011558555042371153,0.01637421169579029
1772568099275634200,4.62563427734375,-0.04204465952515602,-0.003747689495189115,0.004333407828118652
1772568099285706000,4.6357060546875,-0.04892682025432586,-0.008504930492257699,0.005837583579681813
1772568099295778000,4.645778076171875,-0.05027297416627407,0.002785329002747312,0.009560988016985357
1772568099305850000,4.65585009765625,-0.042189620953798294,0.0033514293197542426,0.015189824216812848
1772568099315921200,4.665921142578125,-0.05131809930503368,-0.0025798969579860567,0.00994980467148125
1772568099325993000,4.675992919921875,-0.03979775738120079,-0.012119522526534273,-0.002223722197767347
1772568099336064800,4.686064697265625,-0.035764556342363356,0.0013153660480398684,-0.0045808067179284985
1772568099346137000,4.69613720703125,-0.03980418712198734,0.0034017347348853943,-0.0015610570379532872
1772568099356209200,4.706209228515625,-0.033223055166006085,-0.0015450192186050116,0.0007313099492341279
1772568099366281000,4.716281005859375,-0.03532031970620155,0.0027558197804726657,0.00556671248273924
1772568099376353000,4.72635302734375,-0.05208031584918499,-0.0029785226204432544,0.0025446612478233874
1772568099386425000,4.736425048828125,-0.03861234698891639,-0.0068508888080716125,0.0017698044178076086
1772568099396497000,4.746496826171875,-0.05028057295083999,0.0010064644956495612,0.0012820391671732067
1772568099406569000,4.75656884765625,-0.0510252538383007,-0.0014045604351442306,0.004846508449409157
1772568099416641000,4.76664111328125,-0.047131753531098365,-0.005642471999535337,0.009607110447343439
1772568099426713000,4.776713134765625,-0.05102291575074196,-0.003812096500908956,0.011249160299636423
1772568099436785000,4.786784912109375,-0.04414017049968243,0.0027970559731591493,0.0024149521872401237
1772568099446857000,4.79685693359375,-0.04368775055706501,-0.005906566295819357,-0.0016689743918366729
1772568099456929000,4.806928955078125,-0.04967267018556595,-0.006220564148435369,0.0011561477651819585
1772568099467001000,4.8170009765625,-0.052965866512060165,-0.0022358966927509753,0.004528144948929548
1772568099477073000,4.827072998046875,-0.04099310464560985,0.002593788486020639,-0.000030468203499913213
1772568099487145000,4.83714501953125,-0.042188451910018916,0.01062363967928104,0.000025024843402206896
1772568099497217000,4.847217041015625,-0.038297289690375325,-0.005121206338098272,0.005726560953259467
1772568099507288000,4.8572880859375,-0.04188274696171283,0.0020419724226929245,0.0018699403240345417
1772568099517359900,4.86735986328125,-0.05011164612472057,-0.003991709117824212,0.004902586018200964
1772568099527432000,4.877431884765625,-0.04367547559738159,-0.0015145053493324666,0.0021484467381611464
1772568099537504000,4.88750390625,-0.03380114731490612,0.0012728420805651693,0.007940054017957299
1772568099547576000,4.897576171875,-0.046373628640174865,0.0007702537201344967,0.012502996285632253
1772568099557648000,4.90764794921875,-0.047124154746532435,0.0006554865003563464,0.009153229200001806
1772568099567720000,4.917719970703125,-0.04054010018110275,-0.0002832647876348346,0.004294518856145442
1772568099577792000,4.9277919921875,-0.04772095159590244,-0.002572791363764554,0.009293240458890795
1772568099587863800,4.93786376953125,-0.045780923444032666,-0.00958932819548063,0.007297025140374899
1772568099597935900,4.947935791015625,-0.0432347460925579,0.006587013707496226,0.0061911279913969336
1772568099608008000,4.958008056640625,-0.04787234276533127,-0.0028974841403309253,0.005619721311610192
1772568099618080000,4.968080078125,-0.04712298570275306,-0.006476539070345461,0.003275240544695407
1772568099628151800,4.97815185546875,-0.0469733480989933,0.00041286425036378204,0.0031237215111032126
1772568099638224000,4.988223876953125,-0.03963818290531635,-0.004564385306090117,0.010112265224196016
1772568099648296000,4.9982958984375,-0.04068739969730377,-0.006549421643465757,0.0076793937877751885
1772568099658368000,5.008367919921875,-0.04458382261395454,-0.0028176421034615483,0.007950831140298396
1772568099668439800,5.018439697265625,-0.04532674993574619,-0.007388521082419902,0.011166760979499667
1772568099678511900,5.028511962890625,-0.045023383074998855,-0.0012044895520899445,0.013678067946992814
1772568099688584000,5.038583984375,-0.0296060337126255,-0.007787776932539418,0.01069245799863711
1772568099698655000,5.048655029296875,-0.04247486763596534,0.0015477591649629176,0.005784209424629807
1772568099708726800,5.058726806640625,-0.04097673803269863,-0.0011478639940265566,0.007940784670319407
1772568099718798800,5.068798828125,-0.04336801708340644,-0.008202056821854785,0.005645202812738716
1772568099728871000,5.078870849609375,-0.03498597318530083,-0.0018696023973170668,-0.0002553812668658793
1772568099738943000,5.08894287109375,-0.04381400728523731,0.0021519447363447398,0.003962382558640092
1772568099749014800,5.099014892578125,-0.049205052673816675,-0.003635232963506132,0.013995225871074943
1772568099759086800,5.1090869140625,-0.05010346281826496,-0.007472728767152876,0.006465981143712997
1772568099769159000,5.119158935546875,-0.03753390410244465,0.0034315727507229893,-0.0006660444269888103
1772568099779230700,5.129230712890625,-0.03439268346726894,0.004268781626690179,0.0028601934703998268
1772568099789302800,5.139302734375,-0.041725510573387144,0.0031047702154610303,0.006876534705981612
1772568099799374800,5.149374755859375,-0.046214638686180115,-0.0004843951166141778,0.011382650486193597
1772568099809447200,5.159447265625,-0.04935936645269394,0.0006912793329451232,0.009486370144505053
1772568099819519000,5.16951904296875,-0.042625674283504486,0.00537458744412288,0.00945758244143799
1772568099829591000,5.179591064453125,-0.041133389899134634,0.005029792594444006,0.010678593870066106
1772568099839663000,5.1896630859375,-0.04233049072921276,0.005431514396285638,0.0071305825322866435
1772568099849735000,5.19973486328125,-0.04217734599411487,0.005730926601123064,0.002757427215669304
1772568099859807000,5.209806884765625,-0.0366425082206726,0.0018979791084304451,0.005358421760611236
1772568099869879000,5.219879150390625,-0.050114568734169,-0.0023749398372601717,0.01027275301553309
1772568099879951000,5.229951171875,-0.04847147770226001,-0.008826180069567636,0.009292911665327846
1772568099890023000,5.24002294921875,-0.04098959751427173,0.0008754676602780819,0.0027001440704800188
1772568099900094000,5.250093994140625,-0.04592413130700588,-0.005515521151619031,0.0024028050917200743
1772568099910166000,5.260166015625,-0.04771685994267463,-0.0031354667478241025,-0.0048232371716760095
1772568099920238000,5.270238037109375,-0.04487082286179066,-0.0014773151441011578,0.004798815116472542
1772568099930310000,5.280309814453125,-0.030503859335184097,-0.0007304422995541244,0.0009739961313083767
1772568099940382000,5.2903818359375,-0.036190672799944874,0.0017113248293753713,0.011547540458012371
1772568099950454000,5.3004541015625,-0.04666296697556972,0.0009768730749841778,0.011491627286002039
1772568099960526000,5.310526123046875,-0.0420236167371273,-0.005562566030584275,0.01138314367653802
1772568099970598000,5.320597900390625,-0.040078327888250345,0.0054755818668752905,0.009420008643716574
1772568099980670000,5.330669921875,-0.039028526574373244,-0.00021635529757477341,0.005607281955145299
1772568099990742000,5.340741943359375,-0.04306465022265911,-0.0012019962009042501,0.008120853944960982
1772568100000814000,5.35081396484375,-0.0536918426990509,-0.004290345004526898,0.00505162083376199
1772568100010886000,5.360885986328125,-0.039327217260003086,-0.010960662214457987,0.006692099783476442
1772568100020958000,5.3709580078125,-0.0524935728251934,-0.007303299617534503,0.004531542482413351
1772568100031030000,5.381030029296875,-0.04590834921598434,-0.0017685805751010775,0.00965052946396172
1772568100041101800,5.391101806640625,-0.05054828397631645,-0.0058019734101835635,0.006331175782904029
1772568100051174000,5.401173828125,-0.04725158051848411,0.0002768989789299667,0.002875628501549363
1772568100061246000,5.411245849609375,-0.043214872348308564,-0.007539473860431462,0.008123539092391729
1772568100071318000,5.421318115234375,-0.05100011939704418,-0.0038691239177715032,0.010999204126559197
1772568100081389800,5.431389892578125,-0.05055120658576488,0.0022514869875274596,-0.0029176044797524807
1772568100091462000,5.4414619140625,-0.042024785780906675,0.0006323887525591999,0.0064197491155005984
1772568100101533000,5.451532958984375,-0.040678047347068785,0.001122227229271084,0.0068191236966289575
1772568100111605000,5.46160498046875,-0.03694061438441276,0.0029229382419958707,0.006401099213957786
1772568100121676800,5.4716767578125,-0.05040975228846073,0.011972624869132413,0.006209485631994902
1772568100131748900,5.481748779296875,-0.03679273034632206,-0.005025746606988832,0.0003502016771584749
1772568100141821000,5.491821044921875,-0.04097966064214706,-0.002475632865913212,0.012243852159101514
1772568100151893000,5.50189306640625,-0.05070785845220089,-0.0024585630001034585,0.00963878422724083
1772568100161964800,5.51196484375,-0.04936170454025268,-0.00038372035427019,0.009167787448316813
1772568100172036900,5.522036865234375,-0.0474175847351551,0.00618472565007396,0.0018899601987563072
1772568100182109000,5.53210888671875,-0.0366471843957901,-0.007583550464175641,0.009140808109845966
1772568100192181000,5.542180908203125,-0.034703649112582204,-0.002033076730184257,-0.003003456132300198
1772568100202252800,5.552252685546875,-0.04487900616824626,-0.004939794489741325,0.007147058743052184
1772568100212324900,5.562324951171875,-0.056846507337689395,-0.00027473442130722105,0.00385738781420514
1772568100222397000,5.57239697265625,-0.04352759155929088,0.0003854647867847234,0.000353051221370697
1772568100232468700,5.58246875,-0.04547346493005752,-0.0045353236083872615,0.00408051077928394
1772568100242540800,5.592540771484375,-0.039788405030965805,0.0010788630115799605,-0.0029622656053863465
1772568100252612900,5.60261279296875,-0.046671150282025335,0.0033236279973760247,0.0059282758041284975
1772568100262685000,5.612684814453125,-0.030512042641639706,-0.004656675832578912,0.006943882587458938
1772568100272756700,5.6227568359375,-0.03768997144699097,0.00024201032863929866,0.0021584018765948712
1772568100282829000,5.6328291015625,-0.05489946492314338,0.002990523585490882,0.003520758004672825
1772568100292899800,5.64289990234375,-0.0456271941870451,0.007423692860500887,0.007401526694465428
1772568100302972000,5.652971923828125,-0.045777416312694545,0.004787471738550811,0.008849497013073413
1772568100313043700,5.663043701171875,-0.03649871583580971,0.0008066950066946447,0.0030879743442870674
1772568100323115800,5.67311572265625,-0.04338263013064861,-0.00329136056243442,0.011721654915902763
1772568100333187800,5.683187744140625,-0.049368134281039235,-0.002542177029792219,0.0076860609905794255
1772568100343260400,5.693260498046875,-0.04158522531986236,0.0014171093894634395,0.00892508299993351
1772568100353332500,5.70333251953125,-0.0511602783948183,0.0019067926025483756,0.00838675660584122
1772568100363404500,5.713404541015625,-0.04667524193525314,-0.0019988182675559074,0.00963277461156249
1772568100373476600,5.7234765625,-0.04457856191694736,0.008363576659653335,0.0020745047191157934
1772568100383548400,5.73354833984375,-0.04293137923181057,-0.000606277063768357,0.011549476686771958
1772568100393620500,5.743620361328125,-0.05310615176558494,-0.003603833178244531,0.009168426769133656
1772568100403692500,5.753692626953125,-0.04681844979822635,-0.0019714462034404277,0.009713055039849131
1772568100413764400,5.763764404296875,-0.0489122072070837,-0.0040327991800382735,0.011420626142714172
1772568100423836400,5.77383642578125,-0.04277531188726425,0.00018725706725381314,0.005170132646895945
1772568100433908500,5.783908447265625,-0.05624035813808441,0.0030614151309244332,0.0033001740565523504
1772568100443980500,5.79398046875,-0.04741173951625824,-0.00024298757617361843,0.003615194822475314
1772568100454052400,5.80405224609375,-0.031997897285223,0.001592210228042677,0.008711604646034538
1772568100464124400,5.81412451171875,-0.05160159242153167,-0.008417672333912923,0.008656111599132418
1772568100474196700,5.82419677734375,-0.0578875408232212,0.00038269744096323846,0.008172803327906876
1772568100484267500,5.834267578125,-0.05668868642747402,0.00932918855510652,-0.0006005779753439128
1772568100494339600,5.844339599609375,-0.05040156898200512,-0.004045530797448009,0.005740132820885628
1772568100504411400,5.854411376953125,-0.03827916951179504,0.0053708154513034964,0.005646554519608616
1772568100514483500,5.8644833984375,-0.04501286168098449,0.00255514610921964,0.002364884234126657
1772568100524555500,5.874555419921875,-0.056686932861804956,-0.005432144583947956,0.002110251885931939
1772568100534627300,5.88462744140625,-0.04202887743413448,0.0037457532664295283,0.00024710662886500356
1772568100544699600,5.89469970703125,-0.05071078106164932,-0.0010486231369432062,0.00911903466945514
1772568100554771700,5.904771728515625,-0.045322073760628696,-0.003084238884085789,0.009662512162700294
1772568100564843800,5.91484375,-0.03768938692510128,-0.0019732728343456983,0.006269691386632621
1772568100574915600,5.92491552734375,-0.04621873033940792,-0.005551441848371178,-0.0008995791882276535
1772568100584987600,5.934987548828125,-0.04188333148360252,-0.000642535687237978,0.0010483217428438364
1772568100595059700,5.945059814453125,-0.0436795672506094,0.004491986790159717,0.007609105030540376
1772568100605131500,5.955131591796875,-0.053256958413124084,0.00644969672919251,0.004459171365946531
1772568100615203600,5.96520361328125,-0.05026245277225971,-0.0014033913913648575,0.0022421894362196324
1772568100625275600,5.975275634765625,-0.054153614991903305,-0.010199295053677632,0.0017963270985521375
1772568100635347700,5.98534765625,-0.04532908802330494,-0.0038489213799592107,0.0013688954667188226
1772568100645419500,5.99541943359375,-0.03979191216230392,-0.00587853664457798,0.006303885917179286
1772568100655491600,6.00549169921875,-0.05101531696617603,-0.003994503863109276,0.01419259334038943
1772568100665562600,6.015562744140625,-0.050418520116806025,-0.004403386058099567,0.005570712804421782
1772568100675634700,6.025634765625,-0.04009177189171314,-0.005959894785098731,0.004555599211435765
1772568100685706500,6.03570654296875,-0.04487783712446689,-0.00004005801575258374,0.012911266559269278
1772568100695778600,6.045778564453125,-0.04412555745244026,0.009060746877267956,0.015834497062209994
1772568100705850600,6.0558505859375,-0.039331308913230896,0.003357438935432583,0.011203914652112871
1772568100715922700,6.065922607421875,-0.05354629674851894,-0.003635945349559188,0.0052558747015893454
1772568100725994500,6.075994384765625,-0.04142155919075012,-0.00870952228680253,0.003419836647156626
1772568100736066600,6.086066650390625,-0.04141922110319137,0.006543896084977314,-0.0002341375494375825
1772568100746138600,6.096138671875,-0.04530862975716591,-0.0073698894471861415,0.011779979240708052
1772568100756210700,6.106210693359375,-0.057280807101726526,-0.000697690807422623,0.010858425682689994
1772568100766282500,6.116282470703125,-0.05219079048633575,0.0013610957527533172,0.009580094576254486
1772568100776354600,6.1263544921875,-0.0556307018071413,0.0033851215268019584,0.00259220845028758
1772568100786426600,6.136426513671875,-0.04426058200895786,0.0023747571741696448,0.006312726810760796
1772568100796498400,6.14649853515625,-0.041566520619392394,0.004283321608696132,0.015635248163063078
1772568100806570500,6.156570556640625,-0.04725158051848411,-0.007701021097693592,0.011180990434251725
1772568100816642600,6.166642578125,-0.04455693460702896,-0.002592171917669475,0.0037510596292093393
1772568100826714600,6.176714599609375,-0.040215690532326695,0.0006997549003455787,0.002315455601830035
1772568100836786400,6.186786376953125,-0.047101942914724346,-0.004121326846862211,0.008687639248557389
1772568100846857500,6.196857421875,-0.03947276321053505,0.0002732913828920573,0.011301420209836214
1772568100856930600,6.2069306640625,-0.04381400728523731,-0.002613525232952088,0.008278784453030675
1772568100867001600,6.217001708984375,-0.037377836757898325,0.0005717811391223222,0.007021514400932937
1772568100877073400,6.227073486328125,-0.039622985336184496,-0.008592106452211737,-0.0003565583527088165
1772568100887145500,6.2371455078125,-0.029446459236741065,-0.0007834419952705502,0.01121701159570366
1772568100897217500,6.247217529296875,-0.029297406154870986,0.008702663287753239,-0.000009334083925932644
1772568100907289600,6.25728955078125,-0.03154138568937778,0.0007440050340257585,0.0015139664932154117
1772568100917361400,6.267361328125,-0.04875497081875801,-0.01072736491523683,-0.0012046813483349978
1772568100927433500,6.27743359375,-0.045913609912991524,-0.003997682200884446,0.0018605331748723982
1772568100937505500,6.287505615234375,-0.0472562566936016,0.006747099640034139,0.015477134991902857
1772568100947577600,6.29757763671875,-0.058925651699304575,0.0029357977235689755,0.008510821376927196
1772568100957649400,6.3076494140625,-0.03872457519173622,0.0004723850184120238,0.00749132386976853
1772568100967721500,6.317721435546875,-0.040221535751223565,0.0002579933490604162,0.010468184256087988
1772568100977793500,6.32779345703125,-0.041565936097502705,0.007308185855206101,0.0032406806879676877
1772568100987865300,6.337865234375,-0.048155835881829256,-0.007342279921052977,0.004869432667270302
1772568100997937400,6.3479375,-0.04321896400153637,-0.001938174121500924,0.004379402394313365
1772568101008009700,6.358009765625,-0.035892566636204715,-0.00024724362618289885,0.00644210707778111
1772568101018081800,6.368081787109375,-0.041727264139056204,-0.0008429718964733183,0.0039347456330433486
1772568101028153600,6.378153564453125,-0.035733576682209965,-0.001954705131193623,0.009596698651183396
1772568101038224400,6.388224365234375,-0.04112111493945122,-0.00953536038538441,0.011543101744912564
1772568101048296400,6.39829638671875,-0.045159576675295826,-0.00982024174137041,0.011548709501791744
1772568101058368500,6.408368408203125,-0.03902560396492481,-0.005480057112593204,0.003286474324762821
1772568101068440600,6.418440673828125,-0.03947393225431442,-0.0005056388340424746,-0.0017805450075305998
1772568101078512600,6.4285126953125,-0.04366787681281566,-0.0031760727528482675,0.004366177586559206
1772568101088584700,6.438584716796875,-0.040676293781399725,0.005219104621466249,0.011220299531333147
1772568101098656800,6.44865673828125,-0.04860650225877761,0.011240913061099126,0.009598598347324877
1772568101108728600,6.458728515625,-0.048158758491277695,-0.0057195832232013345,0.006446527524571866
1772568101118800600,6.468800537109375,-0.041730186748504636,0.0017227686719968915,0.004633431954309344
1772568101128872700,6.478872802734375,-0.038138299736380575,0.007650213359063491,0.00527940170764923
1772568101138944500,6.488944580078125,-0.04067863186895847,-0.0017193802716676146,0.0058753217741847035
1772568101149016600,6.4990166015625,-0.05324935962855815,-0.002535729022696614,0.004755523964017629
1772568101159088600,6.509088623046875,-0.04606733916997909,0.005082299099816009,0.006133881378825754
1772568101169160700,6.51916064453125,-0.03694178342819213,-0.0014539434016682207,0.00893743102485314
1772568101179232500,6.529232421875,-0.042328152641654015,-0.002143332171626389,0.0056901379330083724
1772568101189304600,6.5393046875,-0.03439619059860706,0.005186937651224434,0.003634374446980655
1772568101199376600,6.549376708984375,-0.033497195932269096,0.000297302446141839,0.006080379359610378
1772568101209448400,6.559448486328125,-0.036490532529354094,0.0048471934359986335,0.01176801480827853
1772568101219520500,6.5695205078125,-0.046963995748758314,-0.006653704001847654,0.006883494169730693
1772568101229592600,6.579592529296875,-0.04606617012619972,0.0013587211325764654,0.005657496038731187
1772568101239663600,6.58966357421875,-0.04412205032110214,-0.001463551480229944,0.007837159899063409
1772568101249735700,6.599735595703125,-0.043673137509822844,-0.001493289031367749,0.004280636461265385
1772568101259807500,6.609807373046875,-0.04337210873663425,0.008778742464957759,-0.0015188070651143788
1772568101269879600,6.619879638671875,-0.05025310042202472,0.007343421565368771,-0.0023024682560935615
1772568101279951600,6.62995166015625,-0.04576397230923176,0.0007019468574319034,0.01148293252289295
1772568101290023700,6.640023681640625,-0.03903261822760105,0.001926967740897089,0.011709069428965449
1772568101300095500,6.650095458984375,-0.032600539353489874,0.009764849159168079,0.00576782454540953
1772568101310167600,6.66016748046875,-0.04098024516403675,0.006887814151821658,0.005802804527245462
1772568101320239600,6.670239501953125,-0.050557636326551435,0.008103939342778175,0.006685012455563992
1772568101330311400,6.6803115234375,-0.05190495928227901,0.003782733409106731,-0.001115523493848741
1772568101340384000,6.690384033203125,-0.052954760596156114,-0.0025722616408020258,0.01827688524564728
1772568101350456000,6.7004560546875,-0.04502046046555042,0.00223964128610678,0.012563074176106602
1772568101360528000,6.71052783203125,-0.038891163930296895,0.0059204304243903605,0.005050049931183457
1772568101370600000,6.720599853515625,-0.037249826464056966,0.0014216850998811422,0.0025018815520219504
1772568101380672000,6.730672119140625,-0.04323240800499916,0.00248510394715704,0.007991144884377717
1772568101390744000,6.740744140625,-0.04203589169681072,0.00768429829175584,0.00470786716369912
1772568101400815900,6.75081591796875,-0.05146422977745533,0.001802994301356375,-0.003521324260253459
1772568101410888000,6.760887939453125,-0.04398351863324642,0.003610838307766244,-0.0005780190836638211
1772568101420960000,6.7709599609375,-0.03679916008710861,-0.002442525180755183,0.008884038603492081
1772568101431031000,6.781031005859375,-0.04158464079797268,0.0013653152701444923,0.008226670673303306
1772568101441103000,6.79110302734375,-0.04173486292362213,0.003543015502253547,0.0034012963434681296
1772568101451175000,6.8011748046875,-0.05295768320560455,-0.00021567944413982331,0.003892386062350124
1772568101461247000,6.8112470703125,-0.04906301385462284,0.003731743007386103,0.006996982747875154
1772568101471319000,6.821319091796875,-0.046215807729959486,0.0028887619777582586,0.009656630411185323
1772568101481390800,6.831390869140625,-0.04636427628993988,0.0006897632292937487,0.009970591731183231
1772568101491463000,6.841462890625,-0.04666355149745941,-0.002537108129030093,0.009681600455660373
1772568101501535000,6.851534912109375,-0.046961657661199564,0.0004738189236726612,0.006894947145506739
1772568101511607000,6.86160693359375,-0.0484592027425766,0.0015526545357890426,0.0059580498878844075
1772568101521678800,6.871678955078125,-0.04576397230923176,0.012399462845921515,0.002152629722934216
1772568101531751000,6.8817509765625,-0.058330023893713945,-0.00007995163472369313,0.007642970767524093
1772568101541823000,6.891822998046875,-0.04770575402677059,-0.006846139567717909,0.005702193696983158
1772568101551894800,6.901894775390625,-0.048155835881829256,0.006767603571945801,0.012392284186463803
1772568101561966800,6.911966796875,-0.04875672438442707,0.0051617575441952794,0.00469274265980348
1772568101572039000,6.922038818359375,-0.05564122320115566,-0.003340177273377776,0.006893394509237259
1772568101582111000,6.932111083984375,-0.04352349990606308,-0.00651170171527192,0.005433733752835542
1772568101592182800,6.942182861328125,-0.04951192666590214,-0.0063782297950237985,0.005474485888332129
1772568101602254800,6.9522548828125,-0.05370002600550651,-0.005523859721701592,0.0017893128358758986
1772568101612326000,6.962325927734375,-0.04457330121994018,-0.00432374495062977,0.0045803683265112334
1772568101622398000,6.97239794921875,-0.04995616330206394,0.00943649398763664,0.013998623404558748
1772568101632470000,6.982469970703125,-0.04337035517096519,0.002860823658062145,0.01267742127077654
1772568101642541800,6.992541748046875,-0.04486322407722473,-0.003706279772566631,0.011122994903009385
1772568101652614000,7.00261376953125,-0.059227264994382856,0.002219712742930278,0.007111640369798988
1772568101662686000,7.01268603515625,-0.05444003071784973,0.0018764613963663578,0.005991111907269806
1772568101672757800,7.0227578125,-0.04561024305224418,0.004203260376118123,0.007116663604788482
1772568101682829800,7.032829833984375,-0.04860124156177044,0.0002578380854334682,0.01059193849992007
1772568101692902000,7.04290185546875,-0.04171557370126247,0.0007932692695409059,-0.0034027393818832933
1772568101702974000,7.052973876953125,-0.050396308284997936,0.011485909931268542,0.0015063859749585389
1772568101713045800,7.063045654296875,-0.055037412089109415,-0.000650508931139484,0.007542579132970422
1772568101723117800,7.073117919921875,-0.04606090942919254,0.006308041502488777,0.004912358493544161
1772568101733190000,7.08318994140625,-0.0516004233777523,0.004689308593701571,0.005265902905259281
1772568101743261700,7.09326171875,-0.049801849523186684,0.006130529511114582,0.0002733918475918472
1772568101753334000,7.103333984375,-0.04247077598273754,-0.00163199424915947,0.007809413375612348
1772568101763406000,7.113406005859375,-0.05518880325853824,-0.0007632029248401522,0.009902841990906745
1772568101773478100,7.12347802734375,-0.045613165661692615,0.007284330055583268,0.012237586815096436
1772568101783550000,7.133550048828125,-0.05728840588629246,0.0028835834791418164,0.005506470195483416
1772568101793620700,7.143620849609375,-0.0501104770809412,-0.003371805387502536,0.004158672315720468
1772568101803692800,7.15369287109375,-0.04517418972253799,0.006994525929307565,0.004995177938789129
1772568101813765000,7.16376513671875,-0.047420507344603534,0.0024694314539898186,0.0035876674947328863
1772568101823837000,7.1738369140625,-0.05191197354495525,0.0008654394566081463,0.008596088507585227
1772568101833909000,7.183908935546875,-0.05340484245121479,-0.00847620672127232,0.007857106708548963
1772568101843981000,7.19398095703125,-0.037843700703978536,0.0022859007137827573,0.01004917339272797
1772568101854053000,7.20405322265625,-0.0412871191561222,0.008588992046518251,0.004010514282993972
1772568101864125000,7.214125,-0.05250935491621494,0.00021661102590151129,0.008818590418156236
1772568101874197000,7.224197021484375,-0.05265840799808502,0.0024996621954720467,0.005115991306863725
1772568101884269000,7.23426904296875,-0.04757248303592205,0.0008794679819606245,0.000427486430760473
1772568101894340900,7.2443408203125,-0.03904313962161541,0.004669873240869492,0.003838810977898538
1772568101904413000,7.254412841796875,-0.04278524875938892,0.01014055060376413,-0.0034119821342639624
1772568101914485000,7.264485107421875,-0.04099135107994079,0.00483806028147228,0.0012841215264052153
1772568101924557000,7.27455712890625,-0.04443886118531227,-0.008211317840544506,0.009608370822668076
1772568101934628900,7.28462890625,-0.045483986324071884,0.0023497505970764905,0.001891348438244313
1772568101944701000,7.294700927734375,-0.046831893801689145,-0.004081159233255312,0.010069503794703632
1772568101954773000,7.30477294921875,-0.04758358895182609,0.0034260654585435983,0.007711597290635109
1772568101964844000,7.314843994140625,-0.05357026214599609,0.00759967961506918,0.004184117284230887
1772568101974916000,7.324916015625,-0.033217794468998904,-0.0016403328192420303,0.004949329503066838
1772568101984988000,7.33498779296875,-0.046537879291176795,-0.003088759795576334,0.007572846407070756
1772568101995060000,7.34506005859375,-0.04833119244873523,0.0028068375816568732,0.003248279472533613
1772568102005132000,7.355132080078125,-0.0513216064363718,0.0005843300934415311,0.00588900323966518
1772568102015203800,7.365203857421875,-0.038297874212265014,0.0032940000440925357,0.012461750959791242
1772568102025276000,7.37527587890625,-0.04667991811037063,0.0035932569853030145,0.0026634105229750276
1772568102035348000,7.385347900390625,-0.04173837005496025,-0.0013394045107532292,0.007868870211578905
1772568102045420000,7.395419921875,-0.04697393262088299,-0.0037812903706915674,0.011507171915005892
1772568102055491800,7.405491943359375,-0.04488134425580501,0.004258004504349083,0.007712419274542481
1772568102065564000,7.41556396484375,-0.045183542072772975,0.0008533562931697815,0.002101100465096533
1772568102075636000,7.425635986328125,-0.05521510674357414,0.0036441195228602737,0.0009629815469495951
1772568102085707800,7.435707763671875,-0.05910860705077648,0.004804331541806459,0.006541731527354568
1772568102095779800,7.44577978515625,-0.0511778140515089,-0.007249468804756179,0.004760510666389018
1772568102105852000,7.455851806640625,-0.05012918178141117,-0.0009274992416147142,0.00003271495951339602
1772568102115924000,7.465924072265625,-0.05072773219645023,0.00898130669919774,0.006926365197077393
1772568102125995000,7.4759951171875,-0.05387012187540531,-0.005041802692646161,0.012275489406380801
1772568102136066800,7.48606689453125,-0.042048166656494135,-0.002726858547469601,0.0068830923109315335
1772568102146139000,7.496138916015625,-0.056713820868730544,-0.005429112376645207,0.0007520970089361071
1772568102156211000,7.5062109375,-0.05132862069904804,-0.000022421894362196326,0.006279244666267186
1772568102166283000,7.516282958984375,-0.05073299289345741,-0.004451517782453447,0.004055211941245943
1772568102176354800,7.526354736328125,-0.04564706793129444,0.00007976897163316607,-0.009111381085962057
1772568102186427000,7.536427001953125,-0.04908581020832062,0.008988704554364084,-0.0005949336858466267
1772568102196499000,7.5464990234375,-0.052227615365386004,-0.001764735517045483,0.0010804156478494405
1772568102206570800,7.55657080078125,-0.043406011006236075,0.007768259381316602,-0.00024012889880686996
1772568102216642800,7.566642822265625,-0.049696635583043096,0.0027060623546130954,-0.002341539891157299
1772568102226715000,7.57671484375,-0.05253975005447864,0.005395931626250967,-0.00579063916541636
1772568102236787000,7.586786865234375,-0.04176876519322395,-0.004943082425370812,0.008927256690710782
1772568102246858800,7.596858642578125,-0.042669513425230975,-0.0037535803798586127,0.00976840195627883
1772568102256930800,7.606930908203125,-0.046859366330504415,0.0038570498874876645,0.006755045484472066
1772568102267003000,7.6170029296875,-0.04057400245070457,0.0035052133756689726,0.0072259509318508205
1772568102277074700,7.62707470703125,-0.0489554618269205,-0.0058086680124513805,-0.0003336889337748289
1772568102287145700,7.637145751953125,-0.050449499776959415,0.0017068404505029319,0.004948562318086624
1772568102297217800,7.6472177734375,-0.05209317533075809,-0.009012651685532181,0.0029001053556799885
1772568102307289900,7.657289794921875,-0.05179506916701793,-0.00911360044251196,0.00038512686006724834
1772568102317362000,7.66736181640625,-0.04895429278314113,-0.0009302939868997782,-0.001427292856760323
1772568102327433700,7.677433837890625,-0.05045417595207691,0.007244208107749,0.004918295043986291
1772568102337505500,7.687505615234375,-0.04940729724764824,0.006992671898938715,0.007442625889834016
1772568102347577600,7.69757763671875,-0.04970774149894714,-0.004824451881228015,0.005622497790586203
1772568102357649700,7.707649658203125,-0.0494090508133173,-0.0004482643573079258,0.008744228274002671
1772568102367721700,7.7177216796875,-0.039085225197672845,-0.006722969845775514,-0.0014691044381819666
1772568102377793800,7.727793701171875,-0.042379590567946435,0.0031738259968347848,0.0034035796320997175
1772568102387865900,7.737865966796875,-0.05315466708242893,-0.0037682938918005672,0.008326989242620765
1772568102397937700,7.747937744140625,-0.04716857841014862,-0.008529873137269169,0.004800495616905391
1772568102408009700,7.758009765625,-0.05060498259961605,-0.0032642716261092573,0.005901132068876176
1772568102418081800,7.768081787109375,-0.039382746839523315,-0.0031170908409170806,0.004373867702670395
1772568102428152800,7.77815283203125,-0.047615737655758855,-0.012016327013541012,0.0003601020166650414
1772568102438225000,7.788224853515625,-0.05674480052888393,0.00011888627246953546,0.0018145203423686324
1772568102448296700,7.798296630859375,-0.04387772017121315,-0.004338531527807936,0.0018235438990406691
1772568102458368800,7.80836865234375,-0.040136780077219006,0.0008346881253179162,0.005733757879026234
1772568102468440800,7.81844091796875,-0.048963060611486434,0.005853009477676824,0.002837524980865419
1772568102478512600,7.8285126953125,-0.04028407959342003,0.011656407659966499,0.00013325272453948854
1772568102488584700,7.838584716796875,-0.049260582253336904,-0.000207130811503157,0.0004884593703784048
1772568102498656800,7.84865673828125,-0.04582183997631073,0.0030141510562505572,0.00595158361447975
1772568102508728800,7.858728759765625,-0.04283025694489479,0.006955737422034144,0.0055085342884063715
1772568102518800600,7.868800537109375,-0.05300269139111042,0.013052967451745643,0.009809501151647419
1772568102528872700,7.878872802734375,-0.04687047224640846,-0.0034808826520107685,0.010712642270140349
1772568102538944800,7.88894482421875,-0.04717091649770736,-0.0019032763380557296,0.0000868562995456159
1772568102549016800,7.899016845703125,-0.04223346009552478,-0.0035710268871858714,0.008889737691916524
1772568102559088600,7.909088623046875,-0.046718496555089944,0.004948242657678201,0.002734813525062054
1772568102569160700,7.91916064453125,-0.048662616360187524,-0.008273651620186865,0.0024759981920942664
1772568102579231700,7.929231689453125,-0.05569792182445526,-0.00040300957662984724,-0.0017752843105234204
1772568102589303800,7.9393037109375,-0.04836626376211643,0.0011847162725403904,-0.0009173888395540416
1772568102599375600,7.949375732421875,-0.057041737648844716,0.003367357541248202,0.005468238810636103
1772568102609447700,7.95944775390625,-0.054496729341149325,0.0041100930667947976,0.007405563548766076
1772568102619519700,7.969519775390625,-0.0503062919139862,-0.0027124920953996478,0.008189425669144839
1772568102629591800,7.979591796875,-0.03953179992139339,0.0005291841064114124,0.006249452316202223
1772568102639663600,7.98966357421875,-0.03399287049472332,0.007897301721619442,0.0026125936511904
1772568102649735700,7.999735595703125,-0.05075228211581707,0.0010044826011173427,0.000059730830602347846
1772568102659807700,8.009807861328126,-0.04985679458081722,0.005472211732855066,-0.000420965358428657
1772568102669879600,8.019879638671876,-0.04551496598422527,0.006772681605862453,-0.006798117441218346
1772568102679951600,8.02995166015625,-0.0492518144249916,-0.005400744798686355,0.001769548689480871
1772568102690023700,8.040023681640625,-0.05089724354445934,-0.001498567994683981,0.00043875674344599243
1772568102700095700,8.050095703125,-0.04835223523676395,0.007718301026057452,0.004695482606161386
1772568102710167600,8.06016748046875,-0.04355798669755458,0.0055587392388377335,0.009226751093938947
1772568102720238600,8.070238525390625,-0.043108489364385605,0.007513590500503778,0.0036567689418792724
1772568102730310700,8.080310546875,-0.04670096089839935,0.005555332572199404,0.009411697473097592
1772568102740382700,8.0903828125,-0.048052375507354736,0.008923320301109924,0.004727247717604041
1772568102750454800,8.100454833984376,-0.05059913738071918,0.010056689978903159,0.005809124670177698
1772568102760526600,8.110526611328124,-0.05224164389073849,0.003924342970037833,-0.00005109086642041802
1772568102770598700,8.1205986328125,-0.047753100299835205,0.0013037395423278213,0.0077284022949635975
1772568102780670700,8.130670654296875,-0.0393745635330677,-0.0016140841331332922,-0.0005575790838338434
1772568102790742500,8.140742431640625,-0.04311608814895153,-0.00011351597760803997,-0.0003289944923482835
1772568102800814600,8.150814697265625,-0.054635845550894735,-0.0003969542951788753,0.00809714427581057
1772568102810886700,8.16088671875,-0.04655424590408802,0.00043347778012976047,0.0067622789428569375
1772568102820958700,8.170958740234376,-0.044158875200152395,0.0012900032779201865,0.010227763096336275
1772568102831030500,8.181030517578124,-0.041619127589464185,0.0009538757918868214,0.009922752267774193
1772568102841102600,8.1911025390625,-0.038330022916197776,0.007682626924477517,-0.000342931686155498
1772568102851173600,8.201173583984374,-0.038030163186788556,0.006072150387382134,0.006413063646387308
1772568102861245700,8.21124560546875,-0.05224865815341472,-0.008737131812935695,0.006020191871281713
1772568102871317500,8.2213173828125,-0.049557519373297686,-0.0028713633183855562,-0.0009442768464796244
1772568102881389600,8.2313896484375,-0.04626841470003128,0.010945190650690346,0.011836129874736069
1772568102891461600,8.241461669921875,-0.05195581268668174,0.01092837651320733,0.011792345531936733
1772568102901533700,8.25153369140625,-0.04791793547272682,0.00711934875221923,0.005299257185589522
1772568102911605500,8.26160546875,-0.05061491947174072,0.0010992756119463593,0.008795538336131722
1772568102921677600,8.271677490234374,-0.04193418488800525,-0.008378646364621817,-0.0013257321784272789
1772568102931749600,8.28174951171875,-0.0435790294855833,0.003944271513214335,0.003171688838675618
1772568102941821700,8.29182177734375,-0.05240706358551979,0.002225146969873458,0.0024738793002441525
1772568102951893500,8.3018935546875,-0.05075812733471393,-0.004327215549349785,0.0021334683647379277
1772568102961965800,8.3119658203125,-0.04522445860505104,-0.002020135050220415,0.005146185515727848
1772568102972038000,8.322037841796876,-0.04447568606436252,0.0027889731314033267,0.0033789201148785647
1772568102982109700,8.332109619140626,-0.04612111518383026,-0.0017478026485536246,0.003536174769513309
1772568102992180500,8.342180419921876,-0.05300912113189697,-0.0007078834078740328,0.00022553411787375806
1772568103002252500,8.35225244140625,-0.04612579135894775,0.001979666042514145,-0.003708133802935481
1772568103012324600,8.36232470703125,-0.0404378088504076,-0.0001481854321900755,0.00396904976144433
1772568103022396700,8.372396728515625,-0.03834405144155025,-0.0019800679013133047,0.004222330402769148
1772568103032468700,8.38246875,-0.04373334326446056,0.0015878993791062384,0.007619717756099998
1772568103042540800,8.392540771484375,-0.0377449165046215,0.003097673754394054,0.002487816494051367
1772568103052612900,8.40261279296875,-0.04807166472971439,0.0017380849721375853,0.007960658414568752
1772568103062684700,8.4126845703125,-0.06916998233795166,0.0012407481755595654,-0.002333484448865056
1772568103072756700,8.4227568359375,-0.05151157605051994,0.003982219770271331,0.0023701449311338365
1772568103082828800,8.432828857421875,-0.048070495685935015,-0.00033187143602408464,0.0019073497249744832
1772568103092900900,8.44290087890625,-0.04671966559886932,-0.003657179933832958,0.00009931392231956124
1772568103102972700,8.45297265625,-0.04552373381257057,0.00021535978373140097,0.0028972375451587137
1772568103113044700,8.463044677734375,-0.044475101542472834,0.0007165233720559626,0.009844974323827773
1772568103123115800,8.47311572265625,-0.0480669885545969,-0.0018310513520613312,0.006977127269934862
1772568103133187800,8.483187744140626,-0.046265492090582845,-0.0020254322798456998,0.007313921476248651
1772568103143259600,8.493259765625,-0.041920740884542465,0.010556574925594031,0.005551222652662545
1772568103153331700,8.503331787109374,-0.04970364984571934,0.002231585843814537,0.009555380260106175
1772568103163403800,8.51340380859375,-0.044917584612965585,0.0032412286772392686,0.006171455176547169
1772568103173475800,8.523475830078125,-0.0464157142162323,0.005989349208446219,0.003926014337316155
1772568103183547600,8.533547607421875,-0.05225099624097347,0.0038508393424097447,0.009773516522813587
1772568103193619700,8.54361962890625,-0.04447042536735534,0.0061357536755036555,0.0013329656368121503
1772568103203691800,8.55369189453125,-0.044917584612965585,0.010934185199486092,0.001662142792250961
1772568103213763800,8.563763916015626,-0.04746317744255066,0.008090878931805491,0.006976561014354229
1772568103223835600,8.573835693359374,-0.05389584083855152,0.00008072795285843312,0.002220489061065018
1772568103233907700,8.58390771484375,-0.05030395382642746,-0.010893697925470769,-0.003456898988224566
1772568103243978800,8.593978759765625,-0.05075578924715519,-0.001589936072565615,-0.0029568039789795875
1772568103254050800,8.60405078125,-0.03833469909131527,0.006096618108358234,0.008778769864421337
1772568103264122600,8.61412255859375,-0.04522270503938198,-0.0062903323158621785,0.0026306224982254206
1772568103274194700,8.624194580078125,-0.04895955348014831,-0.007513389571104198,0.004717000318225473
1772568103284266800,8.634266845703126,-0.04162380376458168,-0.001166742224432528,0.00526097100181505
1772568103294338800,8.6443388671875,-0.04625789330601692,-0.0008028408154845237,0.0030081505737267434
1772568103304410600,8.65441064453125,-0.04865326400995254,-0.0017392814153805373,0.007299180564843118
1772568103314482700,8.664482666015624,-0.03892448167800903,-0.004674713812768459,0.007959379772935062
1772568103324554800,8.6745546875,-0.04775602290928364,-0.008321399752050637,0.0035338914808817207
1772568103334626600,8.68462646484375,-0.043864860689640045,0.0007868851945269852,0.0017506978585384784
1772568103344698000,8.694697998046875,-0.04476268631219864,-0.0029845413692761212,0.0062036586794070895
1772568103354770400,8.7047705078125,-0.05254384170770645,0.0043913302941247815,0.006008464900869876
1772568103364841200,8.71484130859375,-0.03877952024936676,-0.0008235365436412394,0.008778952527511864
1772568103374913300,8.724913330078126,-0.04147591972649097,-0.0019147932459134607,0.0022251104372553528
1772568103384985000,8.734985107421876,-0.04342120857536792,-0.00621550438082777,0.0026786811573430895
1772568103395057200,8.74505712890625,-0.04566343454420566,0.00038860659194178877,0.001094352841656655
1772568103405129200,8.755129150390625,-0.04416472041904926,-0.0074514759165700524,0.0025424327581189572
1772568103415201500,8.765201416015625,-0.04431260445713996,-0.0031281967568211255,-0.0037203904963098466
1772568103425273300,8.7752734375,-0.051042789494991296,0.003286784852016717,0.010156213963776826
1772568103435345400,8.785345458984375,-0.05253916553258896,0.0026205760282464324,0.006584255494829267
1772568103445417500,8.79541748046875,-0.047752515777945516,0.004742856278689578,0.003991024131234735
1772568103455489300,8.8054892578125,-0.04730184940099716,-0.0041775231466628605,0.007055526268389075
1772568103465561300,8.815561279296874,-0.05343874472081661,0.0025944552063010633,0.0014724289064295588
1772568103475633400,8.82563330078125,-0.04820318215489387,0.0017202113887295127,0.000678100190963596
1772568103485704400,8.835704345703125,-0.04386719877719879,-0.007480172288091853,0.0006804748111404478
1772568103495776500,8.845776611328125,-0.057036476951837535,0.008694726576469839,0.007374784818012267
1772568103505848300,8.855848388671875,-0.05299684617221355,0.0023292466651648283,0.0027434717555530367
1772568103515920400,8.86592041015625,-0.04761106148064136,0.00014928141073323786,0.002416285627800971
1772568103525992400,8.875992431640626,-0.052850715699791904,0.000027399463579058644,-0.0006646196548826993
1772568103536064500,8.886064453125,-0.06527239037752151,-0.008409653424238786,0.002861088519543409
1772568103546136300,8.89613623046875,-0.05494739571809768,0.0019738208236172792,0.000881915667373687
1772568103556208400,8.90620849609375,-0.042674774122238156,-0.004422008560178801,0.008125073462352157
1772568103566280400,8.916280517578125,-0.049556350329518314,0.0036744233295787124,0.006933470791298896
1772568103576352300,8.926352294921875,-0.04476677796542644,-0.00505006819749251,0.0018747443633154034
1772568103586424300,8.93642431640625,-0.04895721539258956,0.0019485950508154927,0.0069835387444123626
1772568103596496400,8.946496337890625,-0.051348494443297386,0.009473273200914263,0.006913359585031867
1772568103606567400,8.9565673828125,-0.056585226052999496,-0.007977335554733872,0.006188552441820502
1772568103616639500,8.966639404296876,-0.04281973555088043,-0.004601328916149214,0.00736839160984382
1772568103626711300,8.976711181640624,-0.034439445218443866,0.00144134878157638,0.006181227651890367
1772568103636783400,8.986783447265625,-0.060924716562032695,0.0005482358667533844,0.0030528482319787144
1772568103646855400,8.99685546875,-0.03728255968987942,-0.007154036473110318,0.0006608385289087891
1772568103656927200,9.00692724609375,-0.04476911605298519,0.00010017243884503841,0.004396992849931121
1772568103666999300,9.016999267578125,-0.05195464364290237,0.00598776917271316,-0.001572053356003016
1772568103677071400,9.0270712890625,-0.0405816012352705,-0.007332927570817991,0.008182831531576812
1772568103687143400,9.037143310546876,-0.039836335825920104,-0.0011017415636684746,0.007819386780355125
1772568103697215200,9.04721533203125,-0.048666123491525645,0.00543075634445995,0.005692731748893857
1772568103707287300,9.057287353515624,-0.03939151466786861,0.005840853249002248,0.007575221027247607
1772568103717359400,9.067359375,-0.044774961271882054,0.005100346213160082,0.006365534710232168
1772568103727430400,9.077430419921875,-0.04567629402577877,-0.0006404624611604958,0.002524312579538673
1772568103737502500,9.08750244140625,-0.05181435838937759,-0.005062598885502666,0.006186196087952703
1772568103747574300,9.09757421875,-0.04194178367257118,-0.00468012064024806,0.005625548264198005
1772568103757646300,9.107646240234375,-0.049725861677527426,0.005807727297535166,0.004491447934042662
1772568103767718400,9.117718505859376,-0.05316811108589172,0.006937324982509017,0.0011488412415608764
1772568103777790200,9.127790283203124,-0.04449088363349438,-0.006067976535763592,0.0024443609448149797
1772568103787862300,9.1378623046875,-0.05556055918037891,-0.0037089831863064316,0.005849675876274704
1772568103797934300,9.147934326171875,-0.05226911641955375,0.005050059064337984,0.0006174743112176656
1772568103808006400,9.15800634765625,-0.05869944172799587,0.005765513857314363,0.004781681318581104
1772568103818078200,9.168078125,-0.04852408467233181,-0.0034745625090785324,0.001207220365293324
1772568103828150300,9.178150390625,-0.05032441209256649,0.0018392894574441015,-0.001781147795729339
1772568103838221300,9.18822119140625,-0.03925415202379227,0.002416102964710444,0.000688968644849956
1772568103848293400,9.19829345703125,-0.03910392989814281,0.003053487552795559,0.007013458958640694
1772568103858365200,9.208365234375,-0.04943243168890476,-0.0010728899285197258,0.004399623198434711
1772568103868437200,9.218437255859374,-0.04090367279648781,-0.00009941438701935112,0.008458652798272669
1772568103878509300,9.22850927734375,-0.05407353549301624,0.0021081512603908776,0.005975019288994372
1772568103888581400,9.238581298828125,-0.04778992517888546,0.0010240184186492115,0.0005979110942222177
1772568103898653200,9.248653076171875,-0.04838789107203483,-0.0006226162772160023,0.001805971709731966
1772568103908725200,9.258725341796875,-0.05317103369534015,0.002073381341109052,0.005279164245631546
1772568103918797300,9.26879736328125,-0.04269640143215656,-0.004280517730256542,0.005152797919604927
1772568103928869000,9.278869140625,-0.04344458945095539,0.010066206725919619,0.0033506986673921347
1772568103938940200,9.288940185546876,-0.05840542721748352,0.006327750849956646,0.000928038097731769
1772568103949012200,9.29901220703125,-0.05167056600451469,-0.00029855368831194933,0.0015863193433731794
1772568103959084300,9.309084228515625,-0.044489714589715,0.004307213940937072,0.0036631438837386667
1772568103969156400,9.31915625,-0.048825697967410084,0.0024389267178718,0.0069571804604493075
1772568103979228200,9.329228271484375,-0.05046878899931907,0.0015635047233663497,0.006909030469786376
1772568103989300200,9.33930029296875,-0.05316343491077423,0.0040566823791246855,-0.0006323613530956208
1772568103999372300,9.349372314453126,-0.04538520212471485,-0.003920059520564973,-0.0006034640521742404
1772568104009444400,9.3594443359375,-0.04538987829983234,0.00327708544190973,0.0033915969333611425
1772568104019516200,9.36951611328125,-0.04553893138170242,-0.003656787208188325,0.00021082973908632992
1772568104029588200,9.379588134765624,-0.048237084424495695,0.007509918972384184,0.005153601637203246
1772568104039660300,9.389660400390625,-0.05542261201441288,0.006805003839731216,-0.000022869418933987616
1772568104049731300,9.3997314453125,-0.04943535429835319,0.0046016120439395305,0.009171038851328193
1772568104059803100,9.40980322265625,-0.03895779942572117,0.0049055999591946595,0.0069864978864789
1772568104069875200,9.419875244140625,-0.04928045599758625,0.005533476933417841,0.0033502054770477114
1772568104079947300,9.429947265625,-0.05451835665106773,0.006608577085332945,-0.005645586405228823
1772568104090019300,9.440019287109376,-0.04763327331244945,-0.007025185929052532,0.002789521120674908
1772568104100091100,9.450091064453124,-0.04958090024888515,-0.0014156389515846968,0.002576152364630252
1772568104110163200,9.4601630859375,-0.04539396995306015,0.00040338403596542775,0.006235679519176483
1772568104120235300,9.4702353515625,-0.04449965146183967,0.0015498323910403996,-0.001684427689295262
1772568104130307000,9.48030712890625,-0.046451954573392865,0.004815355259319767,-0.0032620340032503007
1772568104140379100,9.490379150390625,-0.027453239592909812,0.005267071949038654,-0.000902830591239035
1772568104150451500,9.500451416015625,-0.0741477707505226,-0.0024569281654432413,0.006334463718533516
1772568104160522200,9.510522216796875,-0.03794365394711494,0.009117025375459343,-0.003954473246820271
1772568104170594300,9.52059423828125,-0.06787643539607524,-0.0007845836395863443,0.011094828254450111
1772568104180666000,9.530666015625,-0.04857143094539642,0.003862630244903266,-0.002901274399459362
1772568104190738200,9.54073828125,-0.05291325954198837,-0.002610630022967234,0.007080149252992123
1772568104200810200,9.550810302734375,-0.054260582497715946,0.0030719913238659497,0.0027263927565887567
1772568104210882300,9.56088232421875,-0.05245616342425346,0.006476338140945882,0.0028700207446701823
1772568104220954400,9.570954345703125,-0.05005611654520035,0.007047964016441256,-0.0005781469478271901
1772568104231026400,9.5810263671875,-0.05349310525655746,0.002142738516582176,0.007932710961718112
1772568104241098500,9.591098388671876,-0.050501522225141524,0.0010898593296296893,0.007590473395306617
1772568104251170300,9.60117041015625,-0.05184826065897941,0.0008155450334306806,-0.003326203546952456
1772568104261241000,9.611240966796874,-0.05005670106709003,0.005296435040840879,-0.002264766594208777
1772568104271313200,9.621313232421874,-0.05200082087218761,-0.0044878129385411735,-0.00013990166103467345
1772568104281385500,9.631385498046875,-0.04722001633644104,0.007501498203910887,-0.0004114120787940919
1772568104291457500,9.64145751953125,-0.03465980997085571,0.0008322404399048537,0.006156568134669214
1772568104301529300,9.651529296875,-0.03872457519173622,-0.0012231668530963361,0.006746752580162137
1772568104311601400,9.661601318359375,0.06606441753804683,0.01266379460422322,-0.02513917223056778
1772568104321673500,9.671673583984376,0.013884732967615127,0.007151132129970938,-0.01672437684033066
1772568104331745300,9.681745361328124,-0.06327683264613151,0.0023762367452029136,0.014484836018923669
1772568104341816600,9.691816650390624,-0.1044774425625801,0.0015184417389333246,0.024877452554460614
1772568104351888600,9.701888671875,-0.1339659873753786,0.0008899345770478248,0.016090645514056087
1772568104361959700,9.711959716796875,-0.12660861034989357,0.005128759456891566,0.0025840068775229152
1772568104372031700,9.72203173828125,-0.08586217394173144,0.0005553140615113079,-0.011013342249765991
1772568104382103800,9.732103759765625,-0.08341010461449623,-0.0036200993264559654,0.011449011986982076
1772568104392175600,9.742175537109375,-0.06613456016480922,0.003572542990837246,0.020593582956492898
1772568104402247700,9.75224755859375,-0.04332826959490776,0.0016511099415831268,0.009767543439753354
1772568104412319700,9.76231982421875,-0.018740356305241585,-0.0076377648694440714,-0.010156962882447986
1772568104422391600,9.7723916015625,-0.0158639240860939,0.014422118646791203,-0.005593198630865663
1772568104432463600,9.782463623046874,-0.009865560454130172,0.00943557153902948,0.003572342061437666
