time,seconds_elapsed,z,y,x
1772366184848633900,0.0776337890625,-0.0030110636726021767,0.0009576124139130116,0.0007581496611237526
1772366184858705000,0.087704833984375,0.003074097912758589,0.0010548243299126625,0.0000833272933959961
1772366184868774700,0.097774658203125,0.0012303912080824375,-0.0009649172425270081,0.0016495324671268463
1772366184878845700,0.107845703125,0.002118424978107214,-0.00033084070309996605,-0.0009131431579589844
1772366184888915700,0.117915771484375,0.00020068278536200523,0.00004599662497639656,-0.001228993758559227
1772366184898985700,0.12798583984375,0.0019165673293173313,0.00016273139044642448,-0.0009481236338615417
1772366184909056800,0.138056884765625,-0.001209451351314783,-0.0014471495524048805,-0.00002240855246782303
1772366184919126800,0.148126708984375,0.0016606641001999378,-0.0006086309440433979,-0.0012459540739655495
1772366184929197800,0.15819775390625,-0.0008685402572154999,0.0007040412165224552,-0.0003420775756239891
1772366184939267600,0.168267578125,0.0007566222921013832,-0.00025254348292946815,0.00004000216722488403
1772366184949338600,0.178338623046875,0.0006908425129950047,-0.0032829546835273504,0.0006991345435380936
1772366184959408600,0.18840869140625,0.0007744426839053631,0.0007957848720252514,-0.0037176404148340225
1772366184969478700,0.198478759765625,-0.0007518148049712181,-0.002043144777417183,0.0002139844000339508
1772366184979549700,0.2085498046875,0.0001696455292403698,0.0007473831064999104,-0.0006584636867046356
1772366184989619700,0.21861962890625,0.0011707278899848461,-0.0002909833565354347,-0.0005849599838256836
1772366184999690800,0.228690673828125,-0.0008113817311823368,0.0005225683562457561,-0.0008010314777493477
1772366185009760500,0.238760498046875,0.0007638782262802124,0.00045252731069922447,-0.0008521638810634613
1772366185019831600,0.24883154296875,-0.0005478817038238049,0.001993698999285698,-0.0017270119860768318
1772366185029901800,0.25890185546875,0.0005911523476243019,0.003944996744394302,0.0018456187099218369
1772366185039971600,0.2689716796875,0.00029398174956440926,0.0036776107735931873,-0.0011991830542683601
1772366185050042600,0.279042724609375,-0.00042906682938337326,0.0011995392851531506,0.002603543922305107
1772366185060112600,0.289112548828125,0.0008027339354157448,0.001897741574794054,0.0012573013082146645
1772366185070183700,0.29918359375,-0.0020859972573816776,0.0003334004431962967,0.0024834200739860535
1772366185080253700,0.309253662109375,-0.00021604541689157486,0.0001255543902516365,-0.001965372823178768
1772366185090323700,0.31932373046875,0.00145349046215415,0.0006651105359196663,0.0021217800676822662
1772366185100394800,0.329394775390625,-0.000135903712362051,-0.0017303582280874252,-0.0022363951429724693
1772366185110464800,0.33946484375,-0.00007038982585072517,0.0012049777433276176,-0.0008552800863981247
1772366185120535600,0.34953564453125,0.002029883209615946,-0.0005594301037490368,-0.00021904148161411285
1772366185130605800,0.359605712890625,-0.0007046503014862537,0.0010302108712494373,-0.0010496815666556358
1772366185140676900,0.3696767578125,0.0006994041614234447,-0.0021761541720479727,-0.00013099610805511475
1772366185150746600,0.37974658203125,0.0004597194492816925,-0.0003665359690785408,-0.0032524866983294487
1772366185160816600,0.389816650390625,-0.0012319539673626423,-0.002079117577522993,0.0007642889395356178
1772366185170887700,0.3998876953125,0.0006865873001515865,-0.0011182492598891258,0.0006471099331974983
1772366185180957700,0.409957763671875,0.00005876459181308746,-0.0012337998487055302,-0.0008748229593038559
1772366185191028500,0.420028564453125,-0.0008355244062840939,0.0009028539061546326,0.00007858872413635254
1772366185201098800,0.4300986328125,0.0005368092097342014,-0.0009172279387712479,0.0005530035123229027
1772366185211168800,0.440168701171875,-0.00007731560617685318,-0.0018493342213332653,-0.0010100062936544418
1772366185221239800,0.45023974609375,0.0006204275414347649,-0.004139517433941364,0.0008182590827345848
1772366185231309600,0.4603095703125,-0.0006064907647669315,-0.0007506450638175011,0.0004496779292821884
1772366185241380600,0.470380615234375,-0.0011027520522475243,-0.0017539015971124172,0.0017140582203865051
1772366185251451000,0.480450927734375,-0.0026830723509192467,0.0018634703010320663,0.0005252230912446976
1772366185261522000,0.49052197265625,0.000907176174223423,-0.000021434389054775238,0.0035629877820611
1772366185271591700,0.500591796875,0.0007127653807401657,0.0022305347956717014,0.0007168669253587723
1772366185281661700,0.51066162109375,-0.001055404543876648,0.0012060231529176235,0.0018487228080630302
1772366185291732700,0.520732666015625,-0.00009906385093927383,-0.00008747400715947151,0.0003014262765645981
1772366185301802800,0.530802734375,-0.0006713941693305969,0.0012028710916638374,0.00022877193987369537
1772366185311873800,0.540873779296875,-0.0008740602061152458,-0.002584676258265972,-0.0003169095143675804
1772366185321943800,0.55094384765625,0.0013307183980941772,0.0012983065098524094,-0.0007330514490604401
1772366185332013600,0.561013671875,0.001688381191343069,-0.000941944308578968,-0.0008923085406422615
1772366185342084600,0.571084716796875,0.0005091573111712933,0.00047650840133428574,-0.0016061998903751373
1772366185352154600,0.581154541015625,-0.0009878058917820454,-0.0015469612553715706,0.0008748006075620651
1772366185362225700,0.5912255859375,-0.0002291770651936531,0.0004955497570335865,-0.0014507705345749855
1772366185372295700,0.601295654296875,0.00001396937295794487,0.0003773053176701069,-0.000882985070347786
1772366185382366700,0.61136669921875,-0.002900188323110342,-0.0009317141957581043,-0.003278409130871296
1772366185392436700,0.621436767578125,-0.0003989473916590214,-0.00014901114627718925,0.0020622946321964264
1772366185402506500,0.631506591796875,0.0012134709395468235,-0.0029694759286940098,0.0010353215038776398
1772366185412577500,0.64157763671875,-0.000046737026423215866,-0.0002155010588467121,-0.0005971966311335564
1772366185422647800,0.651647705078125,-0.0010958700440824032,-0.0007202546112239361,0.0012957984581589699
1772366185432718800,0.66171875,0.0006817900575697422,-0.00021665077656507492,-0.0006978437304496765
1772366185442788600,0.67178857421875,0.0013561430387198925,-0.000609436072409153,0.0003565661609172821
1772366185452858600,0.681858642578125,0.0018616109155118465,-0.0015370151959359646,-0.0002817939966917038
1772366185462929700,0.6919296875,-0.00099508510902524,-0.0004682871513068676,0.00003791600465774536
1772366185473000000,0.702,-0.0006177150644361973,-0.00022673839703202248,-0.001313372515141964
1772366185483070700,0.71207080078125,-0.001127677969634533,-0.002864824840798974,0.0004855385050177574
1772366185493140700,0.722140625,-0.00040276534855365753,-0.0027796037029474974,0.0005345400422811508
1772366185503210800,0.732210693359375,-0.002113325521349907,-0.003351477673277259,-0.0021461471915245056
1772366185513281500,0.742281494140625,0.0009740772657096386,-0.0002861791290342808,-0.0005783438682556152
1772366185523351600,0.7523515625,-0.0002932325005531311,-0.0006345193833112717,-0.0004026861861348152
1772366185533422600,0.762422607421875,-0.00017552077770233154,-0.0018169628456234932,-0.0019324058666825294
1772366185543492900,0.772492919921875,0.0016202060505747795,-0.0017764093354344368,-0.00016838684678077698
1772366185553563600,0.782563720703125,-0.0006179148331284523,0.0000166967511177063,-0.000007797963917255402
1772366185563633700,0.792633544921875,0.0005444255657494068,-0.0004591243341565132,-0.0009752204641699791
1772366185573703700,0.80270361328125,0.00009887851774692535,-0.002127861138433218,0.0014581093564629555
1772366185583774700,0.812774658203125,0.002075325697660446,-0.0033348368015140295,-0.0006307754665613174
1772366185593844700,0.8228447265625,0.0008987411856651306,-0.002806465607136488,-0.0005468865856528282
1772366185603915800,0.832915771484375,-0.0007070219144225121,-0.002689751097932458,-0.00039588939398527145
1772366185613985800,0.84298583984375,0.00031616445630788803,-0.0007773353718221188,-0.0008126739412546158
1772366185624059400,0.853059326171875,-0.0018770340830087662,0.0022383457981050014,0.00032425764948129654
1772366185634130400,0.86313037109375,0.0018090475350618362,-0.0012772930786013603,0.0016441205516457558
1772366185644200400,0.873200439453125,-0.000836673192679882,-0.0029254788532853127,0.0024595363065600395
1772366185654271500,0.883271484375,0.002833162434399128,0.00034994306042790413,0.0012033237144351006
1772366185664341500,0.893341552734375,-0.002211174927651882,0.0019499636255204678,0.00003307778388261795
1772366185674411500,0.90341162109375,-0.0013070311397314072,0.002696980256587267,-0.0004987549036741257
1772366185684482600,0.913482666015625,0.0015171035192906857,-0.0017061862163245678,0.0001612706109881401
1772366185694552300,0.92355224609375,0.0013485257513821125,0.0017354167066514492,0.0006254594773054123
1772366185704623400,0.933623291015625,0.00033418647944927216,0.000006891787052154541,-0.00003096647560596466
1772366185714693600,0.943693603515625,0.000025259796530008316,0.002047938294708729,-0.0016682781279087067
1772366185724763600,0.953763671875,0.000028647948056459427,0.0009843595325946808,0.000924910418689251
1772366185734834400,0.96383447265625,-0.001407594420015812,-0.0021560401655733585,0.0002189064398407936
1772366185744904400,0.973904541015625,0.0011955322697758675,0.0005084453150629997,0.00029463786631822586
1772366185754975500,0.9839755859375,-0.002658860757946968,-0.0026716352440416813,-0.0007905997335910797
1772366185765045800,0.994045654296875,0.0005999612621963024,0.00029511377215385437,-0.00006093457341194153
1772366185775116500,1.004116455078125,-0.00007754657417535782,0.0011020516976714134,-0.0014846604317426682
1772366185785186600,1.0141865234375,-0.0001583467237651348,-0.002471024403348565,-0.00018052291125059128
1772366185795256600,1.024256591796875,0.0008089132606983185,0.0007324921898543835,-0.0013541784137487411
1772366185805327400,1.034327392578125,-0.0026039285585284233,-0.0005543380975723267,-0.0003549475222826004
1772366185815397400,1.0443974609375,-0.0006672777235507965,-0.0005205161869525909,-0.00107586570084095
1772366185825468400,1.054468505859375,-0.00047088926658034325,0.0015340778045356274,0.0005318457260727882
1772366185835538700,1.06453857421875,-0.0019899564795196056,-0.0008630338124930859,0.00037392042577266693
1772366185845608400,1.0746083984375,-0.0003158319741487503,0.0012053977698087692,-0.002293122000992298
1772366185855679500,1.084679443359375,-0.0010090526193380356,-0.0008974340744316578,-0.00012664031237363815
1772366185865749500,1.09474951171875,0.0014805975370109081,-0.003781750565394759,0.0007869582623243332
1772366185875820500,1.104820556640625,-0.0006997324526309967,-0.001026976853609085,0.0006543323397636414
1772366185885890600,1.114890625,0.00005853688344359398,-0.0029028840363025665,0.000500665046274662
1772366185895960600,1.124960693359375,-0.0016440222971141338,-0.002156932605430484,-0.0008375737816095352
1772366185906031600,1.135031494140625,0.002173548098653555,0.0005226870998740196,-0.0019463738426566124
1772366185916101400,1.145101318359375,0.000003071967512369156,-0.0013399277813732624,-0.0004161214455962181
1772366185926172400,1.15517236328125,-0.00017007160931825638,-0.003825515042990446,0.00011421367526054382
1772366185936242700,1.16524267578125,0.0025375639088451862,-0.0008611506782472134,0.000468679703772068
1772366185946312400,1.1753125,0.0017350660637021065,-0.0036523041781038046,-0.0023783985525369644
1772366185956383500,1.185383544921875,0.002910585142672062,-0.002318326849490404,-0.000606863759458065
1772366185966453500,1.19545361328125,-0.0006735371425747871,-0.0013300832360982895,0.0005502989515662193
1772366185976524500,1.205524658203125,0.0001842668280005455,-0.0005167536437511444,-0.0006481241434812546
1772366185986594600,1.215594482421875,-0.002273435238748789,-0.0011033089831471443,-0.0007163826376199722
1772366185996664600,1.22566455078125,0.0018131854012608528,-0.002069503767415881,0.0007225228473544121
1772366186006735600,1.235735595703125,-0.0010233554057776928,-0.00027002114802598953,0.0005268566310405731
1772366186016805600,1.2458056640625,-0.0008326726965606213,-0.004008566495031118,0.0014381902292370796
1772366186026876400,1.25587646484375,-0.0005999444983899593,-0.0013869376853108406,0.0011318875476717949
1772366186036946400,1.265946533203125,-0.00043615931645035744,-0.0006372579373419285,0.0010258937254548073
1772366186047016700,1.2760166015625,-0.0011426149867475033,-0.0010061697103083134,0.0008822400122880936
1772366186057087500,1.28608740234375,-0.0025442359037697315,-0.0004905816167593002,0.00020606350153684616
1772366186067157500,1.296157470703125,0.0007194811478257179,-0.0004878663457930088,-0.00023694708943367004
1772366186077228500,1.306228515625,-0.00012553995475172997,0.0007425141520798206,0.0004946235567331314
1772366186087298600,1.316298583984375,0.001618257723748684,-0.0010922998189926147,-0.00021761655807495117
1772366186097368600,1.32636865234375,-0.004228446166962385,0.0007098615169525146,-0.001526559703052044
1772366186107439600,1.336439697265625,0.001100341323763132,0.0001485920511186123,-0.0009864503517746925
1772366186117509600,1.346509521484375,-0.0006357734091579914,-0.0019185538403689861,0.001419982872903347
1772366186127580700,1.35658056640625,0.0005568335764110088,-0.0005471534095704556,-0.0011348873376846313
1772366186137650400,1.366650390625,-0.000020007137209177017,0.0003175749443471432,-0.0015873583033680916
1772366186147720400,1.376720458984375,0.002002987079322338,0.0004723621532320976,-0.0016112085431814194
1772366186157791500,1.38679150390625,-0.001226628664880991,-0.0008845184929668903,0.00027377717196941376
1772366186167861500,1.396861572265625,0.001191712450236082,-0.0007166313007473946,0.00009654462337493896
1772366186177932500,1.4069326171875,-0.0011398852802813053,0.0008165505714714527,0.0005205199122428894
1772366186188002600,1.41700244140625,0.0003883950412273407,-0.0007782583124935627,-0.0014388849958777428
1772366186198072300,1.427072265625,-0.00041321665048599243,0.002018860075622797,-0.00048147886991500854
1772366186208143400,1.437143310546875,0.0008293921127915382,-0.0017404425889253616,-0.0008121998980641365
1772366186218213600,1.447213623046875,-0.0018513454124331474,0.0005991440266370773,0.0012964913621544838
1772366186228284700,1.45728466796875,0.0008404823020100594,-0.003565393853932619,-0.0010028155520558357
1772366186238354400,1.4673544921875,-0.00027032243087887764,-0.0018327413126826286,0.0020323889330029488
1772366186248424400,1.477424560546875,0.0006456431001424789,-0.00034440960735082626,-0.0006408477202057838
1772366186258495500,1.48749560546875,0.0015923967584967613,0.0029504531994462013,0.001542145386338234
1772366186268565500,1.4975654296875,-0.0006812806241214275,-0.0010183420963585377,0.00021963659673929214
1772366186278636500,1.507636474609375,0.0016058427281677723,0.00033907126635313034,0.0003360174596309662
1772366186288706600,1.51770654296875,0.0008191247470676899,-0.0008876402862370014,0.0006093289703130722
1772366186298776600,1.527776611328125,-0.0003792978823184967,-0.0005560768768191338,0.0004380876198410988
1772366186308847400,1.537847412109375,0.0022469814866781235,-0.0004396396689116955,0.00005460623651742935
1772366186318917600,1.547917724609375,0.0003199181519448757,-0.0017600352875888348,-0.0008729724213480949
1772366186328988700,1.55798876953125,-0.001584771554917097,-0.0011583110317587852,0.0006681261584162712
1772366186339058700,1.56805859375,-0.0009836959652602673,-0.0029157311655580997,-0.001986779272556305
1772366186349128400,1.57812841796875,0.0027522598393261433,-0.000029095448553562164,0.00133539829403162
1772366186359199500,1.588199462890625,-0.0005207648500800133,-0.0015007583424448967,-0.0012175077572464943
1772366186369269500,1.59826953125,0.002907741814851761,-0.00038144551217556,0.0006541023030877113
1772366186379340500,1.608340576171875,-0.0006965803913772106,-0.0006016893312335014,-0.0005925232544541359
1772366186389410600,1.61841064453125,0.001420081127434969,-0.0011869370937347412,0.0005697384476661682
1772366186399480600,1.62848046875,-0.002263336908072233,-0.001748064998537302,0.0005132788792252541
1772366186409551600,1.638551513671875,-0.0007350705564022064,-0.00005455920472741127,-0.00025245267897844315
1772366186419621400,1.648621337890625,-0.00025277212262153625,-0.00046974606812000275,-0.0018604686483740807
1772366186429692400,1.6586923828125,0.0017953598871827126,-0.00004339776933193207,0.0014033867046236992
1772366186439762700,1.6687626953125,-0.0012803245335817337,-0.0007581901736557484,-0.0016248943284153938
1772366186449832400,1.67883251953125,0.0017240140587091446,-0.0007211742922663689,-0.0008979681879281998
1772366186459903500,1.688903564453125,0.0009354520589113235,-0.00011557154357433319,-0.00258428230881691
1772366186469973500,1.698973388671875,0.0027601965703070164,0.0009315414354205132,-0.00028948206454515457
1772366186480043800,1.709043701171875,-0.0010332097299396992,-0.0001971065066754818,-0.000898546539247036
1772366186490114600,1.719114501953125,-0.0022591417655348778,-0.0012881401926279068,0.0004139477387070656
1772366186500184600,1.7291845703125,-0.00031823012977838516,0.00040376605466008186,0.0007851924747228622
1772366186510255600,1.739255615234375,-0.0001498502679169178,0.00014422927051782608,-0.0012844987213611603
1772366186520325400,1.749325439453125,-0.0006529218517243862,-0.0005103759467601776,-0.0003926064819097519
1772366186530395400,1.7593955078125,0.0002598189748823643,-0.003027250524610281,-0.00012410711497068405
1772366186540466400,1.769466552734375,-0.0016936101019382477,0.0013315454125404358,-0.002072475850582123
1772366186550536700,1.77953662109375,0.0002582757733762264,-0.00018900679424405098,-0.002239871770143509
1772366186560607500,1.789607421875,0.0004289844073355198,-0.0003306870348751545,0.00017268583178520203
1772366186570677500,1.799677490234375,-0.00045731524005532265,-0.0017094053328037262,0.0012275641784071922
1772366186580747500,1.80974755859375,0.00046442821621894836,0.001714820507913828,-0.00009148381650447845
1772366186590818600,1.819818603515625,0.0004230989143252373,-0.0015303092077374458,0.0019228747114539146
1772366186600888600,1.829888671875,-0.0018275384791195393,-0.00149542186409235,0.00017317850142717361
1772366186610959600,1.839959716796875,-0.0011369590647518635,0.0004160357639193535,-0.0013542957603931427
1772366186621029600,1.850029541015625,-0.0007574590854346752,-0.0005624094046652317,-0.0027740271762013435
1772366186631095800,1.860095703125,0.001129805576056242,0.00024200137704610825,0.0016705477610230446
1772366186641166600,1.87016650390625,0.00023471703752875328,0.00013227900490164757,-0.001322578638792038
1772366186651236900,1.88023681640625,0.001822285819798708,-0.00026328815147280693,0.0010192766785621643
1772366186661308000,1.890307861328125,0.003927248530089855,0.0022842921316623688,0.00054123904556036
1772366186671378000,1.9003779296875,0.0004037097096443176,0.0018599261529743671,-0.00115907471626997
1772366186681447700,1.91044775390625,-0.0006370535120368004,-0.0012152260169386864,-0.000389687716960907
1772366186691518700,1.920518798828125,-0.0008797813206911087,-0.0018877957481890917,0.0022322945296764374
1772366186701589000,1.930589111328125,0.0000011925585567951202,-0.0015186816453933716,0.00028099678456783295
1772366186711658800,1.94065869140625,0.0010278238914906979,-0.001714850775897503,0.0009451564401388168
1772366186721729800,1.950729736328125,-0.0008180132135748863,-0.002537501510232687,0.0002524685114622116
1772366186731799800,1.9607998046875,-0.0003360239788889885,0.0016961051151156425,-0.0004629930481314659
1772366186741870800,1.970870849609375,-0.0001293625682592392,-0.0004765014164149761,-0.00046219397336244583
1772366186751940600,1.980940673828125,-0.00003015296533703804,0.000022539403289556503,0.0005708755925297737
1772366186762011000,1.991010986328125,-0.0010698516853153706,-0.0006610937416553497,0.0005636848509311676
1772366186772082000,2.00108203125,-0.001087503507733345,-0.0025128473062068224,0.00011970661580562592
1772366186782151700,2.011151611328125,-0.00036978162825107574,-0.0005367817357182503,0.0015309164300560951
1772366186792222700,2.02122265625,0.00002831779420375824,-0.0015475978143513203,-0.0014824280515313148
1772366186802292700,2.031292724609375,-0.0007205628789961338,0.0001107524149119854,-0.0012611187994480133
1772366186812362800,2.04136279296875,-0.000819486565887928,-0.001597170252352953,-0.00018362794071435928
1772366186822433800,2.051433837890625,0.0012362077832221985,-0.0005617332644760609,-0.0007231840863823891
1772366186832503800,2.06150390625,0.0016968203708529472,-0.0013260487467050552,0.00038223806768655777
1772366186842573800,2.07157373046875,-0.0003093387931585312,-0.001447755377739668,-0.0007940800860524178
1772366186852644600,2.08164453125,-0.002162320539355278,-0.0004488234408199787,0.0016302913427352905
1772366186862715000,2.09171484375,-0.0009023789316415787,0.0032630907371640205,0.0030918344855308533
1772366186872786000,2.101785888671875,0.0000838511623442173,-0.0008771130815148354,0.00021534692496061325
1772366186882856000,2.11185595703125,0.0001498977653682232,-0.0009298441000282764,-0.0020273011177778244
1772366186892925700,2.12192578125,0.00006458908319473267,0.00004725297912955284,-0.0004633106291294098
1772366186902996700,2.131996826171875,0.0003103986382484436,0.00034286361187696457,-0.0002443986013531685
1772366186913066800,2.142066650390625,0.0008432813920080662,-0.0016650129109621048,0.0012827413156628609
1772366186923137800,2.1521376953125,-0.00028936099261045456,0.001899362076073885,0.0010771453380584717
1772366186933207800,2.162207763671875,0.00047215912491083145,0.0003853030502796173,-0.00044922810047864914
1772366186943277800,2.17227783203125,0.0003411318175494671,-0.000047993380576372147,-0.000545368529856205
1772366186953348900,2.182348876953125,0.0006289244629442692,-0.001672760583460331,-0.00029355473816394806
1772366186963418600,2.192418701171875,0.0012004384770989418,-0.0004975078627467155,0.0019834479317069054
1772366186973489000,2.202489013671875,-0.002097989432513714,-0.0023871639277786016,-0.0003287931904196739
1772366186983560000,2.212559814453125,0.0015023383311927319,-0.0018361560069024563,-0.0023906128481030464
1772366186993629700,2.222629638671875,-0.0017496496438980103,0.0012107715010643005,0.0009539434686303139
1772366187003700700,2.23270068359375,0.0009539918974041939,-0.0006065694615244865,0.0017968341708183289
1772366187013770800,2.242770751953125,0.00035925861448049545,0.005234455224126577,0.00031035207211971283
1772366187023840800,2.2528408203125,-0.0019014989957213402,-0.0009824279695749283,-0.0015717046335339546
1772366187033911800,2.262911865234375,0.0006005787290632725,0.0002452060580253601,-0.001112455502152443
1772366187043981800,2.27298193359375,-0.0014212937094271183,-0.0038707093335688114,-0.00010524783283472061
1772366187054051800,2.2830517578125,0.00162117974832654,-0.0020119198597967625,-0.000033398158848285675
1772366187064122600,2.29312255859375,-0.00016020890325307846,0.00038412585854530334,-0.0006496533751487732
1772366187074192600,2.303192626953125,0.0025648721493780613,-0.0009161802008748055,-0.00007059890776872635
1772366187084263700,2.313263671875,-0.0004237270914018154,0.001093707513064146,-0.00021760538220405579
1772366187094334000,2.323333984375,0.0008220523595809937,0.0015784488059580326,-0.00006416346877813339
1772366187104403700,2.33340380859375,0.002021806314587593,-0.00045966869220137596,-0.0022719241678714752
1772366187114474800,2.343474853515625,-0.0001408248208463192,-0.00018840236589312553,0.00039286166429519653
1772366187124544800,2.353544677734375,0.003176141995936632,0.0025522569194436073,-0.0012929197400808334
1772366187134615800,2.36361572265625,0.00014392798766493797,0.00040912721306085587,0.0007974905893206596
1772366187144685800,2.373685791015625,0.0021628704853355885,0.0033463272266089916,-0.001735175959765911
1772366187154755800,2.383755859375,0.0005893022753298283,0.000632469542324543,-0.00038951635360717773
1772366187164827000,2.393826904296875,0.0008007572032511234,0.0008393973112106323,0.0019729742780327797
1772366187174896600,2.403896728515625,0.0001611313782632351,0.0005551176145672798,0.0009762411937117577
1772366187184967000,2.413966796875,-0.0010631238110363483,-0.0004278551787137985,-0.0004743831232190132
1772366187195038000,2.424037841796875,-0.00020062364637851715,0.00003437697887420654,0.0017643077298998833
1772366187205107700,2.434107666015625,-0.0016720201820135117,-0.0028306515887379646,0.0031512826681137085
1772366187215178800,2.4441787109375,0.00046552205458283424,0.0012179864570498466,0.001326603814959526
1772366187225248800,2.454248779296875,-0.0011270483955740929,0.0015828395262360573,0.0003873063251376152
1772366187235318800,2.46431884765625,0.000028104055672883987,-0.002757231704890728,0.0007184995338320732
1772366187245389800,2.474389892578125,0.0018073623068630695,0.0007626684382557869,-0.000038105063140392303
1772366187255459800,2.4844599609375,0.0018935687839984894,0.0021353219635784626,0.0007647424936294556
1772366187265529900,2.49452978515625,0.0018485612235963345,-0.0015550204552710056,0.002364770509302616
1772366187275600600,2.5046005859375,-0.0006159641779959202,-0.0017457325011491776,-0.0009750593453645706
1772366187285670700,2.514670654296875,0.0011696857400238514,-0.001644266303628683,0.0008915495127439499
1772366187295741700,2.52474169921875,-0.0006385189481079578,-0.000687712337821722,-0.0026351865381002426
1772366187305812000,2.53481201171875,0.002653148490935564,-0.00047812145203351974,0.00147327221930027
1772366187315881700,2.5448818359375,-0.0030682943761348724,0.0010324842296540737,-0.0004415716975927353
1772366187325952800,2.554952880859375,0.0009536114521324635,0.0034783314913511276,-0.0017419932410120964
1772366187336022800,2.565022705078125,0.0015281345695257187,0.0013887733221054077,-0.00017478782683610916
1772366187346093800,2.57509375,0.00032332073897123337,0.00039141951128840446,0.0011357534676790237
1772366187356163800,2.585163818359375,-0.0019176993519067764,-0.0010291235521435738,-0.0005904547870159149
1772366187366233900,2.59523388671875,-0.0013142265379428864,-0.0005691959522664547,-0.00009191036224365234
1772366187376305000,2.605304931640625,0.00009867968037724495,0.00011604605242609978,0.00007331930100917816
1772366187386374700,2.615374755859375,0.0003993506543338299,-0.0007627974264323711,0.0010536294430494308
1772366187396444700,2.625444580078125,0.000504715833812952,-0.0006530140526592731,-0.0016597611829638481
1772366187406515700,2.635515625,-0.0016465852968394756,0.0004758997820317745,-0.0007606782019138336
1772366187416585700,2.645585693359375,0.00042483722791075706,0.0013740798458456993,0.00024656858295202255
1772366187426655700,2.65565576171875,0.0000474671833217144,-0.000005437526851892471,0.0003528287634253502
1772366187436726800,2.665726806640625,-0.0006655645556747913,-0.0003895671106874943,-0.00024214480072259903
1772366187446796800,2.675796875,0.0005962410941720009,-0.0006225937977433205,0.000914999283850193
1772366187456867600,2.68586767578125,-0.0005569485947489738,0.0017001968808472157,-0.0016889646649360657
1772366187466937900,2.695937744140625,0.001073438674211502,-0.0011648316867649555,-0.00014007091522216797
1772366187477008000,2.7060078125,0.00015442399308085442,-0.002842686139047146,-0.00021601375192403793
1772366187487078700,2.71607861328125,-0.000254104845225811,-0.00041548116132616997,-0.00030070263892412186
1772366187497148700,2.726148681640625,-0.00120598915964365,-0.0026956391520798206,-0.00020384881645441055
1772366187507219700,2.7362197265625,-0.00020091235637664795,-0.0009901509620249271,0.00041107553988695145
1772366187517290000,2.7462900390625,-0.001517072319984436,-0.0004761521704494953,-0.0009387936443090439
1772366187527359700,2.75635986328125,-0.0012486251071095467,-0.0008244933560490608,0.00006255507469177246
1772366187537430800,2.7664306640625,0.00034613488242030144,0.0011788359843194485,0.00046144425868988037
1772366187547500800,2.776500732421875,0.0006294953636825085,-0.0036569316871464252,-0.0007849149405956268
1772366187557570800,2.78657080078125,0.0014326111413538456,0.000986345112323761,-0.00039854738861322403
1772366187567641900,2.796641845703125,0.000547642819583416,-0.0007526990957558155,-0.0005820393562316895
1772366187577711900,2.8067119140625,-0.0001330091618001461,-0.00027973437681794167,0.0005951020866632462
1772366187587781600,2.81678173828125,0.0005194651894271374,0.0033434960059821606,-0.001302933320403099
1772366187597852700,2.826852783203125,0.0007781097665429115,0.0011052894406020641,0.0017536841332912445
1772366187607922700,2.836922607421875,0.0008295085281133652,0.0024421969428658485,0.0009243758395314217
1772366187617993700,2.84699365234375,-0.0008132676593959332,0.0016300766728818417,0.0008408976718783379
1772366187628063500,2.8570634765625,-0.00030407169833779335,-0.0009318841621279716,-0.000999346375465393
1772366187638133500,2.867133544921875,0.0003568436950445175,0.0001452416181564331,-0.00013127829879522324
1772366187648204500,2.87720458984375,0.00048627331852912903,0.0015212967991828918,0.0023209601640701294
1772366187658274300,2.8872744140625,-0.0021953079849481583,-0.002736859954893589,-0.001431548036634922
1772366187668344600,2.897344482421875,0.000643088947981596,0.00154523691162467,0.001837482675909996
1772366187678415600,2.90741552734375,0.001602016855031252,0.00034022144973278046,-0.0021385690197348595
1772366187688485400,2.9174853515625,0.0018664686940610409,0.0008363686501979828,0.0007256614044308662
1772366187698556400,2.927556396484375,0.0007174555212259293,0.0024386593140661716,-0.0005360310897231102
1772366187708626400,2.93762646484375,-0.0007747136987745762,0.0011411667801439762,-0.0012071477249264717
1772366187718696400,2.947696533203125,-0.0003751893527805805,-0.000670330598950386,-0.0003631133586168289
1772366187728767500,2.957767578125,0.0003406684845685959,-0.0018487793859094381,-0.00036124885082244873
1772366187738837500,2.96783740234375,0.00036945706233382225,0.0006437818519771099,0.0008169692009687424
1772366187748907500,2.977907470703125,-0.000317371916025877,-0.00028938986361026764,-0.00008903816342353821
1772366187758978300,2.987978271484375,0.00027501629665493965,0.002140551805496216,0.001063006930053234
1772366187769048600,2.998048583984375,-0.0010001049377024174,0.0004600971005856991,-0.0009332988411188126
1772366187779119600,3.00811962890625,-0.0015168855898082256,0.002083582803606987,-0.0008241366595029831
1772366187789189400,3.018189453125,0.00003200909122824669,0.0002478659152984619,-0.002045195549726486
1772366187799259400,3.02825927734375,-0.001278758980333805,-0.0018621787894517183,-0.0006862813606858253
1772366187809330400,3.038330322265625,0.0014792107976973057,0.0007253484800457954,0.00021093711256980896
1772366187819400400,3.048400390625,-0.0021385978907346725,0.0020147738978266716,0.0005728527903556824
1772366187829470500,3.058470458984375,-0.0008299201726913452,0.00021873833611607552,-0.0006066616624593735
1772366187839541500,3.06854150390625,-0.00043700775131583214,-0.0022421907633543015,-0.002359333448112011
1772366187849611500,3.078611572265625,-0.0003935988061130047,-0.004916004370898008,-0.000050372444093227386
1772366187859682600,3.0886826171875,-0.0005678660236299038,-0.0025125478859990835,0.0001919865608215332
1772366187869752300,3.09875244140625,-0.0010869153775274754,-0.0014289077371358871,-0.00004876311868429184
1772366187879822600,3.108822509765625,0.002697030548006296,-0.0013322941958904266,-0.0010714270174503326
1772366187889893600,3.1188935546875,-0.003389091230928898,-0.0012968741357326508,-0.00032813847064971924
1772366187899963400,3.12896337890625,0.0007818657904863358,-0.001378125511109829,0.00031841546297073364
1772366187910033400,3.139033447265625,-0.00017021410167217255,-0.0014614826068282127,0.0007277429103851318
1772366187920104400,3.1491044921875,-0.0016479245387017727,-0.0020310382824391127,0.0006412612274289131
1772366187930174500,3.159174560546875,0.0018940800800919533,0.0023770262487232685,0.0005866661667823792
1772366187940244500,3.169244384765625,-0.00017340993508696556,-0.001570237334817648,0.0008147666230797768
1772366187950315500,3.1793154296875,-0.00023253215476870537,-0.0008866037242114544,-0.0008121589198708534
1772366187960385500,3.189385498046875,-0.0009060059674084187,0.0018831882625818253,-0.00007915962487459183
1772366187970456300,3.199456298828125,0.0008527454920113087,-0.0011115362867712975,-0.0008946191519498825
1772366187980526300,3.2095263671875,-0.0008673630654811859,0.0033063902519643307,-0.001041199080646038
1772366187990596600,3.2195966796875,-0.0010314136743545532,-0.0009536026045680046,0.001949797384440899
1772366188000667400,3.22966748046875,-0.002050795592367649,0.003751094453036785,-0.0031063202768564224
1772366188010737400,3.2397373046875,-0.001095520332455635,0.0002295970916748047,-0.0008972287178039551
1772366188020807400,3.249807373046875,-0.002163706347346306,-0.0018677297048270702,-0.0010448694229125977
1772366188030878500,3.25987841796875,-0.0004140092059969902,-0.000818710308521986,0.0009642196819186211
1772366188040948500,3.269948486328125,0.0016371696256101131,0.00032495055347681046,0.0008438341319561005
1772366188051018500,3.2800185546875,-0.001884861383587122,0.00004451954737305641,0.000824660062789917
1772366188061089500,3.290089599609375,-0.0004454655572772026,0.00012579793110489845,-0.0010731685906648636
1772366188071159300,3.3001591796875,-0.0005205664783716202,-0.001342935487627983,-0.0005661025643348694
1772366188081230300,3.310230224609375,-0.002248702570796013,-0.00017159106209874153,0.00011839345097541809
1772366188091300600,3.320300537109375,-0.0008801035583019257,-0.00036333873867988586,-0.0019793789833784103
1772366188101370400,3.330370361328125,0.0008284305222332478,0.0005450895987451077,0.0014163078740239143
1772366188111441400,3.34044140625,-0.00030154874548316,-0.002437384333461523,0.00035530515015125275
1772366188121511400,3.350511474609375,0.0006883898749947548,-0.0024117324501276016,0.0025780871510505676
1772366188131581400,3.36058154296875,-0.00009005237370729446,0.0010423874482512474,-0.000692807137966156
1772366188141652200,3.37065234375,0.00019213231280446053,-0.0015546292997896671,-0.00015730876475572586
1772366188151722500,3.380722412109375,-0.0008158744312822819,-0.00016792118549346924,-0.00001802481710910797
1772366188161792500,3.39079248046875,-0.001321996096521616,-0.0005653300322592258,0.00024797674268484116
1772366188171863600,3.400863525390625,0.0001400792971253395,-0.00048783188685774803,-0.0005885222926735878
1772366188181933300,3.410933349609375,0.000144904013723135,0.0013627950102090836,-0.0010188734158873558
1772366188192004400,3.42100439453125,0.0005571614019572735,-0.00039142929017543793,0.001977182924747467
1772366188202074600,3.43107470703125,0.0015777037478983402,-0.002606944413855672,0.00042930804193019867
1772366188212144400,3.441144287109375,-0.0022378070279955864,-0.0009587141685187817,0.001244235783815384
1772366188222215400,3.45121533203125,0.00029448606073856354,0.001996138133108616,-0.00028026942163705826
1772366188232285400,3.461285400390625,0.0004745158366858959,-0.004692124668508768,-0.00040623731911182404
1772366188242355500,3.47135546875,-0.0010908250696957111,0.0003682812675833702,-0.0002129673957824707
1772366188252426500,3.481426513671875,0.000056197866797447205,0.00023192726075649261,-0.0002995198592543602
1772366188262496500,3.49149658203125,-0.0015719677321612835,-0.0004066429100930691,0.0010518012568354607
1772366188272566500,3.50156640625,-0.0010294816456735134,-0.002406410640105605,0.00003527291119098663
1772366188282637300,3.51163720703125,0.000408797524869442,0.0014424757100641727,0.0018111923709511757
1772366188292707300,3.521707275390625,0.0018580895848572254,-0.00009576603770256042,0.0006894683465361595
1772366188302778400,3.5317783203125,0.0015414636582136154,-0.001405180897563696,-0.0017870282754302025
1772366188312848600,3.5418486328125,-0.0003283414989709854,-0.00010236259549856186,-0.0008432036265730858
1772366188322918400,3.55191845703125,-0.0002339412458240986,0.001200544647872448,-0.0007372433319687843
1772366188332989400,3.561989501953125,0.0010571591556072235,0.0006085238419473171,-0.000010467134416103363
1772366188343059500,3.5720595703125,-0.0003284025005996227,-0.0006629908457398415,-0.0002402709797024727
1772366188353129500,3.58212939453125,-0.0014938018284738064,-0.000174832995980978,-0.0022608106955885887
1772366188363200500,3.592200439453125,0.002861407119780779,-0.000612164381891489,-0.0006544245406985283
1772366188373270500,3.6022705078125,-0.0005564941093325615,-0.002397547708824277,0.0003176294267177582
1772366188383340300,3.61234033203125,0.00035647209733724594,-0.0018211575224995613,-0.0007943864911794662
1772366188393411300,3.622411376953125,-0.0013460870832204819,0.00010617217049002647,0.00037554092705249786
1772366188403481600,3.632481689453125,-0.0023944745771586895,-0.00045057758688926697,-0.00004962459206581116
1772366188413552600,3.642552734375,0.0003813379444181919,0.0026956815272569656,0.001268906518816948
1772366188423622400,3.652622314453125,0.0007527470588684082,-0.0017202191520482302,-0.0011177733540534973
1772366188433692400,3.6626923828125,-0.00019746879115700722,-0.003454469610005617,0.0018135681748390198
1772366188443763500,3.672763427734375,-0.00036562373861670494,-0.00019689742475748062,0.0016904892399907112
1772366188453833200,3.682833251953125,0.003078375943005085,-0.0026475382037460804,0.00040791090577840805
1772366188463903500,3.692903564453125,-0.00007616309449076653,-0.0015520721208304167,0.0005044322460889816
1772366188473974500,3.702974609375,0.0013768579810857773,0.0004447661340236664,0.0003901822492480278
1772366188484044500,3.71304443359375,0.0008301311172544956,0.0008024899289011955,-0.0010325629264116287
1772366188494114300,3.7231142578125,-0.0001781415194272995,-0.0018271151930093765,0.0007091443985700607
1772366188504185300,3.733185302734375,-0.0008505107834935188,-0.0012527802027761936,-0.001976238563656807
1772366188514255600,3.743255615234375,-0.0023274999111890793,-0.0013260170817375183,-0.0015770308673381805
1772366188524326700,3.75332666015625,0.0009787245653569698,-0.0011098706163465977,-0.001814860850572586
1772366188534396400,3.763396484375,-0.00036590592935681343,-0.00007629767060279846,-0.0010473374277353287
1772366188544466400,3.773466552734375,0.002666542772203684,-0.003658758709207177,0.00007922481745481491
1772366188554537500,3.783537353515625,0.0000766185112297535,0.0015346715226769447,-0.00034501682966947556
1772366188564607500,3.793607421875,-0.0001652296632528305,0.001250949688255787,0.0018608104437589645
1772366188574677500,3.803677490234375,0.0005242624320089817,-0.000970127061009407,0.0006080595776438713
1772366188584748500,3.81374853515625,-0.002048477064818144,0.0018922067247331142,0.0017718570306897163
1772366188594818300,3.823818359375,0.003603016957640648,-0.0013208966702222824,-0.0015853233635425568
1772366188604888300,3.833888427734375,-0.001572523731738329,-0.0006691096350550652,-0.0007697483524680138
1772366188614959400,3.84395947265625,0.0005673258565366268,-0.0016800456214696169,0.0029802490025758743
1772366188625029600,3.854029541015625,-0.00017399899661540985,-0.0010555824264883995,0.00046262796968221664
1772366188635099600,3.864099609375,-0.0012147626839578152,0.002482693176716566,-0.0007437840104103088
1772366188645170700,3.874170654296875,0.00030970340594649315,0.002618186641484499,-0.0003215288743376732
1772366188655240400,3.884240478515625,0.0007584458217024803,-0.0032980251125991344,-0.0008355183526873589
1772366188665311500,3.8943115234375,-0.00037450483068823814,0.0013572103343904018,0.0014848420396447182
1772366188675381800,3.9043818359375,0.0018601538613438606,-0.0017200724687427282,0.00013142358511686325
1772366188685450500,3.914450439453125,0.0014197733253240585,-0.0031146688852459192,-0.0007850006222724915
1772366188695520500,3.9245205078125,-0.0012841345742344856,-0.0005521751008927822,-0.0007815379649400711
1772366188705590500,3.934590576171875,0.0020654047839343548,-0.0017523306887596846,-0.0015595685690641403
1772366188715661600,3.94466162109375,-0.0022345352917909622,-0.0005107652395963669,-0.003279704600572586
1772366188725731600,3.954731689453125,-0.0009003072045743465,0.002534469123929739,-0.0006923181936144829
1772366188735801300,3.96480126953125,-0.000955966766923666,0.00037144962698221207,0.0024984152987599373
1772366188745872400,3.974872314453125,-0.0018443996086716652,0.0002976320683956146,0.00027707405388355255
1772366188755942700,3.984942626953125,0.00024005677551031113,0.000219068955630064,0.00023446325212717056
1772366188766013700,3.995013671875,-0.0013440498150885105,0.002489984966814518,0.0007986230775713921
1772366188776083500,4.00508349609375,-0.0004457659088075161,-0.0016230011824518442,0.0007043471559882164
1772366188786153500,4.015153564453125,-0.00043700216338038445,-0.00003658561035990715,0.0003235861659049988
1772366188796224500,4.025224609375,0.0011110934428870678,0.0011354717426002026,-0.0006231674924492836
1772366188806294800,4.035294677734375,-0.00017683254554867744,0.00023891450837254524,-0.0006323568522930145
1772366188816364500,4.045364501953125,0.0004428848624229431,0.0002660783939063549,0.00006272736936807632
1772366188826435600,4.055435546875,-0.0001523103564977646,-0.0026108557358384132,-0.0016523068770766258
1772366188836505600,4.065505615234375,-0.00015710387378931046,0.0004461868666112423,-0.00005174707621335983
1772366188846575600,4.07557568359375,-0.002452809363603592,-0.002506375079974532,0.0007765293121337891
1772366188856646700,4.085646728515625,0.00021328125149011612,0.0009522722102701664,-0.0006445338949561119
1772366188866716700,4.095716552734375,-0.000043215230107307434,-0.0045639518648386,0.00015920307487249374
1772366188876786400,4.105786376953125,0.00024413969367742538,0.0007871375419199467,0.000944036990404129
1772366188886857500,4.115857421875,0.0027435701340436935,-0.000033760908991098404,0.0005157804116606712
1772366188896927500,4.125927490234375,-0.00275292806327343,-0.00015759794041514397,-0.00041472818702459335
1772366188906997800,4.135997802734375,0.00014601834118366241,0.002659155987203121,-0.00018973834812641144
1772366188917068500,4.146068603515625,0.0006863735616207123,-0.003268508007749915,-0.00005551520735025406
1772366188927138600,4.156138671875,-0.000768385361880064,0.0017284462228417397,-0.0009611770510673523
1772366188937209600,4.166209716796875,-0.0009265770204365253,-0.0030521939042955637,0.0003501633182168007
1772366188947279600,4.176279541015625,-0.004229681100696325,-0.0009929025545716286,0.000664188526570797
1772366188957349600,4.186349609375,0.0011224737390875816,-0.00428137369453907,-0.0017680767923593521
1772366188967420700,4.196420654296875,0.00008359132334589958,-0.003747042268514633,0.0007429793477058411
1772366188977490700,4.20649072265625,0.0009003826417028904,0.0002666078507900238,0.000700102187693119
1772366188987560400,4.216560546875,-0.0005996054969727993,-0.004357798025012016,0.0012600747868418694
1772366188997631500,4.226631591796875,0.0007876353338360786,0.001481715589761734,0.00023182854056358337
1772366189007701800,4.23670166015625,-0.0011693350970745087,0.001984891016036272,-0.0017341207712888718
1772366189017771500,4.246771484375,-0.0010305847972631454,0.0018975394777953625,0.0008816355839371681
1772366189027842600,4.256842529296875,0.0003258739598095417,0.0021179933100938797,0.0006195968016982079
1772366189037912600,4.26691259765625,0.0002118907868862152,-0.0020631696097552776,-0.0016776463016867638
1772366189047982600,4.276982666015625,-0.0020441915839910507,0.0020542857237160206,-0.002160598523914814
1772366189058053400,4.287053466796875,-0.0005195317789912224,0.0003224317915737629,0.0015497170388698578
1772366189068123600,4.29712353515625,-0.0007488303817808628,-0.002346053719520569,-0.00011412706226110458
1772366189078194700,4.307194580078125,-0.00013736868277192116,-0.00013935845345258713,0.0004150429740548134
1772366189088264400,4.317264404296875,0.0017389114946126938,0.00045756902545690536,-0.0001694345846772194
1772366189098334500,4.32733447265625,0.0015639415942132473,0.0014629121869802475,0.00022737588733434677
1772366189108405500,4.337405517578125,-0.001870020292699337,-0.0009189816191792488,0.0010436074808239937
1772366189118475800,4.347475830078125,0.0006128447130322456,-0.0002294890582561493,-0.00034576375037431717
1772366189128545500,4.357545654296875,-0.0013088616542518139,0.0007130918093025684,-0.001153930090367794
1772366189138616600,4.367616455078125,0.002747665625065565,-0.002243815688416362,0.0012394525110721588
1772366189148686600,4.3776865234375,0.0014832033775746822,0.0005848179571330547,0.0012668538838624954
1772366189158756600,4.387756591796875,-0.000390597153455019,-0.0006266538985073566,0.0006375489756464958
1772366189168827600,4.39782763671875,-0.000231144018471241,-0.002108949702233076,0.0012638699263334274
1772366189178897700,4.407897705078125,-0.0010993340983986855,0.0014026947319507599,-0.000206727534532547
1772366189188967400,4.417967529296875,0.0011376598849892616,-0.0007961494848132133,-0.000574067234992981
1772366189199038500,4.42803857421875,0.00013604527339339256,-0.0009032087400555611,-0.0009338604286313057
1772366189209108500,4.4381083984375,0.0007052319124341011,-0.0013718144036829472,-0.0007604891434311867
1772366189219178800,4.4481787109375,-0.00008040061220526695,-0.0022679679095745087,0.0012928079813718796
1772366189229249500,4.45824951171875,0.0009019006974995136,0.000520133413374424,-0.00010335911065340042
1772366189239319600,4.468319580078125,-0.0013308939523994923,0.0005819187499582767,-0.000689254142343998
1772366189249390600,4.478390625,-0.0007521877996623516,0.00017183693125844002,-0.0026577897369861603
1772366189259460600,4.488460693359375,-0.000375616829842329,-0.0009877034462988377,0.0004035141319036484
1772366189269530600,4.498530517578125,0.002575704362243414,0.0016268515028059483,0.002157573588192463
1772366189279601700,4.5086015625,0.0015354733914136887,0.0007791672833263874,-0.0007679089903831482
1772366189289671700,4.518671630859375,-0.000027301255613565445,-0.000629977323114872,-0.004319669678807259
1772366189299741400,4.528741455078125,0.000035283155739307404,-0.0011277222074568272,-0.000661817379295826
1772366189309812500,4.5388125,-0.000049262307584285736,-0.002567325020208955,0.000641748309135437
1772366189319882800,4.5488828125,0.0006894986145198345,-0.00027620745822787285,-0.0019130222499370575
1772366189329952500,4.558952392578125,0.0016192211769521236,-0.0012360885739326477,-0.0003037303686141968
1772366189340023600,4.5690234375,-0.0007334155961871147,0.0017250804230570793,0.002896590158343315
1772366189350093600,4.579093505859375,0.000509070698171854,0.0027003856375813484,-0.0012454846873879433
1772366189360163600,4.58916357421875,-0.00031943898648023605,0.0001618601381778717,0.00019981339573860168
1772366189370234400,4.599234375,0.0024042045697569847,0.0015061181038618088,-0.0008391421288251877
1772366189380304600,4.6093046875,0.0010878038592636585,0.002671250607818365,-0.001124633476138115
1772366189390374700,4.619374755859375,0.0005509443581104279,-0.0005654701963067055,-0.00009717419743537903
1772366189400445400,4.629445556640625,0.0006569381803274155,-0.0003063445910811424,0.001695132814347744
1772366189410515500,4.639515380859375,-0.0008670343086123466,-0.000940447673201561,-0.00043322890996932983
1772366189420585700,4.649585693359375,0.0008733412250876427,0.0034638880752027035,0.001142030581831932
1772366189430656800,4.65965673828125,0.00070973951369524,0.0017701126635074615,0.00011424161493778229
1772366189440726500,4.6697265625,0.0016216058284044266,-0.0015500499866902828,0.0013856347650289536
1772366189450796500,4.679796630859375,0.0006546755321323872,-0.0010697906836867332,-0.0010788040235638618
1772366189460867600,4.68986767578125,-0.00001377798616886139,0.0014378419145941734,-0.0016138330101966858
1772366189470937600,4.6999375,-0.001022841315716505,-0.0009641805663704872,0.0010511111468076706
1772366189481008600,4.710008544921875,-0.0002731615677475929,-0.0007039899937808514,0.0024751033633947372
1772366189491078700,4.72007861328125,0.00038875779137015343,0.00027847010642290115,0.00037081167101860046
1772366189501148400,4.7301484375,-0.0020483010448515415,0.0015855496749281883,-0.0025477465242147446
1772366189511219500,4.740219482421875,0.0006362916901707649,-0.0006659072823822498,0.0006301524117588997
1772366189521289500,4.75028955078125,-0.00259758485481143,0.0017093662172555923,0.0021031470969319344
1772366189531359700,4.76035986328125,-0.0007895287126302719,-0.0015658736228942871,-0.0004092026501893997
1772366189541430500,4.770430419921875,-0.0029469551518559456,-0.0017751981504261494,0.0011474145576357841
1772366189551500500,4.78050048828125,0.0009055039845407009,-0.0008386126719415188,0.0023091845214366913
1772366189561570600,4.790570556640625,-0.002135293558239937,0.0013057645410299301,-0.0005161631852388382
1772366189571641600,4.8006416015625,-0.002258715219795704,-0.0005410914309322834,-0.0011709630489349365
1772366189581711600,4.810711669921875,0.0022353692911565304,0.002562290523201227,-0.0009152991697192192
1772366189591781600,4.82078173828125,-0.00228742603212595,-0.0008085574954748154,-0.0008916109800338745
1772366189601852700,4.830852783203125,-0.000016548670828342438,0.0016157180070877075,-0.0022112075239419937
1772366189611922400,4.84092236328125,0.00018019834533333778,0.0035766358487308025,0.002636270597577095
1772366189621992700,4.85099267578125,-0.00008079130202531815,0.0014871195890009403,0.0007574101909995079
1772366189632064300,4.861064208984375,0.00030800560489296913,0.001275571994483471,0.0006114766001701355
1772366189642134500,4.871134521484375,0.0006619393825531006,-0.000348423607647419,0.0006647398695349693
1772366189652204500,4.88120458984375,0.002325037494301796,0.0010063410736620426,0.0011333208531141281
1772366189662275600,4.891275634765625,0.0017436696216464043,-0.0010181940160691738,0.0005136029794812202
1772366189672345300,4.901345458984375,-0.00024817418307065964,-0.005033318884670734,-0.0006011947989463806
1772366189682415400,4.911415283203125,-0.00009690690785646439,-0.00023803114891052246,-0.0004227636381983757
1772366189692486400,4.921486328125,0.0015740296803414822,-0.000008868053555488586,-0.0005691256374120712
1772366189702556400,4.931556396484375,-0.0010481183417141438,0.004385081585496664,-0.001120932400226593
1772366189712627500,4.94162744140625,-0.0010723150335252285,0.0035922620445489883,-0.001973196864128113
1772366189722697500,4.951697509765625,-0.000009447336196899414,0.0014356337487697601,0.0007746526971459389
1772366189732767200,4.961767333984375,-0.0006393217481672764,0.002103813923895359,-0.0006861640140414238
1772366189742838300,4.97183837890625,-0.0014385362155735493,-0.0018243486993014812,-0.0009386315941810608
1772366189752908500,4.981908447265625,-0.00017858762294054031,-0.0006448589265346527,-0.0003948817029595375
1772366189762978600,4.991978515625,0.0017503402195870876,-0.0006946600042283535,-0.0012039495632052422
1772366189773049300,5.00204931640625,0.00047973450273275375,0.003630734048783779,-0.0002982206642627716
1772366189783119400,5.012119384765625,0.000715957023203373,0.0006690328009426594,0.001685035414993763
1772366189793189600,5.022189697265625,0.002126856707036495,0.0015115253627300262,0.00022854749113321304
1772366189803260700,5.0322607421875,0.00009379955008625984,0.00029392819851636887,0.0006176354363560677
1772366189813330400,5.042330322265625,0.0024158796295523643,-0.00022667087614536285,-0.0008332328870892525
1772366189823400400,5.052400390625,0.0015681954100728035,-0.001262640580534935,-0.001141626387834549
1772366189833471500,5.062471435546875,-0.0008390196599066257,0.0001082010567188263,-0.0008803224191069603
1772366189843541500,5.07254150390625,-0.000780163798481226,0.0032499320805072784,0.0003639068454504013
1772366189853611500,5.082611572265625,-0.0009292536415159702,-0.00011821230873465538,0.0000032139942049980164
1772366189863682600,5.0926826171875,-0.0008914363570511341,0.0026757102459669113,0.0006527593359351158
1772366189873752300,5.10275244140625,-0.0010374411940574646,-0.0060005635023117065,-0.000024347566068172455
1772366189883822300,5.112822265625,0.0013868347741663456,-0.0008113943040370941,-0.00038360804319381714
1772366189893893400,5.122893310546875,-0.0011235754936933517,-0.0003592795692384243,-0.0004600249230861664
1772366189903963600,5.132963623046875,0.0017925864085555077,0.00009132735431194305,-0.0017079822719097137
1772366189914033400,5.143033447265625,-0.00120110297575593,0.0021400554105639458,0.0023077847436070442
1772366189924104400,5.1531044921875,0.0010463390499353409,-0.0005318936891853809,0.0014398600906133652
1772366189934174500,5.163174560546875,-0.001289859414100647,0.00038544973358511925,-0.0015442147850990295
1772366189944244500,5.173244384765625,0.0008385386317968369,-0.0025379019789397717,0.0006939060986042023
1772366189954315500,5.1833154296875,0.00023461226373910904,-0.0024746027775108814,0.000012330710887908936
1772366189964385500,5.193385498046875,0.00012568896636366844,-0.002331324853003025,-0.0006454708054661751
1772366189974455300,5.203455322265625,0.0013773450627923012,0.0024093659594655037,-0.0012652603909373283
1772366189984526300,5.2135263671875,0.0014633648097515106,-0.0025105576496571302,0.0028621070086956024
1772366189994596600,5.2235966796875,-0.0009258161298930645,-0.0012282202951610088,0.0014207195490598679
1772366190004666600,5.23366650390625,-0.0006267433054745197,-0.0031925677321851254,-0.0010299216955900192
1772366190014737400,5.2437373046875,0.00133088743314147,0.0027126423083245754,-0.003114501014351845
1772366190024807400,5.253807373046875,-0.0014108363538980484,0.00015653995797038078,0.0015947669744491577
1772366190034877400,5.26387744140625,0.0011933185160160065,0.0025863470509648323,-0.00041242409497499466
1772366190044948200,5.2739482421875,0.0013967840932309628,0.0032436158508062363,-0.001790875568985939
1772366190055018500,5.2840185546875,-0.0004411577247083187,0.0003480338491499424,0.00035724230110645294
1772366190065089500,5.294089599609375,-0.00016072671860456467,-0.0024762481916695833,-0.0012904554605484009
1772366190075159600,5.30415966796875,0.0004753638058900833,-0.0006350288167595863,-0.0012589339166879654
1772366190085229300,5.314229248046875,0.0007488704286515713,-0.0029091022443026304,0.0025858720764517784
1772366190095300400,5.32430029296875,-0.00042978813871741295,-0.0034380904398858547,0.00046853162348270416
1772366190105370600,5.33437060546875,-0.0006154109723865986,-0.0005759913474321365,0.0005843797698616982
1772366190115440400,5.3444404296875,0.0004322519525885582,-0.0003876849077641964,-0.0006353734061121941
1772366190125511400,5.354511474609375,-0.0012303595431149006,-0.0003152466379106045,-0.0023160940036177635
1772366190135581400,5.36458154296875,-0.0009305300191044807,-0.0003823349252343178,-0.00018240604549646378
1772366190145651500,5.3746513671875,-0.00018617650493979454,0.0008152886293828487,0.0006660772487521172
1772366190155722500,5.384722412109375,-0.002195701003074646,0.0007434696890413761,-0.00048209913074970245
1772366190165792500,5.39479248046875,-0.000792214646935463,0.00019911956042051315,-0.0004011392593383789
1772366190175862500,5.404862548828125,0.0018023266457021236,0.0016727340407669544,-0.0009202240034937859
1772366190185933300,5.414933349609375,-0.00229761004447937,0.0006631296128034592,0.0000680750235915184
1772366190196003300,5.42500341796875,-0.0011659320443868637,-0.0035024951212108135,-0.0009427806362509727
1772366190206073600,5.435073486328125,-0.0001089237630367279,-0.0023757116869091988,0.00012221746146678925
1772366190216144600,5.44514453125,-0.0015952340327203274,0.0020187431946396828,-0.0010516410693526268
1772366190226214400,5.45521435546875,0.000010385178029537201,0.0002786340191960335,0.00042428355664014816
1772366190236284400,5.465284423828125,-0.0007014637812972069,-0.0008407686837017536,0.0013113636523485184
1772366190246355500,5.47535546875,0.00027138926088809967,-0.0018138876184821129,0.00038671400398015976
1772366190256425500,5.485425537109375,-0.0025085541419684887,-0.0033746054396033287,-0.00021198298782110214
1772366190266495500,5.49549560546875,0.0007636714726686478,0.0021533179096877575,-0.0010205190628767014
1772366190276566500,5.50556640625,0.0012439261190593243,0.0004680221900343895,-0.0005579134449362755
1772366190286636300,5.51563623046875,0.0015224926173686981,0.0017681773751974106,-0.0006916048005223274
1772366190296706600,5.52570654296875,-0.0011371416039764881,-0.00002710055559873581,-0.0012315455824136734
1772366190306777600,5.535777587890625,-0.002181899268180132,-0.0013421697076410055,0.001333877444267273
1772366190316847600,5.54584765625,0.001596357673406601,-0.0008751344867050648,-0.0019356030970811844
1772366190326917400,5.55591748046875,-0.002174146007746458,-0.0013539709616452456,-0.00011240225285291672
1772366190336988400,5.565988525390625,0.002242682036012411,-0.00004259217530488968,-0.00017933454364538193
1772366190347058400,5.576058349609375,0.0007606325671076775,0.0006849830970168114,-0.00010902713984251022
1772366190357128400,5.58612841796875,-0.0011644009500741959,0.0014660102315247059,-0.00002195686101913452
1772366190367199500,5.596199462890625,-0.0010264497250318527,0.001442574430257082,0.0005152029916644096
1772366190377269500,5.60626953125,-0.00046602077782154083,0.00012792088091373444,0.00046748947352170944
1772366190387339300,5.61633935546875,-0.004378736950457096,-0.0007402696646749973,0.0017908141016960144
1772366190397410300,5.626410400390625,0.00006517907604575157,0.0009066686034202576,0.0006551304832100868
1772366190407480600,5.63648046875,0.0021080896258354187,-0.0014978994149714708,0.001328377053141594
1772366190417550600,5.646550537109375,-0.00022081146016716957,-0.0012141796760261059,-0.0020080609247088432
1772366190427621400,5.656621337890625,0.0011517819948494434,-0.0009673046879470348,-0.003083977848291397
1772366190437691400,5.66669140625,-0.0005017025396227837,0.002200586721301079,-0.0018536290153861046
1772366190447761400,5.676761474609375,0.00002480391412973404,-0.0033481093123555183,0.0011549443006515503
1772366190457832400,5.68683251953125,4.2887404561042786e-7,-0.0008244886994361877,-0.002135336399078369
1772366190467902500,5.69690234375,0.000656365416944027,-0.0011659059673547745,0.0006593847647309303
1772366190477972500,5.706972412109375,0.001021863892674446,-0.0005562659353017807,0.002367081120610237
1772366190488043500,5.71704345703125,0.0018743416294455528,0.0017415094189345837,0.0019052885472774506
1772366190498113300,5.72711328125,-0.0017939740791916847,-0.0014565526507794857,0.00047727394849061966
1772366190508183600,5.73718359375,0.0012478884309530258,-0.0034280908294022083,-0.0006982451304793358
1772366190518254600,5.747254638671875,0.00026070093736052513,-0.000992296263575554,0.0000055693089962005615
1772366190528324400,5.757324462890625,0.0001291409134864807,-0.00014754198491573334,0.0006734905764460564
1772366190538394400,5.767394287109375,0.00048172706738114357,0.0007546595297753811,-0.0016424953937530518
1772366190548465400,5.77746533203125,0.0004668133333325386,-0.001135386060923338,-0.0027370546013116837
1772366190558535400,5.787535400390625,-0.00035159243270754814,0.0018543689511716366,0.00031432323157787323
1772366190568605400,5.79760546875,0.0026963953860104084,0.0026842099614441395,0.00225044135004282
1772366190578676500,5.807676513671875,-0.0034281942062079906,0.00025444431230425835,0.0009258901700377464
1772366190588746500,5.81774658203125,0.00022379867732524872,-0.001346115255728364,-0.0007875878363847733
1772366190598816500,5.82781640625,0.001566657330840826,-0.0020496814977377653,-0.00017457269132137299
1772366190608887600,5.837887451171875,-0.0011487016454339027,-0.00035830819979310036,-0.0005077337846159935
1772366190618957600,5.84795751953125,-0.0017571598291397095,-0.000986460130661726,-0.0007421998307108879
1772366190629027300,5.85802734375,-0.0013110805302858353,-0.0012897942215204239,0.0014666253700852394
1772366190639097300,5.868097412109375,0.0010706912726163864,0.0030335155315697193,-0.000010250136256217957
1772366190649167400,5.87816748046875,0.001459246501326561,-0.0032659261487424374,0.0002012047916650772
1772366190659238400,5.88823828125,0.0007110415026545525,-0.0001607411541044712,-0.001341046765446663
1772366190669308400,5.898308349609375,0.0007746908813714981,-0.00014902325347065926,0.0009530000388622284
1772366190679378400,5.90837841796875,-0.00015623727813363075,0.0001954948529601097,-0.000009530223906040192
1772366190689448400,5.918448486328125,0.0024680416099727154,0.0001486232504248619,-0.0020364616066217422
1772366190699519500,5.92851953125,0.0001373779959976673,0.0004917187616229057,0.001008843071758747
1772366190709589500,5.938589599609375,-0.00187730323523283,0.000664824154227972,-0.0024844249710440636
1772366190719659300,5.9486591796875,0.0005279695615172386,0.002050199080258608,0.0006249714642763138
1772366190729730300,5.958730224609375,0.0018563545309007168,0.0017005261033773422,0.0007858257740736008
1772366190739800600,5.968800537109375,0.0007096799090504646,0.0005354732275009155,0.00046283286064863205
1772366190749871600,5.97887158203125,0.0005701305344700813,-0.0005761301144957542,0.001576567068696022
1772366190759941400,5.98894140625,-0.0011959634721279144,-0.0022005236241966486,-0.00048503000289201736
1772366190770011400,5.999011474609375,0.0012900973670184612,0.0002802107483148575,0.0008031409233808517
1772366190780081400,6.009081298828125,-0.00102267786860466,0.002274151425808668,0.0016253218054771423
1772366190790152200,6.019152099609375,-0.0004309238865971565,-0.002259880304336548,-0.00042025186121463776
1772366190800222500,6.029222412109375,0.0007386645302176476,-0.00038008298724889755,0.0006467150524258614
1772366190810293500,6.03929345703125,-0.0002506999298930168,0.001083057839423418,-0.00020443089306354523
1772366190820363500,6.049363525390625,0.0012099659070372581,-0.00006717536598443985,0.0002989834174513817
1772366190830433300,6.059433349609375,0.0009638899937272072,-0.0014347087126225233,-0.00013910606503486633
1772366190840504300,6.06950439453125,0.0007274774834513664,-0.00015458138659596443,0.0015345504507422447
1772366190850574600,6.07957470703125,-0.002006523311138153,0.0006044195033609867,0.001335611566901207
1772366190860644400,6.089644287109375,0.001681067980825901,-0.0007067490369081497,-0.0010365350171923637
1772366190870714400,6.09971435546875,-0.0008598542772233486,0.0015542744658887386,-0.0008226828649640083
1772366190880785400,6.109785400390625,-0.0030902130529284477,-0.0010905214585363865,0.0006658677011728287
1772366190890855400,6.11985546875,0.0014749779365956783,-0.0011539049446582794,-0.0008020671084523201
1772366190900925400,6.129925537109375,-0.0007633590139448643,-0.000618545338511467,0.003725362941622734
1772366190910996500,6.13999658203125,-0.00008318759500980377,-0.0002164081670343876,0.001631053164601326
1772366190921066500,6.15006640625,0.0010206163860857487,-0.0004028463736176491,0.00004905927926301956
1772366190931137300,6.16013720703125,0.0003825225867331028,-0.0017959459219127893,-0.0008974280208349228
1772366190941207300,6.170207275390625,-0.0019756238907575607,-0.00008390983566641808,-0.00000303611159324646
1772366190951277600,6.180277587890625,0.0005447915755212307,-0.0020914007909595966,0.0005580922588706017
1772366190961347300,6.190347412109375,-0.00034221308305859566,0.0017871977761387825,0.0002902103587985039
1772366190971418400,6.20041845703125,-0.001103877555578947,0.0003727925941348076,-0.0028762882575392723
1772366190981488400,6.21048828125,-0.0004122094251215458,-0.0007814597338438034,-0.000639231875538826
1772366190991558400,6.220558349609375,-0.0023824158124625683,0.004112365189939737,-0.0009303148835897446
1772366191001629400,6.23062939453125,-0.0011847792193293571,-0.0019279047846794128,-0.0007738694548606873
1772366191011699500,6.240699462890625,-0.0002516070380806923,-0.0018011382780969143,0.0017388230189681053
1772366191021769500,6.25076953125,0.000820451881736517,-0.003095989814028144,-0.0007249228656291962
1772366191031840300,6.26084033203125,0.0023301979526877403,-0.001311671920120716,-0.0008879080414772034
1772366191041910500,6.27091064453125,-0.00032036006450653076,-0.0025835814885795116,0.0002759890630841255
1772366191051980500,6.28098046875,0.0007957704365253448,-0.0008051223121583462,0.000045359134674072266
1772366191062051300,6.29105126953125,0.00007911305874586105,-0.0007089907303452492,-0.000414995476603508
1772366191072121300,6.301121337890625,0.002487143501639366,-0.0004437398165464401,0.0002385443076491356
1772366191082191400,6.31119140625,-0.0023887045681476593,-0.000042174942791461945,-0.0011546434834599495
1772366191092262400,6.321262451171875,-0.0005833478644490242,-0.0013657661620527506,-0.0007439842447638512
1772366191102332400,6.33133251953125,-0.00020394893363118172,-0.0015891888178884983,-0.00008617155253887177
1772366191112402400,6.34140234375,-0.00029103411361575127,0.00004892144352197647,-0.0017847362905740738
1772366191122473500,6.351473388671875,-0.0007028975524008274,-0.0037691867910325527,0.0014682440087199211
1772366191132543200,6.361543212890625,-0.0005186074413359165,-0.002205112250521779,0.001263447105884552
1772366191142613500,6.371613525390625,0.00040735676884651184,-0.0031665887217968702,-0.001330559141933918
1772366191152684500,6.3816845703125,-0.0008472581394016743,-0.0011527063325047493,-0.002972930669784546
1772366191162754300,6.39175439453125,0.0008204914629459381,-0.0008128504268825054,-0.0015186993405222893
1772366191172824300,6.40182421875,0.0017094546929001808,-0.001828579930588603,-0.000020405277609825134
1772366191182895400,6.411895263671875,0.0018159253522753716,0.00006710924208164215,-0.0012607229873538017
1772366191192965600,6.421965576171875,-0.00144271831959486,0.002020538318902254,0.0008429083973169327
1772366191203035400,6.432035400390625,-0.0012747133150696754,0.0015343590639531612,0.00011812243610620499
1772366191213106400,6.4421064453125,0.000688835047185421,0.0014685792848467827,0.0006683310493826866
1772366191223176400,6.452176513671875,-0.0007343604229390621,-0.0007866285741329193,-0.0007993746548891068
1772366191233246200,6.46224609375,0.0012877779081463814,-0.0012974226847290993,-0.0012814067304134369
1772366191243317200,6.472317138671875,0.0007109818980097771,0.000034199561923742294,0.0025243721902370453
1772366191253387500,6.482387451171875,0.001552807167172432,0.0020898934453725815,0.00035709142684936523
1772366191263457300,6.492457275390625,-0.003186686895787716,0.00043203216046094894,-0.0015160953626036644
1772366191273528300,6.5025283203125,0.0013777045533061028,0.0026568365283310413,0.0026871711015701294
1772366191283598300,6.512598388671875,-0.002003723755478859,0.0038918456993997097,-0.0012903176248073578
1772366191293668600,6.522668701171875,-0.000692383386194706,-0.0002581584267318249,-0.00006579607725143433
1772366191303739400,6.532739501953125,-0.0012076911516487598,-0.0027353314217180014,0.0007909601554274559
1772366191313809400,6.542809326171875,-0.0007229954935610294,0.0006274422630667686,-0.00019946880638599396
1772366191323879400,6.55287939453125,-0.0007857414893805981,0.0013213264755904675,-0.001185426488518715
1772366191333950500,6.562950439453125,0.00048005906865000725,0.002828143071383238,0.0006271209567785263
1772366191344020500,6.5730205078125,0.000040335580706596375,0.0002483450807631016,0.0003244476392865181
1772366191354090500,6.583090576171875,-0.0018206816166639328,0.0037679788656532764,0.0002738470211625099
1772366191364161500,6.59316162109375,0.00028217071667313576,0.00163731025531888,-0.0013211853802204132
1772366191374231300,6.603231201171875,-0.0041136424988508224,-0.0035787569358944893,-0.0021233288571238518
1772366191384301300,6.61330126953125,-0.00031094998121261597,0.0010269335471093655,-0.0026472751051187515
1772366191394372400,6.623372314453125,0.0021479465067386627,-0.0013049300760030746,-0.0029609957709908485
1772366191404442400,6.6334423828125,0.0006820885464549065,0.001343598123639822,-0.00025404058396816254
1772366191414512400,6.643512451171875,0.0009505352936685085,0.00042161205783486366,-0.0015307599678635597
1772366191424583400,6.65358349609375,-0.0009102625772356987,-0.002592784818261862,-0.0000792304053902626
1772366191434653400,6.6636533203125,-0.00045539531856775284,0.00089302659034729,-0.0009106695652008057
1772366191444723500,6.673723388671875,0.0018565934151411057,0.00019089877605438232,-0.00020883046090602875
1772366191454794500,6.68379443359375,-0.0015719607472419739,-0.0015284379478543997,-0.0019156504422426224
1772366191464864500,6.693864501953125,0.00141593674197793,-0.001139860600233078,0.0002956865355372429
1772366191474934300,6.703934326171875,-0.0009340369142591953,-0.002499404363334179,0.0000341637060046196
1772366191485005300,6.71400537109375,0.0012727431021630764,-0.0014293957501649857,-0.0002588145434856415
1772366191495075600,6.72407568359375,0.000572065357118845,-0.0029194343369454145,-0.0008766679093241692
1772366191505145300,6.734145263671875,0.001346483826637268,-0.00047280825674533844,-0.00019607599824666977
1772366191515216400,6.74421630859375,-0.0006695287302136421,-0.00216791033744812,-0.0008546765893697739
1772366191525286400,6.754286376953125,-0.0019777463749051094,0.002275981940329075,-0.0005608005449175835
1772366191535356400,6.7643564453125,-0.0008312556892633438,0.0039276741445064545,-0.002622353844344616
1772366191545426400,6.774426513671875,-0.0012084702029824257,0.0010376009158790112,0.003568660467863083
1772366191555497500,6.78449755859375,0.00010526692494750023,0.001024284865707159,0.001117222011089325
1772366191565567500,6.7945673828125,-0.0018805763684213161,0.0026723756454885006,-0.0003214320167899132
1772366191575637200,6.80463720703125,0.0014449129812419415,-0.00017827237024903297,0.0006341105327010155
1772366191585708300,6.814708251953125,0.00012692483142018318,-0.002803224604576826,0.0002563614398241043
1772366191595778600,6.824778564453125,0.00040815444663167,0.0007731346413493156,-0.0009631002321839333
1772366191605848300,6.834848388671875,0.00015958677977323532,-0.0024831618648022413,0.0001390567049384117
1772366191615919400,6.84491943359375,0.0007992777973413467,0.0030471584759652615,-0.0006668157875537872
1772366191625989400,6.8549892578125,-0.0010356325656175613,0.00046791182830929756,0.0028056129813194275
1772366191636060200,6.86506005859375,-0.000359988771378994,-0.0032820855267345905,-0.000802171416580677
1772366191646131000,6.875130859375,0.0027925693430006504,0.002174100838601589,0.0010728603228926659
1772366191656201200,6.885201171875,-0.0011044344864785671,-0.00005736202001571655,0.0006904304027557373
1772366191666271200,6.895271240234375,-0.0018586660735309124,-0.0002748859114944935,-0.0008799377828836441
1772366191676342300,6.90534228515625,-0.0006498568691313267,0.001155763864517212,0.0024881623685359955
1772366191686412000,6.915412109375,0.00013025803491473198,-0.001661921152845025,-0.00011161249130964279
1772366191696482300,6.925482421875,0.0021675764583051205,-0.00042727962136268616,0.0017310287803411484
1772366191706553300,6.93555322265625,-0.0011184187605977058,-0.002824312774464488,-0.0012092674151062965
1772366191716623000,6.945623046875,0.0006603063084185123,0.0011443300172686577,-0.0019834479317069054
1772366191726693000,6.955693115234375,-0.0011345436796545982,0.0017201476730406284,-0.001537388190627098
1772366191736764200,6.96576416015625,-0.00015529943630099297,0.0048879776149988174,-0.0006707953289151192
1772366191746834000,6.975833984375,0.0016626943834125996,0.002745264209806919,0.0006455685943365097
1772366191756904200,6.985904296875,0.0011095558293163776,-0.0028577602934092283,-0.00028174370527267456
1772366191766975200,6.995975341796875,0.001095801591873169,-0.001744366018101573,-0.0004999078810214996
1772366191777045200,7.006045166015625,-0.00031354324892163277,-0.0009952187538146973,-0.0008586356416344643
1772366191787115000,7.016114990234375,0.0021604392677545547,-0.002180078998208046,-0.003097713924944401
1772366191797186000,7.02618603515625,-0.000575692392885685,0.0038389312103390694,-0.0021384432911872864
1772366191807256300,7.03625634765625,-0.0008336738683283329,-0.0021831723861396313,-0.0016571804881095886
1772366191817326000,7.046326171875,-0.0010728263296186924,-0.002500621136277914,0.000046176835894584656
1772366191827397000,7.056397216796875,-0.00016097817569971085,0.0007221968844532967,-0.0023271115496754646
1772366191837467100,7.066467041015625,-0.0009609921835362911,0.00007824460044503212,-0.00001868419349193573
1772366191847537200,7.076537109375,-0.0002630231902003288,0.0013575372286140919,0.0006625428795814514
1772366191857608200,7.086608154296875,-0.0008899313397705555,-0.00025580544024705887,0.0003315126523375511
1772366191867678200,7.09667822265625,-0.0008094795048236847,-0.001319246832281351,-0.0011566095054149628
1772366191877748200,7.106748291015625,0.0011708466336131096,-0.0025727967731654644,-0.000364585779607296
1772366191887818000,7.11681787109375,0.0002040620893239975,0.0010695923119783401,-0.0007633501663804054
1772366191897889000,7.126888916015625,-0.0002225763164460659,-0.0011008838191628456,0.00003879424184560776
1772366191907959300,7.136959228515625,0.0015827193856239319,-0.00046690041199326515,-0.0009267283603549004
1772366191918029000,7.147029052734375,0.0005651256069540977,-0.002017393009737134,-0.0007919725030660629
1772366191928100000,7.15710009765625,0.00042708031833171844,0.0023394636809825897,-0.0008742073550820351
1772366191938170000,7.167170166015625,-0.0008533676154911518,0.00125848688185215,0.000014755874872207642
1772366191948240100,7.177240234375,0.0013038231991231441,-0.0012752502225339413,-0.0006614457815885544
1772366191958311200,7.187311279296875,0.0007426952943205833,0.0007958901114761829,0.00042033102363348007
1772366191968381200,7.197381103515625,-0.0002654148265719414,0.0000611972063779831,0.0005449997261166573
1772366191978451200,7.207451171875,0.0001234067603945732,-0.0008019334636628628,0.001157793216407299
1772366191988522000,7.21752197265625,0.000992549117654562,-0.00206992425955832,-0.0012768162414431572
1772366191998592300,7.22759228515625,-0.0006154673174023628,-0.0014161181170493364,-0.0007098289206624031
1772366192008662300,7.237662353515625,0.000924163032323122,0.0027480865828692913,-0.0010776305571198463
1772366192018733300,7.2477333984375,-0.0005043563432991505,-0.0021715709008276463,0.0018228180706501007
1772366192028803000,7.257802978515625,0.00015566125512123108,0.0000270940363407135,0.0008179983124136925
1772366192038873000,7.267873046875,-0.0023975111544132233,0.0012939595617353916,-0.000351928174495697
1772366192048944000,7.277944091796875,-0.0015888470225036144,0.000998056959360838,-0.00022481940686702728
1772366192059014100,7.28801416015625,-0.0012559513561427593,0.0005024424754083157,0.0005253935232758522
1772366192069084200,7.298084228515625,-0.00008544512093067169,0.0001634424552321434,0.00018543191254138947
1772366192079155200,7.3081552734375,-0.0019216942600905895,0.003245252650231123,-0.0002675717696547508
1772366192089225000,7.318224853515625,-0.0007132110185921192,0.0017501846887171268,-0.0018097301945090294
1772366192099295200,7.328295166015625,0.00030544819310307503,0.00249160872772336,-0.00009838305413722992
1772366192109366300,7.3383662109375,-0.0012562437914311886,-0.00028452835977077484,-0.00023205764591693878
1772366192119436300,7.348436279296875,-0.003093825187534094,0.002686494030058384,0.0009389342740178108
1772366192129506000,7.358506103515625,0.0018468191847205162,-0.0008451384492218494,0.00001640617847442627
1772366192139576300,7.368576416015625,0.0005024555139243603,-0.00003500515595078468,-0.0004211505874991417
1772366192149647400,7.3786474609375,0.0015230136923491955,-0.00042259274050593376,-0.002654554322361946
1772366192159717000,7.388717041015625,-0.0009049898944795132,0.00011483300477266312,0.000547630712389946
1772366192169787100,7.398787109375,-0.0007274183444678783,-0.00042001809924840927,-0.001123548485338688
1772366192179858200,7.408858154296875,0.0009748744778335094,0.0005616229027509689,0.00001015886664390564
1772366192189928000,7.418927978515625,-0.00008084578439593315,-0.0035067410208284855,-0.002695060335099697
1772366192199998200,7.428998291015625,0.00023447256535291672,-0.0010963138192892075,-0.00038317032158374786
1772366192210069200,7.4390693359375,-0.0005070595070719719,-0.00015615951269865036,-0.0016301125288009644
1772366192220139300,7.44913916015625,-0.0011147921904921532,-0.0012962589971721172,0.0003262460231781006
1772366192230209000,7.459208984375,-0.0003245854750275612,-0.002265193033963442,0.00014892034232616425
1772366192240280000,7.469280029296875,0.001807008869946003,-0.0024689247366040945,0.0007204348221421242
1772366192250350300,7.479350341796875,0.0013082982040941715,-0.0010066390968859196,-0.00024373549968004227
1772366192260420000,7.489420166015625,-0.0008794884197413921,0.00015769479796290398,-0.0003744969144463539
1772366192270491100,7.4994912109375,-0.000016616657376289368,-0.0017648846842348576,-0.0005435589700937271
1772366192280561200,7.50956103515625,-0.0010403357446193695,0.0010756426490843296,0.0010876273736357689
1772366192290631200,7.519631103515625,0.0014172261580824852,-0.0008645365014672279,0.0010708281770348549
1772366192300702200,7.5297021484375,-0.0014347531832754612,-0.004868332762271166,0.0017163781449198723
1772366192310772200,7.539772216796875,-0.0002492796629667282,0.000441230833530426,-0.0010943105444312096
1772366192320842200,7.54984228515625,-0.0016514337621629238,0.001500369980931282,0.0002300795167684555
1772366192330913000,7.5599130859375,-0.0011041508987545967,-0.0016483431681990623,-0.0013114027678966522
1772366192340983000,7.569983154296875,0.0014263847842812538,0.000908025074750185,-0.0005191126838326454
1772366192351053300,7.58005322265625,0.0011977856047451496,-0.004111140500754118,0.0006046248599886894
1772366192361123000,7.590123046875,-0.001076021697372198,-0.0009955083951354027,0.0008091563358902931
1772366192371194000,7.600194091796875,0.00015214970335364342,-0.003658959176391363,0.0015849806368350983
1772366192381264100,7.61026416015625,0.001046439167112112,-0.0006708921864628792,-0.0002864226698875427
1772366192391334100,7.620334228515625,-0.0025267237797379494,0.0027709235437214375,-0.0007214490324258804
1772366192401405200,7.6304052734375,0.001722083892673254,-0.0005524354055523872,0.0008452888578176498
1772366192411475200,7.64047509765625,-0.00030964286997914314,0.0005561579018831253,-0.00040262099355459213
1772366192421545200,7.650545166015625,-0.0010326914489269257,-0.00018659746274352074,0.0002860724925994873
1772366192431616000,7.660615966796875,0.001847549807280302,-0.0007288297638297081,0.0018250616267323494
1772366192441686300,7.670686279296875,-0.0008552921935915947,-0.0017645333427935839,-0.001455952413380146
1772366192451756300,7.68075634765625,0.00006389105692505836,-0.0028202144894748926,-0.0014251843094825745
1772366192461827000,7.6908271484375,-0.001159565057605505,0.0002626609057188034,-0.0013037445023655891
1772366192471897000,7.70089697265625,0.001175383571535349,-0.00042058108374476433,0.00012095179408788681
1772366192481967000,7.710967041015625,0.00006537837907671928,-0.0026315373834222555,0.0007334789261221886
1772366192492038100,7.7210380859375,0.00009301118552684784,-0.0013533136807382107,0.0007811430841684341
1772366192502108200,7.731108154296875,0.0005031381733715534,-0.0011770124547183514,-0.0033478224650025368
1772366192512178200,7.74117822265625,-0.00019461708143353462,0.00014856550842523575,0.0012832041829824448
1772366192522249200,7.751249267578125,-0.0001394893042743206,-0.002766264136880636,-0.0023474832996726036
1772366192532319000,7.761319091796875,0.0006765457801520824,0.0006146416999399662,-0.0013277893885970116
1772366192542389200,7.77138916015625,-0.001050247810781002,0.00041197519749403,-0.0006052739918231964
1772366192552459300,7.781459228515625,0.0012143510393798351,0.0007219566032290459,-0.001269221305847168
1772366192562530000,7.791530029296875,0.0005938345566391945,-0.004427798092365265,0.001071430742740631
1772366192572600000,7.80160009765625,0.00033424561843276024,0.0020764111541211605,-0.0014321841299533844
1772366192582670300,7.81167041015625,0.0005696690641343594,0.0002880985848605633,0.0026536379009485245
1772366192592741400,7.821741455078125,-0.0003222259692847729,0.0018506492488086224,0.0008315052837133408
1772366192602811100,7.83181103515625,-0.0006564524956047535,0.002214703243225813,0.0012235231697559357
1772366192612881200,7.841881103515625,0.0023149712942540646,-0.0008868621662259102,-0.0013546627014875412
1772366192622952200,7.8519521484375,-0.0016717808321118355,0.0039124200120568275,0.00011353753507137299
1772366192633022000,7.86202197265625,0.0005337218753993511,-0.0031058010645210743,-0.0015425579622387886
1772366192643092000,7.872092041015625,-0.0005168947391211987,0.002396822441369295,-0.001454673707485199
1772366192653163000,7.8821630859375,0.000011035706847906113,0.003401703666895628,-0.002008862793445587
1772366192663233000,7.89223291015625,-0.0012465091422200203,-0.002147791674360633,-0.001040804199874401
1772366192673303000,7.902302978515625,0.0008185263723134995,-0.0009483159519731998,-0.0005949893966317177
1772366192683373800,7.912373779296875,0.001496301032602787,-0.0005038343369960785,-0.001690879464149475
1772366192693444000,7.922444091796875,-0.0006149034015834332,0.0012541143223643303,0.0001405840739607811
1772366192703514000,7.93251416015625,0.0008381172083318233,-0.0016580522060394287,-0.0005867257714271545
1772366192713583900,7.942583984375,0.00044516660273075104,-0.0021711206063628197,-0.0008939346298575401
1772366192723655000,7.952655029296875,0.001437193714082241,0.0004172055050730705,-0.0017695818096399307
1772366192733725200,7.96272509765625,0.000600107479840517,-0.0016109447460621595,-0.0022272132337093353
1772366192743795000,7.972794921875,-0.0001333272084593773,0.0017920425161719322,0.00015844684094190598
1772366192753866000,7.982865966796875,-0.0004230644553899765,0.0011696037836372852,-0.00004260800778865814
1772366192763936000,7.99293603515625,0.0005631037056446075,0.0010388423688709736,-0.00036271940916776657
1772366192774006000,8.003006103515625,0.0011496753431856632,-0.0007197386585175991,-0.0013521583750844002
1772366192784077000,8.0130771484375,-0.00038031069561839104,0.0005457955412566662,0.0017099445685744286
1772366192794147000,8.02314697265625,0.0023556300438940525,-0.001076485961675644,0.0004953304305672646
1772366192804217000,8.033217041015625,-0.0006841020658612251,-0.002728178631514311,-0.0003401031717658043
1772366192814288100,8.0432880859375,-0.0005224058404564857,-0.004042879678308964,0.0018899422138929367
1772366192824358000,8.05335791015625,-0.0025421474128961563,0.0014062141999602318,0.0007517067715525627
1772366192834428200,8.06342822265625,-0.00020775571465492249,-0.002014508470892906,-0.0013807481154799461
1772366192844499200,8.073499267578125,0.0013406062498688698,0.0025714547373354435,-0.0019498653709888458
1772366192854569000,8.08356884765625,-0.0015022605657577515,0.0009804917499423027,0.00006919912993907928
1772366192864639000,8.093638916015625,-0.0012186337262392044,-0.0023399372585117817,-0.001591281034052372
1772366192874709200,8.103709228515624,0.0002996767871081829,-0.0010049007833003998,-0.0006785653531551361
1772366192884780000,8.113780029296874,-0.00042203953489661217,-0.0012549718376249075,-0.0038764886558055878
1772366192894850000,8.12385009765625,-0.0010020597837865353,-0.001598098548129201,0.0008282661437988281
1772366192904920000,8.133920166015624,-0.002426584716886282,0.00014547305181622505,-0.0010492615401744843
1772366192914991000,8.1439912109375,0.00041220150887966156,0.0018504271283745766,-0.0020932676270604134
1772366192925060900,8.154060791015626,-0.0021859784610569477,0.0010946220718324184,-0.00023651123046875
1772366192935131100,8.164131103515626,0.0007810434326529503,0.0011383313685655594,-0.00011294707655906677
1772366192945202200,8.1742021484375,-0.0006338940002024174,0.00003684777766466141,-0.0005329269915819168
1772366192955272000,8.18427197265625,-0.0007461472414433956,0.0004778788425028324,-0.001354992389678955
1772366192965342000,8.194342041015625,0.0002599954605102539,-0.0009266724810004234,0.001028004102408886
1772366192975413000,8.2044130859375,-0.00021485798060894012,0.0009297369979321957,0.0017031636089086533
1772366192985483000,8.21448291015625,0.001079970970749855,-0.0011624423786997795,0.0005713207647204399
1772366192995553000,8.224552978515625,0.0016372413374483585,-0.0004946324042975903,-0.0021319473162293434
1772366193005624000,8.2346240234375,0.0006926180794835091,0.00035678036510944366,0.0021570734679698944
1772366193015694000,8.244694091796875,-0.0012125317007303238,0.003143120091408491,0.0008576437830924988
1772366193025764000,8.25476416015625,0.002361430786550045,-0.002065223641693592,-0.0010302718728780746
1772366193035834000,8.264834228515625,-0.001310715451836586,-0.00035063643008470535,0.0006444128230214119
1772366193045905200,8.2749052734375,-0.00012214714661240578,-0.0011703572236001492,-0.0016288617625832558
1772366193055975000,8.284974853515624,0.0003802771680057049,-0.000572914257645607,0.0016708523035049438
1772366193066045000,8.295044921875,-0.0013172216713428497,-0.001988650532439351,0.0006641773506999016
1772366193076116000,8.305115966796874,-0.0017300820909440517,0.0008695954456925392,-0.000406874343752861
1772366193086186000,8.31518603515625,-0.001364962663501501,0.001961225178092718,0.001964670605957508
1772366193096256000,8.325256103515626,0.0010679084807634354,0.0013669170439243317,-0.0006901994347572327
1772366193106327000,8.3353271484375,0.0003507188521325588,-0.0012554978020489216,0.00027226749807596207
1772366193116397000,8.34539697265625,0.0005582910962402821,0.0010159355588257313,-0.0016651349142193794
1772366193126467000,8.355467041015626,-0.0006851390935480595,0.0005006138235330582,0.0002249106764793396
1772366193136538000,8.3655380859375,0.0005737901665270329,-0.002538417000323534,0.0006585381925106049
1772366193146608000,8.375608154296875,0.0008936356753110886,0.0006832089275121689,0.0000928826630115509
1772366193156678000,8.385677978515625,-0.00019390089437365532,0.002925160340964794,0.0033826427534222603
1772366193166748200,8.395748046875,0.0010215658694505692,0.0018939841538667679,0.00020069722086191177
1772366193176819200,8.405819091796875,-0.0034865890629589558,0.000020825304090976715,0.0014991844072937965
1772366193186889000,8.415888916015625,0.0026573236100375652,-0.0016521725337952375,-0.0007202941924333572
1772366193196959000,8.425958984375,-0.0003834976814687252,0.002824380062520504,0.00010642129927873611
1772366193207030000,8.436030029296875,0.0014072121120989323,-0.0007474515587091446,0.00015568919479846954
1772366193217100000,8.44610009765625,0.0005002263933420181,-0.002873859601095319,0.0008210344240069389
1772366193227170000,8.456170166015625,-0.0004063136875629425,0.00006866687908768654,-0.00215131975710392
1772366193237241000,8.466240966796875,0.0017863353714346886,0.002596699632704258,-0.0010598525404930115
1772366193247311000,8.47631103515625,0.0018020481802523136,0.00015990715473890305,0.00035401899367570877
1772366193257384000,8.486384033203125,0.0005011102184653282,0.00335869612172246,-0.001748397946357727
1772366193267454200,8.4964541015625,-0.0008874619379639626,0.0007024593651294708,0.0012961272150278091
1772366193277524000,8.50652392578125,0.00041152071207761765,-0.003908634185791016,0.00021364260464906693
1772366193287595000,8.516594970703125,0.0001595858484506607,-0.003553102258592844,-0.00014135707169771194
1772366193297665000,8.5266650390625,0.0009598811157047749,-0.0012248805724084377,-0.0007335646077990532
1772366193307735000,8.536735107421874,-0.000912853516638279,-0.003034232184290886,-0.00008828099817037582
1772366193317805000,8.54680517578125,0.00028462009504437447,-0.00028795143589377403,0.0016941195353865623
1772366193327876000,8.5568759765625,-0.001684787217527628,-0.0006797024980187416,-0.0009791618213057518
1772366193337945900,8.56694580078125,0.0007107127457857132,-0.0007981355302035809,-0.0007810927927494049
1772366193348016000,8.57701611328125,-0.00017132610082626343,0.00036593200638890266,-0.0031193476170301437
1772366193358087200,8.587087158203126,-0.0016538300551474094,-0.0012600019108504057,0.0008842078968882561
1772366193368157200,8.5971572265625,0.0006679138168692589,-0.0030680219642817974,0.000828281044960022
1772366193378227000,8.60722705078125,-0.0020004850812256336,0.0009889677166938782,0.00030927080661058426
1772366193388298000,8.617298095703125,0.0004956955090165138,0.002847854048013687,-0.0011791698634624481
1772366193398368000,8.627367919921875,-0.001227445900440216,0.0005298196338117123,0.0004958966746926308
1772366193408438000,8.63743798828125,-0.0007062647491693497,0.0017894948832690716,0.00044263340532779694
1772366193418509000,8.647509033203125,0.00020734593272209167,0.0029474738985300064,-0.0006151357665657997
1772366193428579000,8.6575791015625,-0.00012315250933170319,0.0007825903594493866,-0.0011821230873465538
1772366193438648800,8.66764892578125,0.0023464723490178585,0.0006187260150909424,-0.001878012903034687
1772366193448719000,8.677718994140625,-0.0004304060712456703,-0.0034188926219940186,0.0018373625352978706
1772366193458790100,8.6877900390625,0.00012437021359801292,-0.003719138912856579,-0.002781878225505352
1772366193468860200,8.697860107421874,-0.0019110841676592827,-0.001271960325539112,-0.00047904253005981445
1772366193478930000,8.707929931640624,-0.0006069638766348362,-0.001821822952479124,0.0008000517264008522
1772366193489001000,8.7180009765625,-0.0005129543133080006,0.001635759137570858,-0.0020029256120324135
1772366193499071200,8.7280712890625,-0.0008634384721517563,0.0007293359376490116,0.0007706554606556892
1772366193509141000,8.73814111328125,0.0008111572824418545,-0.004276075400412083,-0.0003305617719888687
1772366193519212000,8.7482119140625,-0.0009483015164732933,0.0007157167419791222,-0.0014723017811775208
1772366193529282000,8.758281982421876,0.0005049859173595905,-0.0019074967131018639,-0.0007798792794346809
1772366193539352000,8.76835205078125,-0.00015833554789423943,0.000446561723947525,-0.0012174379080533981
1772366193549423000,8.778423095703126,-0.00010374095290899277,-0.0003774203360080719,0.0005509005859494209
1772366193559493000,8.7884931640625,-0.00004476681351661682,-0.003380998270586133,-0.0013447823002934456
1772366193569563100,8.798563232421875,0.0011941357515752316,-0.0007916069589555264,0.0016153212636709213
1772366193579633000,8.8086328125,0.0003971988335251808,-0.0005852482281625271,0.0017585894092917442
1772366193589704000,8.818703857421875,-0.00030188122764229774,0.0006611109711229801,0.0006115660071372986
1772366193599774200,8.828774169921875,-0.0011180257424712181,-0.0003936225548386574,-0.0027537522837519646
1772366193609844000,8.838843994140625,-0.0032514845952391624,-0.0001179850660264492,-0.0009579826146364212
1772366193619915000,8.8489150390625,-0.0002430463209748268,0.0009167022071778774,0.0013457359746098518
1772366193629985000,8.858985107421875,0.00015962403267621994,-0.0022213002666831017,-0.0010186191648244858
1772366193640055000,8.869054931640624,-0.001908866222947836,0.0014238059520721436,-0.000987788662314415
1772366193650126000,8.8791259765625,0.0022499258629977703,-0.0004784902557730675,-0.000018930993974208832
1772366193660196000,8.889196044921874,-0.00012800004333257675,-0.002610539086163044,-0.002050449140369892
1772366193670266000,8.89926611328125,0.002820385619997978,-0.0004978533834218979,-0.0010475032031536102
1772366193680336000,8.9093359375,-0.001577302347868681,0.0005717533640563488,0.0014071334153413773
1772366193690407000,8.919406982421876,0.00109065230935812,-0.0010045717936009169,-0.0008216658607125282
1772366193700477200,8.929477294921876,-0.0031308475881814957,0.0016669887118041515,0.002697954885661602
1772366193710547000,8.939546875,-0.0006349328905344009,-0.0016201511025428772,-0.0006309961900115013
1772366193720618000,8.949617919921875,-0.0005185934714972973,-0.0013200007379055023,0.0007469672709703445
1772366193730688000,8.95968798828125,-0.0003303075209259987,-0.001173260621726513,0.00009768921881914139
1772366193740758000,8.969758056640625,-0.00045041320845484734,0.0032764049246907234,-0.000023985281586647034
1772366193750829000,8.9798291015625,-0.00038010580465197563,0.0017219176515936852,-0.00007485132664442062
1772366193760899000,8.989899169921875,-0.0017314176075160503,0.00020242668688297272,0.0005830088630318642
1772366193770968800,8.99996875,0.0015237638726830482,0.0016224239952862263,0.00020297616720199585
1772366193781039900,9.010039794921875,0.00015516532585024834,0.0006474507972598076,0.0016091298311948776
1772366193791110100,9.020110107421875,0.0015253620222210884,-0.003704953473061323,-0.00028277933597564697
1772366193801180200,9.03018017578125,-0.0012896712869405746,0.000056113582104444504,0.0026598647236824036
1772366193811250000,9.04025,-0.0009618354961276054,-0.0048036230728030205,-0.0010400647297501564
1772366193821321000,9.050321044921875,0.0007863938808441162,0.00044393958523869514,0.0011553028598427773
1772366193831391000,9.060390869140624,0.0006409850902855396,-0.0010668719187378883,0.0001619439572095871
1772366193841461000,9.0704609375,0.0007773884572088718,0.0009221439249813557,0.0031823674216866493
1772366193851532000,9.080531982421874,0.0012037609703838825,-0.0008331453427672386,-0.0005596410483121872
1772366193861602000,9.09060205078125,0.00038061104714870453,-0.00003146566450595856,-0.0017081722617149353
1772366193871671800,9.100671875,-0.00020981160923838615,0.001925158780068159,0.0004452597349882126
1772366193881742800,9.110742919921876,0.00038762204349040985,-0.00018501700833439827,0.0008729174733161926
1772366193891813000,9.120813232421876,-0.0009114677086472511,0.0000794348306953907,-0.0017122132703661919
1772366193901883100,9.130883056640625,-0.001425985712558031,-0.0008267671801149845,-0.0009518656879663467
1772366193911953000,9.140952880859375,-0.0007460801862180233,0.002215361688286066,-0.00047116540372371674
1772366193922024000,9.15102392578125,-0.0004466800019145012,0.001159298699349165,0.00125829316675663
1772366193932094200,9.16109423828125,0.00008888216689229012,0.0014458545483648777,-0.001026165671646595
1772366193942164000,9.1711640625,0.0005871709436178207,0.002790955826640129,-0.000832684338092804
1772366193952235000,9.181235107421875,0.0014524320140480995,0.001451119314879179,0.0002309819683432579
1772366193962305000,9.191304931640625,0.0010576476342976093,0.006893403362482786,-0.0010801609605550766
1772366193972375000,9.201375,0.0005734851583838463,0.00264486251398921,0.0002650022506713867
1772366193982446000,9.211446044921875,-0.00022589461877942085,0.0023961635306477547,0.001626238226890564
1772366193992516000,9.22151611328125,0.0012279250659048557,-0.0003844429738819599,0.0010065212845802307
1772366194002586000,9.231586181640624,-0.0010838378220796585,-0.0007910700514912605,0.0014971746131777763
1772366194012655900,9.24165576171875,0.0007990174926817417,0.000376193318516016,0.0010420400649309158
1772366194022727000,9.251726806640624,0.00012832460924983025,-0.00013182172551751137,-0.0008218400180339813
1772366194032797200,9.261797119140626,0.0002154102548956871,0.0019241385161876678,-0.0005163755267858505
1772366194042867000,9.271866943359376,-0.00044783251360058784,0.0017622392624616623,-0.0017786184325814247
1772366194052938000,9.28193798828125,0.00008906098082661629,0.004107951186597347,0.000057631172239780426
1772366194063008000,9.292008056640626,0.0007674200460314751,0.0013320697471499443,0.0006595645099878311
1772366194073078000,9.302078125,-0.0009854729287326336,-0.0017950141336768866,0.000022003427147865295
1772366194083149000,9.312149169921875,0.0012721410021185875,0.0002479627728462219,0.0011624852195382118
1772366194093219000,9.322218994140625,-0.001209924928843975,0.002873307093977928,0.000308942049741745
1772366194103289000,9.3322890625,0.0007684179581701756,0.0017828624695539474,0.00063362717628479
1772366194113358800,9.34235888671875,-0.0021173832938075066,0.00040414417162537575,0.0004855562001466751
1772366194123430000,9.352429931640625,-0.00008727144449949265,-0.0019113607704639435,-0.0014121178537607193
1772366194133500200,9.362500244140625,-0.0011048652231693268,-0.0011915082577615976,0.0006321249529719353
1772366194143570000,9.37256982421875,-0.0013436083681881428,0.001035141758620739,-0.002250073477625847
1772366194153641000,9.382640869140625,0.0006809262558817863,-0.0020195038523525,0.0003156159073114395
1772366194163711000,9.3927109375,-0.0017299680039286613,0.001947491429746151,-0.0014673080295324326
1772366194173781000,9.402781005859374,0.001566226128488779,0.001648418139666319,-0.0008835429325699806
1772366194183852000,9.41285205078125,-0.0009952578693628311,0.0007341932505369186,-0.0011957623064517975
1772366194193922000,9.422922119140624,0.000055625103414058685,0.0006532333791255951,-0.0026232171803712845
1772366194203992000,9.432991943359376,0.001532766968011856,-0.0008462837431579828,0.003359731286764145
1772366194214062000,9.44306201171875,0.0013383561745285988,0.0026456527411937714,0.0011418499052524567
1772366194224133000,9.453133056640626,-0.002178001683205366,0.00003749411553144455,0.0007461607456207275
1772366194234203100,9.463203125,0.0008998140692710876,0.0027733594179153442,-0.0008211098611354828
1772366194244273000,9.47327294921875,0.0007073231972754002,0.001551605761051178,0.0001057768240571022
1772366194254344000,9.483343994140625,-0.0006154691800475121,0.001260522287338972,0.002579587511718273
1772366194264414000,9.4934140625,-0.0013524740934371948,0.0026354785077273846,0.0004799673333764076
1772366194274484000,9.50348388671875,0.000325583852827549,0.0013342578895390034,0.00009407475590705872
1772366194284554000,9.513553955078125,-0.0008736629970371723,-0.0002655251882970333,-0.001066998578608036
1772366194294625000,9.523625,0.0011902865953743458,0.0008964119479060173,-0.00039721373468637466
1772366194304695000,9.533695068359375,-0.0016049672849476337,-0.0004823068156838417,0.00029334332793951035
1772366194314765000,9.54376513671875,-0.00030102208256721497,0.0004763384349644184,-0.0017821239307522774
1772366194324836000,9.553836181640625,-0.0014822105877101421,-0.0005357773043215275,0.00046732835471630096
1772366194334906000,9.563906005859375,0.0007673618383705616,0.0021457597613334656,0.000044683925807476044
1772366194344976000,9.573975830078124,-0.0009977277368307114,0.0038588433526456356,-0.001972016878426075
1772366194355047000,9.584046875,0.000800971407443285,-0.0026472590398043394,0.001769990660250187
1772366194365117200,9.5941171875,0.0011424445547163486,0.0025246357545256615,-0.00010427739471197128
1772366194375187000,9.60418701171875,-0.0003537195734679699,0.0020266245119273663,-0.0031381510198116302
1772366194385257000,9.614257080078126,-0.0004511987790465355,0.004358302336186171,0.0015644906088709831
1772366194395328000,9.624327880859376,-0.0006440114229917526,-0.0019246269948780537,-0.0002054460346698761
1772366194405398000,9.63439794921875,0.0017922492697834969,0.001963198184967041,-0.0009319912642240524
1772366194415468000,9.644468017578125,-0.0018450967036187649,-0.00015108520165085793,-0.00011892803013324738
1772366194425539000,9.6545390625,-0.0011674268171191216,-0.0014741348568350077,0.0017454847693443298
1772366194435609000,9.664609130859375,0.0028859046287834644,0.0016076751053333282,0.0004131048917770386
1772366194445678800,9.674678955078125,-0.00046252692118287086,0.0015834830701351166,0.0000019855797290802
1772366194455750000,9.68475,0.0008978154510259628,0.0025222469121217728,-0.0017541032284498215
1772366194465820200,9.694820068359375,-0.00024556973949074745,0.0037577738985419273,-0.0008941004052758217
1772366194475890000,9.704889892578125,-0.0005936450324952602,-0.0015661511570215225,-0.0009846482425928116
1772366194485960000,9.7149599609375,0.0011065262369811535,-0.00027150847017765045,-0.0008133798837661743
1772366194496031000,9.725031005859375,-0.00015501352027058601,-0.0016289218328893185,0.0012066280469298363
1772366194506101200,9.735101318359375,0.00045916857197880745,-0.00051850825548172,0.0029615918174386024
1772366194516171000,9.7451708984375,-0.00021993787959218025,0.0016847248189151287,0.0028670495375990868
1772366194526242000,9.755241943359374,-0.0003314930945634842,0.0016883485950529575,0.0017405692487955093
1772366194536312000,9.76531201171875,-0.0006026029586791992,0.0004427884705364704,0.0007506730034947395
1772366194546381800,9.7753818359375,0.001621205359697342,-0.0005038869567215443,0.0009390488266944885
1772366194556452000,9.7854521484375,-0.0012347684241831303,0.00020691053941845894,0.0028083212673664093
1772366194566523100,9.795523193359376,-0.0000620703212916851,0.0038517573848366737,0.00022789742797613144
1772366194576593000,9.805593017578126,0.0005155690014362335,0.0006820629350841045,-0.002108760178089142
1772366194586663000,9.815662841796875,-0.001336059533059597,-0.0012111722026020288,-0.00022500194609165192
1772366194596734000,9.82573388671875,-0.0001853075809776783,-0.00017333822324872017,0.0006639612838625908
1772366194606804200,9.83580419921875,0.0003268308937549591,-0.0011416841298341751,0.0019173305481672287
1772366194616874000,9.8458740234375,-0.0007261829450726509,-0.0017691247630864382,0.00037829019129276276
1772366194626945000,9.855945068359375,0.0006951573304831982,0.0020026294514536858,0.0011088661849498749
1772366194637015000,9.86601513671875,0.0012000924907624722,0.004335824865847826,-0.000250411219894886
1772366194647085000,9.8760849609375,-0.0018974198028445244,0.0005860324017703533,0.00017536710947752
1772366194657155000,9.886155029296875,0.0026701674796640873,-0.00021584518253803253,0.0011341050267219543
1772366194667226000,9.89622607421875,-0.0008601071313023567,0.0007547228597104549,0.00035179220139980316
1772366194677295900,9.9062958984375,0.0011348673142492771,0.0010569915175437927,0.0005672415718436241
1772366194687366000,9.916365966796874,0.0021242941729724407,0.0009120376780629158,-0.001240103505551815
1772366194697437000,9.92643701171875,0.00023238454014062881,-0.0011977183166891336,0.0004302309826016426
1772366194707507200,9.936507080078124,0.001394086517393589,-0.0020489864982664585,0.0005648145452141762
1772366194717577000,9.946576904296874,-0.001015807967633009,0.0025263242423534393,-0.0010967310518026352
1772366194727647000,9.95664697265625,-0.000638109166175127,0.002732276450842619,-0.0007338551804423332
1772366194737718000,9.966718017578126,-0.001247440930455923,0.00036499276757240295,-0.0010608918964862823
1772366194747788000,9.9767880859375,0.002322619780898094,0.0019859718158841133,-0.0020008068531751633
1772366194757858000,9.986858154296876,-0.0009405515156686306,0.00034493161365389824,-0.0005816090852022171
1772366194767929000,9.99692919921875,-0.001337363850325346,0.0001250244677066803,-0.0000010300427675247192
1772366194777998800,10.006998779296875,0.0004959558136761189,-0.002877423306927085,-0.0017262259498238564
1772366194788069000,10.017069091796875,-0.00229008961468935,0.004075882025063038,0.0009993091225624084
1772366194798139100,10.02713916015625,0.0012641646899282932,0.0009799576364457607,-0.0012521278113126755
1772366194808210200,10.037210205078125,-0.000609125941991806,0.0010738363489508629,-0.00045664794743061066
1772366194818280000,10.047280029296875,-0.0006810314953327179,0.00047196168452501297,-0.001076364889740944
1772366194828350000,10.057349853515625,-0.002722382079809904,-0.00019312649965286255,-0.0015508737415075302
1772366194838421000,10.0674208984375,-0.000104494858533144,0.0006657429039478302,-0.0007218318060040474
1772366194848491000,10.077490966796875,-0.000018049031496047974,0.0005921600386500359,0.0016724392771720886
1772366194858561000,10.08756103515625,0.00011723954230546951,-0.0015263843815773726,0.000765899196267128
1772366194868631000,10.097631103515624,0.001190020702779293,-0.0018130617681890726,0.0027469107881188393
1772366194878701800,10.107701904296874,-0.0005871066823601723,-0.0013049307744950056,-0.003110179677605629
1772366194888772000,10.117772216796874,-0.0004003867506980896,-0.00009399047121405602,0.000856286846101284
1772366194898842000,10.127842041015626,-0.0016254414804279804,-0.0033062954898923635,-0.00005930755287408829
1772366194908913200,10.1379130859375,0.00038286810740828514,-0.0009033642709255219,0.0006291428580880165
1772366194918983000,10.14798291015625,0.0002124258317053318,-0.0031430828385055065,0.0006616329774260521
1772366194929053200,10.15805322265625,0.0009833872318267822,0.0011527161113917828,-0.0016851052641868591
1772366194939124200,10.168124267578126,-0.0005945358425378799,-0.001166364410892129,-0.00033727940171957016
1772366194949194000,10.178194091796875,0.0012063938193023205,-0.00012322235852479935,-0.00040040072053670883
1772366194959264000,10.188263916015625,-0.0009760665707290173,0.0017963838763535023,0.0037733064964413643
1772366194969334000,10.198333984375,-0.0021562688052654266,-0.0008355923928320408,0.0010339850559830666
1772366194979404800,10.20840478515625,-0.00039804959669709206,0.0009934669360518456,0.000614536926150322
1772366194989475000,10.21847509765625,-0.00027704983949661255,0.0011110496707260609,0.0007645497098565102
1772366194999545000,10.228545166015625,-0.0005212612450122833,-0.0008359877392649651,0.0008617546409368515
1772366195009616100,10.2386162109375,0.0017387899570167065,-0.0030947797931730747,-0.00010416563600301743
1772366195019686000,10.248685791015625,-0.0000023851171135902405,-0.0022854451090097427,0.0007746778428554535
1772366195029756200,10.258756103515625,0.0009454353712499142,0.0027317083440721035,0.0008637234568595886
1772366195039826000,10.268825927734374,0.0014879214577376842,0.0005870643071830273,0.002093837596476078
1772366195049897000,10.27889697265625,-0.0011332067660987377,0.0004849727265536785,-0.00008479226380586624
1772366195059967000,10.288967041015624,0.00020556431263685226,-0.0006729699671268463,0.000096835196018219
1772366195070037200,10.299037353515626,0.0022022761404514313,-0.002288591116666794,-0.0006540575996041298
1772366195080108000,10.30910791015625,0.0015593892894685268,0.0004507363773882389,0.0021768826991319656
1772366195090178000,10.319177978515626,0.0004377388395369053,0.0019838926382362843,-0.00008483324199914932
1772366195100248000,10.329248046875,0.00009099533781409264,0.0010451283305883408,-0.0013013649731874466
1772366195110317800,10.33931787109375,0.0017429366707801819,-0.00018263421952724457,-0.0005374327301979065
1772366195120388900,10.349388916015625,0.0006230771541595459,0.0022871815599501133,0.002245836891233921
1772366195130459100,10.359459228515625,0.000017298385500907898,-0.0019639006350189447,-0.0005852775648236275
1772366195140529000,10.36952880859375,-0.0016407854855060577,-0.0005494956858456135,0.0005747955292463303
1772366195150600000,10.379599853515625,-0.0013197758235037327,-0.0002555595710873604,-0.0009404923766851425
1772366195160670000,10.389669921875,0.000003548339009284973,0.0014472655020654202,-0.001094689592719078
1772366195170740200,10.399740234375,-0.0031995424069464207,0.006058800034224987,0.001818380318582058
1772366195180810000,10.40981005859375,-0.00023810705170035362,-0.0024310913868248463,-0.0018666349351406097
1772366195190881000,10.419881103515625,-0.00034963758662343025,0.0022280788980424404,-0.00021873973309993744
1772366195200951000,10.429950927734374,0.0017920765094459057,0.05318180471658707,0.028725026175379753
1772366195211021000,10.44002099609375,0.0005271038971841335,0.01522738579660654,0.013839270919561386
1772366195221092000,10.450092041015624,-0.0007751821540296078,0.00959400087594986,0.00748203881084919
1772366195231162000,10.460162109375,-0.00020293891429901123,-0.002583763562142849,-0.00036683864891529083
1772366195241232000,10.47023193359375,-0.002099908422678709,-0.007057075388729572,-0.001764466054737568
1772366195251302000,10.480302001953126,-0.00018685031682252884,-0.03747636079788208,-0.015560675412416458
1772366195261373000,10.490373046875,0.00010742899030447006,-0.03916001319885254,-0.01790958270430565
1772366195271443200,10.500443115234376,-0.0007896330207586288,-0.01937922276556492,-0.006766994949430227
1772366195281513000,10.510512939453125,-0.001849304884672165,-0.012720787897706032,-0.013301593251526356
