time,seconds_elapsed,z,y,x
1772568066856269300,0.121269287109375,0.00028059398755431175,-0.0003321506083011627,0.0002749580889940262
1772568066866341400,0.13134130859375,-0.0020621884614229202,-0.0008543962612748146,-0.0010459693148732185
1772568066876414200,0.141414306640625,-0.00007985346019268036,-0.0009110183455049992,0.0006275614723563194
1772568066886486300,0.151486328125,-0.0007850583642721176,0.0012464085593819618,-0.0018361285328865051
1772568066896559400,0.161559326171875,0.000797017477452755,-0.002260868903249502,-0.000542941503226757
1772568066906631200,0.171631103515625,-0.00016331858932971954,-0.002218791050836444,-0.000968514010310173
1772568066916704300,0.181704345703125,-0.0003113900311291218,-0.0021133299451321363,0.0001489482820034027
1772568066926776000,0.191776123046875,0.0025248765014111996,-0.0022371667437255383,0.0003292439505457878
1772568066936848100,0.20184814453125,-0.00017552124336361885,-0.002443349454551935,-0.00016193091869354248
1772568066946921500,0.21192138671875,0.0008476651273667812,-0.0018603834323585033,-0.0010602157562971115
1772568066956993300,0.2219931640625,-0.0016669519245624542,0.003745088819414377,-0.0016851257532835007
1772568066967066400,0.23206640625,0.0005794242024421692,0.00012958189472556114,-0.001597241498529911
1772568066977138200,0.24213818359375,-0.00004717102274298668,-0.0014310851693153381,-0.0002521658316254616
1772568066987210200,0.252210205078125,-0.00024025002494454384,-0.00037620682269334793,-0.0003429790958762169
1772568066997283300,0.262283447265625,0.0004230346530675888,-0.001391564728692174,-0.000693230889737606
1772568067007355100,0.272355224609375,-0.0017447788268327713,-0.0016940997447818518,0.0007725730538368225
1772568067017428200,0.28242822265625,0.0007576863281428814,0.0038222773000597954,0.0007620500400662422
1772568067027500000,0.2925,-0.00027934880927205086,-0.001564232399687171,0.00046297721564769745
1772568067037573400,0.302573486328125,-0.00031710555776953697,0.00006257602944970131,-0.0004571853205561638
1772568067047645400,0.3126455078125,-0.0005096523091197014,0.000043934211134910583,-0.0010974090546369553
1772568067057717200,0.32271728515625,0.0014374018646776676,0.00003215484321117401,-0.001635097898542881
1772568067067790300,0.332790283203125,-0.0001889904960989952,-0.0012205960229039192,0.0008522942662239075
1772568067077862100,0.342862060546875,0.00015681330114603043,0.0012520458549261093,-0.003666558302938938
1772568067087935200,0.352935302734375,-0.002583312802016735,-0.00025583570823073387,-0.0013935510069131851
1772568067098007300,0.36300732421875,-0.00011586351320147514,-0.00039038294926285744,0.0017135171219706535
1772568067108079000,0.3730791015625,0.0014146552421152592,-0.0002452409826219082,0.00018140021711587906
1772568067118152400,0.38315234375,0.00024026446044445038,-0.0005824477411806583,0.000803912989795208
1772568067128224300,0.393224365234375,-0.003811468370258808,-0.00014968402683734894,0.000225740484893322
1772568067138297300,0.40329736328125,-0.003028029575943947,-0.0014985243324190378,0.00036435946822166443
1772568067148369400,0.413369384765625,0.001968060154467821,-0.0003032977692782879,-0.001937410794198513
1772568067158442200,0.423442138671875,-0.00030983565375208855,0.0020302734337747097,0.0012705428525805473
1772568067168514300,0.433514404296875,0.002533621620386839,-0.0002595125697553158,0.0004311138764023781
1772568067178586400,0.44358642578125,-0.001275653950870037,0.0023593343794345856,-0.001057283952832222
1772568067188659200,0.4536591796875,0.002123604528605938,0.0009249560534954071,0.0007318276911973953
1772568067198731300,0.463731201171875,-0.0001002768985927105,-0.00032576778903603554,0.0005621835589408875
1772568067208804400,0.473804443359375,-0.0014659455046057701,-0.0020861171651631594,0.0008410168811678886
1772568067218876400,0.48387646484375,-0.003762420266866684,-0.001318067777901888,-0.0010132500901818275
1772568067228948500,0.493948486328125,-0.0002909894101321697,-0.0022064982913434505,-0.0017674574628472328
1772568067239021300,0.504021240234375,0.0005887923762202263,-0.0015145069919526577,-0.0001040436327457428
1772568067249093400,0.51409326171875,-0.00018512224778532982,0.0011720899492502213,-0.002813011407852173
1772568067259166200,0.524166259765625,0.00011352822184562683,-0.0009968937374651432,0.003158106468617916
1772568067269238300,0.53423828125,-0.0019038161262869835,0.0029275408014655113,-0.00028216466307640076
1772568067279311000,0.54431103515625,-0.00038168206810951233,-0.0010263528674840927,-0.0000025294721126556396
1772568067289383200,0.554383056640625,-0.0003385385498404503,-0.00010995892807841301,-0.0019189408048987389
1772568067299455200,0.564455322265625,0.0017658909782767296,0.00005835294723510742,-0.0008633751422166824
1772568067309528800,0.57452880859375,-0.0018741171807050705,0.0015944642946124077,0.0009776679798960686
1772568067319601000,0.584600830078125,-0.0019599758088588715,-0.0001478712074458599,0.00033487845212221146
1772568067329673700,0.594673828125,0.0006211595609784126,-0.002703706733882427,0.000921039842069149
1772568067339745800,0.604745849609375,0.00012036971747875214,-0.0001656739041209221,-0.0005773166194558144
1772568067349817900,0.61481787109375,0.0008348957635462284,-0.0017531842458993196,-0.0011512283235788345
1772568067359890700,0.624890625,-0.0014470573514699936,-0.0007317019626498222,0.000002487562596797943
1772568067369962800,0.634962646484375,0.00040037743747234344,-0.000013447366654872894,0.001025940291583538
1772568067380035800,0.645035888671875,-0.001297098584473133,0.000014439225196838379,0.00005370099097490311
1772568067390108000,0.65510791015625,-0.0020289355888962746,-0.0005251173861324787,-0.00037453509867191315
1772568067400180000,0.665179931640625,0.0008769859559834003,0.002292306162416935,0.0003990018740296364
1772568067410252800,0.675252685546875,-0.0008705803193151951,0.0014499486424028873,-0.0008628033101558685
1772568067420324900,0.685324951171875,-0.0008893911726772785,0.00011808611452579498,-0.00025009550154209137
1772568067430397700,0.695397705078125,-0.0009786072187125683,-0.0007359897717833519,0.0017286334186792374
1772568067440469800,0.7054697265625,0.00009368732571601868,-0.0012818765826523304,0.0016563646495342255
1772568067450542600,0.71554248046875,-0.00024986034259200096,0.0003562336787581444,-0.00026830192655324936
1772568067460614700,0.72561474609375,-0.0007465081289410591,-0.001273841131478548,-0.0014348486438393593
1772568067470686700,0.735686767578125,-0.0014178906567394733,-0.0017582699656486511,-0.000150938518345356
1772568067480759800,0.745759765625,-0.00022767158225178719,0.0005008960142731667,-0.0003711683675646782
1772568067490832000,0.755831787109375,0.0003736703656613827,0.0015131635591387749,0.0022690892219543457
1772568067500904700,0.76590478515625,0.0005154754035174847,-0.0013802561443299055,-0.002324407920241356
1772568067510976800,0.775976806640625,0.0017676935531198978,-0.002444455400109291,0.0008170567452907562
1772568067521048800,0.786048828125,-0.00011111469939351082,-0.0026689248625189066,-0.0006636697798967361
1772568067531121700,0.79612158203125,0.00012963498011231422,0.0008525731973350048,0.0030541028827428818
1772568067541193700,0.80619384765625,-0.0003995373845100403,0.0014825728721916676,0.0028949137777090073
1772568067551266600,0.8162666015625,0.00035307183861732483,0.0026069595478475094,0.000750269740819931
1772568067561338600,0.826338623046875,0.0016701617278158665,0.0010150088928639889,-0.00122765451669693
1772568067571410700,0.83641064453125,0.002015040721744299,0.00004188995808362961,-0.001972273923456669
1772568067581483800,0.84648388671875,-0.002108955755829811,-0.0009020683355629444,0.00220363587141037
1772568067591555800,0.856555908203125,-0.00005272962152957916,0.0010489635169506073,0.00008828658610582352
1772568067601628700,0.866628662109375,0.0001448742114007473,0.0006384393200278282,0.0009351735934615135
1772568067611700700,0.87670068359375,0.00014673825353384018,0.000627253670245409,0.0011141374707221985
1772568067621772800,0.886772705078125,0.0006048139184713364,-0.00021512620151042938,-0.00018465053290128708
1772568067631845600,0.896845703125,-0.0010985438711941242,-0.002285201568156481,0.0020398879423737526
1772568067641917700,0.906917724609375,0.005431730300188065,0.0007444168440997601,0.001459049992263317
1772568067651990500,0.916990478515625,-0.0005004610866308212,0.0012197908945381641,0.0009242873638868332
1772568067662062600,0.9270625,0.0003203754313290119,-0.000625160988420248,-0.002597646787762642
1772568067672135000,0.937135009765625,-0.00006125541403889656,-0.0007359483279287815,-0.0000407462939620018
1772568067682207700,0.947207763671875,-0.00017288187518715858,0.0036203167401254177,-0.0007117018103599548
1772568067692279800,0.95727978515625,0.0003890451043844223,0.0009371819905936718,-0.0027450257912278175
1772568067702352600,0.9673525390625,0.0008255336433649063,0.002454569097608328,0.002907608635723591
1772568067712424700,0.9774248046875,0.0015778765082359314,0.0007424228824675083,-0.0020940741524100304
1772568067722496800,0.987496826171875,0.0011046049185097218,0.0008077560923993587,0.0009148046374320984
1772568067732569600,0.997569580078125,0.002047097310423851,-0.0013081252109259367,-0.0013339677825570107
1772568067742641700,1.0076416015625,0.0013467115350067616,0.0014992295764386654,0.002857387065887451
1772568067752714800,1.01771484375,-0.0006386749446392059,0.00040626851841807365,0.0003577452152967453
1772568067762786800,1.027786865234375,0.00024297554045915604,-0.0002325163222849369,-0.0026428764685988426
1772568067772859000,1.03785888671875,0.0012408620677888393,0.0004244856536388397,0.000676753930747509
1772568067782931700,1.047931640625,-0.0016543762758374214,-0.0031589532736688852,-0.0017499634996056557
1772568067793003800,1.058003662109375,0.001162183005362749,0.0036824410781264305,-0.0015827175229787827
1772568067803076900,1.068076904296875,0.0006623268127441406,-0.00013734865933656693,-0.0015405183658003807
1772568067813148700,1.078148681640625,-0.00011877855286002159,0.002591592725366354,0.001435297541320324
1772568067823220700,1.088220703125,0.0026732198894023895,0.0006308420561254025,-0.0017755180597305298
1772568067833293600,1.09829345703125,0.000632172916084528,-0.0030834688805043697,-0.002432519569993019
1772568067843365600,1.10836572265625,-0.0017832806333899498,0.0008704233914613724,0.002165820449590683
1772568067853439000,1.11843896484375,-0.00001574074849486351,-0.0009767450392246246,-0.0003998689353466034
1772568067863510800,1.1285107421875,-0.0008204099722206593,0.001714607235044241,-0.001071249134838581
1772568067873582800,1.138582763671875,-0.0015940582379698753,0.002509028185158968,-0.0029080314561724663
1772568067883655700,1.14865576171875,0.0017715333960950375,-0.0008969451300799847,0.000959605909883976
1772568067893727700,1.158727783203125,0.0016407719813287258,0.0000902889296412468,0.0014677364379167557
1772568067903800800,1.16880078125,0.000676292460411787,-0.0010067936964333057,-0.00034821126610040665
1772568067913872600,1.17887255859375,-0.0012790001928806305,-0.00016683293506503105,0.0016587469726800919
1772568067923944700,1.18894482421875,-0.0010752296075224876,0.002610946074128151,0.0006612809374928474
1772568067934017500,1.199017578125,0.0018537146970629692,0.0016775080002844334,0.0002708621323108673
1772568067944089600,1.209089599609375,-0.00019028829410672188,0.0005469736643135548,0.00008940882980823517
1772568067954161700,1.21916162109375,0.0004318258725106716,0.0005232715047895908,0.0002678399905562401
1772568067964234800,1.22923486328125,0.00026129651814699173,-0.0005021244287490845,-0.000924193300306797
1772568067974306800,1.239306884765625,0.00045410916209220886,-0.000823301263153553,-0.002710907720029354
1772568067984379600,1.249379638671875,-0.0016805222257971764,-0.0008885073475539684,0.0021759364753961563
1772568067994451700,1.25945166015625,0.0012585422955453396,0.0001850128173828125,0.0010339738801121712
1772568068004523800,1.269523681640625,0.0011276835575699806,-0.0015724129043519497,-0.0019906917586922646
1772568068014596600,1.2795966796875,-0.000822282861918211,0.00035225367173552513,0.0012242766097187996
1772568068024668700,1.289668701171875,0.0003506871871650219,-0.003179775085300207,0.0006315447390079498
1772568068034741800,1.29974169921875,-0.00016410183161497116,-0.0009320671670138836,-0.0008023018017411232
1772568068044813800,1.309813720703125,0.0006250347942113876,-0.0008235028944909573,-0.0015498921275138855
1772568068054886000,1.319885986328125,-0.00241682818159461,0.0022042449563741684,-0.0001466730609536171
1772568068064958700,1.329958740234375,0.0020796055905520916,-0.000011364929378032684,-0.0013666944578289986
1772568068075030800,1.34003076171875,-0.0024184738285839558,-0.0005269530229270458,0.001288476400077343
1772568068085103900,1.350103759765625,-0.0007752268575131893,-0.001171040814369917,-0.00044413749128580093
1772568068095175700,1.36017578125,0.001287125051021576,-0.0009824889712035656,0.0013572238385677338
1772568068105247700,1.370247802734375,0.00011827517300844193,-0.0008724154904484749,-0.0030736587941646576
1772568068115320600,1.380320556640625,-0.0008985195308923721,-0.0022609876468777657,0.0009999126195907593
1772568068125392600,1.390392578125,0.000430072657763958,-0.0002865968272089958,0.0006714742630720139
1772568068135464700,1.400464599609375,-0.002790754195302725,-0.00007114699110388756,-0.00011229421943426132
1772568068145537800,1.410537841796875,-0.0012035621330142021,0.000059031881392002106,0.0027511101216077805
1772568068155609900,1.42060986328125,-0.00022564921528100967,0.00043826596811413765,-0.0005410891026258469
1772568068165682700,1.4306826171875,-0.0008871913887560368,0.0002690372057259083,0.0021491358056664467
1772568068175754800,1.440754638671875,0.002340559847652912,0.0014602690935134888,0.0002055605873465538
1772568068185826800,1.450826904296875,-0.001099198590964079,-0.0017543928697705269,0.0003681248053908348
1772568068195899600,1.460899658203125,0.0020300159230828285,0.0021189083345234394,-0.00200741458684206
1772568068205971700,1.4709716796875,-0.00243251770734787,-0.0029064551927149296,0.001284702681005001
1772568068216044500,1.48104443359375,-0.00045512057840824127,0.0014997445978224277,-0.000490027479827404
1772568068226116600,1.49111669921875,0.0003160974010825157,-0.0008898940868675709,0.0001041218638420105
1772568068236188700,1.501188720703125,0.0008492623455822468,-0.002370079280808568,0.0012045400217175484
1772568068246261800,1.51126171875,-0.0009575369767844677,-0.0011747111566364765,0.0027780430391430855
1772568068256333800,1.521333740234375,-0.0004115891642868519,0.0007792501710355282,0.0009268792346119881
1772568068266406000,1.531406005859375,-0.0006140545010566711,-0.0006386409513652325,0.0016347458586096764
1772568068276478700,1.541478759765625,0.0009476230479776859,-0.00024635763838887215,-0.0012547839432954788
1772568068286550800,1.55155078125,0.0037887173239141703,-0.0012896470725536346,0.00000387243926525116
1772568068296623600,1.56162353515625,0.00011248979717493057,-0.001490183174610138,0.0004616696387529373
1772568068306695000,1.57169482421875,-0.0008131791837513447,-0.0014120042324066162,0.0004009287804365158
1772568068316767000,1.58176708984375,0.0008779284544289112,0.0013092136941850185,-0.0026491889730095863
1772568068326839800,1.59183984375,-0.0013760528527200222,0.0014580348506569862,-0.0007756492123007774
1772568068336912000,1.601911865234375,-0.0007416880689561367,-0.0006703631952404976,0.00027310382574796677
1772568068346984000,1.61198388671875,-0.0022723115980625153,0.0005190419033169746,-0.00011929776519536972
1772568068357057000,1.62205712890625,-0.0006328695453703403,0.0008388874121010303,-0.001127038151025772
1772568068367129000,1.632129150390625,-0.0010023112408816814,-0.0004321783781051636,-0.0004943842068314552
1772568068377202000,1.642201904296875,0.0011055809445679188,-0.0014260699972510338,0.00023771822452545166
1772568068387274000,1.65227392578125,-0.0015685907565057278,0.0022704508155584335,-0.0030877692624926567
1772568068397346000,1.662345947265625,-0.0003909403458237648,-0.001557044219225645,-0.0010813437402248383
1772568068407419000,1.6724189453125,0.0009844531305134296,0.001712593249976635,0.0009373454377055168
1772568068417491000,1.682490966796875,-0.0008600521832704544,0.0002976558171212673,-0.0005516279488801956
1772568068427564000,1.69256396484375,0.0013340809382498264,-0.0010880278423428535,-0.0003200238570570946
1772568068437635800,1.7026357421875,-0.00048219505697488785,-0.0002493984065949917,0.0009340588003396988
1772568068447708200,1.712708251953125,-0.0011409441940486431,0.0005979659035801888,-0.001278233714401722
1772568068457781000,1.722781005859375,-0.0007720957510173321,-0.0003309445455670357,-0.0005740933120250702
1772568068467853000,1.73285302734375,0.0018990980461239815,-0.002807511482387781,0.0015668459236621857
1772568068477925000,1.742925048828125,-0.00030573317781090736,-0.0002676546573638916,-0.0018577128648757935
1772568068487998000,1.752998046875,0.0015896502882242203,0.0019520046189427376,-0.0008447142317891121
1772568068498070000,1.763070068359375,-0.0010103937238454819,0.00045877043157815933,0.0010064486414194107
1772568068508142800,1.773142822265625,-0.00017126090824604034,0.0007510185241699219,0.000678718090057373
1772568068518215000,1.78321484375,-0.0011164164170622826,-0.000847943127155304,-0.0014542071148753166
1772568068528287000,1.793286865234375,0.0013764183968305588,-0.002555420622229576,0.0022898390889167786
1772568068538360000,1.803360107421875,0.0012115687131881714,0.0001735207624733448,-0.0009735990315675735
1772568068548432100,1.81343212890625,-0.00019126245751976967,-0.0018352875486016273,0.0011495472863316536
1772568068558504200,1.823504150390625,-0.0013510691933333874,-0.0019426129292696714,-0.0008755205199122429
1772568068568577000,1.833576904296875,-0.0006142519414424896,0.0009992904961109161,0.0011498499661684036
1772568068578649000,1.843649169921875,0.0018832609057426453,0.0009098080918192863,0.0006568990647792816
1772568068588722000,1.853721923828125,-0.00032514147460460663,0.000619235448539257,0.0005026394501328468
1772568068598794000,1.8637939453125,0.0007893913425505161,-0.0007317862473428249,0.0013838792219758034
1772568068608866000,1.873865966796875,-0.00028024613857269287,0.0018770764581859112,-0.0009261975064873695
1772568068618939000,1.88393896484375,0.0005634431727230549,0.00033537251874804497,-0.0012620221823453903
1772568068629011000,1.894010986328125,-0.00198157737031579,0.0017205383628606796,-0.0013311142101883888
1772568068639083000,1.9040830078125,0.0005050161853432655,0.0014022905379533768,0.0001589236781001091
1772568068649156000,1.914156005859375,0.00201463233679533,0.0038830451667308807,-0.0012890426442027092
1772568068659228200,1.924228271484375,0.0004886407405138016,-0.0002632308751344681,-0.0014509623870253563
1772568068669300000,1.934300048828125,-0.0003053015097975731,0.0010737571865320206,0.0007506245747208595
1772568068679373000,1.944373046875,-0.0005455184727907181,-0.002082887338474393,0.00031093694269657135
1772568068689445000,1.954445068359375,0.0006344681605696678,-0.00012065237388014793,0.0010336032137274742
1772568068699518000,1.96451806640625,-0.00009310711175203323,-0.0004442264325916767,0.0004415828734636307
1772568068709590000,1.974590087890625,0.0022086980752646923,-0.00039769429713487625,0.0010830387473106384
1772568068719661800,1.984661865234375,-0.002698974683880806,0.00372887309640646,0.002362688072025776
1772568068729735000,1.99473486328125,0.00023210514336824417,0.00018929550424218178,0.0012905141338706017
1772568068739807200,2.00480712890625,0.002062761690467596,0.0006862413138151169,0.0010249968618154526
1772568068749879000,2.014879150390625,-0.001036306843161583,-0.0023719563614577055,0.00008186791092157364
1772568068759952100,2.0249521484375,-0.0013915719464421272,0.0026164110749959946,0.0005266163498163223
1772568068770024000,2.03502392578125,0.0011424850672483444,0.0024290578439831734,0.00027483608573675156
1772568068780097000,2.045096923828125,-0.000650887843221426,0.001163257285952568,0.00011504627764225006
1772568068790169000,2.055169189453125,0.0016592107713222504,0.0006428733468055725,-0.0012983381748199463
1772568068800241000,2.065240966796875,-0.0018013007938861847,0.0017201220616698265,0.0021307487040758133
1772568068810314000,2.07531396484375,-0.0017031575553119183,-0.00029966654255986214,-0.000253983773291111
1772568068820386000,2.085385986328125,-0.0019084871746599674,0.0010902374051511288,0.0011987704783678055
1772568068830457900,2.095457763671875,0.0011128573678433895,0.0011264737695455551,0.001012745313346386
1772568068840531200,2.10553125,0.001766130793839693,0.00008517736569046974,-0.0016749165952205658
1772568068850603000,2.11560302734375,-0.0003029145300388336,-0.00015525100752711296,-0.0011327899992465973
1772568068860675000,2.125675048828125,-0.0037714154459536076,-0.001497484277933836,0.00023980345577001572
1772568068870748200,2.135748046875,0.0002861488610506058,-0.0024389331229031086,0.0006003072485327721
1772568068880820000,2.145820068359375,0.0008363579399883747,-0.0005669970996677876,0.0001281285658478737
1772568068890893000,2.15589306640625,-0.0004327627830207348,0.0005892296321690083,0.000499015673995018
1772568068900964900,2.16596484375,-0.001399756409227848,0.0006123990751802921,0.0008433619514107704
1772568068911037000,2.176036865234375,0.002204886171966791,-0.0012350725010037422,0.0032141096889972687
1772568068921110000,2.186110107421875,-0.0016694809310138226,0.0005934541113674641,0.00009368360042572021
1772568068931181800,2.196181884765625,-0.000677044503390789,-0.0013292771764099598,-0.0015956331044435501
1772568068941254000,2.20625390625,-0.0015508276410400867,0.0019141868688166142,0.0006206491962075233
1772568068951327000,2.216326904296875,-0.0006084186024963856,-0.0011628428474068642,0.0019038831815123558
1772568068961399000,2.22639892578125,-0.0033988789655268192,-0.0005588382482528687,-0.00016192998737096786
1772568068971472100,2.23647216796875,-0.001774598378688097,-0.0018692309968173504,-0.0014861337840557098
1772568068981544000,2.2465439453125,0.00036924611777067184,-0.0008566970936954021,0.001570110209286213
1772568068991616000,2.256615966796875,-0.002949137706309557,-0.0013894853182137012,0.001007978804409504
1772568069001688800,2.266688720703125,0.00027861306443810463,-0.0023580770939588547,0.0022807028144598007
1772568069011761000,2.276760986328125,-0.00013558752834796906,-0.00032059196382761,0.0007901806384325027
1772568069021833000,2.2868330078125,-0.0004937825724482536,-0.0006289863958954811,0.0007808590307831764
1772568069031906000,2.296906005859375,-0.0003594900481402874,-0.0005493219941854477,-0.00014243647456169128
1772568069041978000,2.30697802734375,0.0002607605420053005,0.0029207770712673664,0.0014203060418367386
1772568069052050200,2.31705029296875,-0.001089664176106453,0.0019187084399163723,0.0011436203494668007
1772568069062123000,2.327123046875,0.0010003848001360893,0.002497413195669651,-0.0017568282783031464
1772568069072195000,2.337195068359375,0.004189651925116777,-0.00003202352672815323,0.001118391752243042
1772568069082268000,2.347267822265625,0.0012798821553587914,-0.0001662466675043106,0.0003343569114804268
1772568069092340000,2.357340087890625,0.00033627869561314583,-0.00033826427534222603,0.0008974876254796982
1772568069102412000,2.367412109375,0.00015758024528622627,0.0022734981030225754,0.0021206773817539215
1772568069112484900,2.37748486328125,0.0023586475290358067,0.0003788149915635586,0.0012476835399866104
1772568069122557000,2.387556884765625,0.0007146783173084259,-0.0009413142688572407,-0.0014106836169958115
1772568069132629000,2.39762890625,0.0003818743862211704,-0.00003933766856789589,-0.0005534635856747627
1772568069142702000,2.4077021484375,0.0013557923957705498,-0.0014361657667905092,-0.0013558734208345413
1772568069152774100,2.417774169921875,0.0003300667740404606,0.0016699060797691345,0.0025611305609345436
1772568069162846200,2.42784619140625,-0.0005674185231328011,0.00018625939264893532,-0.0009510451927781105
1772568069172919000,2.4379189453125,0.0015314454212784767,0.0009256061166524887,0.00037802569568157196
1772568069182991000,2.4479912109375,0.00008375104516744614,0.0001935032196342945,-0.0008225273340940475
1772568069193063000,2.45806298828125,-0.0028901249170303345,-0.0012720455415546894,-0.00025980547070503235
1772568069203136000,2.468135986328125,-0.0013441601768136024,-0.0005327519029378891,0.0010944120585918427
1772568069213208000,2.4782080078125,-0.0008686752989888191,-0.000918111763894558,0.001105358824133873
1772568069223281000,2.488281005859375,0.0008855490013957024,0.000660876277834177,-0.0007234346121549606
1772568069233353000,2.49835302734375,-0.000033604446798563004,-0.0029807344544678926,-0.00031603407114744186
1772568069243425000,2.508425048828125,0.0009030294604599476,-0.0014717874582856894,0.00037239305675029755
1772568069253498000,2.518498046875,0.0006661657243967056,-0.001410909928381443,-0.002464461140334606
1772568069263570200,2.528570068359375,0.0004528462886810303,0.00031348690390586853,0.0009798044338822365
1772568069273642000,2.53864208984375,-0.0016171662136912346,0.0007545063272118568,-0.0019325846806168556
1772568069283715000,2.548715087890625,-0.0008187503553926945,-0.00036055920645594597,0.0009396346285939217
1772568069293787000,2.558786865234375,0.0009773820638656616,0.0008573653176426888,-0.0012787925079464912
1772568069303859000,2.56885888671875,-0.0005344944074749947,-0.00008858973160386086,-0.0003570718690752983
1772568069313932000,2.57893212890625,-0.000814344733953476,-0.0024845742154866457,-0.0007662586867809296
1772568069324003800,2.58900390625,0.0023138043470680714,0.003267853520810604,-0.00046585407108068466
1772568069334077000,2.599076904296875,-0.0014316178858280182,0.0005577364936470985,0.0005281111225485802
1772568069344149000,2.60914892578125,0.0003276662901043892,-0.0012180591002106667,0.0010514222085475922
1772568069354220800,2.619220703125,0.00003383401781320572,0.0015390063636004925,0.000994209200143814
1772568069364294000,2.6292939453125,0.0005579441785812378,0.0025811013765633106,0.001373177394270897
1772568069374365700,2.63936572265625,0.001912408508360386,-0.000191377941519022,-0.0018145395442843437
1772568069384437800,2.649437744140625,0.0017536841332912445,0.002171378582715988,-0.0017000231891870499
1772568069394511000,2.659510986328125,-0.0011184741742908955,-0.0011756098829209805,-0.00036543235182762146
1772568069404583000,2.6695830078125,0.0017050094902515411,-0.001023010816425085,0.001031927764415741
1772568069414655000,2.679655029296875,0.0007855948060750961,0.002145822625607252,0.001347120851278305
1772568069424727800,2.689727783203125,-0.00043386686593294144,-0.00002891477197408676,0.0007460452616214752
1772568069434799900,2.6997998046875,-0.003925079945474863,0.0029445048421621323,0.0008618645370006561
1772568069444872000,2.709871826171875,-0.0002917288802564144,-0.0006038914434611797,-0.0003309650346636772
1772568069454944800,2.71994482421875,0.0000551147386431694,-0.00021817628294229507,-0.00016721989959478378
1772568069465016800,2.730016845703125,0.001978715881705284,0.0011347094550728798,-0.002600817009806633
1772568069475089700,2.740089599609375,-0.000494795385748148,0.0009892960079014301,-0.0005003353580832481
1772568069485161700,2.75016162109375,0.0003949669189751148,-0.0034422040916979313,-0.00037729740142822266
1772568069495233800,2.76023388671875,-0.0002078227698802948,0.0010734684765338898,0.0015364335849881172
1772568069505307000,2.770306884765625,0.0008443919941782951,0.000975464005023241,-0.0007861088961362839
1772568069515379000,2.78037890625,-0.0006945878267288208,-0.0003133523277938366,0.0021627433598041534
1772568069525451000,2.790450927734375,0.0012801461853086948,-0.0014651694800704718,0.0012940196320414543
1772568069535523800,2.80052392578125,-0.00026239361613988876,-0.0019003099296241999,-0.00042172521352767944
1772568069545596000,2.810595947265625,0.0012958222068846226,0.001704544760286808,-0.0005383715033531189
1772568069555668000,2.82066796875,0.0007093534804880619,0.0004171570762991905,-0.0004276251420378685
1772568069565740800,2.83074072265625,0.0018033799715340137,-0.0010353312827646732,-0.0016124658286571503
1772568069575812900,2.840812744140625,-0.0003421627916395664,-0.000058792997151613235,-0.0006529362872242928
1772568069585885000,2.850885009765625,0.0020826454274356365,0.0011295098811388016,-0.00021990574896335602
1772568069595958000,2.8609580078125,-0.000026050489395856857,0.001160961575806141,-0.0014781095087528229
1772568069606030000,2.871030029296875,-0.003364056348800659,0.002424364909529686,-0.00115932896733284
1772568069616102000,2.881101806640625,-0.00007977709174156189,0.0011446154676377773,-0.0007901480421423912
1772568069626175000,2.891175048828125,0.0026784585788846016,0.0016029458492994308,0.00019362382590770721
1772568069636247000,2.9012470703125,-0.0015627718530595303,0.0004371916875243187,0.0005027055740356445
1772568069646319900,2.91131982421875,-0.0029593328945338726,-0.0033921676222234964,0.0002600913867354393
1772568069656392000,2.921391845703125,0.0004476066678762436,-0.001666464377194643,0.0007469421252608299
1772568069666463700,2.931463623046875,0.0012612026184797287,0.0008795177564024925,-0.0001055356115102768
1772568069676536800,2.941536865234375,0.0016488363035023212,-0.0013162298128008842,0.0017918208613991737
1772568069686609000,2.95160888671875,-0.0005466737784445286,-0.000012079719454050064,0.0008815526962280273
1772568069696680700,2.9616806640625,0.0019276677630841732,0.00008234847337007523,-0.0003108670935034752
1772568069706754000,2.971754150390625,-0.0008984790183603764,0.0010022041387856007,0.0011900905519723892
1772568069716825900,2.981825927734375,-0.000892286654561758,-0.0006078882142901421,-0.001532997004687786
1772568069726898000,2.99189794921875,-0.0028177518397569656,0.001759928185492754,-0.00059503223747015
1772568069736971000,3.001970947265625,0.00040044030174613,-0.003506140783429146,-0.00042180437594652176
1772568069747042800,3.012042724609375,-0.0009977193549275398,-0.0011439169757068157,0.0008589094504714012
1772568069757115000,3.022114990234375,-0.00017316825687885284,0.0017948909662663937,-0.0014072181656956673
1772568069767187700,3.032187744140625,-0.0014509526081383228,-0.00004482036456465721,0.001970202662050724
1772568069777259800,3.042259765625,0.00017215171828866005,0.000504382885992527,0.0022093690931797028
1772568069787331800,3.052331787109375,0.0009133093990385532,0.00010996870696544647,0.0033364184200763702
1772568069797405000,3.062405029296875,0.00018310267478227615,-0.000015140511095523834,-0.0015218639746308327
1772568069807477000,3.07247705078125,-0.00045126257464289665,0.0011997935362160206,0.002912832424044609
1772568069817549800,3.0825498046875,-0.0001802234910428524,0.003440304659307003,-0.0005871523171663284
1772568069827622000,3.092621826171875,0.002176940441131592,-0.0014940004330128431,-0.0029800022020936012
1772568069837694000,3.10269384765625,0.00015225820243358612,-0.0013811499811708927,-0.0013860184699296951
1772568069847766800,3.112766845703125,0.0011466825380921364,0.0026633930392563343,-0.0002595018595457077
1772568069857838800,3.1228388671875,0.0002814270555973053,0.00045547308400273323,-0.0007485533133149147
1772568069867911000,3.132910888671875,-0.0017385808750987053,0.0012403065338730812,0.0031228847801685333
1772568069877983700,3.142983642578125,0.002507065888494253,0.0008148006163537502,0.0003393515944480896
1772568069888055800,3.153055908203125,0.0004468443803489208,-0.0005572601221501827,0.0022722743451595306
1772568069898128000,3.1631279296875,0.0011375532485544682,0.000158058013767004,-0.0011673150584101677
1772568069908201000,3.173200927734375,-0.0013434477150440216,-0.0005644578486680984,-0.0005350802093744278
1772568069918273000,3.18327294921875,-0.0015318002551794052,0.0002878098748624325,0.00023336149752140045
1772568069928345000,3.193344970703125,0.0012032664380967617,-0.0017484428826719522,0.0008576065301895142
1772568069938418000,3.20341796875,0.0007135509513318539,0.001375872641801834,0.00017249491065740585
1772568069948490000,3.213489990234375,-0.0011645099148154259,-0.000010036397725343704,0.0023485636338591576
1772568069958561800,3.223561767578125,-0.0002534673549234867,0.0004830840043723583,-0.0012800758704543114
1772568069968635000,3.233634765625,0.00040406733751296997,0.0003698994405567646,-0.00265639740973711
1772568069978707000,3.24370703125,-0.0006632767617702484,0.00004782387986779213,0.0002749701961874962
1772568069988778800,3.25377880859375,0.002323990687727928,0.0012619593180716038,0.0010049426928162575
1772568069998851800,3.263851806640625,0.00047332048416137695,-0.001311921514570713,-0.0015978077426552773
1772568070008923600,3.273923583984375,0.00009754858911037445,-0.0003595752641558647,-0.0009338809177279472
1772568070018997000,3.2839970703125,-0.0008400529623031616,-0.0036242306232452393,-0.0020001623779535294
1772568070029069000,3.294069091796875,0.0027568121440708637,0.0006275060586631298,0.0010970942676067352
1772568070039140900,3.304140869140625,-0.001708743628114462,-0.0004493147134780884,0.0017640050500631332
1772568070049214000,3.3142138671875,0.0008769198320806026,0.000011411961168050766,0.001208202913403511
1772568070059285800,3.32428564453125,-0.0003325645811855793,0.00011958321556448936,0.0006980542093515396
1772568070069357800,3.33435791015625,-0.000418318435549736,0.0006631342694163322,-0.0013629654422402382
1772568070079431000,3.344430908203125,0.0008769393898546696,-0.0010303594172000885,-0.0005980478599667549
1772568070089502700,3.354502685546875,-0.0002959170378744602,0.0016312040388584137,0.0005231425166130066
1772568070099574800,3.36457470703125,-0.0007410128600895405,0.0001324201002717018,0.002277105115354061
1772568070109648000,3.37464794921875,0.0016361246816813946,-0.003962456248700619,-0.0010457206517457962
1772568070119720000,3.384719970703125,-0.0018729385919868946,-0.00038471026346087456,-0.0014306539669632912
1772568070129792000,3.3947919921875,-0.0022175521589815617,-0.0005804523825645447,0.0030703535303473473
1772568070139864800,3.40486474609375,-0.0018519582226872444,-0.00017352215945720673,0.000096907839179039
1772568070149937000,3.41493701171875,-0.0006601936183869839,-0.0021581097971647978,-0.0015673013404011726
1772568070160009000,3.425009033203125,0.0007401709444820881,0.0012582703493535519,0.000615948811173439
1772568070170081800,3.435081787109375,0.0016893218271434307,-0.0019132879097014666,-0.0017052628099918365
1772568070180153900,3.44515380859375,0.00113782100379467,0.0023164572194218636,0.0009283237159252167
1772568070190226000,3.455225830078125,0.0005157068371772766,-0.0005456423386931419,-0.0013785064220428467
1772568070200298800,3.465298828125,0.0005492274649441242,0.002260388806462288,0.000532303936779499
1772568070210370800,3.475370849609375,-0.002651626244187355,0.0010387967340648174,0.0011184653267264366
1772568070220443000,3.48544287109375,-0.00024372665211558342,0.002615039236843586,-0.0008175643160939217
1772568070230516000,3.495515869140625,-0.0014741066843271255,0.000512473750859499,-0.0013043899089097977
1772568070240588000,3.505588134765625,-0.0018409574404358864,0.0026450958102941513,0.000903107225894928
1772568070250659800,3.515659912109375,0.0005010263994336128,-0.0013919901102781296,0.0008937865495681763
1772568070260733000,3.52573291015625,-0.0023415125906467438,-0.0007473528385162354,0.0005707442760467529
1772568070270805000,3.535804931640625,0.00022178003564476967,-0.0004586661234498024,0.0007355939596891403
1772568070280876800,3.545876708984375,-0.00005230167880654335,-0.0013721953146159649,-0.00045120716094970703
1772568070290950000,3.555949951171875,0.0003394493833184242,0.003157575149089098,0.000571979209780693
1772568070301021700,3.566021728515625,0.0003372323699295521,-0.0014729071408510208,0.00013570860028266907
1772568070311095000,3.576094970703125,-0.0007048626430332661,0.001815564464777708,-0.0003239531069993973
1772568070321167000,3.5861669921875,0.00023328186944127083,-0.0024820882827043533,0.0019313925877213478
1772568070331239000,3.596239013671875,-0.0008247918449342251,0.00037681497633457184,0.0007265787571668625
1772568070341312000,3.60631201171875,0.00039433734491467476,0.0012428523041307926,0.0020173266530036926
1772568070351383800,3.6163837890625,-0.0014507006853818893,0.001967498566955328,0.00018587056547403336
1772568070361455900,3.626455810546875,-0.0006332625634968281,-0.00170322903431952,0.00021577533334493637
1772568070371529000,3.636529052734375,0.000651712529361248,-0.0004637939855456352,0.0015689274296164513
1772568070381600800,3.646600830078125,0.0011539529077708721,0.0005642203614115715,-0.0028677834197878838
1772568070391672800,3.6566728515625,-0.00020186230540275574,-0.001453923061490059,0.0006582420319318771
1772568070401746000,3.666745849609375,0.0010552662424743176,-0.001439528539776802,0.0016074860468506813
1772568070411817700,3.676817626953125,-0.0015615560114383698,0.0006196275353431702,0.0016391770914196968
1772568070421889800,3.686889892578125,0.001148788258433342,-0.0001439107581973076,0.0013550594449043274
1772568070431963000,3.696962890625,0.0011988556943833828,-0.0006935871206223965,0.00007061660289764404
1772568070442035000,3.707034912109375,-0.00005973083898425102,0.001742346677929163,-0.0006501413881778717
1772568070452107000,3.71710693359375,0.0015791784971952438,-0.00014077452942728996,0.002466290257871151
1772568070462179800,3.727179931640625,-0.001481866929680109,-0.00018549710512161255,-0.0006876019760966301
1772568070472252000,3.737251953125,0.0009658448398113251,0.0013223844580352306,-0.00059518963098526
1772568070482324000,3.747323974609375,-0.0014425083063542843,0.0006973482668399811,-0.0013427678495645523
1772568070492396800,3.757396728515625,-0.0018539666198194027,-0.0006097313016653061,-0.0011318456381559372
1772568070502468900,3.76746875,0.0006175190210342407,0.00008655525743961334,-0.0013078497722744942
1772568070512541000,3.777541015625,-0.0017534936778247356,0.0011656680144369602,0.00029830262064933777
1772568070522614000,3.787614013671875,-0.0008054361678659916,0.0003270283341407776,0.00010930094867944717
1772568070532686000,3.79768603515625,-0.0003258008509874344,-0.00041785789653658867,-0.0006888480857014656
1772568070542758000,3.8077578125,0.00029751239344477654,-0.00003627222031354904,0.000529666431248188
1772568070552831000,3.8178310546875,0.000022940803319215775,0.002068424131721258,0.000004225410521030426
1772568070562903000,3.827903076171875,0.00020319223403930664,-0.000466897152364254,-0.00038302503526210785
1772568070572974800,3.837974853515625,-0.0021840650588274,-0.0013939430937170982,-0.0017151376232504845
1772568070583048000,3.8480478515625,-0.000643131323158741,0.0022918577305972576,-0.0014811987057328224
1772568070593119700,3.85811962890625,0.00004662713035941124,-0.00040912022814154625,-0.0006878431886434555
1772568070603191800,3.86819189453125,0.00030664633959531784,-0.001096626278012991,0.0017933063209056854
1772568070613265000,3.878264892578125,0.00041983043774962425,0.0006314991042017937,-0.0012432299554347992
1772568070623336700,3.888336669921875,-0.0021378188394010067,0.0001890859566628933,-0.004060754552483559
1772568070633408800,3.89840869140625,0.0005205483175814152,-0.0015169349499046803,0.00158780999481678
1772568070643481900,3.90848193359375,0.000049279071390628815,-0.001736134523525834,0.0007399069145321846
1772568070653554000,3.918553955078125,0.0003281119279563427,0.0017504757270216942,-0.001250539906322956
1772568070663626000,3.9286259765625,0.0003614085726439953,0.00029125530272722244,0.0007745474576950073
1772568070673698800,3.93869873046875,0.0021859402768313885,-0.00047946348786354065,0.0016368785873055458
1772568070683771000,3.94877099609375,0.00015643006190657616,0.0006751813925802708,0.0010249810293316841
1772568070693843000,3.958843017578125,-0.00014903442934155464,-0.0008646580390632153,0.0010039424523711205
1772568070703915800,3.968915771484375,-0.0005303258076310158,0.0012360820546746254,0.001177402213215828
1772568070713987800,3.97898779296875,0.0018055327236652374,-0.0016699591651558876,0.0004479624330997467
1772568070724060000,3.989059814453125,0.00029932521283626556,0.003112149890512228,0.00064822006970644
1772568070734133000,3.999133056640625,0.0004780236631631851,0.001279628835618496,-0.0013038776814937592
1772568070744205000,4.009205078125,0.0022268500179052353,0.0013461718335747719,0.00023444462567567825
1772568070754276900,4.01927685546875,-0.00042912038043141365,-0.0008946117013692856,-0.0011235009878873825
1772568070764350000,4.029349853515625,0.0003992840647697449,0.0019256933592259884,-0.002115856856107712
1772568070774422000,4.039422119140625,-0.0018769195303320885,-0.0003020409494638443,0.0011979145929217339
1772568070784493800,4.049493896484375,0.0009147361852228642,-0.0002573588863015175,0.0007267314940690994
1772568070794567000,4.05956689453125,-0.00021657440811395645,-0.0010413937270641327,0.0013949191197752953
1772568070804639000,4.069638916015625,-0.00000853557139635086,-0.0008517000824213028,0.00021087564527988434
1772568070814710800,4.079710693359375,-0.00189964659512043,-0.00040109315887093544,0.0008505675941705704
1772568070824784000,4.089783935546875,-0.0014631804078817368,0.00014097150415182114,0.0010845223441720009
1772568070834855700,4.099855712890625,-0.0011790208518505096,0.00025309063494205475,0.001030992716550827
1772568070844927700,4.109927734375,-0.0001294170506298542,-0.0005704713985323906,0.0011216523125767708
1772568070855001000,4.1200009765625,-0.0005014603957533836,0.0015861564315855503,-0.0017678774893283844
1772568070865073000,4.130072998046875,0.001941861119121313,0.00029913848266005516,0.0012404676526784897
1772568070875145000,4.14014501953125,0.0021216245368123055,-0.0004132571630179882,-0.00197503250092268
1772568070885217800,4.1502177734375,-0.0016792654059827328,-0.0012805359438061714,-0.0016123494133353233
1772568070895289900,4.160289794921875,0.0016757845878601074,0.0006931326352059841,0.0016777198761701584
1772568070905362000,4.17036181640625,0.0028872471302747726,0.00029134610667824745,0.0008322838693857193
1772568070915434800,4.180434814453125,-0.0005210665985941887,0.001763009000569582,-0.0006148777902126312
1772568070925506800,4.1905068359375,-0.00002827681601047516,-0.0004588332958519459,-0.00041650794446468353
1772568070935579000,4.200578857421875,-0.0009071202948689461,0.0013774163089692593,0.000047149136662483215
1772568070945651700,4.210651611328125,0.0007079774513840675,-0.0002661519683897495,0.000004254281520843506
1772568070955724000,4.22072412109375,0.0007854755967855453,-0.002645686501637101,-0.0006982870399951935
1772568070965796000,4.230796142578125,0.0006684116087853909,-0.0015991067048162222,0.002579047344624996
1772568070975869000,4.240868896484375,0.0004961048252880573,0.0004272926598787308,0.0015342887490987778
1772568070985941000,4.25094091796875,0.0011296719312667847,-0.0015169077087193727,-0.0003181556239724159
1772568070996012800,4.2610126953125,-0.0020077978260815144,0.0004501030780375004,0.0005005002021789551
1772568071006086000,4.2710859375,0.0008697123266756535,0.002567935734987259,-0.0005368897691369057
1772568071016158000,4.281157958984375,-0.0006418977864086628,-0.0001343740150332451,0.0009379684925079346
1772568071026229800,4.291229736328125,0.00037426920607686043,-0.0005707317031919956,0.00010362733155488968
1772568071036302800,4.301302734375,-0.0005101663991808891,0.00045005790889263153,0.00006794091314077377
1772568071046375000,4.311375,-0.00183121208101511,0.00019568949937820435,0.000018629245460033417
1772568071056446700,4.32144677734375,0.0005352729931473732,0.0014604246243834496,-0.00009109359234571457
1772568071066520000,4.33152001953125,0.001138999592512846,-0.0003043944016098976,-0.0006310669705271721
1772568071076591900,4.341591796875,0.001117427833378315,0.0018333247862756252,-0.002254529856145382
1772568071086664000,4.351663818359375,-0.00015491433441638947,-0.0009364429861307144,-0.00004110485315322876
1772568071096737000,4.361737060546875,-0.0006460011936724186,0.0030801366083323956,-0.002449135296046734
1772568071106808800,4.371808837890625,-0.0006299708038568497,-0.0018189253751188517,-0.0019484823569655418
1772568071116881000,4.381880859375,-0.0005146563053131104,0.0014125541783869267,-0.000012364238500595093
1772568071126953700,4.39195361328125,0.0012439358979463577,-0.0011229305528104305,0.00044923368841409683
1772568071137025800,4.40202587890625,-0.000036777928471565247,-0.002185531659051776,-0.0009435992687940598
1772568071147097900,4.412097900390625,-0.0028673112392425537,-0.0021961352322250605,0.0002728104591369629
1772568071157170700,4.422170654296875,-0.00006433436647057533,-0.0024137154687196016,-0.0009027086198329926
1772568071167243000,4.432242919921875,-0.0017831586301326752,0.00038762856274843216,0.00026127230376005173
1772568071177315000,4.442315185546875,-0.003551498055458069,-0.00008668052032589912,0.00012278743088245392
1772568071187388000,4.452387939453125,-0.0003245864063501358,0.0009895358234643936,0.0005943635478615761
1772568071197460000,4.4624599609375,-0.0005405684933066368,-0.000744448509067297,-0.0007542604580521584
1772568071207532000,4.472531982421875,0.0011033639311790466,0.0011350903660058975,0.001348676159977913
1772568071217604900,4.48260498046875,0.0004964293912053108,0.001506600994616747,-0.0005933009088039398
1772568071227677000,4.492677001953125,0.002220951486378908,0.00030212290585041046,-0.002437407150864601
1772568071237748700,4.502748779296875,0.0010795206762850285,-0.0010257293470203876,-0.0018131621181964874
1772568071247820800,4.51282080078125,0.00017628725618124008,0.0014694053679704666,0.0010018059983849525
1772568071257894000,4.522893798828125,-0.0009576864540576935,-0.001317326445132494,-0.0006123362109065056
1772568071267965700,4.532965576171875,-0.00012654857710003853,0.00004740199074149132,0.002157800830900669
1772568071278037800,4.543037841796875,0.0011768024414777756,-0.000941429752856493,-0.0016760863363742828
1772568071288110800,4.55311083984375,0.0015311669558286667,-0.001176377758383751,-0.0005514835938811302
1772568071298183000,4.563182861328125,-0.00004169577732682228,0.0003733159974217415,-0.00031259749084711075
1772568071308255700,4.573255859375,0.0015109083615243435,0.0019323080778121948,-0.0009655160829424858
1772568071318328800,4.583328857421875,-0.00018312828615307808,-0.0012778663076460361,0.0030697062611579895
1772568071328401000,4.59340087890625,-0.00029168417677283287,0.0016878102906048298,-0.0010500866919755936
1772568071338473000,4.603472900390625,0.0016686683520674706,-0.00003099394962191582,-0.001349693164229393
1772568071348545800,4.6135458984375,-0.00012572435662150383,0.0014844313263893127,-0.0005813250318169594
1772568071358617900,4.623617919921875,-0.00007033068686723709,0.0024668709374964237,0.0009212307631969452
1772568071368689700,4.633689697265625,0.00006065377965569496,-0.0024038515985012054,0.0011375071480870247
1772568071378762800,4.6437626953125,-0.0005670534446835518,0.0005293539725244045,0.0022887922823429108
1772568071388834800,4.653834716796875,0.001652583945542574,0.000622475054115057,-0.0019671889021992683
1772568071398906600,4.66390673828125,0.0011553717777132988,-0.0002675536088645458,-0.0005852747708559036
1772568071408979700,4.673979736328125,0.0011430871672928333,0.0009141266345977783,-0.0004750387743115425
1772568071419051500,4.684051513671875,0.002245902083814144,-0.00038762670010328293,0.0006538750603795052
1772568071429123800,4.694123779296875,0.00009168079122900963,0.0013239933177828789,0.00017629936337471008
1772568071439197000,4.704197021484375,0.0022776038385927677,-0.0035716958809643984,0.0007520746439695358
1772568071449268700,4.714268798828125,0.0003817705437541008,-0.00010775076225399971,-0.0006159432232379913
1772568071459340800,4.7243408203125,-0.0010395590215921402,-0.0033288439735770226,-0.000030846334993839264
1772568071469413600,4.73441357421875,-0.001097985077649355,-0.0007009594701230526,-0.0006340295076370239
1772568071479485700,4.744485595703125,0.0005670231766998768,-0.0009821890853345394,0.0016810568049550056
1772568071489557800,4.754557861328125,0.0009031505323946476,0.0015957164578139782,0.000536440871655941
1772568071499629800,4.7646298828125,-0.00009580142796039581,0.0001192600466310978,0.0013843914493918419
1772568071509702700,4.77470263671875,0.0006061717867851257,0.00017705652862787247,-0.002421644516289234
1772568071519774700,4.784774658203125,0.0006197541952133179,-0.0005686287768185139,0.0021081259474158287
1772568071529846800,4.7948466796875,-0.0007276930846273899,0.0011224085465073586,0.0003539016470313072
1772568071539920000,4.804919921875,-0.0007676407694816589,-0.0009391442872583866,-0.001705520786345005
1772568071549992000,4.814991943359375,-0.0014500012621283531,0.0003683161921799183,-0.00154771376401186
1772568071560063700,4.825063720703125,-0.00006063003093004227,-0.0021789974998682737,-0.0005801869556307793
1772568071570136800,4.83513671875,0.00031316373497247696,-0.001851373352110386,-0.0006235847249627113
1772568071580209000,4.845208984375,0.0012663090601563454,-0.00023297034204006195,0.0038374755531549454
1772568071590280700,4.85528076171875,0.0012634252198040485,0.0005890005268156528,-0.0006528599187731743
1772568071600353800,4.865353759765625,0.0013012425042688847,-0.0000016884878277778625,0.0008614137768745422
1772568071610425600,4.875425537109375,0.0018733865581452847,-0.00037949811667203903,0.00077859777957201
1772568071620497700,4.88549755859375,0.001292018685489893,0.000384296290576458,0.0011282702907919884
1772568071630570800,4.89557080078125,0.0005782912485301495,-0.0018926388584077358,0.00013280194252729416
1772568071640642800,4.905642822265625,-0.00021293386816978455,0.0009316434152424335,-0.0008278004825115204
1772568071650715000,4.91571484375,0.00010138284415006638,-0.00011646701022982597,0.000946766696870327
1772568071660787700,4.92578759765625,-0.00047226203605532646,0.0007477286271750927,-0.0002332804724574089
1772568071670859800,4.93585986328125,-0.000776972621679306,0.0007209810428321362,0.002082507126033306
1772568071680931800,4.945931884765625,0.0008715242147445679,0.0014663999900221825,0.00001216493546962738
1772568071691004000,4.95600390625,-0.00028796400874853134,0.0010236920788884163,0.0016635050997138023
1772568071701076700,4.96607666015625,0.002223929390311241,0.0019230418838560581,0.001011829823255539
1772568071711148800,4.976148681640625,-0.00014964956790208817,0.0007168427109718323,0.00005242694169282913
1772568071721220600,4.986220703125,-0.002608013339340687,0.0003077811561524868,0.002283889800310135
1772568071731293700,4.996293701171875,0.0005280058830976486,0.0026203803718090057,0.0011583464220166206
1772568071741365800,5.00636572265625,-0.0009636306203901768,-0.0008603716269135475,-0.0016787182539701462
1772568071751437600,5.0164375,-0.0007696468383073807,0.0006890147924423218,0.0002613123506307602
1772568071761511000,5.026510986328125,-0.0005621863529086113,-0.002555780578404665,0.0021151388064026833
1772568071771582700,5.036582763671875,-0.0018626204691827297,0.00030095409601926804,0.0021608760580420494
1772568071781654800,5.04665478515625,-0.0003827023319900036,0.00038670795038342476,0.0007075890898704529
1772568071791727900,5.056727783203125,-0.0004421570338308811,0.00029520317912101746,0.0005426686257123947
1772568071801799700,5.066799560546875,0.0008537373505532742,0.0014137309044599533,0.0010462719947099686
1772568071811871700,5.076871826171875,-0.00006332667544484138,-0.002484758384525776,-0.00037434976547956467
1772568071821944800,5.08694482421875,0.000634155236184597,0.00022713840007781982,-0.0007338766008615494
1772568071832016600,5.0970166015625,0.0012900508008897305,-0.0015541552565991879,0.001464025117456913
1772568071842088700,5.107088623046875,-0.0007025264203548431,-0.0011424305848777294,-0.0013136519119143486
1772568071852160800,5.117160888671875,-0.0001277979463338852,0.0013285856693983078,0.0016953712329268456
1772568071862233900,5.12723388671875,0.0002610236406326294,-0.0005095284432172775,-0.00031451694667339325
1772568071872306000,5.137305908203125,-0.0007201558910310268,0.0007497444748878479,-0.0009206868708133698
1772568071882378000,5.1473779296875,-0.0007726200856268406,0.0002213730476796627,0.001064433716237545
1772568071892450800,5.157450927734375,-0.0018249363638460636,0.0011823228560388088,0.0014436906203627586
1772568071902523000,5.16752294921875,-0.00040999939665198326,-0.0007732361555099487,0.0019108084961771965
1772568071912594700,5.1775947265625,0.0002529365010559559,0.0011879927478730679,0.0015870686620473862
1772568071922667800,5.187667724609375,-0.001197954174131155,0.000052953604608774185,-0.00010403897613286972
1772568071932739800,5.19773974609375,-0.00010090973228216171,0.0010710759088397026,0.0001084236428141594
1772568071942811600,5.207811767578125,-0.001552864909172058,0.00041780248284339905,-0.001145925372838974
1772568071952884700,5.217884765625,0.0027866316959261894,0.002686325926333666,-0.0018631909042596817
1772568071962956500,5.22795654296875,-0.0016864133067429066,0.0007267724722623825,0.0002558864653110504
1772568071973028600,5.238028564453125,0.00003473367542028427,0.0012535429559648037,0.00101378932595253
1772568071983100700,5.2481005859375,0.00012927595525979996,-0.0010026870295405388,-0.0013905121013522148
1772568071993173800,5.258173828125,0.0009091515094041824,0.0014407928101718426,-0.0016281325370073318
1772568072003245800,5.268245849609375,-0.002419533673673868,-0.0007027853280305862,0.0010866941884160042
1772568072013318000,5.27831787109375,-0.0008305385708808899,-0.00015307310968637466,0.0008146008476614952
1772568072023390700,5.288390625,-0.0008952533826231956,0.000215242151170969,0.0005339039489626884
1772568072033462800,5.298462890625,-0.0013861143961548805,0.0016372869722545147,0.0020806724205613136
1772568072043534800,5.308534912109375,0.0012317723594605923,-0.003466927446424961,-0.0007601222023367882
1772568072053607700,5.318607666015625,0.00051540182903409,-0.0007793600670993328,-0.0000051353126764297485
1772568072063679700,5.3286796875,0.0014376547187566757,0.0015415851958096027,-0.0005116686224937439
1772568072073751800,5.338751708984375,-0.00008707726374268532,-0.0002624546177685261,0.000756935216486454
1772568072083825000,5.348824951171875,0.0005174600519239902,0.0011881692335009575,-0.00033096596598625183
1772568072093897000,5.35889697265625,-0.0002690930850803852,-0.0026292158290743828,-0.00027641188353300095
1772568072103968800,5.36896875,-0.0007460652850568295,0.0004193047061562538,0.000020264647901058197
1772568072114040800,5.379040771484375,0.0018649608828127384,-0.0003644311800599098,-0.0004737209528684616
1772568072124114000,5.389114013671875,0.00008836621418595314,0.0009780684486031532,-0.0008622761815786362
1772568072134185700,5.399185791015625,-0.0007786531932651997,-0.00005408143624663353,0.0026908405125141144
1772568072144257800,5.4092578125,0.00003867084160447121,0.0005629728548228741,-0.003681303933262825
1772568072154330600,5.41933056640625,-0.0011302297934889793,-0.001457086531445384,0.0016610156744718552
1772568072164402700,5.429402587890625,-0.0005749603733420372,-0.0027713566087186337,-0.0018034912645816803
1772568072174474800,5.439474853515625,-0.0004367837682366371,0.0009756074286997318,-0.0007854839786887169
1772568072184547600,5.449547607421875,-0.0002117464318871498,0.0009444486349821091,-0.0027242647483944893
1772568072194619600,5.45961962890625,0.0001997244544327259,-0.003562002908438444,0.00017181877046823502
1772568072204691700,5.469691650390625,-0.00032118987292051315,0.0003310060128569603,0.0016360245645046234
1772568072214763800,5.479763671875,0.0020337561145424843,0.0005570049397647381,-0.0003430144861340523
1772568072224836900,5.4898369140625,-0.0001002349890768528,0.0012851129285991192,-0.0003190459683537483
1772568072234909000,5.499908935546875,0.0012119840830564499,0.00035550398752093315,0.0021197479218244553
1772568072244980700,5.509980712890625,0.003215480362996459,-0.000713755376636982,-0.0004917476326227188
1772568072255053800,5.5200537109375,-0.00028198910877108574,0.0007176445797085762,0.0008850023150444031
1772568072265125600,5.530125732421875,0.001088207121938467,-0.0009335153736174107,-0.0017094491049647331
1772568072275197700,5.54019775390625,-0.0015553389675915241,0.0023849238641560078,0.0006023403257131577
1772568072285270800,5.550270751953125,0.00008037453517317772,-0.0007323059253394604,-0.0013036839663982391
1772568072295342600,5.560342529296875,-0.0015074489638209343,0.0006338609382510185,0.0019213492050766945
1772568072305414700,5.57041455078125,0.0007466506212949753,-0.001774701988324523,-0.001402541995048523
1772568072315486500,5.580486572265625,0.0017074854113161564,0.0016088718548417091,-0.00031798332929611206
1772568072325559300,5.590559326171875,-0.00015965662896633148,0.002143634483218193,0.00026871077716350555
1772568072335631400,5.60063134765625,0.002181875053793192,-0.0009620483033359051,-0.001281476579606533
1772568072345703400,5.610703369140625,0.0003011510707437992,0.0006339843384921551,0.0021049994975328445
1772568072355776300,5.6207763671875,0.0023632310330867767,0.00018520373851060867,0.0015256116166710854
1772568072365848300,5.630848388671875,-0.00005252240225672722,-0.0014984465669840574,-0.0013705762103199959
1772568072375920400,5.64092041015625,0.00002355780452489853,-0.002136244671419263,-0.0008141929283738136
1772568072385993500,5.650993408203125,-0.001615617424249649,0.0013708719052374363,-0.001132972538471222
1772568072396065500,5.6610654296875,-0.000046599190682172775,-0.0013986672274768353,0.0009915484115481377
1772568072406137300,5.671137451171875,0.00100774597376585,0.002547338604927063,-0.0018431199714541435
1772568072416209400,5.68120947265625,0.001839879434555769,0.00003395555540919304,-0.0003828946501016617
1772568072426282500,5.691282470703125,-0.0003835936076939106,-0.0011881692335009575,-0.0006412221118807793
1772568072436354300,5.701354248046875,-0.001182215753942728,-0.0010407287627458572,0.00002541765570640564
1772568072446426400,5.71142626953125,0.00048226024955511093,0.002527107484638691,0.001033424399793148
1772568072456499500,5.72149951171875,-0.00013788556680083275,0.0009698220528662205,-0.0011367760598659515
1772568072466571300,5.7315712890625,0.000474375206977129,0.0005024373531341553,-0.0028981901705265045
1772568072476643300,5.741643310546875,-0.000680877361446619,0.00016581686213612556,-0.00211455300450325
1772568072486715400,5.75171533203125,0.00020462367683649063,-0.0008475161157548428,0.00033795181661844254
1772568072496788500,5.76178857421875,-0.0016943053342401981,0.0006039352156221867,-0.0007343776524066925
1772568072506860500,5.771860595703125,-0.00046445801854133606,0.0006002066656947136,0.00009226799011230469
1772568072516932600,5.7819326171875,-0.000315055251121521,0.0026840115897357464,-0.0012103263288736343
1772568072527005400,5.79200537109375,-0.00023542670533061028,-0.0007386826910078526,-0.0005181711167097092
1772568072537077500,5.802077392578125,-0.0017162449657917023,-0.0002716188319027424,0.00021872110664844513
1772568072547149300,5.8121494140625,0.0010601007379591465,-0.0020095978397876024,0.000017385929822921753
1772568072557221400,5.822221435546875,0.0005235276184976101,0.0004589618183672428,0.0009190710261464119
1772568072567294500,5.83229443359375,-0.0006900751031935215,-0.0012904689647257328,0.0010397126898169518
1772568072577366300,5.8423662109375,0.0016639186069369316,-0.0006897333078086376,0.0019305171445012093
1772568072587438300,5.852438232421875,-0.002207784913480282,0.0004080217331647873,-0.0007488895207643509
1772568072597511200,5.86251123046875,0.00021436763927340508,0.0013739163987338543,-0.00027451012283563614
1772568072607583200,5.872583251953125,-0.0003464939072728157,-0.00007031578570604324,0.0005601253360509872
1772568072617655300,5.8826552734375,-0.0004600868560373783,0.000701982993632555,0.001343417912721634
1772568072627728400,5.892728271484375,0.0006501851603388786,-0.0005824598483741283,-0.000006272457540035248
1772568072637800400,5.902800537109375,-0.00032109254971146584,-0.0025631056632846594,-0.001024617813527584
1772568072647872500,5.91287255859375,-0.0017264424823224545,0.00043241772800683975,0.0009077722206711769
1772568072657944300,5.9229443359375,-0.00025697192177176476,0.0026458119973540306,0.00008412264287471771
1772568072668017400,5.933017333984375,0.0010905875824391842,-0.0004831361584365368,0.0009350031614303589
1772568072678089500,5.94308935546875,0.000009511131793260574,0.001046829391270876,-0.0019442010670900345
1772568072688161300,5.953161376953125,0.0005703731440007687,-0.0011393595486879349,0.00025770068168640137
1772568072698234400,5.963234375,-0.001261433120816946,-0.001424408983439207,0.0012131966650485992
1772568072708306400,5.973306396484375,-0.0005567604675889015,0.0009330213069915771,-0.00006139278411865234
1772568072718378200,5.983378173828125,0.0001099701039493084,0.0013107424601912498,-0.0002866126596927643
1772568072728450300,5.9934501953125,0.00027641793712973595,-0.0004408187232911587,-0.00209809560328722
1772568072738523400,6.0035234375,0.0005974671803414822,-0.0009564622305333614,0.00032758060842752457
1772568072748595500,6.013595458984375,-0.00023423833772540092,-0.0003146403469145298,0.00011852290481328964
1772568072758667500,6.02366748046875,0.0017899172380566597,-0.00013907067477703094,0.00007773563265800476
1772568072768740400,6.033740234375,-0.00004446785897016525,-0.000602194108068943,0.00083141028881073
1772568072778812400,6.0438125,-0.00016256747767329216,0.00006714183837175369,0.002025746740400791
1772568072788884500,6.053884521484375,0.001372744794934988,0.0016450644470751286,0.0020020445808768272
1772568072798956300,6.063956298828125,0.001495828852057457,-0.0011148652993142605,0.002144981175661087
1772568072809029400,6.074029296875,0.0002151145599782467,0.00046864990144968033,0.0011987602338194847
1772568072819101400,6.084101318359375,0.0000014347024261951447,-0.00040689390152692795,0.0010961415246129036
1772568072829173200,6.09417333984375,0.00006881263107061386,-0.0003930456005036831,0.000006376765668392181
1772568072839246300,6.104246337890625,-0.000647163949906826,0.0002552117221057415,0.0008586589246988297
1772568072849318400,6.114318359375,0.0008029271848499775,-0.001722185406833887,0.0009665172547101974
1772568072859390500,6.124390380859375,-0.00013824738562107086,0.0003345310688018799,-0.0034430986270308495
1772568072869462500,6.134462646484375,0.0011211615055799484,-0.00047347182407975197,0.000057093799114227295
1772568072879535400,6.144535400390625,-0.0031585213728249073,-0.001673378748819232,-0.0015315450727939606
1772568072889607400,6.154607421875,0.0011456795036792755,0.00039030471816658974,-0.0016479259356856346
1772568072899679500,6.164679443359375,0.0014554127119481564,-0.0018187188543379307,0.0010153958573937416
1772568072909752300,6.17475244140625,0.0011579375714063644,0.0010841265320777893,0.0006558690220117569
1772568072919824400,6.184824462890625,-0.0015860036946833134,-0.0009361272677779198,-0.0008743638172745705
1772568072929896400,6.194896484375,0.00041296472772955894,0.000008229631930589676,0.0017208866775035858
1772568072939968300,6.20496826171875,-0.00027339067310094833,-0.0007453993894159794,0.0005129044875502586
1772568072950041300,6.215041259765625,-0.0006108134984970093,0.0013896566815674305,-0.0015459852293133736
1772568072960113400,6.225113525390625,0.001964061986654997,-0.0007917704060673714,0.0004390403628349304
1772568072970185200,6.235185302734375,-0.0011305306106805801,-0.0011699395254254341,0.00036287400871515274
1772568072980257300,6.24525732421875,0.0011084550060331821,0.00017882976680994034,-0.000026463530957698822
1772568072990330400,6.255330322265625,0.0030725360848009586,0.0007080002687871456,-0.00001394655555486679
1772568073000402400,6.26540234375,0.0014924169518053532,0.0013053766451776028,0.0013500312343239784
1772568073010474500,6.275474609375,0.0014876234345138073,0.00004250556230545044,0.0018834620714187622
1772568073020547300,6.28554736328125,0.0005224593915045261,0.0011864826083183289,0.00035412609577178955
1772568073030619400,6.295619384765625,0.00012990925461053848,-0.0022324835881590843,-0.0007944954559206963
1772568073040691500,6.30569140625,0.0007129167206585407,0.000047631096094846725,-0.0005853204056620598
1772568073050763300,6.31576318359375,0.0012098625302314758,-0.00047061964869499207,-0.0022636447101831436
1772568073060836400,6.32583642578125,-0.0014688456431031227,-0.00035579921677708626,0.0003437390550971031
1772568073070908400,6.335908447265625,0.002345067448914051,0.001167262438684702,0.0010590637102723122
1772568073080980200,6.345980224609375,-0.0008818153291940689,0.0013822335749864578,-0.002418830059468746
1772568073091053600,6.356053466796875,0.00012193014845252037,-0.002208240097388625,-0.0028521260246634483
1772568073101125400,6.36612548828125,0.0012242114171385765,-0.0009084707126021385,0.0006612911820411682
1772568073111197400,6.376197509765625,0.000035909004509449005,0.0027384618297219276,-0.0004681553691625595
1772568073121269500,6.38626953125,-0.0004103099927306175,0.0010043689981102943,0.000037183985114097595
1772568073131342300,6.39634228515625,0.00004296004772186279,-0.0010662390850484371,-0.000180928036570549
1772568073141414400,6.406414306640625,-0.0008289669640362263,-0.0012375693768262863,-0.0008781459182500839
1772568073151486500,6.416486572265625,0.0011217985302209854,-0.0022016337607055902,0.00024251174181699753
1772568073161558300,6.426558349609375,-0.0007618600502610207,0.00047438591718673706,-0.0016048476099967957
1772568073171631400,6.43663134765625,0.00023416243493556976,0.001539650373160839,0.0029342444613575935
1772568073181703400,6.446703369140625,0.0012201732024550438,0.0015642535872757435,0.0010028909891843796
1772568073191775200,6.456775146484375,-0.0010640197433531284,-0.003590294625610113,0.0017309999093413353
1772568073201848600,6.4668486328125,-0.0005106683820486069,0.0007329275831580162,-0.0016406364738941193
1772568073211920400,6.47692041015625,0.0008006724528968334,0.00005568563938140869,-0.0011689914390444756
1772568073221992400,6.486992431640625,0.0001337132416665554,-0.000451868399977684,0.0002939719706773758
1772568073232064500,6.497064453125,-0.0005627032369375229,0.0018275310285389423,0.0010553700849413872
1772568073242137300,6.507137451171875,0.00009728921577334404,-0.00011501461267471313,-0.00003268662840127945
1772568073252209400,6.51720947265625,-0.00001696031540632248,0.0004514399915933609,-0.001024181954562664
1772568073262281500,6.527281494140625,-0.0008640321902930737,0.0034482241608202457,0.001161881722509861
1772568073272353500,6.537353515625,-0.000483466312289238,-0.0007707555778324604,0.0005118036642670631
1772568073282426400,6.54742626953125,-0.0008737244643270969,-0.0011924724094569683,0.00001645553857088089
1772568073292498400,6.55749853515625,-0.0015333890914916992,-0.00015463866293430328,0.0005336413159966469
1772568073302570200,6.5675703125,0.0022858139127492905,0.0005598641000688076,-0.0004909522831439972
1772568073312643800,6.577643798828125,0.00041813915595412254,-0.0012851739302277565,0.000582568347454071
1772568073322715600,6.587715576171875,-0.0018731881864368916,-0.00038617709651589394,-0.0014370530843734741
1772568073332787700,6.59778759765625,-0.0007101856172084808,0.003597645089030266,0.00228764396160841
1772568073342859800,6.60785986328125,-0.0015977881848812103,0.0006100996397435665,-0.0004828730598092079
1772568073352932600,6.6179326171875,-0.00020602019503712654,-0.002016576239839196,0.0005123503506183624
1772568073363004700,6.628004638671875,-0.0008592745289206505,-0.00019446015357971191,-0.0029919715598225594
1772568073373076700,6.63807666015625,-0.00021425681188702583,0.0009445738978683949,-0.0025072768330574036
1772568073383148500,6.6481484375,0.0015000277198851109,0.00019174255430698395,-0.0001302417367696762
1772568073393222000,6.658221923828125,-0.0008105309680104256,0.00047164084389805794,-0.0001872330904006958
1772568073403294000,6.6682939453125,-0.0003434144891798496,0.0006960658356547356,-0.0007320428267121315
1772568073413365800,6.67836572265625,0.0017378460615873337,-0.0018533782567828894,-0.00020979717373847961
1772568073423437800,6.688437744140625,0.0013290969654917717,0.0016214349307119846,-0.00008758716285228729
1772568073433510700,6.6985107421875,-0.0015529757365584373,-0.00029497547075152397,-0.001043396070599556
1772568073443582700,6.708582763671875,0.0011252965778112411,0.0010839570313692093,-0.00018743518739938736
1772568073453654800,6.71865478515625,-0.0015863333828747272,-0.0001224549487233162,-0.00006279908120632172
1772568073463727600,6.7287275390625,0.0006806179881095886,-0.0019343565218150616,0.0008880915120244026
1772568073473799700,6.738799560546875,0.0012020645663142204,0.001397524494677782,-0.0008040806278586388
1772568073483871700,6.748871826171875,0.0001448509283363819,-0.0007038051262497902,0.00010345596820116043
1772568073493943800,6.75894384765625,0.0010260907001793385,0.0019990368746221066,-0.0002667233347892761
1772568073504017000,6.769016845703125,-0.0029487106949090958,-0.0014057308435440063,-0.0014548776671290398
1772568073514089000,6.7790888671875,-0.0003332202322781086,-0.0007663057185709476,-0.00032250210642814636
1772568073524160800,6.789160888671875,0.001795295625925064,-0.00014090538024902344,-0.0019026855006814003
1772568073534232800,6.79923291015625,-0.0006958255544304848,-0.0007275999523699284,0.0003069387748837471
1772568073544306000,6.809305908203125,-0.00005495082587003708,-0.0016708164475858212,0.0002770703285932541
1772568073554377700,6.819377685546875,-0.0007039629854261875,-0.0009909113869071007,0.003683253191411495
1772568073564449800,6.82944970703125,0.0006908583454787731,0.00043891556560993195,0.0007616216316819191
1772568073574521900,6.83952197265625,-0.000381330493837595,0.0003731353208422661,0.0008508376777172089
1772568073584594700,6.8495947265625,0.002868948969990015,-0.000006452668458223343,-0.0005433131009340286
1772568073594666800,6.859666748046875,-0.0012291232123970985,0.00019994238391518593,0.0010561812669038773
1772568073604738800,6.86973876953125,-0.0005220440216362476,-0.0011281711049377918,0.0021641673520207405
1772568073614811600,6.879811767578125,-0.0002173781394958496,-0.0010733101516962051,0.00016360078006982803
1772568073624883700,6.8898837890625,0.0008015003986656666,0.0007215579971671104,0.0022374186664819717
1772568073634955500,6.89995556640625,-0.0016936156898736954,0.0018286341801285744,0.0018067862838506699
1772568073645027800,6.91002783203125,-0.0003860294818878174,0.0009391875937581062,-0.00033518392592668533
1772568073655101000,6.920100830078125,0.002104025799781084,-0.0002645612694323063,-0.00034557003527879715
1772568073665172700,6.9301728515625,-0.0028101303614676,0.0016238121315836906,-0.0005895849317312241
1772568073675244800,6.940244873046875,0.000046642497181892395,-0.004025817383080721,-0.00024097785353660583
1772568073685316900,6.95031689453125,-0.0011847433634102345,0.00042597996070981026,0.0003702770918607712
1772568073695389700,6.9603896484375,-0.0013794205151498318,-0.0017397028859704733,-0.000593254342675209
1772568073705461800,6.970461669921875,0.00007848069071769714,0.0009047873318195343,-0.0008700992912054062
1772568073715533800,6.980533935546875,-0.00009941821917891502,-0.002778897061944008,-0.0018828995525836945
1772568073725605600,6.990605712890625,0.0006648339331150055,-0.0003455746918916702,0.001393163576722145
1772568073735678700,7.0006787109375,-0.0028252392075955868,-0.0019069858826696873,-0.00006465055048465729
1772568073745750800,7.010750732421875,0.0011492837220430374,0.0011965916492044926,-0.0013862689957022667
1772568073755822600,7.020822509765625,-0.00018495973199605942,-0.000792789738625288,-0.00040223170071840286
1772568073765894700,7.030894775390625,-0.0002448619343340397,0.003581344150006771,0.00022755376994609833
1772568073775967700,7.0409677734375,-0.0008802921511232853,0.000004984904080629349,-0.0025743572041392326
1772568073786039800,7.051039794921875,0.001108141615986824,0.002454538829624653,-0.0005404474213719368
1772568073796112000,7.06111181640625,0.0028740838170051575,-0.0016336794942617416,0.0021570678800344467
1772568073806184000,7.071183837890625,-0.0009504351764917374,-0.0005000303499400616,-0.00005424395203590393
1772568073816256800,7.0812568359375,-0.0028482037596404552,0.002801756374537945,-0.0006489278748631477
1772568073826328800,7.091328857421875,0.000978926196694374,-0.0005212323740124702,-0.002804478630423546
1772568073836400600,7.101400634765625,-0.0004056510515511036,0.0005413689650595188,0.00010102987289428711
1772568073846472700,7.11147265625,0.0004972638562321663,-0.0008066650480031967,-0.0011389199644327164
1772568073856545800,7.1215458984375,0.00046850182116031647,0.00015819817781448364,-0.0026457365602254868
1772568073866617600,7.13161767578125,-0.001205668319016695,0.00017342204228043556,0.0023946845903992653
1772568073876689700,7.141689697265625,-0.00046078162267804146,-0.0007312535308301449,0.0006407257169485092
1772568073886761700,7.15176171875,-0.002787094097584486,-0.0008474923670291901,0.0006617093458771706
1772568073896834800,7.161834716796875,0.0011823470704257488,-0.0010674693621695042,0.000015892088413238525
1772568073906907000,7.171906982421875,-0.0012336717918515205,-0.00014194194227457047,-0.00034862011671066284
1772568073916979000,7.18197900390625,-0.00012659607455134392,0.00013928813859820366,-0.0007238592952489853
1772568073927050800,7.19205078125,-0.001584493089467287,-0.0011600768193602562,0.00020111259073019028
1772568073937123800,7.202123779296875,-0.0015123211778700352,-0.004219249822199345,0.00017394870519638062
1772568073947195600,7.212195556640625,-0.0008223443292081356,0.0008484157733619213,-0.0012284265831112862
1772568073957267700,7.222267822265625,0.000006431248039007187,0.0012723910622298717,-0.0008483929559588432
1772568073967339800,7.23233984375,0.0008387584239244461,-0.0004281741566956043,0.002640807069838047
1772568073977412600,7.24241259765625,0.0001524616964161396,-0.00022311042994260788,-0.001693754456937313
1772568073987484700,7.252484619140625,0.00042674271389842033,0.0019434480927884579,0.00006128381937742233
1772568073997556700,7.262556640625,0.0011372743174433708,-0.000745279248803854,0.0005947146564722061
1772568074007628800,7.27262890625,0.00042996788397431374,0.00007501104846596718,-0.00034680310636758804
1772568074017702000,7.282701904296875,-0.000712262000888586,-0.0009734751656651497,0.0005056746304035187
1772568074027774000,7.29277392578125,0.002865512389689684,0.0005686618387699127,-0.0005077188834547997
1772568074037845800,7.302845703125,-0.0007989974692463875,-0.000502727460116148,-0.002265404909849167
1772568074047917800,7.312917724609375,-0.0003360304981470108,-0.001502924133092165,-0.0008291993290185928
1772568074057991000,7.322990966796875,0.001777187455445528,-0.002106662839651108,-0.0004896456375718117
1772568074068062700,7.333062744140625,-0.00004630023613572121,-0.002970337402075529,0.00018277019262313843
1772568074078134800,7.343134765625,0.001428291667252779,0.00020095473155379295,-0.0015285778790712357
1772568074088206800,7.353206787109375,0.0007377476431429386,0.0017563882283866405,-0.00030474644154310226
1772568074098279700,7.36327978515625,-0.0001259152777493,0.00033212965354323387,-0.0004549482837319374
1772568074108351700,7.373351806640625,0.00026984885334968567,-0.0011185077019035816,-0.00015872810035943985
1772568074118423800,7.383423828125,0.0010522855445742607,-0.0013715082313865423,0.00009986478835344315
1772568074128495600,7.39349560546875,0.0002362886443734169,0.0009299153462052345,0.0016612475737929344
1772568074138569000,7.40356884765625,0.00004693819209933281,0.0009666671976447105,-0.0007185535505414009
1772568074148640800,7.413640869140625,0.00019158050417900085,-0.0003820345737040043,0.0022766711190342903
1772568074158712800,7.423712890625,0.00028132880106568336,0.0015136036090552807,-0.000024300068616867065
1772568074168785000,7.433784912109375,0.001227409578859806,-0.0010110237635672092,-0.00042897555977106094
1772568074178857700,7.443857666015625,-0.00041815778240561485,0.0010047229006886482,0.0009457487612962723
1772568074188929800,7.4539296875,0.0032987301237881184,0.0010062768124043941,0.0011499729007482529
1772568074199001900,7.464001953125,-0.0014004171825945377,-0.0013362395111471415,-0.0004953276365995407
1772568074209073700,7.47407373046875,-0.0005591632798314095,0.002308954019099474,-0.001775318756699562
1772568074219146800,7.484146728515625,-0.0005778055638074875,0.00026311352849006653,0.00009288918226957321
1772568074229218800,7.49421875,-0.001535566058009863,0.0020432383753359318,-0.0045018065720796585
1772568074239290600,7.50429052734375,0.0015435805544257164,0.0012277783825993538,-0.0035220300778746605
1772568074249362700,7.51436279296875,0.0028584492392838,-0.0011814683675765991,0.000372997485101223
1772568074259435800,7.524435791015625,-0.0011882237158715725,-0.0008035656064748764,-0.000637405551970005
1772568074269507600,7.534507568359375,0.0021727168932557106,0.0025026509538292885,-0.002028943970799446
1772568074279580000,7.544579833984375,-0.0011575655080378056,-0.0002422691322863102,-0.00026380084455013275
1772568074289652000,7.55465185546875,-0.0007549291476607323,-0.00021584099158644676,-0.00022134091705083847
1772568074299724800,7.564724853515625,-0.00045665493234992027,-0.00020891660824418068,0.0005096970126032829
1772568074309796900,7.574796875,-0.000046834349632263184,-0.001206341665238142,-0.0029425527900457382
1772568074319872300,7.584872314453125,0.0018027308396995068,0.0023210151121020317,0.00016961712390184402
1772568074329944300,7.5949443359375,0.0005295611917972565,0.00013614026829600334,-0.00002149771898984909
1772568074340017400,7.605017333984375,0.0011532735079526901,0.0008280295878648758,-0.00039860140532255173
1772568074350089200,7.615089111328125,0.0006027687340974808,-0.0018818308599293232,0.0007430752739310265
1772568074360161500,7.62516162109375,0.00009783310815691948,-0.0010176352225244045,-0.0013722730800509453
1772568074370233600,7.635233642578125,-0.0007734494283795357,0.0010590245947241783,0.0014107096940279007
1772568074380306400,7.645306396484375,0.000595415011048317,0.0019173617474734783,0.0005691507831215858
1772568074390378500,7.65537841796875,0.002221665345132351,0.00038715731352567673,-0.0013151485472917557
1772568074400450600,7.665450439453125,-0.00198160158470273,-0.00009114667773246765,0.0007621170952916145
1772568074410522400,7.6755224609375,0.0012258263304829597,-0.00018537836149334908,-0.00020445790141820908
1772568074420594400,7.685594482421875,0.00008013425394892693,-0.0007302607409656048,0.00036785565316677094
1772568074430667500,7.69566748046875,-0.00015953602269291878,-0.0016570242587476969,-0.0007389998063445091
1772568074440739300,7.7057392578125,-0.002321224194020033,-0.00010360265150666237,0.0012053735554218292
1772568074450811400,7.715811279296875,0.0018566427752375603,-0.0011275028809905052,-0.0005776602774858475
1772568074460883500,7.725883544921875,-0.00024139555171132088,-0.0023943684063851833,0.00008653197437524796
1772568074470956300,7.735956298828125,-0.0006070351228117943,0.002395885530859232,-0.0004543401300907135
1772568074481028400,7.7460283203125,0.0005453145131468773,-0.0014244192279875278,0.00005086231976747513
1772568074491100400,7.756100341796875,0.0009252154268324375,0.0002665608190000057,0.00014879833906888962
1772568074501172500,7.76617236328125,-0.00038585858419537544,0.0008082478307187557,0.0009381584823131561
1772568074511245600,7.77624560546875,-0.00033586565405130386,0.0013979743234813213,-0.0014833100140094757
1772568074521317400,7.7863173828125,0.0008737421594560146,0.0011638826690614223,-0.00030645914375782013
1772568074531389400,7.796389404296875,0.0013847188092768192,0.0017762877978384495,0.00024793297052383423
1772568074541461500,7.80646142578125,-0.001563400961458683,0.00039756903424859047,-0.0017249369993805885
1772568074551534300,7.816534423828125,-0.0012115659192204475,0.001058939378708601,0.0020548496395349503
1772568074561606400,7.8266064453125,-0.0009151562117040157,0.001281313132494688,0.00020049046725034714
1772568074571678500,7.836678466796875,-0.00030349381268024445,0.001158169936388731,0.00008078105747699738
1772568074581750300,7.846750244140625,-0.0018771556206047535,-0.00009538000449538231,-0.00027901213616132736
1772568074591822300,7.856822265625,0.0009229243732988834,-0.00015707267448306084,-0.000030914321541786194
1772568074601895400,7.8668955078125,0.0006321072578430176,0.00202991534024477,0.0011909445747733116
1772568074611967200,7.87696728515625,0.0012290584854781628,-0.0027502209413796663,-0.0003437073901295662
1772568074622039300,7.887039306640625,-0.003667163662612438,0.0004951073788106441,0.0005473867058753967
1772568074632111400,7.897111328125,0.0008242670446634293,0.002295054029673338,0.0004134373739361763
1772568074642184400,7.907184326171875,-0.0011789626441895962,0.0003927582874894142,-0.0003532860428094864
1772568074652256500,7.917256591796875,-0.0002674907445907593,0.00016613025218248367,0.0001287488266825676
1772568074662328600,7.92732861328125,-0.0018552676774561405,-0.0007918090559542179,0.0009316923096776009
1772568074672400400,7.937400390625,-0.00008492590859532356,-0.003949454519897699,-0.0007157269865274429
1772568074682473500,7.947473388671875,0.0009281407110393047,-0.0005307546816766262,-0.0014275899156928062
1772568074692545500,7.957545654296875,-0.0011080466210842133,0.0008480027318000793,0.00015537068247795105
1772568074702617300,7.967617431640625,0.0013228869065642357,-0.0022263505961745977,0.0019210465252399445
1772568074712689400,7.977689453125,-0.0011547491885721684,-0.0012988606467843056,-0.00014846306294202805
1772568074722762200,7.98776220703125,-0.0013033528812229633,0.0016258228570222855,0.0003671245649456978
1772568074732834300,7.997834228515625,0.000036368146538734436,0.0021882010623812675,0.0012137992307543755
1772568074742906400,8.00790625,0.0002648672088980675,0.00014342553913593292,-0.000834970735013485
1772568074752978400,8.017978515625,-0.001415314618498087,-0.0009767324663698673,-0.0005990499630570412
1772568074763050200,8.02805029296875,-0.0005127699114382267,0.0018177223391830921,0.002363717183470726
1772568074773123600,8.03812353515625,-0.0000034836120903491974,0.0012479685246944427,-0.00070184376090765
1772568074783195400,8.0481953125,-0.0005148104391992092,0.0008253250271081924,0.000171673484146595
1772568074793267500,8.058267333984375,-0.0014309459365904331,-0.000060257501900196075,-0.0014202743768692017
1772568074803339500,8.068339599609375,-0.0015742243267595768,0.002876143902540207,0.0009227748960256577
1772568074813412400,8.078412353515626,-0.00007618777453899384,-0.0004141111858189106,-0.0006437292322516441
1772568074823484400,8.088484375,-0.0006074882112443447,0.00012331455945968628,-0.0025114035233855247
1772568074833556500,8.098556396484375,-0.0004836004227399826,-0.0018740466330200434,0.0022928891703486443
1772568074843628300,8.108628173828125,-0.002453274093568325,0.0015342668630182743,0.0002233469858765602
1772568074853700400,8.118700439453125,-0.0001380094327032566,-0.00036952923983335495,-0.002339099533855915
1772568074863773400,8.1287734375,0.0003642630763351917,0.0008041257970035076,-0.0006368076428771019
1772568074873845200,8.13884521484375,0.00044526904821395874,-0.0004534665495157242,-0.0012573078274726868
1772568074883917300,8.148917236328124,-0.0005422309041023254,0.002205167431384325,0.000019944272935390472
1772568074893989400,8.1589892578125,-0.0007186327129602432,0.0007503712549805641,-0.00014944933354854584
1772568074904062500,8.1690625,0.0009192111901938915,-0.0004062396474182606,-0.003277864307165146
1772568074914134500,8.179134521484375,0.0008161971345543861,0.002789943479001522,0.00028329063206911087
1772568074924206600,8.18920654296875,-0.0006642541848123074,0.000662344042211771,-0.000799017958343029
1772568074934278400,8.1992783203125,0.00021813251078128815,-0.0007015177980065346,0.00034629087895154953
1772568074944351500,8.2093515625,-0.00006389617919921875,-0.00009777909144759178,0.0010064886882901192
1772568074954423600,8.219423583984375,0.00332814478315413,-0.00063359085470438,0.0010331282392144203
1772568074964495400,8.229495361328125,-0.00014355173334479332,-0.004361483734101057,-0.002585042268037796
1772568074974567400,8.2395673828125,0.0017536049708724022,0.00008225534111261368,0.000669773668050766
1772568074984639500,8.249639404296875,-0.00021473737433552742,-0.0009478554129600525,0.00012542400509119034
1772568074994712300,8.25971240234375,0.0006540184840559959,0.00020125927403569221,0.0009081615135073662
1772568075004784400,8.269784423828124,-0.001347347628325224,0.0007109884172677994,0.0022045886144042015
1772568075014856400,8.2798564453125,-0.00050369743257761,-0.00020665675401687622,-0.0012203054502606392
1772568075024928300,8.28992822265625,0.0013866140507161617,0.002684471197426319,0.0010987753048539162
1772568075035001600,8.300001708984375,-0.00028565526008605957,-0.00002922629937529564,0.00022699031978845596
1772568075045073400,8.310073486328125,0.001694138627499342,0.0013162028044462204,0.002650999464094639
1772568075055145500,8.3201455078125,-0.0022856327705085278,-0.0006298497319221497,0.0019378932192921638
1772568075065217500,8.330217529296876,-0.00003606034442782402,0.002823470626026392,-0.00018597766757011414
1772568075075289600,8.34028955078125,-0.0009823138825595379,-0.002637166064232588,-0.00009184330701828003
1772568075085362400,8.350362548828125,0.0023125484585762024,0.0029655923135578632,0.002025103196501732
1772568075095434500,8.3604345703125,0.0009892471134662628,-0.0008642585016787052,-0.00028409436345100403
1772568075105506300,8.37050634765625,-0.0006722989492118359,0.0014156736433506012,0.00023389048874378204
1772568075115578400,8.380578369140625,0.0019944082014262676,0.0028317766264081,0.0002636592835187912
1772568075125651500,8.3906513671875,0.00022740056738257408,-0.00014403928071260452,-0.0007166508585214615
1772568075135723300,8.40072314453125,-0.002667822875082493,-0.0004970994777977467,-0.0018700649961829185
1772568075145795300,8.41079541015625,0.0007143914699554443,-0.0017660956364125013,-0.0013507483527064323
1772568075155867400,8.420867431640625,0.0011852332390844822,-0.0013955365866422653,-0.0008503086864948273
1772568075165939500,8.430939453125,0.0009745769202709198,0.0015467237681150436,-0.0008186167106032372
1772568075176012500,8.441012451171876,0.0012299008667469025,-0.00091572105884552,0.0028237057849764824
1772568075186084600,8.451084716796874,0.0004474641755223274,0.0001506083644926548,-0.0012535946443676949
1772568075196156400,8.461156494140624,0.0005683298222720623,-0.0003551715053617954,0.001859891228377819
1772568075206228500,8.471228515625,-0.00009426474571228027,0.000899177510291338,-0.0002991333603858948
1772568075216301600,8.481301513671875,0.0007899757474660873,0.0028377175331115723,0.0005619190633296967
1772568075226373400,8.491373291015625,-0.0007157754153013229,-0.000054741743952035904,-0.0005070744082331657
1772568075236445400,8.501445556640626,0.0009529599919915199,0.0002882201224565506,-0.0010497253388166428
1772568075246517500,8.511517578125,0.00010394398123025894,-0.0001932797022163868,-0.0007610386237502098
1772568075256589300,8.52158935546875,0.0005103414878249168,-0.0013306895270943642,0.002196758985519409
1772568075266662400,8.531662353515625,-0.0005211010575294495,0.0000842479057610035,-0.0003375047817826271
1772568075276734500,8.541734375,-0.0007956558838486671,-0.0003393208608031273,-0.0007415665313601494
1772568075286806300,8.55180615234375,-0.001668374054133892,-0.0005608960054814816,0.0031120264902710915
1772568075296878300,8.56187841796875,-0.00011780625209212303,-0.0014321301132440567,-0.0016725249588489532
1772568075306951400,8.571951416015626,0.0010678330436348915,-0.003384759882465005,-0.0013428255915641785
1772568075317019400,8.582019287109375,0.00006301421672105789,0.004652253817766905,0.0012046890333294868
1772568075327091500,8.592091552734376,-0.0019575264304876328,-0.00035129301249980927,0.000284033827483654
1772568075337163500,8.60216357421875,-0.0013775262050330639,-0.0036180014722049236,0.00046796444803476334
1772568075347235300,8.6122353515625,-0.0014811228029429913,0.0015019257552921772,-0.0024849483743309975
1772568075357308400,8.622308349609375,-0.002485469914972782,0.0005554328672587872,0.0010614283382892609
1772568075367380500,8.63238037109375,-0.00001831771805882454,-0.00003898469731211662,0.00010615214705467224
1772568075377452300,8.642452392578125,0.001118083018809557,-0.0018919231370091438,-0.00007919967174530029
1772568075387524400,8.6525244140625,0.0007729372009634972,0.002454622182995081,0.002268376760184765
1772568075397597400,8.662597412109376,0.0006154114380478859,0.002225222997367382,-0.00011192541569471359
1772568075407669500,8.67266943359375,0.0004431051202118397,-0.0033021678682416677,-0.000547352246940136
1772568075417741600,8.682741455078125,0.001165065448731184,-0.0011965176090598106,0.000913725234568119
1772568075427813600,8.692813720703125,-0.0013526869006454945,0.00004078727215528488,-0.0006175925955176353
1772568075437886500,8.702886474609375,-0.0012127403169870377,0.0011921771802008152,0.0013180552050471306
1772568075447958500,8.71295849609375,-0.0005437540821731091,-0.0017572739161550999,0.0013896944001317024
1772568075458030300,8.7230302734375,-0.00047758594155311584,-0.003114450955763459,0.0008596349507570267
1772568075468102400,8.733102294921874,-0.00038783764466643333,0.0018781772814691067,0.0003752056509256363
1772568075478174500,8.743174560546874,0.0010423711501061916,0.0007444974035024643,0.0008208081126213074
1772568075488247300,8.753247314453125,0.00004075653851032257,-0.000794809777289629,0.0013784738257527351
1772568075498319400,8.7633193359375,-0.0007295706309378147,-0.0017557323444634676,0.0010813744738698006
1772568075508391400,8.773391357421875,0.0010177292861044407,0.00026960158720612526,0.0018510278314352036
1772568075518463500,8.78346337890625,-0.0006370698101818562,-0.000824926421046257,-0.0016184933483600616
1772568075528536300,8.793536376953124,-0.00048447027802467346,-0.0002869679592549801,0.0003093685954809189
1772568075538608400,8.8036083984375,0.0011373166926205158,0.0011284733191132545,-0.00016280170530080795
1772568075548680400,8.813680419921875,0.00022198818624019623,0.0016443273052573204,-0.0000048764050006866455
1772568075558752500,8.82375244140625,0.002232144121080637,0.0009916783310472965,0.0010348968207836151
1772568075568825600,8.83382568359375,-0.001774847973138094,-0.00012738211080431938,0.0001794900745153427
1772568075578897400,8.8438974609375,0.0022307452745735645,0.003455985337495804,-0.0014186222106218338
1772568075588969500,8.853969482421874,0.0008285907097160816,0.000046872999519109726,0.0032283272594213486
1772568075599041500,8.86404150390625,-0.0005907989107072353,0.0016267821192741394,-0.00023825094103813171
1772568075609113300,8.87411328125,-0.0003156946040689945,0.00009546475484967232,-0.00042200926691293716
1772568075619186400,8.8841865234375,0.0013302424922585487,-0.0031796644907444715,0.0005102464929223061
1772568075629258500,8.894258544921875,-0.0033222995698451996,0.0016853981651365757,-0.00022718310356140137
1772568075639330300,8.904330322265626,-0.00017222855240106583,0.002236738335341215,-0.0012019826099276543
1772568075649402400,8.91440234375,0.00123125733807683,0.00012298719957470894,-0.0012187613174319267
1772568075659475200,8.92447509765625,0.0017399564385414124,0.0009562862105667591,0.001008455641567707
1772568075669547300,8.93454736328125,-0.0003562173806130886,-0.0014690547250211239,-0.002252585254609585
1772568075679619300,8.944619384765625,0.000532801728695631,-0.0015114301349967718,-0.00024640560150146484
1772568075689691600,8.954691650390625,0.000283263623714447,0.0023056785576045513,-0.0027867956086993217
1772568075699764500,8.964764404296876,-0.0007744021713733673,0.0011606118641793728,-0.0010905638337135315
1772568075709836500,8.97483642578125,0.0009883441962301731,-0.0008575315587222576,-0.0005139894783496857
1772568075719908400,8.984908447265624,0.0018702857196331024,-0.0023936722427606583,0.0008098045364022255
1772568075729980400,8.99498046875,0.00026706233620643616,-0.001159563660621643,0.001173059456050396
1772568075740053500,9.005053466796875,0.0003062952309846878,0.0012483764439821243,-0.0007188953459262848
1772568075750125300,9.015125244140625,-0.0015621786005795002,-0.0013948110863566399,0.0012931227684020996
1772568075760197400,9.025197265625,-0.001336460467427969,0.0014190101064741611,0.002879190258681774
1772568075770269400,9.03526953125,0.00010191230103373528,0.0012698732316493988,-0.002536879852414131
1772568075780342300,9.04534228515625,0.00014948053285479546,-0.001004550140351057,-0.001265689730644226
1772568075790414300,9.055414306640625,-0.000767712015658617,0.00021943869069218636,-0.0012790057808160782
1772568075800486400,9.065486328125,0.0012957924045622349,-0.0022011008113622665,0.0002529500052332878
1772568075810558200,9.07555810546875,0.0019557238556444645,0.0008982857689261436,-0.0003742240369319916
1772568075820630300,9.08563037109375,-0.0000742422416806221,-0.0006698127835988998,0.0016472795978188515
1772568075830703600,9.09570361328125,0.00198251660913229,-0.00041228486225008965,0.0006701666861772537
1772568075840775400,9.105775390625,-0.00005463743582367897,-0.0005819406360387802,-0.0013319533318281174
1772568075850847500,9.115847412109375,0.002388546708971262,0.0008175503462553024,-0.0011524567380547523
1772568075860919600,9.12591943359375,0.0005982783623039722,0.0024743233807384968,0.0005702013149857521
1772568075870992400,9.135992431640625,0.0021154810674488544,-0.0013859285973012447,0.0014125583693385124
1772568075881064400,9.146064453125,0.001270301640033722,0.0003162520006299019,0.0007521025836467743
1772568075891136500,9.156136474609376,0.0005445904098451138,0.00009041605517268181,0.00017366372048854828
1772568075901208300,9.166208251953124,-0.0006071273237466812,0.0014116405509412289,-0.0006518326699733734
1772568075911281400,9.176281494140625,-0.00041990727186203003,-0.0007162252441048622,0.000492527149617672
1772568075921353200,9.186353271484375,0.0023942096158862114,0.001835789531469345,-0.0005945013836026192
1772568075931425300,9.19642529296875,-0.0002907896414399147,-0.0011219172738492489,-0.002484546974301338
1772568075941497300,9.206497314453125,-0.0022694645449519157,0.0005860277451574802,0.0022016307339072227
1772568075951570400,9.2165703125,-0.0007756971754133701,-0.0017796584870666265,-0.0017068246379494667
1772568075961642500,9.226642578125,0.002127506770193577,0.0016471631824970245,-0.001135651022195816
1772568075971714600,9.236714599609375,-0.00245499424636364,0.0013558133505284786,-0.00042006000876426697
1772568075981786400,9.246786376953125,0.0020434935577213764,0.0005388022400438786,0.00010430999100208282
1772568075991859500,9.256859375,-0.0015043700113892555,-0.00039383675903081894,0.001313650980591774
1772568076001931500,9.266931640625,0.001363005954772234,0.0010935352183878422,-0.0009335987269878387
1772568076012003300,9.27700341796875,-0.00296543026342988,-0.0006803963333368301,-0.00014370493590831757
1772568076022075400,9.287075439453124,-0.00015163933858275414,-0.0027177375741302967,-0.00002238340675830841
1772568076032148500,9.2971484375,0.0020313537679612637,-0.001336356159299612,0.0012426180765032768
1772568076042220300,9.30722021484375,0.00007551396265625954,-0.0010045594535768032,-0.0008211787790060043
1772568076052292400,9.317292236328125,0.0013325260952115059,-0.000530516728758812,0.0010214624926447868
1772568076062364400,9.327364501953125,-0.0014414344914257526,-0.002403326565399766,0.0001451745629310608
1772568076072436200,9.337436279296876,-0.0004707123152911663,-0.00029383692890405655,0.003559080883860588
1772568076082509600,9.347509521484374,0.00011558039113879204,0.0013576969504356384,0.0014744624495506287
1772568076092581600,9.35758154296875,0.0011094720102846622,-0.0006074495613574982,0.0010832445695996284
1772568076102653400,9.3676533203125,0.0005728611722588539,-0.0010697063989937305,0.0024111727252602577
1772568076112725500,9.3777255859375,-0.0005043870769441128,0.0013127573765814304,0.000052677467465400696
1772568076122798300,9.38779833984375,0.00047699688002467155,-0.0006572999991476536,0.00006844289600849152
1772568076132870400,9.397870361328126,0.00045356107875704765,0.0015230299904942513,-0.0016780579462647438
1772568076142942500,9.4079423828125,-0.0012339376844465733,-0.0003091786056756973,0.002146017737686634
1772568076153014500,9.4180146484375,-0.0018808194436132908,-0.0004798872396349907,0.0001281406730413437
1772568076163087400,9.42808740234375,0.0005302848294377327,-0.0013741336297243834,0.0012094257399439812
1772568076173159400,9.438159423828125,-0.0002862405963242054,0.00047117099165916443,-0.0016295034438371658
1772568076183231200,9.448231201171875,0.0016929758712649345,-0.000029908958822488785,-0.001651952974498272
1772568076193303300,9.45830322265625,-0.00035100057721138,-0.0006517567671835423,-0.0015424974262714386
1772568076203376600,9.468376708984374,0.00032894033938646317,0.00042675621807575226,0.001603979617357254
1772568076213448400,9.478448486328125,0.001191005576401949,0.0013998756185173988,-0.001604330725967884
1772568076223520500,9.4885205078125,0.0003159209154546261,-0.002847406081855297,0.0007748054340481758
1772568076233592600,9.498592529296875,-0.00022896192967891693,-0.001543255988508463,-0.0015149805694818497
1772568076243665400,9.50866552734375,-0.0002770517021417618,-0.0010447120293974876,-0.0014719283208251
1772568076253737500,9.518737548828126,0.0022380375303328037,0.0010176398791372776,0.0010641999542713165
1772568076263809500,9.5288095703125,0.0005443994887173176,0.00043107708916068077,-0.001324131153523922
1772568076273881300,9.53888134765625,0.0005092457868158817,-0.001171080395579338,-0.0006527481600642204
1772568076283953400,9.548953369140625,-0.001465237233787775,0.000368005596101284,0.0007332777604460716
1772568076294026500,9.559026611328125,0.0006306706927716732,0.00036401068791747093,-0.0008270684629678726
1772568076304098300,9.569098388671875,-0.001665659248828888,-0.0003057536669075489,0.0005716374143958092
1772568076314169900,9.579169921875,0.0009032259695231915,0.0006833444349467754,0.0023370468989014626
1772568076324242000,9.589241943359376,-0.0002535576932132244,0.0023493082262575626,-0.000045212917029857635
1772568076334314800,9.599314697265624,0.0013635135255753994,-0.00006165122613310814,0.0004631839692592621
1772568076344386800,9.60938671875,-0.00014930497854948044,0.0026808432303369045,0.0011426536366343498
1772568076354459000,9.619458984375,0.00030795950442552567,-0.0022955394815653563,0.0006297286599874496
1772568076364530700,9.62953076171875,-0.0004987437278032303,-0.00039344141259789467,-0.0005745561793446541
1772568076374604000,9.63960400390625,-0.000118977390229702,0.0004907283000648022,-0.0005897358059883118
1772568076384676000,9.649676025390624,-0.0004365299828350544,-0.0004887217655777931,-0.0030479058623313904
1772568076394748000,9.659747802734374,0.0006234077736735344,0.0012250221334397793,-0.0006143087521195412
1772568076404820000,9.669820068359375,0.0016073398292064667,-0.0004847622476518154,-0.0002871304750442505
1772568076414892800,9.679892822265625,-0.0006635375320911407,-0.0006046043708920479,-0.0008751563727855682
1772568076424964900,9.68996484375,-0.00030219973996281624,0.0014915205538272858,-0.000844947062432766
1772568076435037000,9.700036865234376,0.0004048696719110012,0.0006941701285541058,0.0010411040857434273
1772568076445109000,9.71010888671875,0.0009337845258414745,0.0010893954895436764,-0.0038692960515618324
1772568076455180800,9.720180908203124,0.0032499355729669333,0.0031645307317376137,0.000629049725830555
1772568076465254000,9.73025390625,-0.0003491034731268883,0.00031156791374087334,0.0012400923296809196
1772568076475325700,9.74032568359375,0.0023686522617936134,-0.0033223156351596117,0.0009293016046285629
1772568076485397800,9.750397705078125,-0.002555606421083212,0.00044418545439839363,-0.00010601337999105453
1772568076495469800,9.7604697265625,0.0011235503479838371,0.0004529738798737526,0.00024925172328948975
1772568076505543000,9.77054296875,0.0002054884098470211,0.0021073552779853344,0.002292170189321041
1772568076515615000,9.780614990234374,-0.000003037508577108383,0.0004351567476987839,-0.003925245255231857
1772568076525687000,9.79068701171875,0.0013197152875363827,-0.00030597997829318047,-0.0021994849666953087
1772568076535758800,9.8007587890625,0.0006211679428815842,0.002594469115138054,0.001829344779253006
1772568076545831000,9.810830810546875,0.0024242675863206387,0.0007544667460024357,0.0011397749185562134
1772568076555904000,9.820904052734376,-0.0012439703568816185,0.00038641784340143204,0.00009182095527648926
1772568076565975800,9.830975830078126,0.00320815434679389,-0.0017066027503460646,-0.0006664721295237541
1772568076576047900,9.8410478515625,0.0023231860250234604,-0.000036800745874643326,0.001186821609735489
1772568076586120000,9.851119873046875,-0.0001535564661026001,-0.0001878282055258751,0.000059534795582294464
1772568076596192800,9.86119287109375,-0.0016656992956995964,-0.0012051560916006565,0.0019296063110232353
1772568076606264800,9.871264892578125,0.0009746244177222252,0.0017219088040292263,0.0004128525033593178
1772568076616337000,9.8813369140625,0.0010856781154870987,-0.0000783880241215229,0.0008607963100075722
1772568076626408700,9.89140869140625,-0.001148889772593975,-0.000019694678485393524,-0.0010184487327933311
1772568076636482000,9.90148193359375,-0.000177635345607996,0.001105490606278181,-0.0013284403830766678
1772568076646554000,9.91155419921875,0.0005008643493056297,0.00011741695925593376,-0.00024683866649866104
1772568076656626000,9.9216259765625,-0.0006679967045783997,0.0013898750767111778,-0.0008881278336048126
1772568076666698000,9.931697998046875,-0.00175457913428545,-0.0005413149483501911,0.00002111494541168213
1772568076676770000,9.94177001953125,0.00037807971239089966,0.00041129766032099724,-0.0018356414511799812
1772568076686843000,9.9518427734375,-0.0003786897286772728,0.0017335005104541779,0.0009915363043546677
1772568076696915000,9.9619150390625,0.001059417612850666,0.002472260966897011,-0.001695326529443264
1772568076706987000,9.971987060546875,-0.0024052010849118233,0.0016930634155869484,0.0018175747245550156
1772568076717058800,9.982058837890625,0.0008920584805309772,-0.0016108541749417782,-0.0018208352848887444
1772568076727132000,9.9921318359375,0.0015841582790017128,0.0029418603517115116,0.00004320219159126282
1772568076737203700,10.00220361328125,0.0011822874657809734,0.00033356063067913055,-0.0003592008724808693
1772568076747275800,10.01227587890625,0.001942735631018877,-0.0008193538524210453,-0.00020822230726480484
1772568076757347800,10.022347900390624,-0.0012597162276506424,0.004251038655638695,-0.00045882631093263626
1772568076767420000,10.032419921875,-0.0028605470433831215,-0.0017205236945301294,0.0007196255028247833
1772568076777493000,10.042492919921875,0.0022066491656005383,0.001525337342172861,-0.0014923959970474243
1772568076787565000,10.05256494140625,0.00004868535324931145,-0.0002456558868288994,0.0011256532743573189
1772568076797636900,10.062636962890625,-0.0018261796794831753,-0.0013053277507424355,0.0005573350936174393
1772568076807709000,10.072708984375,-0.0011443900875747204,-0.00009224517270922661,0.0016429238021373749
1772568076817782000,10.082781982421874,-0.0012956573627889156,-0.0006895922124385834,-0.00025031715631484985
1772568076827853800,10.092853759765624,0.003443012712523341,-0.0020897153299301863,-0.0006459001451730728
1772568076837926000,10.10292578125,0.0022395304404199123,-0.0009133969433605671,-0.0012879883870482445
1772568076847998000,10.112998046875,-0.00007057422772049904,0.00008692499250173569,0.00005892384797334671
1772568076858070000,10.123070068359375,0.001494032796472311,0.00020490307360887527,0.00013695377856492996
1772568076868142800,10.133142822265626,-0.001450474839657545,0.0010909214615821838,0.0005974452942609787
1772568076878215000,10.14321484375,0.0013295989483594894,-0.001732561970129609,0.0007764101028442383
1772568076888286700,10.15328662109375,0.000060370657593011856,0.0005087689496576786,-0.0003897920250892639
1772568076898358800,10.16335888671875,0.00048700906336307526,0.0011311499401926994,-0.0004180213436484337
1772568076908432100,10.17343212890625,-0.00014903955161571503,0.0024831905029714108,-0.0011287843808531761
1772568076918504000,10.18350390625,0.0002696090377867222,0.0013582711108028889,0.0012992192059755325
1772568076928576000,10.193575927734376,-0.001101890578866005,0.0022508972324430943,-0.000003057532012462616
1772568076938648000,10.20364794921875,0.001186563167721033,-0.0017395832110196352,-0.000690951943397522
1772568076948719900,10.213719970703124,0.001289580948650837,-0.0005579991266131401,-0.001533488743007183
1772568076958793000,10.22379296875,-0.00005771266296505928,0.000009254086762666702,-0.0005896640941500664
1772568076968865000,10.233864990234375,-0.0009986823424696922,0.00003786711022257805,-0.0006921375170350075
1772568076978936800,10.243936767578125,-0.0014239894226193428,0.0013601267710328102,-0.0008050557225942612
1772568076989009000,10.2540087890625,0.0007179458625614643,0.0004009585827589035,0.0009741168469190598
1772568076999081000,10.2640810546875,0.0006231372244656086,0.0027567907236516476,-0.0016629444435238838
1772568077009153800,10.27415380859375,-0.0007765465416014194,0.00004441104829311371,-0.00020806770771741867
1772568077019225900,10.284225830078125,0.000989662017673254,-0.00040140189230442047,-0.00024535227566957474
1772568077029298000,10.2942978515625,0.000058912672102451324,-0.0008596177212893963,-0.001285722479224205
1772568077039369700,10.30436962890625,0.0009859590791165829,-0.0002822442911565304,-0.001255362294614315
1772568077049443000,10.314443115234376,-0.000444767065346241,0.0018606539815664291,-0.000362432561814785
1772568077059515000,10.324514892578126,0.0021230527199804783,0.002128568012267351,-0.0011968007311224937
1772568077069587000,10.3345869140625,0.0012733987532556057,-0.0012609115801751614,0.0007300637662410736
1772568077079659000,10.344658935546875,0.0006299791857600212,-0.0007040444761514664,-0.0008523864671587944
1772568077089731000,10.35473095703125,-0.0010355408303439617,-0.001149847637861967,0.001498134806752205
1772568077099804000,10.364803955078125,0.0012119011953473091,-0.0000819200649857521,0.0001641577109694481
1772568077109876000,10.3748759765625,-0.0022138007916510105,0.00017537176609039307,0.0016397954896092415
1772568077119948000,10.384947998046876,0.0011058296076953411,-0.002541052410379052,0.0015332698822021484
1772568077130019800,10.395019775390624,0.0010421089828014374,-0.00039986055344343185,0.0006044236943125725
1772568077140092000,10.405091796875,-0.0007643131539225578,-0.000586814247071743,0.0010369205847382545
1772568077150164700,10.415164794921875,0.0017195185646414757,0.0028794272802770138,0.0004433365538716316
1772568077160236800,10.42523681640625,-0.0011393846943974495,-0.0001933285966515541,0.0017424263060092926
1772568077170308900,10.435308837890625,-0.0017297565937042236,0.0011565834283828735,-0.001580950804054737
1772568077180381000,10.445380859375,0.0009725531563162804,-0.0010389266535639763,-0.000004625879228115082
1772568077190452700,10.45545263671875,0.00029026204720139503,-0.0021247086115181446,0.0014474103227257729
1772568077200526000,10.465526123046875,-0.0007523652166128159,-0.001248795073479414,0.0017400924116373062
1772568077210598000,10.475597900390625,-0.0003768554888665676,0.0014283671043813229,-0.00019120518118143082
1772568077220670000,10.485669921875,-0.0017699548043310642,0.0002496521919965744,-0.0007685776799917221
1772568077230742000,10.495741943359375,-0.000737061258405447,0.0013564233668148518,-0.0010083876550197601
1772568077240814800,10.50581494140625,0.000544451642781496,-0.00045079784467816353,0.0006560878828167915
1772568077250887000,10.515886962890624,-0.0011565014719963074,-0.0018580155447125435,-0.0012676138430833817
1772568077260959000,10.525958984375,0.0008387388661503792,-0.00010831886902451515,0.0005689021199941635
1772568077271030800,10.53603076171875,-0.0025177253410220146,-0.0006857053376734257,-0.00033213477581739426
1772568077281102800,10.546102783203125,0.003913542255759239,-0.0020396565087139606,-0.0001971125602722168
1772568077291176000,10.556176025390625,-0.00021579768508672714,0.002082908060401678,-0.0002917265519499779
1772568077301247700,10.566247802734376,0.002102217637002468,-0.0012399181723594666,-0.0006153006106615067
1772568077311319800,10.57631982421875,-0.00006158184260129929,-0.002722847508266568,-0.0010630199685692787
1772568077321392600,10.586392578125,-0.0005345591343939304,0.0006580352783203125,-0.000155680812895298
1772568077331464400,10.59646435546875,0.0011587324552237988,0.00016683153808116913,-0.0002407403662800789
1772568077341537500,10.60653759765625,-0.00030227750539779663,0.0013657868839800358,0.002201111987233162
1772568077351609300,10.616609375,0.00167006254196167,-0.0008915835060179234,0.000469171442091465
1772568077361681400,10.626681396484376,-0.00007990049198269844,0.00023147137835621834,-0.0010621463879942894
1772568077371753500,10.63675341796875,0.001176164485514164,-0.0001301937736570835,-0.00014334172010421753
1772568077381825500,10.646825439453124,0.0005431310273706913,-0.00047187739983201027,0.0017464375123381615
1772568077391898600,10.656898681640625,-0.0013977084308862686,0.0007536290213465691,-0.00015003234148025513
1772568077401970700,10.666970703125,-0.00158652663230896,0.001553642563521862,0.0033741286024451256
1772568077412042500,10.67704248046875,-0.0012858002446591854,-0.00038881925866007805,-0.0010313279926776886
1772568077422114600,10.687114501953126,0.003230920759961009,0.003334546461701393,-0.00041081104427576065
1772568077432186600,10.6971865234375,-0.00046617351472377777,-0.002193763852119446,-0.001431022770702839
1772568077442259500,10.707259521484374,0.0010060216300189495,0.0003202604129910469,0.0004363860934972763
1772568077452331500,10.71733154296875,0.00016320543363690376,0.0008590607903897762,0.0017692884430289268
1772568077462403600,10.727403564453125,0.001995992846786976,-0.0007976917549967766,0.0006840499117970467
1772568077472475600,10.7374755859375,-0.00012193294242024422,0.009414991363883018,0.00276326946914196
1772568077482547500,10.74754736328125,-0.000655896496027708,-0.004269129130989313,-0.0025361543521285057
1772568077492620500,10.75762060546875,0.0009460216388106346,0.004823717754334211,0.0029052849858999252
1772568077502692400,10.7676923828125,0.0008533438667654991,-0.002552173100411892,0.001110048033297062
1772568077512764400,10.777764404296875,-0.002586160320788622,0.008291499689221382,0.0021010851487517357
1772568077522836500,10.78783642578125,-0.0004487070254981518,0.0032919463701546192,0.0034587644040584564
1772568077532908500,10.797908447265625,0.0000386945903301239,0.005585838109254837,0.0003980351611971855
1772568077542981600,10.807981689453126,0.000249350443482399,0.0036052456125617027,0.0015128348022699356
1772568077553053700,10.8180537109375,-0.002766057848930359,0.004715920425951481,0.002754736691713333
1772568077563125500,10.82812548828125,-0.001436607912182808,0.003155308775603771,0.001792270690202713
1772568077573197600,10.838197509765624,0.0011803521774709225,0.00041057681664824486,-0.0001379856839776039
1772568077583269600,10.84826953125,-0.000004488043487071991,0.0024518901482224464,0.003446894697844982
1772568077593342500,10.858342529296875,0.001838870346546173,0.004299529362469912,-0.00018935557454824448
1772568077603414500,10.86841455078125,-0.000788604374974966,0.02328334003686905,0.012339220382273197
1772568077613486600,10.878486572265626,0.000570913776755333,0.017150677740573883,0.012965129688382149
1772568077623558400,10.888558349609376,-0.00037317676469683647,0.015310966409742832,0.011625293642282486
1772568077633630500,10.89863037109375,0.0007261564023792744,0.008124561980366707,0.007562775164842606
1772568077643703600,10.90870361328125,0.00006409455090761185,-0.00014242297038435936,0.0054191965609788895
1772568077653775400,10.918775390625,-0.0006956905126571655,0.0009491061791777611,0.004524140618741512
1772568077663847400,10.928847412109375,0.0008175177499651909,-0.005732498597353697,-0.0016730362549424171
1772568077673919500,10.93891943359375,0.0007627261802554131,-0.011366115882992744,-0.00518797617405653
1772568077683991600,10.948991455078126,0.000829039141535759,-0.010405514389276505,-0.008695359341800213
1772568077694064600,10.959064697265624,-0.0038275448605418205,-0.015220243483781815,-0.008472719229757786
1772568077704136700,10.96913671875,0.0010846559889614582,-0.011868388392031193,-0.007547004614025354
1772568077714208500,10.97920849609375,0.001395215280354023,-0.009706400334835052,-0.006348410155624151
1772568077724280600,10.989280517578125,0.0003416687250137329,0.0017742207273840904,-0.0033672675490379333
1772568077734352600,10.9993525390625,0.0012138476595282555,-0.0018556676805019379,-0.00157229695469141
