time,seconds_elapsed,z,y,x
1772569013154576000,0.108575927734375,0.0004813210107386112,-0.0019654384814202785,-0.0018047774210572243
1772569013164648000,0.11864794921875,0.00024202000349760056,0.00265871686860919,0.001212839037179947
1772569013174719700,0.1287197265625,0.00043456675484776497,-0.000005242880433797836,0.0012914026156067848
1772569013184791800,0.138791748046875,0.0015402929857373238,-0.0018605422228574753,0.001642601564526558
1772569013194863900,0.14886376953125,-0.0029218331910669804,-0.0020986287854611874,-0.0009947260841727257
1772569013204934700,0.1589345703125,0.0018962966278195381,-0.001906179590150714,-0.0006501628085970879
1772569013215006500,0.16900634765625,0.00040998635813593864,-0.002426294842734933,-0.001119677908718586
1772569013225078800,0.179078857421875,-0.0014462433755397797,-0.0010846816003322601,-0.0005128541961312294
1772569013235150800,0.18915087890625,-0.0018313368782401085,-0.0006034485995769501,-0.0025730757042765617
1772569013245223000,0.199222900390625,-0.0001441999338567257,0.00038294773548841476,-0.0018975147977471352
1772569013255294700,0.209294677734375,-0.0030459798872470856,0.0011720424517989159,0.00046790484338998795
1772569013265366800,0.21936669921875,-0.001829824410378933,-0.00022027874365448952,-0.00022919103503227234
1772569013275438800,0.22943896484375,-0.00029824068769812584,-0.00012493785470724106,0.001343938522040844
1772569013285510700,0.2395107421875,0.000378225464373827,0.0006111203692853451,0.0007283976301550865
1772569013295583700,0.249583740234375,0.0006237691268324852,0.0005714395083487034,-0.0013627158477902412
1772569013305655800,0.25965576171875,-0.0012717382051050663,-0.0020586815662682056,-0.0005361298099160194
1772569013315727600,0.2697275390625,-0.0009116795845329762,0.000027106143534183502,-0.0003190822899341583
1772569013325799700,0.279799560546875,0.0003932565450668335,0.00026661716401576996,-0.0009217094630002975
1772569013335871700,0.289871826171875,0.001067036297172308,0.002000068314373493,-0.0016242517158389091
1772569013345943800,0.29994384765625,0.0007648062892258167,0.0011301501654088497,-0.00007921736687421799
1772569013356015600,0.310015625,0.001299569383263588,0.0006467862986028194,-0.0017199907451868057
1772569013366087700,0.320087646484375,0.0020390041172504425,0.0022474159486591816,-0.00011952966451644897
1772569013376159700,0.33015966796875,-0.0017863609828054905,0.0012785582803189754,-0.001130465418100357
1772569013386231600,0.3402314453125,0.0008999225683510303,0.002544932533055544,-0.0016058050096035004
1772569013396303600,0.3503037109375,0.0004053735174238682,0.0012841918505728245,-0.0002071131020784378
1772569013406375700,0.360375732421875,0.00074806809425354,-0.0016096087638288736,0.0013836491852998734
1772569013416447700,0.37044775390625,0.0007270290516316891,0.0011180010624229908,0.0007913615554571152
1772569013426519600,0.38051953125,0.003363746451213956,0.0002354579046368599,0.0013536950573325157
1772569013436591600,0.390591552734375,0.0009338781237602234,-0.00029664160683751106,0.0014650151133537292
1772569013446663700,0.40066357421875,0.00037725362926721573,0.002457904163748026,0.0007569650188088417
1772569013456735500,0.410735595703125,0.0017314711585640907,0.0013524256646633148,0.000014476478099822998
1772569013466807600,0.4208076171875,0.00010933959856629372,0.0014024931006133556,-0.0026247166097164154
1772569013476879600,0.430879638671875,0.0008592857047915459,0.0017540305852890015,0.0004597567021846771
1772569013486951700,0.44095166015625,-0.0006346609443426132,-0.00016551651060581207,-0.0006228545680642128
1772569013497023700,0.451023681640625,-0.0001619495451450348,0.00028082961216568947,-0.0008050147444009781
1772569013507095800,0.461095703125,-0.0010415134020149708,0.0007545775733888149,-0.00042725447565317154
1772569013517167900,0.47116796875,0.0021180608309805393,0.0019479398615658283,-0.0003372393548488617
1772569013527239700,0.48123974609375,-0.0017751757986843586,0.00034005986526608467,-0.0006795916706323624
1772569013537311700,0.491311767578125,0.001021409872919321,0.00106470612809062,-0.00023564323782920837
1772569013547383800,0.5013837890625,0.0022353888489305973,-0.0010064132511615753,0.0023650825023651123
1772569013557456000,0.511455810546875,-0.0002155182883143425,0.0008420869708061218,0.00044014956802129745
1772569013567527700,0.521527587890625,-0.0005845623090863228,0.0007205666042864323,-0.0034617604687809944
1772569013577599700,0.531599853515625,-0.0020165443420410156,0.0024689319543540478,-0.002675062045454979
1772569013587671800,0.541671875,-0.0014863330870866776,-0.0012605572119355202,0.0013453410938382149
1772569013597743900,0.551743896484375,0.0001720171421766281,0.003220743965357542,0.00001961924135684967
1772569013607815700,0.561815673828125,0.0018166610971093178,-0.00029185879975557327,0.0008081765845417976
1772569013617887700,0.5718876953125,0.0016310387291014194,0.00008897343650460243,0.0012020580470561981
1772569013627959800,0.581959716796875,0.0007340549491345882,0.001040471252053976,-0.0001442665234208107
1772569013638031600,0.592031494140625,0.0012200819328427315,-0.0000578160397708416,-0.000542941503226757
1772569013648103700,0.602103759765625,-0.000010689720511436462,0.0022986186668276787,-0.00016197841614484787
1772569013658175700,0.61217578125,0.0007922532968223095,0.0012887478806078434,-0.0000879429280757904
1772569013668247800,0.622247802734375,0.000046047382056713104,-0.001078236848115921,0.001127786934375763
1772569013678319600,0.632319580078125,0.0017238389700651169,-0.0017586746253073215,0.0011986270546913147
1772569013688392700,0.642392822265625,-0.0013243108987808228,-0.0019101332873106003,0.0009364588186144829
1772569013698464500,0.652464599609375,0.0009984979405999184,-0.00019612303003668785,-0.00024598464369773865
1772569013708536600,0.66253662109375,-0.0005229208618402481,0.00039773713797330856,-0.0009663505479693413
1772569013718608600,0.672608642578125,0.0001063840463757515,-0.0009221252985298634,-0.000008410774171352386
1772569013728680700,0.6826806640625,-0.0014230306260287762,0.001593790017068386,-0.0005069458857178688
1772569013738752500,0.69275244140625,-0.001625963021069765,-0.00042888056486845016,-0.002030007541179657
1772569013748824600,0.702824462890625,-0.0019313246011734009,-0.00021655112504959106,-0.00014447234570980072
1772569013758896600,0.712896728515625,0.0007675224915146828,0.0017254259437322617,0.0022198818624019623
1772569013768968700,0.72296875,0.0006925445050001144,0.0002126242034137249,0.0013742074370384216
1772569013779040800,0.733040771484375,0.0010209125466644764,-0.0010345340706408024,0.0016312021762132645
1772569013789112800,0.74311279296875,0.0005123657174408436,-0.00016029924154281616,0.0002573831006884575
1772569013799185000,0.753184814453125,-0.0015310775488615036,-0.0002867993898689747,0.00008321274071931839
1772569013809256700,0.763256591796875,0.000862952321767807,-0.0016300599090754986,-0.0003935880959033966
1772569013819328800,0.773328857421875,-0.0032391147688031197,0.000864256639033556,0.0008069649338722229
1772569013829400800,0.78340087890625,0.00025590136647224426,-0.0015308069996535778,0.00021026376634836197
1772569013839473000,0.793472900390625,-0.0010375957936048508,-0.0016676932573318481,0.0009969621896743774
1772569013849544700,0.803544677734375,-0.0005665943026542664,0.0004969178698956966,0.001865842379629612
1772569013859616800,0.81361669921875,-0.00003103259950876236,0.0013230303302407265,0.0010253489017486572
1772569013869688800,0.823688720703125,-0.002664168830960989,0.0021182275377213955,0.002833070233464241
1772569013879760600,0.8337607421875,-0.0015453747473657131,-0.0003265542909502983,-0.00032730307430028915
1772569013889832700,0.843832763671875,-0.0017786347307264805,0.0011998950503766537,-0.0015897508710622787
1772569013899904800,0.85390478515625,-0.0005474556237459183,0.0009474270045757294,0.0006608860567212105
1772569013909976800,0.863976806640625,-0.0008492143824696541,0.0006661936640739441,0.0011682799085974693
1772569013920048600,0.874048583984375,0.0009268480353057384,-0.0016337120905518532,0.0012005046010017395
1772569013930120700,0.88412060546875,0.0005640634335577488,-0.0029083292465656996,0.000045933760702610016
1772569013940192800,0.89419287109375,-0.0005896179936826229,-0.0017053796909749508,-0.0006867013871669769
1772569013950264600,0.9042646484375,0.0001670699566602707,0.0000713840126991272,0.0000024139881134033203
1772569013960336600,0.914336669921875,-0.0011796904727816582,-0.0034359991550445557,0.0030096545815467834
1772569013970408700,0.92440869140625,-0.00004831748083233833,0.0010063317604362965,0.00024735182523727417
1772569013980480800,0.934480712890625,-0.0018736482597887516,-0.000979054719209671,0.0007030190899968147
1772569013990552600,0.944552490234375,0.0008514984510838985,0.0005436460487544537,-0.0002632997930049896
1772569014000624600,0.954624755859375,0.0006648106500506401,0.00040596025064587593,-0.0010292250663042068
1772569014010696700,0.96469677734375,0.00047089066356420517,-0.0006853099912405014,-0.0005986625328660011
1772569014020768800,0.974768798828125,-0.0011573662050068378,-0.0015316628850996494,-0.0021582096815109253
1772569014030840600,0.984840576171875,0.0004521869122982025,0.0003673844039440155,-0.0008134441450238228
1772569014040912600,0.99491259765625,-0.00003437278792262077,0.0010795136913657188,-0.0005679009482264519
1772569014050984700,1.004984619140625,0.000540977343916893,0.00007058447226881981,0.0011371495202183723
1772569014061056500,1.015056396484375,-0.00025291088968515396,-0.0027473061345517635,-0.001337192952632904
1772569014071128600,1.025128662109375,-0.0029444308020174503,-0.0014064130373299122,0.0013109399005770683
1772569014081200600,1.03520068359375,0.0019043865613639355,-0.000649808906018734,-0.0005135918036103249
1772569014091272700,1.045272705078125,-0.0002206140197813511,0.002235205378383398,-0.0002963189035654068
1772569014101344800,1.0553447265625,-0.0014331508427858353,0.0011803270317614079,-0.00011575687676668167
1772569014111416800,1.065416748046875,-0.0009041428565979004,-0.00004533305764198303,0.0016705989837646484
1772569014121489000,1.075489013671875,0.0004082624800503254,0.0007176627404987812,0.00026045553386211395
1772569014131560700,1.085560791015625,0.0029481498058885336,0.0006221979856491089,0.0009307349100708961
1772569014141632800,1.0956328125,-0.0014226296916604042,-0.0005005905404686928,-0.0008261529728770256
1772569014151704800,1.105704833984375,0.0014741849154233932,0.0007588909938931465,0.0017443923279643059
1772569014161777000,1.11577685546875,-0.00014714756980538368,-0.0005346066318452358,-0.00031689368188381195
1772569014171848700,1.1258486328125,-0.00022186432033777237,0.002095326781272888,-0.0011616181582212448
1772569014181920800,1.135920654296875,-0.0006924448534846306,0.0007272609509527683,-0.0018063699826598167
1772569014191992800,1.145992919921875,0.000932732131332159,-0.000970146618783474,0.0007087942212820053
1772569014202064600,1.156064697265625,-0.0010758242569863796,0.0015745037235319614,0.0004203738644719124
1772569014212137200,1.16613720703125,0.002330357674509287,-0.0015819510444998741,0.0007746322080492973
1772569014222209300,1.176209228515625,-0.00044039497151970863,-0.00042480742558836937,0.001490490511059761
1772569014232281300,1.18628125,0.0010155714116990566,-0.0014068614691495895,0.000026047229766845703
1772569014242353400,1.196353515625,-0.0012752795591950417,0.0022307499311864376,-0.0004506586119532585
1772569014252425500,1.206425537109375,-0.0010563274845480919,-0.00015210453420877457,0.0010425597429275513
1772569014262497500,1.21649755859375,0.003363188821822405,-0.00036382582038640976,-0.000825914554297924
1772569014272569300,1.2265693359375,0.0016664364375174046,-0.0008504176512360573,0.0020971838384866714
1772569014282642400,1.236642333984375,-0.000337858684360981,-0.0013801204040646553,0.002213563770055771
1772569014292714200,1.24671435546875,-0.0009159184992313385,0.0006223726086318493,0.0014866925776004791
1772569014302786300,1.256786376953125,0.0005530808120965958,-0.0004729856736958027,0.0002461913973093033
1772569014312858400,1.2668583984375,-0.0018289298750460148,-0.00030281906947493553,-0.0017667664214968681
1772569014322930400,1.276930419921875,-0.0018997699953615665,-0.00033637508749961853,-0.0010554352775216103
1772569014333002200,1.287002197265625,-0.00019205594435334206,-0.003523243358358741,-0.000028427690267562866
1772569014343074300,1.29707421875,-0.0009507909417152405,-0.0005921684205532074,-0.0007386934012174606
1772569014353146400,1.307146484375,0.0009426590986549854,-0.0013431929983198643,-0.0021178508177399635
1772569014363218400,1.317218505859375,-0.0003630886785686016,0.00011675199493765831,0.000664886087179184
1772569014373290200,1.327290283203125,0.00002950802445411682,-0.0027326741255819798,-0.004283658228814602
1772569014383362300,1.3373623046875,-0.0012338957749307156,-0.0036085876636207104,-0.00012113712728023529
1772569014393434400,1.347434326171875,0.0013941260986030102,-0.00021549127995967865,-0.0008594552055001259
1772569014403506200,1.357506103515625,-0.0021710474975407124,0.0008772034198045731,-0.00043547991663217545
1772569014413578200,1.367578125,0.0012247902341187,0.0020679342560470104,-0.00045492127537727356
1772569014423650300,1.377650390625,-0.0008961507119238377,0.000046594999730587006,0.0004476243630051613
1772569014433722400,1.387722412109375,-0.0013316301628947258,-0.003191405674442649,-0.00015241559594869614
1772569014443794200,1.397794189453125,0.001104096882045269,0.005700888577848673,-0.0006091473624110222
1772569014453866200,1.4078662109375,0.001209888607263565,0.0008029132150113583,0.0005267970263957977
1772569014463938300,1.417938232421875,0.0018003112636506557,0.0003299359232187271,-0.001365644857287407
1772569014474010000,1.428010009765625,-0.002713732421398163,-0.0015968303196132183,0.0034175878390669823
1772569014484082200,1.438082275390625,0.0001925756223499775,-0.0037646435666829348,0.000036971643567085266
1772569014494154200,1.448154296875,-0.00036065932363271713,-0.0006204657256603241,0.000298377126455307
1772569014504226600,1.4582265625,-0.0005156556144356728,-0.0002526831813156605,-0.0005948469042778015
1772569014514298400,1.46829833984375,-0.003186140675097704,0.0013217302039265633,-0.0009534033015370369
1772569014524370400,1.478370361328125,-0.0013530864380300045,-0.0018993630073964596,0.0021699517965316772
1772569014534442500,1.4884423828125,-0.0003697248175740242,0.0012908130884170532,-0.002189071848988533
1772569014544514300,1.498514404296875,-0.00015107961371541023,-0.0011979108676314354,-0.0001147361472249031
1772569014554586400,1.50858642578125,-0.0017278417944908142,0.0010787690989673138,-0.0006996169686317444
1772569014564658400,1.518658447265625,-0.0004418008029460907,-0.000619795173406601,-0.0013134749606251717
1772569014574730500,1.52873046875,0.0017363200895488262,-0.0026430473662912846,0.0010458966717123985
1772569014584802300,1.53880224609375,-0.00019500404596328735,-0.00009307079017162323,0.0008805142715573311
1772569014594874400,1.548874267578125,0.0007960069924592972,-0.0006596515886485577,-0.0011896369978785515
1772569014604946400,1.558946533203125,-0.001497240737080574,0.0011353190056979656,-0.0008652638643980026
1772569014615018200,1.569018310546875,0.0008975244127213955,-0.00017200177535414696,0.0003795307129621506
1772569014625090300,1.57909033203125,0.0010738256387412548,0.0014924737624824047,0.0005457121878862381
1772569014635162400,1.589162353515625,0.0014788787811994553,-0.0028684153221547604,-0.0008863247931003571
1772569014645234400,1.599234375,-0.0009920019656419754,0.0005992869846522808,0.0005331402644515038
1772569014655306200,1.60930615234375,0.0009686043485999107,0.0005876561626791954,0.0013045659288764
1772569014665378300,1.61937841796875,0.0018975147977471352,0.0003445092588663101,0.0009309239685535431
1772569014675450400,1.629450439453125,0.00088074104860425,0.00012513622641563416,0.00019866321235895157
1772569014685522400,1.6395224609375,-0.0015672370791435242,-0.0004932498559355736,0.0001989295706152916
1772569014695594200,1.64959423828125,-0.001162553671747446,0.000005368143320083618,0.0004118615761399269
1772569014705666300,1.659666259765625,0.0013591935858130455,-0.0013107662089169025,0.0020390525460243225
1772569014715738400,1.66973828125,0.0009682853706181049,0.001413232646882534,0.0012194551527500153
1772569014725810200,1.67981005859375,0.0006356565281748772,-0.0006563100032508373,-0.0001312997192144394
1772569014735882200,1.68988232421875,0.002185163088142872,0.0030356510542333126,-0.0005673030391335487
1772569014745954300,1.699954345703125,-0.00005828356370329857,0.0007192338816821575,0.0002691959962248802
1772569014756026400,1.7100263671875,0.001443035900592804,-0.0013265982270240784,-0.0002583516761660576
1772569014766098200,1.72009814453125,-0.0015708636492490768,-0.0014552287757396698,-0.0016210908070206642
1772569014776170200,1.730170166015625,0.0011707446537911892,-0.0029154999647289515,-0.0011231452226638794
1772569014786242300,1.7402421875,0.001227470114827156,-0.0009724576957523823,-0.0004083532840013504
1772569014796314000,1.750314208984375,0.00284206448122859,0.002592447679489851,0.00023044832050800323
1772569014806386200,1.76038623046875,0.002061225939542055,-0.0011154711246490479,-0.0014207111671566963
1772569014816458200,1.770458251953125,0.0023796875029802322,0.0016218191012740135,-0.0007487479597330093
1772569014826530300,1.7805302734375,0.0007809917442500591,0.0009048962965607643,0.0003186464309692383
1772569014836602400,1.790602294921875,-0.0007152319885790348,-0.0036484571173787117,-0.0011510979384183884
1772569014846674400,1.80067431640625,0.00120836915448308,0.000985709484666586,-0.001979340799152851
1772569014856746500,1.81074658203125,0.0010804100893437862,-0.0031025258358567953,-0.0015356894582509995
1772569014866818300,1.820818359375,-0.0007651601918041706,0.0009856927208602428,0.00018844101577997208
1772569014876890400,1.830890380859375,0.001244108658283949,-0.00003411388024687767,0.00006309151649475098
1772569014886962400,1.84096240234375,0.00047498755156993866,-0.0009545022621750832,0.00010650046169757843
1772569014897034500,1.851034423828125,-0.00019878754392266273,-0.00043328292667865753,0.0001294771209359169
1772569014907106300,1.861106201171875,0.0007967017590999603,-0.0020080101676285267,0.0026709316298365593
1772569014917178400,1.871178466796875,0.0001422446221113205,0.0020251665264368057,-0.0034836381673812866
1772569014927250400,1.88125048828125,0.0008839350193738937,-0.0003301328979432583,-0.0009349929168820381
1772569014937322500,1.891322509765625,0.0001108725555241108,0.0012274621985852718,0.00015615206211805344
1772569014947394300,1.901394287109375,-0.00014585629105567932,-0.0022311850916594267,0.00014656409621238708
1772569014957466400,1.91146630859375,-0.0013967868871986866,0.001055754255503416,0.0002137375995516777
1772569014967538400,1.921538330078125,0.0004064398817718029,-0.002326726447790861,-0.0013716425746679306
1772569014977610200,1.9316103515625,-0.0017896313220262527,-0.0016180118545889854,-0.001798638142645359
1772569014987682300,1.941682373046875,-0.0013795038685202599,-0.0009061489254236221,-0.0008217906579375267
1772569014997754400,1.95175439453125,0.0003673476167023182,0.0020001912489533424,-0.00026686396449804306
1772569015007826400,1.961826416015625,0.0007332656532526016,-0.00108295027166605,-0.002108439803123474
1772569015017898200,1.971898193359375,0.0001792125403881073,-0.002460740739479661,0.0009996509179472923
1772569015027970300,1.98197021484375,0.00041703274473547935,0.004376126453280449,0.003362140618264675
1772569015038042400,1.99204248046875,-0.0005886051803827286,-0.00010955845937132835,0.00228982325643301
1772569015048114200,2.0021142578125,0.003118515247479081,-0.0023681852035224438,0.0004650251939892769
1772569015058186200,2.012186279296875,-0.0018225405365228653,-0.0006119492463767529,0.0009412411600351334
1772569015068259300,2.02225927734375,0.001104540191590786,-0.000577061902731657,0.0015457794070243835
1772569015078331100,2.0323310546875,-0.0018894737586379051,-0.00030471617355942726,-0.0010901549831032753
1772569015088403200,2.0424033203125,-0.00026148324832320213,-0.00048368051648139954,0.0011008279398083687
1772569015098475300,2.052475341796875,0.001764325425028801,0.0012034294195473194,0.0023698722943663597
1772569015108547300,2.06254736328125,-0.0005198679864406586,-0.0012293681502342224,0.0026542972773313522
1772569015118619400,2.072619384765625,-0.0005133394151926041,0.0014043194241821766,-0.00017610937356948853
1772569015128691500,2.08269140625,0.0013237092643976212,0.0018858187831938267,0.0003293585032224655
1772569015138763500,2.092763427734375,0.0007751095108687878,0.0007622814737260342,0.0025384891778230667
1772569015148835300,2.10283544921875,-0.0013801869936287403,-0.0013251039199531078,-0.001183544285595417
1772569015158907400,2.112907470703125,-0.00038872426375746727,0.0005743103101849556,-0.0007818210870027542
1772569015168979500,2.1229794921875,-0.00016821455210447311,0.0004954803735017776,-0.0009296266362071037
1772569015179051500,2.133051513671875,0.000500136986374855,-0.0006862059235572815,0.0009528100490570068
1772569015189123300,2.143123291015625,-0.0012884419411420822,0.00018091918900609016,-0.0013931682333350182
1772569015199195400,2.1531953125,0.0012962454929947853,-0.0011444054543972015,0.00038621947169303894
1772569015209268000,2.16326806640625,0.00010607857257127762,-0.0013859542086720467,-0.0009088758379220963
1772569015219339800,2.17333984375,0.0011881226673722267,0.0009568110108375549,0.0021026013419032097
1772569015229411800,2.183411865234375,-0.0009341505356132984,0.000924320425838232,0.0017172414809465408
1772569015239484000,2.19348388671875,-0.00015703262761235237,-0.0006661666557192802,0.0008285818621516228
1772569015249555700,2.2035556640625,0.0004546954296529293,-0.0027788523584604263,-0.00022975821048021317
1772569015259627800,2.213627685546875,0.000258532352745533,-0.0011589936912059784,-0.0018430687487125397
1772569015269699800,2.223699951171875,0.0020255395211279392,-0.000760318711400032,0.0009425980970263481
1772569015279772000,2.23377197265625,0.0005301707424223423,0.0023734737187623978,-0.0013545015826821327
1772569015289843700,2.24384375,-0.000742021482437849,0.001279180869460106,-0.0011718086898326874
1772569015299915800,2.253915771484375,-0.0016717687249183655,-0.0014820690266788006,0.0007147369906306267
1772569015309987800,2.26398779296875,0.0002054935321211815,0.0015643206425011158,0.0006620064377784729
1772569015320060000,2.274059814453125,-0.000921773724257946,0.0005652988329529762,-0.0011221915483474731
1772569015330131700,2.284131591796875,0.0011834553442895412,-0.002094666240736842,-0.0009482875466346741
1772569015340203800,2.294203857421875,0.002197129186242819,-0.0034613267052918673,-0.0013732416555285454
1772569015350275800,2.30427587890625,0.00014995737001299858,-0.0034048676025122404,-0.0008525941520929337
1772569015360347600,2.31434765625,0.0004353276453912258,-0.002352776238694787,-0.001407361589372158
1772569015370419700,2.324419677734375,-0.0013215593062341213,-0.000091486144810915,-0.0014094924554228783
1772569015380492800,2.334492919921875,-0.0005601760931313038,-0.0009626639075577259,0.0001730639487504959
1772569015390564900,2.34456494140625,-0.0009444700554013252,-0.0023632203228771687,0.0004806583747267723
1772569015400637000,2.354636962890625,-0.00044132256880402565,0.00008975435048341751,0.0013781189918518066
1772569015410709000,2.364708984375,0.0012617693282663822,-0.0008450150489807129,0.0005307011306285858
1772569015420780800,2.37478076171875,-0.000973918940871954,0.0008980752900242805,0.0015902910381555557
1772569015430852900,2.384852783203125,-0.00028655724599957466,0.0007177796214818954,0.003319748677313328
1772569015440925000,2.394925048828125,-0.0007400289177894592,0.0010745376348495483,-0.000698319636285305
1772569015450997000,2.4049970703125,0.0014368393458425999,-0.004678423050791025,-0.00002027861773967743
1772569015461068800,2.41506884765625,0.0010500047355890274,0.001794867217540741,-0.0005198605358600616
1772569015471140900,2.425140869140625,0.0017168601043522358,0.001812976785004139,-0.0003520818427205086
1772569015481213000,2.435212890625,-0.00020646443590521812,0.0004725358448922634,0.003538931719958782
1772569015491284700,2.44528466796875,0.002346441615372896,-0.0007000542245805264,-0.0005655325949192047
1772569015501356800,2.455356689453125,-0.000983028206974268,-0.0006586145609617233,0.0009225020185112953
1772569015511428900,2.465428955078125,0.0010130112059414387,-0.0014005713164806366,0.0018309066072106361
1772569015521501000,2.4755009765625,-0.002534685656428337,-0.0017050066962838173,0.0015946337953209877
1772569015531572700,2.48557275390625,-0.001235063187777996,0.0007096813060343266,-0.00005412846803665161
1772569015541644800,2.495644775390625,-0.00127854710444808,-0.001807008171454072,0.0014667799696326256
1772569015551716900,2.505716796875,-0.00005455780774354935,-0.0027894482482224703,0.0009639756754040718
1772569015561788700,2.51578857421875,0.003946392796933651,0.0028601661324501038,0.0007166406139731407
1772569015571860700,2.52586083984375,-0.0006502233445644379,0.00207080552354455,-0.0000594044104218483
1772569015581932800,2.535932861328125,-0.00045348936691880226,0.00014228001236915588,0.002010689117014408
1772569015592004900,2.5460048828125,-0.00019143428653478622,-0.0008494812063872814,-0.0009917588904500008
1772569015602076700,2.55607666015625,-0.0013330010697245598,0.0005258885212242603,0.0035134367644786835
1772569015612148700,2.566148681640625,0.0002217520959675312,0.0008830181322991848,-0.00030926521867513657
1772569015622220800,2.576220703125,0.00016819220036268234,-0.0023202281445264816,-0.00042009446769952774
1772569015632292900,2.58629296875,0.00030987244099378586,0.0018284441903233528,0.0013676853850483894
1772569015642366000,2.596365966796875,0.0006996099837124348,0.0003775893710553646,-0.0014647068455815315
1772569015652438000,2.60643798828125,-0.0008990857750177383,0.0011035669595003128,0.0038203364238142967
1772569015662509800,2.616509765625,-0.0016462174244225025,-0.0010583912953734398,-0.0009337607771158218
1772569015672582000,2.626581787109375,-0.0006121122278273106,-0.0007361485622823238,0.00032165367156267166
1772569015682654000,2.636654052734375,0.0008073477074503899,0.0031546619720757008,0.0019924920052289963
1772569015692726000,2.64672607421875,-0.0015109339728951454,-0.0002589784562587738,0.0023078108206391335
1772569015702797800,2.6567978515625,0.0009121396578848362,-0.0003916667774319649,0.0013301484286785126
1772569015712870000,2.666869873046875,-0.0005462071858346462,0.002497596200555563,-0.0009188912808895111
1772569015722942000,2.67694189453125,-0.0016717626713216305,0.0008634142577648163,-0.0004054103046655655
1772569015733013800,2.687013671875,0.00171657744795084,0.0012644864618778229,0.00024040695279836655
1772569015743085800,2.6970859375,0.00027370406314730644,-0.0023035756312310696,0.0005718255415558815
1772569015753158000,2.707157958984375,-0.0021106237545609474,0.0005611865781247616,0.000010164454579353333
1772569015763230000,2.71722998046875,-0.00067154411226511,-0.0012983903288841248,-0.0007423395290970802
1772569015773301800,2.7273017578125,0.00011036032810807228,-0.001729822251945734,0.0006488962098956108
1772569015783373800,2.737373779296875,0.0011737029999494553,-0.00033804308623075485,0.00022134650498628616
1772569015793446000,2.74744580078125,0.00009911740198731422,-0.0022264907602220774,0.0013601137325167656
1772569015803517700,2.757517578125,0.00024255365133285522,-0.0014658216387033463,0.0007300684228539467
1772569015813589800,2.76758984375,0.000520853791385889,0.0003429972566664219,-0.0003756759688258171
1772569015823661800,2.777661865234375,-0.00046118488535284996,0.0018079564906656742,-0.0018342500552535057
1772569015833734000,2.78773388671875,0.00010047620162367821,-0.002066143788397312,-0.00017776340246200562
1772569015843805700,2.7978056640625,0.00001807231456041336,0.00006262818351387978,0.00045744143426418304
1772569015853877800,2.807877685546875,0.0010279431007802486,-0.0004995651543140411,-0.00008637644350528717
1772569015863949800,2.81794970703125,0.00018937978893518448,0.0015141558833420277,-0.0012637833133339882
1772569015874022000,2.82802197265625,0.0005912506021559238,-0.0005356790497899055,0.0019993875175714493
1772569015884093700,2.83809375,0.00005610380321741104,-0.00042845308780670166,0.000254020094871521
1772569015894165800,2.848165771484375,-0.00040515558794140816,-0.0023379395715892315,-0.00006502587348222733
1772569015904238800,2.85823876953125,0.0028610615991055965,0.0014132275246083736,-0.0006871772930026054
1772569015914311000,2.868310791015625,-0.0005435235798358917,0.00021347356960177422,0.00024439673870801926
1772569015924383000,2.878383056640625,0.00252394936978817,0.001374018844217062,0.0005683731287717819
1772569015934455000,2.888455078125,-0.0006899530999362469,-0.0011386736296117306,0.0008733049035072327
1772569015944526800,2.89852685546875,0.002534638624638319,-0.0009019859135150909,0.0012101903557777405
1772569015954599000,2.908598876953125,-0.0014377329498529434,0.00145065039396286,-0.00010807439684867859
1772569015964671000,2.9186708984375,-0.00048328330740332603,-0.0013134055770933628,-0.0023870570585131645
1772569015974742800,2.92874267578125,-0.000005245674401521683,0.0012512188404798508,-0.0007718503475189209
1772569015984814800,2.93881494140625,0.001093963161110878,-0.0005688732489943504,-0.0005068350583314896
1772569015994887000,2.948886962890625,-0.001047484576702118,-0.00001679966226220131,0.00020023342221975327
1772569016004959000,2.958958984375,-0.0010813530534505844,-0.0021288387943059206,0.0006925761699676514
1772569016015030800,2.96903076171875,0.002287545707076788,-0.0000877920538187027,0.0024657081812620163
1772569016025102800,2.979102783203125,0.0004681781865656376,0.0009430893696844578,0.00001202896237373352
1772569016035175000,2.9891748046875,-0.00048123858869075775,-0.00030779745429754257,-0.0003198012709617615
1772569016045246700,2.999246826171875,0.000688282772898674,-0.0007656444795429707,-0.0003980649635195732
1772569016055318800,3.00931884765625,-0.0007434324361383915,0.00024555763229727745,0.00021233223378658295
1772569016065390800,3.019390869140625,0.00019471300765872002,0.0014614863321185112,0.0003291117027401924
1772569016075463000,3.029462890625,0.00035077426582574844,-0.0019992913585156202,0.0015451107174158096
1772569016085534700,3.03953466796875,0.0006195241585373878,-0.0012268275022506714,-0.00009346380829811096
1772569016095606800,3.049606689453125,0.0020714793354272842,-0.0035983724519610405,0.0001209210604429245
1772569016105678800,3.059678955078125,0.0008105682209134102,0.0019487328827381134,0.0008915737271308899
1772569016115751000,3.0697509765625,-0.00006188312545418739,-0.0004744776524603367,-0.0017337705940008163
1772569016125822700,3.07982275390625,0.0028311307542026043,-0.00017932243645191193,0.0013650935143232346
1772569016135894800,3.089894775390625,0.000701134093105793,-0.004227327182888985,0.0009576296433806419
1772569016145966800,3.099966796875,0.0027571204118430614,-0.0031910541001707315,0.0009920988231897354
1772569016156038700,3.11003857421875,0.0019730855710804462,0.0006598769687116146,-0.00006570853292942047
1772569016166110700,3.12011083984375,0.0018570618703961372,0.0023392424918711185,0.0006382903084158897
1772569016176184000,3.13018408203125,-0.0005424465052783489,0.0025475011207163334,-0.0012163352221250534
1772569016186256000,3.140255859375,-0.0005545276217162609,-0.0007358542643487453,-0.00008015893399715424
1772569016196328000,3.150327880859375,-0.00120966462418437,0.0025345073081552982,-0.00030253268778324127
1772569016206399200,3.160399169921875,0.0005759242922067642,0.0002511614002287388,-0.0016505001112818718
1772569016216471300,3.17047119140625,0.0005106767639517784,0.0005478374660015106,-0.0000459449365735054
1772569016226543000,3.180543212890625,-0.0008180635049939156,-0.002896924503147602,0.0004033185541629791
1772569016236615200,3.190615234375,0.002291177399456501,0.0021550920791924,-0.0000896332785487175
1772569016246687200,3.200687255859375,-0.000977278221398592,-0.0013546519912779331,0.0025009773671627045
1772569016256759000,3.210759033203125,0.0005351309664547443,0.003212403040379286,0.0004029395058751106
1772569016266831000,3.2208310546875,-0.001915206667035818,0.0003841654397547245,-0.0005647474899888039
1772569016276903200,3.230903076171875,-0.0007644542492926121,-0.0014339745976030827,-0.0009554335847496986
1772569016286975200,3.240975341796875,-0.00010096840560436249,-0.00103029515594244,-0.000561228021979332
1772569016297047000,3.251047119140625,0.000630868598818779,-0.00042788824066519737,0.001561577431857586
1772569016307119000,3.261119140625,-0.0010628513991832733,0.0036330181173980236,0.00018674321472644806
1772569016317191200,3.271191162109375,-0.002469799481332302,0.0026258104480803013,0.0002096462994813919
1772569016327263200,3.28126318359375,-0.002642660867422819,0.00131151732057333,0.0014634104445576668
1772569016337335000,3.2913349609375,0.002094037365168333,-0.00022486038506031036,-0.00013874750584363937
1772569016347407000,3.301406982421875,-0.0005298466421663761,0.0006635277532041073,0.0007011266425251961
1772569016357479200,3.311479248046875,-0.0013746009208261967,0.0005918885581195354,0.00025717727839946747
1772569016367551200,3.32155126953125,0.0011637243442237377,0.0013456260785460472,-0.00026625487953424454
1772569016377623300,3.331623291015625,-0.0007068798877298832,-0.0008602701127529144,-0.0017877193167805672
1772569016387695400,3.3416953125,0.0012926473282277584,-0.0012187566608190536,0.0008723195642232895
1772569016397767400,3.351767333984375,-0.00048554548993706703,0.0007032463327050209,0.00009148009121417999
1772569016407839200,3.361839111328125,0.0009120628237724304,-0.001960843801498413,0.0013196012005209923
1772569016417911300,3.371911376953125,0.0004710434004664421,-0.0013898620381951332,-0.00006444379687309265
1772569016427983400,3.3819833984375,0.000609635841101408,-0.0011375034227967262,0.0024082623422145844
1772569016438055200,3.39205517578125,0.002011257689446211,0.0021701427176594734,-0.0022594593465328217
1772569016448127200,3.402127197265625,-0.0015597217716276646,0.0008819750510156155,0.0010378975421190262
1772569016458199300,3.41219921875,0.002314645331352949,-0.00009513832628726959,-0.00263779703527689
1772569016468271400,3.422271240234375,0.001149578019976616,0.0011800113134086132,0.0006429292261600494
1772569016478343200,3.43234326171875,0.0008848598226904869,0.0014718938618898392,0.0003148280084133148
1772569016488415200,3.442415283203125,0.0005183392204344273,-0.001464211381971836,0.0013978099450469017
1772569016498488000,3.452488037109375,-0.00028726691380143166,-0.0003819027915596962,-0.0022091753780841827
1772569016508560100,3.46256005859375,0.0008343933150172234,0.0021337121725082397,-0.0014592204242944717
1772569016518632200,3.472632080078125,0.00033851247280836105,-0.00010946812108159065,0.00014639925211668015
1772569016528704300,3.482704345703125,0.000024226494133472443,-0.002578211482614279,-0.0006687212735414505
1772569016538776000,3.492776123046875,-0.00007138075307011604,0.0004090564325451851,0.0009259795770049095
1772569016548848000,3.50284814453125,0.0015671737492084503,0.0019269934855401516,0.00007141008973121643
1772569016558920200,3.512920166015625,-0.0004070280119776726,-0.00025067292153835297,-0.00009397231042385101
1772569016568992300,3.5229921875,-0.0019079572521150112,0.0025730831548571587,0.0014629913493990898
1772569016579064000,3.53306396484375,-0.0008940920233726501,0.0019110217690467834,0.0006259595975279808
1772569016589136100,3.54313623046875,-0.0009790132753551006,-0.0024343798868358135,-0.0025947699323296547
1772569016599208200,3.553208251953125,0.0009571053087711334,0.003286889288574457,-0.0019092727452516556
1772569016609280000,3.563280029296875,-0.001898131798952818,0.0002303142100572586,0.0012225192040205002
1772569016619352000,3.57335205078125,0.00009604310616850853,-0.0008400101214647293,0.0013833744451403618
1772569016629424000,3.583424072265625,-0.0014584008604288101,-0.0022013685666024685,-0.0008816476911306381
1772569016639496400,3.593496337890625,0.0009477650746703148,-0.0007491465657949448,-0.0008054813370108604
1772569016649568300,3.603568359375,-0.00040442077443003654,-0.0010157027281820774,0.000717618502676487
1772569016659640300,3.613640380859375,0.00013513537123799324,0.0011598337441682816,0.0010505132377147675
1772569016669712400,3.62371240234375,0.001454077661037445,-0.00045413337647914886,-0.0015816064551472664
1772569016679784200,3.6337841796875,0.002017070073634386,0.001194097101688385,-0.0026529962196946144
1772569016689856300,3.643856201171875,0.001222413033246994,0.001478863414376974,0.001218247227370739
1772569016699928300,3.65392822265625,-0.0005523175932466984,0.0011901766993105412,-0.0008465014398097992
1772569016710000400,3.66400048828125,0.0004657185636460781,0.002261797897517681,0.0017819097265601158
1772569016720072200,3.674072265625,0.0011352370493113995,-0.00041068391874432564,-0.002397920936346054
1772569016730144300,3.684144287109375,0.00000439351424574852,0.0024453680962324142,0.0017710169777274132
1772569016740216300,3.69421630859375,-0.00206195330247283,-0.001314483117312193,0.0005467617884278297
1772569016750288100,3.7042880859375,0.002061165403574705,-0.0022539175115525723,0.001664026640355587
1772569016760360200,3.714360107421875,0.0004970906302332878,0.00251393998041749,0.0009942417964339256
1772569016770432300,3.724432373046875,0.002132709603756666,-0.0003540036268532276,0.0009200861677527428
1772569016780504300,3.73450439453125,-0.00043963780626654625,-0.00015772879123687744,0.0024873558431863785
1772569016790576000,3.744576171875,0.0003650384023785591,0.001950723584741354,-0.0013722758740186691
1772569016800648200,3.754648193359375,0.0016593346372246742,-0.00034971488639712334,0.00250155758112669
1772569016810720300,3.76472021484375,-0.001517544500529766,0.0005800840444862843,0.0015433235093951225
1772569016820792300,3.774792236328125,0.0022265934385359287,-0.0003187325783073902,-0.0010860152542591095
1772569016830864100,3.784864013671875,-0.002262909896671772,0.00035839853808283806,-0.0010845083743333817
1772569016840936200,3.794936279296875,-0.0003768592141568661,0.0010489560663700104,-0.0015484308823943138
1772569016851008300,3.80500830078125,0.0008964594453573227,0.0022127204574644566,-0.0006829183548688889
1772569016861080000,3.815080078125,0.002207267563790083,0.001792739611119032,0.00013706833124160767
1772569016871152000,3.825152099609375,-0.0006999908946454525,0.003359142690896988,0.0015373211354017258
1772569016881224200,3.83522412109375,0.00014263344928622246,0.004167412407696247,-0.0015253135934472084
1772569016891296300,3.845296142578125,-0.0013720551505684853,-0.002436290495097637,-0.00024673715233802795
1772569016901368000,3.8553681640625,0.00010679848492145538,0.0006588352844119072,0.0016816584393382072
1772569016911440100,3.865440185546875,0.0012356019578874111,-0.0014499607495963573,0.0024566305801272392
1772569016921513200,3.87551318359375,-0.00004910724237561226,-0.0018198736943304539,-0.0003652554005384445
1772569016931585300,3.885585205078125,0.0020644785836338997,0.0009283842518925667,0.00012739747762680054
1772569016941657300,3.8956572265625,-0.001849037129431963,0.0007137334905564785,-0.0010702265426516533
1772569016951729400,3.9057294921875,0.0004263604059815407,-0.0005444223061203957,0.0015422655269503593
1772569016961801200,3.91580126953125,-0.0011006961576640606,-0.0026640319265425205,0.0026746420189738274
1772569016971873300,3.925873291015625,-0.0010139569640159607,0.0009899195283651352,-0.0006636697798967361
1772569016981945300,3.9359453125,-0.00013511395081877708,0.0010969783179461956,-0.0002948222681879997
1772569016992017200,3.94601708984375,-0.0004365243948996067,-0.000414213165640831,-0.0006374474614858627
1772569017002089200,3.956089111328125,-0.0010032453574240208,-0.002265110146254301,0.00025950558483600616
1772569017012161300,3.966161376953125,-0.0003687622956931591,-0.0006348555907607079,-0.0025357985869050026
1772569017022233300,3.9762333984375,0.0021785511635243893,-0.0009746751748025417,-0.000738164409995079
1772569017032305200,3.98630517578125,0.00007170066237449646,0.0012946156784892082,0.00055733323097229
1772569017042377200,3.996377197265625,0.0008051353506743908,0.000556653831154108,0.0012657344341278076
1772569017052449300,4.00644921875,0.003309830091893673,0.00011100852862000465,-0.0013979431241750717
1772569017062521300,4.016521240234375,0.000669039785861969,-0.00026689423248171806,0.0012785336002707481
1772569017072593200,4.02659326171875,-0.0007438943721354008,0.00006891507655382156,0.0006277626380324364
1772569017082665200,4.036665283203125,-0.0012466986663639545,-0.0008077975362539291,-0.0003240508958697319
1772569017092737300,4.0467373046875,0.0025110039860010147,-0.0016777953132987022,0.0002821488305926323
1772569017102809000,4.05680908203125,-0.0009140875190496445,-0.0016703384462743998,0.0007889484986662865
1772569017112881200,4.066881103515625,-0.0015954035334289074,0.0001703137531876564,-0.0006262464448809624
1772569017122953200,4.076953125,-0.0020587933249771595,0.0005127964541316032,0.0013764509931206703
1772569017133025300,4.087025390625,0.0026529342867434025,0.0006849709898233414,-0.0009218519553542137
1772569017143097000,4.09709716796875,-0.00024431850761175156,-0.0021915093529969454,0.000864863395690918
1772569017153169200,4.107169189453125,0.00034815166145563126,-0.0011985227465629578,-0.00028794165700674057
1772569017163241200,4.1172412109375,0.0005857055075466633,0.00024544307962059975,-0.000711650587618351
1772569017173313000,4.12731298828125,-0.0008159899152815342,-0.0005806409753859043,-0.00010767020285129547
1772569017183385000,4.137385009765625,-0.00025938916951417923,-0.00320997997187078,-0.0011335192248225212
1772569017193457200,4.14745703125,-0.0012508477084338665,0.0012291353195905685,0.0007446501404047012
1772569017203529200,4.157529296875,-0.0007147532887756824,-0.0005514542572200298,-0.0015696370974183083
1772569017213604900,4.16760498046875,-0.001260584220290184,-0.0007825768552720547,0.00048757903277873993
1772569017223677000,4.177677001953125,0.0018491889350116253,0.003829218912869692,0.000023390166461467743
1772569017233749000,4.1877490234375,-0.0025506122037768364,0.0003838585689663887,-0.00015375856310129166
1772569017243820800,4.19782080078125,-0.00033432990312576294,-0.000037453602999448776,-0.00009144097566604614
1772569017253892900,4.207892822265625,0.0001852964051067829,0.0017219474539160728,0.00018469709903001785
1772569017263965000,4.21796484375,0.000733641441911459,-0.0020578771363943815,-0.0012712525203824043
1772569017274037000,4.228037109375,0.0015263226814568043,-0.00009835138916969299,-0.00046954769641160965
1772569017284108800,4.23810888671875,0.0003039315342903137,-0.0005566813051700592,0.0000889170914888382
1772569017294180900,4.248180908203125,-0.002857438288629055,-0.0026088792365044355,0.0001369621604681015
1772569017304253000,4.2582529296875,0.0006462163291871548,-0.0003656987100839615,-0.0007101893424987793
1772569017314324700,4.26832470703125,-0.001443385612219572,-0.002480878960341215,0.00006238743662834167
1772569017324396800,4.278396728515625,-0.0015544393099844456,-0.0007040179334580898,-0.0009144600480794907
1772569017334468900,4.28846875,-0.00157826766371727,-0.0012702327221632004,-0.0020968057215213776
1772569017344541000,4.298541015625,0.0009304303675889969,0.0011266120709478855,-0.0011401977390050888
1772569017354612700,4.30861279296875,-0.000804058276116848,0.001777011901140213,-0.0011600451543927193
1772569017364684800,4.318684814453125,-0.000011767726391553879,-0.0018717851489782333,0.0008312007412314415
1772569017374756900,4.3287568359375,0.001211562193930149,-0.0009461278095841408,0.0016658054664731026
1772569017384829000,4.338828857421875,-0.0007541170343756676,0.00012020207941532135,0.0014298493042588234
1772569017394900700,4.348900634765625,0.0012182877399027348,-0.0015263413079082966,0.0007433118298649788
1772569017404972800,4.358972900390625,0.0005104197189211845,-0.002007574774324894,0.0013206852599978447
1772569017415044900,4.369044921875,0.0004985020495951176,0.000535835511982441,0.00027834344655275345
1772569017425116700,4.37911669921875,-0.00013612909242510796,-0.00024180766195058823,0.0021880967542529106
1772569017435188700,4.389188720703125,0.0006178081966936588,-0.0008645006455481052,0.00016549695283174515
1772569017445260800,4.3992607421875,0.0012122257612645626,0.0006124884821474552,0.001770583912730217
1772569017455332900,4.409332763671875,0.0006247460842132568,-0.0004498986527323723,-0.0014139236882328987
1772569017465404700,4.41940478515625,0.0005706837400794029,-0.0005857199430465698,-0.0004381416365504265
1772569017475476700,4.429476806640625,-0.0022758813574910164,0.001637948676943779,0.002697962336242199
1772569017485548800,4.439548828125,-0.002820497378706932,-0.0010387944057583809,-0.00183846615254879
1772569017495620600,4.44962060546875,-0.0026545068249106407,-0.0014370069839060307,-0.00006644707173109055
1772569017505692700,4.459692626953125,0.0006648572161793709,-0.0011043781414628029,0.0004789680242538452
1772569017515765000,4.469764892578125,0.0011205030605196953,-0.0011024735867977142,-0.0002833716571331024
1772569017525837000,4.479837158203125,0.00030850525945425034,0.002827020827680826,0.0009483406320214272
1772569017535908900,4.489908935546875,-0.0018618116155266762,-0.00019039632752537727,0.0006357710808515549
1772569017545981000,4.49998095703125,0.0005858996883034706,0.0004325169138610363,-0.0007690461352467537
1772569017556053000,4.510052978515625,0.000789404846727848,-0.0010976893827319145,-0.001334257423877716
1772569017566124800,4.520124755859375,0.00023120641708374023,-0.0007408256642520428,-0.002150249667465687
1772569017576196900,4.53019677734375,-0.0006296299397945404,-0.0016536887269467115,-0.000935036689043045
1772569017586269000,4.54026904296875,0.000585037749260664,-0.0010334388352930546,0.0002841586247086525
1772569017596341000,4.550341064453125,-0.00010941224172711372,0.0025649666786193848,-0.0008364683017134666
1772569017606414800,4.560414794921875,-0.0012553702108561993,-0.0003163074143230915,0.000858101062476635
1772569017616487000,4.57048681640625,0.0018639778718352318,0.0023292270489037037,0.001374661922454834
1772569017626558700,4.580558837890625,0.0018978002481162548,-0.0004886630922555923,-0.00000565405935049057
1772569017636630800,4.590630859375,0.0014465181156992912,-0.001219240017235279,-0.000294562429189682
1772569017646702800,4.600702880859375,0.0007666130550205708,-0.0024299127981066704,-0.0000074729323387146
1772569017656774700,4.610774658203125,-0.0007904847152531147,0.001722895074635744,-0.0008868379518389702
1772569017666846700,4.6208466796875,0.0012926398776471615,-0.0012430674396455288,-0.00040906667709350586
1772569017676918800,4.630918701171875,-0.0022514360025525093,0.0000521782785654068,-0.002421913668513298
1772569017686990800,4.640990966796875,-0.00014833780005574226,-0.0015539741143584251,-0.001548662781715393
1772569017697062700,4.651062744140625,0.0008559590205550194,-0.0004976470954716206,-0.0026390906423330307
1772569017707134700,4.661134765625,-0.00010996963828802109,-0.0012494572438299656,0.0007476508617401123
1772569017717206800,4.671206787109375,0.00008543068543076515,-0.0012215361930429935,0.0006026476621627808
1772569017727278800,4.68127880859375,-0.001786505337804556,-0.00046626385301351547,-0.0023217694833874702
1772569017737351000,4.691350830078125,-0.00043135927990078926,0.0019718362018465996,-0.00013240613043308258
1772569017747423000,4.701423095703125,0.0025364672765135765,0.0005502407439053059,-0.0014213761314749718
1772569017757495800,4.711495849609375,-0.0002963608130812645,-0.001416519284248352,0.0008551133796572685
1772569017767566800,4.72156689453125,0.0028600175864994526,-0.0013174493797123432,0.0009312797337770462
1772569017777639000,4.731638916015625,-0.0017523071728646755,0.0010937629267573357,0.0004617897793650627
1772569017787711700,4.741711669921875,-0.00044922251254320145,0.0012990925461053848,0.0002458076924085617
1772569017797783800,4.75178369140625,-0.000609375536441803,-0.0001240205019712448,-0.00015697628259658813
1772569017807854800,4.761854736328125,-0.00029432354494929314,0.000020056497305631638,0.0030896831303834915
1772569017817927000,4.771927001953125,-0.002635179553180933,-0.00024848291650414467,-0.00008937902748584747
1772569017827999700,4.781999755859375,0.0022386712953448296,0.0024748658761382103,-0.0009386613965034485
1772569017838071800,4.79207177734375,-0.0018761465325951576,-0.0009817122481763363,-0.00008238386362791061
1772569017848144000,4.802143798828125,-0.0001552118919789791,-0.001554291695356369,-0.00034763477742671967
1772569017858216000,4.8122158203125,0.000028990209102630615,0.00033239927142858505,-0.0007347073405981064
1772569017868287000,4.822286865234375,-0.0005225506611168385,0.000043179839849472046,-0.0005232524126768112
1772569017878359800,4.83235986328125,0.0002606990747153759,-0.0013549607247114182,0.00151769258081913
1772569017888431900,4.842431884765625,-0.00002186233177781105,-0.0010905088856816292,0.00003724079579114914
1772569017898503700,4.852503662109375,-0.00017375219613313675,0.00028246548026800156,-0.0015019401907920837
1772569017908574700,4.86257470703125,-0.0016400888562202454,-0.00005149468779563904,0.001276535913348198
1772569017918647800,4.872647705078125,0.0011060386896133423,0.0007157283835113049,0.0009145615622401237
1772569017928720000,4.882719970703125,-0.0009121047332882881,-0.0021325224079191685,-0.000589858740568161
1772569017938791700,4.892791748046875,0.00007628696039319038,-0.0022699402179569006,-0.00137249194085598
1772569017948862700,4.90286279296875,0.00036524003371596336,0.0015333201736211777,-0.0012047132477164268
1772569017958934800,4.912934814453125,-0.003040014300495386,-0.0029160212725400925,0.0010866476222872734
1772569017969007600,4.923007568359375,-0.0014517051167786121,-0.0012896289117634296,-0.00040072761476039886
1772569017979079700,4.93307958984375,-0.0020025698468089104,0.002349359914660454,-0.002034999430179596
1772569017989150700,4.943150634765625,-0.00040999939665198326,0.001225239597260952,0.0002992609515786171
1772569017999222800,4.953222900390625,-0.0017054234631359577,0.0011365320533514023,0.0004831058904528618
1772569018009294800,4.963294921875,-0.0001842253841459751,0.0023474711924791336,-0.00012089870870113373
1772569018019366700,4.97336669921875,0.0017189490608870983,0.0014835270121693611,0.0008992040529847145
1772569018029438700,4.983438720703125,0.0019650249741971493,-0.0001814812421798706,0.0013905568048357964
1772569018039511800,4.99351171875,0.0019409735687077045,-0.0007002209313213825,-0.0008223690092563629
1772569018049582600,5.00358251953125,-0.0014953031204640865,-0.00043177418410778046,-0.0009254328906536102
1772569018059655000,5.013655029296875,-0.001682688482105732,-0.0003835652023553848,-0.0003775572404265404
1772569018069727000,5.02372705078125,-0.0003662882372736931,-0.0023196833208203316,0.00009834952652454376
1772569018079799000,5.033799072265625,-0.0004226025193929672,0.0006394246593117714,-0.0005689235404133797
1772569018089870800,5.043870849609375,0.00003652647137641907,0.00040586525574326515,-0.0011316491290926933
1772569018099943000,5.05394287109375,-0.001771923154592514,0.0003232806921005249,-0.00046120863407850266
1772569018110015000,5.064014892578125,-0.001963936723768711,0.0011129076592624187,-0.00031979475170373917
1772569018120086800,5.074086669921875,0.0008925679139792919,0.001983943860977888,0.000027827918529510498
1772569018130158800,5.084158935546875,-0.0006179772317409515,-0.00009065866470336914,-0.0007839035242795944
1772569018140231000,5.09423095703125,-0.0003635692410171032,0.00021399836987257004,-0.001289336010813713
1772569018150303000,5.104302978515625,-0.000969971064478159,-0.00016869790852069855,-0.0010038455948233604
1772569018160374800,5.114374755859375,-0.0009169257245957851,0.00020854873582720757,-0.0003284784033894539
1772569018170446800,5.12444677734375,0.0002138521522283554,-0.001524370163679123,-0.0009932033717632294
1772569018180519000,5.134518798828125,0.0021549295634031296,-0.0001638331450521946,0.0003885049372911453
1772569018190591000,5.144591064453125,0.0002206754870712757,-0.00004106154665350914,-0.0015595974400639534
1772569018200662800,5.154662841796875,-0.002997186966240406,0.0007154019549489021,-0.00034686364233493805
1772569018210731300,5.164731201171875,-0.001451754942536354,-0.00011869985610246658,-0.0004571191966533661
1772569018220803300,5.17480322265625,-0.0009018136188387871,-0.0032196538522839546,-0.00003414507955312729
1772569018230875100,5.184875244140625,-0.002678674180060625,0.0011974652297794819,0.00016452744603157043
1772569018240947200,5.194947265625,-0.001617599744349718,0.0011213179677724838,0.00006285775452852249
1772569018251019300,5.205019287109375,-0.00022716308012604713,-0.0007370361126959324,0.0016224049031734467
1772569018261091300,5.21509130859375,0.0017692591063678265,0.0022471146658062935,-0.0008752802386879921
1772569018271163100,5.2251630859375,-0.000754618551582098,0.0016838558949530125,0.00021075643599033356
1772569018281235200,5.235235107421875,0.000937832985073328,-0.00028821686282753944,0.001596720889210701
1772569018291307300,5.245307373046875,0.001733851619064808,0.0009940951131284237,-0.0016938801854848862
1772569018301379300,5.25537939453125,0.0010181209072470665,0.0015361569821834564,0.0019003041088581085
1772569018311451100,5.265451171875,0.0003866851329803467,-0.00008038198575377464,0.0030356086790561676
1772569018321523200,5.275523193359375,0.0010435567237436771,0.000974469818174839,0.0005906485021114349
1772569018331595300,5.28559521484375,0.001912546344101429,0.0024083154276013374,0.0009547024965286255
1772569018341667000,5.2956669921875,0.00006108358502388,-0.0014298236928880215,0.0008507231250405312
1772569018351739100,5.3057392578125,-0.0013248254545032978,0.003045885358005762,0.002696826122701168
1772569018361811200,5.315811279296875,-0.0003482862375676632,-0.0014589051716029644,0.001363149844110012
1772569018371883300,5.32588330078125,-0.0010665412992238998,0.0009443312883377075,0.0010235970839858055
1772569018381955000,5.335955078125,-0.0006809444166719913,-0.0002642488107085228,0.0003575515002012253
1772569018392027100,5.346027099609375,-0.0012335502542555332,-0.00036757951602339745,0.00022918730974197388
1772569018402099200,5.35609912109375,0.0007730452343821526,-0.0022887650411576033,0.0008693877607584
1772569018412171000,5.3661708984375,-0.0007880995981395245,0.0013198181986808777,0.00015965569764375687
1772569018422243000,5.3762431640625,-0.001648056786507368,-0.0005478765815496445,0.002578102983534336
1772569018432315100,5.386315185546875,-0.00010875007137656212,0.002474012318998575,-0.0024669887498021126
1772569018442387200,5.39638720703125,0.0010461043566465378,-0.0011994498781859875,-0.00252346508204937
1772569018452459000,5.406458984375,-0.0002471264451742172,0.00031775329262018204,-0.001232098788022995
1772569018462531000,5.416531005859375,0.0009809634648263454,-0.0005765566602349281,0.001060820184648037
1772569018472603400,5.426603271484375,-0.001211616676300764,-0.00041783228516578674,-0.002465471625328064
1772569018482675200,5.43667529296875,0.0002766367979347706,-0.002193256514146924,-0.001997055485844612
1772569018492747300,5.446747314453125,-0.0018341843970119953,0.001121313776820898,-4.833564162254333e-7
1772569018502819300,5.4568193359375,0.0002553863450884819,0.0013410598039627075,-0.00024600792676210403
1772569018512891400,5.466891357421875,-0.0004522157832980156,-0.0006033140234649181,0.002655239775776863
1772569018522963200,5.476963134765625,-0.0014114808291196823,-0.0013540391810238361,0.0003917282447218895
1772569018533035300,5.48703515625,-0.0024892622604966164,-0.00022192951291799545,-0.0014618318527936935
1772569018543107300,5.497107421875,-0.0013442113995552063,-0.001082706730812788,-0.002408917061984539
1772569018553179400,5.507179443359375,0.001474211923778057,-0.0010246499441564083,0.0007272213697433472
1772569018563251200,5.517251220703125,-0.0019287108443677425,0.0009096586145460606,0.00004908908158540726
1772569018573323300,5.5273232421875,0.002564042340964079,0.001044947188347578,0.0009660152718424797
1772569018583395300,5.537395263671875,-0.000543555710464716,-0.00013007363304495811,-0.0007668975740671158
1772569018593467100,5.547467041015625,0.0001717689447104931,0.00113652553409338,-0.0025219200178980827
1772569018603539200,5.557539306640625,-0.0020928001031279564,0.001191277988255024,0.0018295645713806152
1772569018613611300,5.567611328125,-0.0008645500056445599,-0.0013432521373033524,-0.001036795787513256
1772569018623683300,5.577683349609375,0.0008524027653038502,-0.001602407544851303,-0.00023567769676446915
1772569018633755100,5.587755126953125,0.0005722381174564362,0.0017728828825056553,-0.00023674312978982925
1772569018643827200,5.5978271484375,0.00039004674181342125,0.0001255478709936142,0.00017738621681928635
1772569018653899300,5.607899169921875,-0.001142868772149086,-0.0031525371596217155,0.002611515112221241
1772569018663971000,5.61797119140625,-0.00022734375670552254,-0.0005910759791731834,0.0018769223242998123
1772569018674043100,5.628043212890625,-0.0021821041591465473,-0.0006728349253535271,-0.0018911836668848991
1772569018684115200,5.638115234375,0.000716574490070343,-0.0011557159014046192,-0.00010855589061975479
1772569018694187300,5.648187255859375,0.001288621686398983,0.00013272138312458992,0.002579372376203537
1772569018704259000,5.658259033203125,-0.0011499309912323952,-0.0005775853060185909,0.0006590886041522026
1772569018714331100,5.6683310546875,0.0023457338102161884,-0.0006241905502974987,0.0006849216297268867
1772569018724403200,5.6784033203125,0.0003459397703409195,0.0017554829828441143,-0.0016732895746827126
1772569018734475000,5.68847509765625,0.0005012019537389278,0.0030322023667395115,0.001478828489780426
1772569018744547000,5.698547119140625,0.0007839188911020756,-0.0011306819505989552,-0.0004012295976281166
1772569018754619100,5.708619140625,-0.0005178339779376984,-0.0027445575688034296,0.0006736218929290771
1772569018764691200,5.718691162109375,0.0010265070013701916,0.0036738859489560127,0.0011507058516144753
1772569018774763000,5.728762939453125,-0.0006928299553692341,-0.0026050491724163294,0.00005721207708120346
1772569018784835000,5.7388349609375,0.00017587561160326004,0.0003517698496580124,0.0007802508771419525
1772569018794907100,5.7489072265625,0.0005202223546802998,-0.0010256171226501465,-0.00013800710439682007
1772569018804979200,5.758979248046875,0.000998765230178833,-0.0015148045495152473,-0.0014331424608826637
1772569018815051300,5.76905126953125,-0.0005357484333217144,0.0003568651154637337,0.0009357398375868797
1772569018825123300,5.779123291015625,-0.00008866144344210625,-0.0008747880347073078,0.00027318112552165985
1772569018835195400,5.7891953125,-0.000010896939784288406,-0.0023701528552919626,-0.0012735826894640923
1772569018845266200,5.79926611328125,0.000895064789801836,-0.0009458661079406738,0.0025061145424842834
1772569018855338000,5.809337890625,-0.0019204290583729744,-0.0004651653580367565,-0.001779177226126194
1772569018865410000,5.81941015625,-0.0019666231237351894,-0.00018314970657229424,0.000323297455906868
1772569018875482400,5.829482421875,-0.0013487697578966618,-0.00017489399760961533,0.003267422318458557
1772569018885554400,5.839554443359375,0.0014636996202170849,-0.00035023177042603493,0.001643420197069645
1772569018895626200,5.849626220703125,-0.0003355322405695915,0.003407754935324192,-0.00014941953122615814
1772569018905698300,5.8596982421875,0.0013794577680528164,-0.0011414014734327793,-0.00037437863647937775
1772569018915770400,5.869770263671875,-0.0012014112435281277,-0.0010489895939826965,0.0015518851578235626
1772569018925842200,5.87984228515625,-0.0011160215362906456,-0.001291458960622549,-0.002177906222641468
1772569018935914200,5.889914306640625,-0.0000022873282432556152,0.0009288182482123375,-0.001721440814435482
1772569018945986300,5.899986328125,-0.0012510037049651146,0.0005076439119875431,0.0010127043351531029
1772569018956058400,5.910058349609375,0.0016499771736562252,-0.002274027792736888,-0.00014843419194221497
1772569018966130200,5.920130126953125,0.0006659193895757198,0.003298219759017229,-0.0011934125795960426
1772569018976202200,5.9302021484375,0.0010803071781992912,-0.0005830707959830761,-0.0014203144237399101
1772569018986274300,5.9402744140625,-0.0027390229515731335,-0.0014681336469948292,-0.0009031388908624649
1772569018996346000,5.95034619140625,-0.0007666861638426781,-0.001290501095354557,-0.000879703089594841
1772569019006418200,5.960418212890625,-0.0003903922624886036,-0.002051949966698885,-0.0017885984852910042
1772569019016490200,5.970490234375,-0.001638083253055811,-0.001227168831974268,0.0003097057342529297
1772569019026562300,5.980562255859375,0.0026540998369455338,-0.0011190217919647694,-0.0001944713294506073
1772569019036634000,5.990634033203125,-0.0006314418278634548,-0.0013136984780430794,-0.0015625376254320145
1772569019046706200,6.0007060546875,0.0001362948678433895,-0.00026857154443860054,-0.0002733282744884491
1772569019056778200,6.0107783203125,-0.00157611770555377,0.0015738033689558506,0.00036023836582899094
1772569019066850300,6.020850341796875,0.0008063926361501217,0.0012348555028438568,0.0008662845939397812
1772569019076922000,6.030922119140625,0.0002575153484940529,0.002041527070105076,-0.0012682387605309486
1772569019086994200,6.040994140625,0.0008145342580974102,0.002571437042206526,-0.001174439676105976
1772569019097066200,6.051066162109375,0.0015415772795677185,0.002057713456451893,0.00028949975967407227
1772569019107138000,6.061137939453125,-0.0017885388806462288,0.00039408914744853973,-0.0008384743705391884
1772569019117210000,6.071210205078125,-0.0007784017361700535,-0.00015319045633077621,0.0006054909899830818
1772569019127282200,6.0812822265625,-0.0008431840687990189,0.0005287402309477329,-0.00122771505266428
1772569019137354200,6.091354248046875,0.00007906835526227951,-0.001393263228237629,0.0008082715794444084
1772569019147426000,6.101426025390625,0.0014129523187875748,0.0011357995681464672,-0.0024094926193356514
1772569019157498000,6.111498046875,0.0002086712047457695,-0.0007542455568909645,0.0016057556495070457
1772569019167570200,6.121570068359375,-0.002296396065503359,0.0005408306606113911,-0.00027619674801826477
1772569019177642000,6.13164208984375,0.0007726303301751614,0.0022375304251909256,-0.0013846047222614288
1772569019187714000,6.141714111328125,-0.0004071025177836418,0.0003229063004255295,-0.00004328228533267975
1772569019197786000,6.1517861328125,-0.00047368137165904045,0.00015858933329582214,0.001141025684773922
1772569019207859200,6.161859130859375,0.0009695324115455151,0.0006348844617605209,0.0003286106511950493
1772569019217931300,6.17193115234375,0.0012353160418570042,-0.0026157700922340155,0.00018746312707662582
1772569019228002300,6.182002197265625,0.0054505448788404465,-0.00001389533281326294,-0.0007131816819310188
1772569019238074400,6.192074462890625,-0.0012520989403128624,-0.0001132311299443245,-0.0034711509943008423
1772569019248146200,6.202146240234375,-0.0007078112103044987,-0.0017204438336193562,-0.0014067208394408226
1772569019258218200,6.21221826171875,-0.0020465818233788013,-0.00013533048331737518,-0.0008197594434022903
1772569019268290300,6.222290283203125,0.001257514115422964,0.0007268590852618217,0.0006299419328570366
1772569019278362400,6.2323623046875,0.002924386877566576,-0.00007368717342615128,0.0015489989891648293
1772569019288434200,6.24243408203125,0.0010146591812372208,0.001466222107410431,0.00365278497338295
1772569019298506200,6.25250634765625,-0.002003235276788473,0.0013250745832920074,0.0006641848012804985
1772569019308578300,6.262578369140625,0.0009541967883706093,0.0000017601996660232544,-0.0002324562519788742
1772569019318650400,6.272650390625,-0.0015465114265680313,0.0003668796271085739,-0.001337401568889618
1772569019328722200,6.28272216796875,-0.0018189819529652596,0.001425107941031456,0.00118232611566782
1772569019338794200,6.292794189453125,0.0008234065026044846,-0.0023696301504969597,-0.0010989373549818993
1772569019348866300,6.3028662109375,-0.001837609801441431,0.001883381512016058,-0.0005311993882060051
1772569019358938000,6.312938232421875,0.0009885365143418312,0.001029305625706911,0.00011168792843818665
1772569019369010400,6.323010498046875,-0.0006853374652564526,-0.0024575330317020416,0.0008891643956303596
1772569019379082500,6.33308251953125,-0.00007813656702637672,0.001099384855479002,0.0003325631842017174
1772569019389154600,6.343154541015625,0.0006193090230226517,-0.0006895624101161957,0.0018946332857012749
1772569019399226400,6.353226318359375,0.0009673843160271645,0.0012987535446882248,0.0005952771753072739
1772569019409298400,6.36329833984375,0.0002793138846755028,-0.00038192514330148697,0.0010917112231254578
1772569019419370500,6.37337060546875,0.00042392313480377197,0.00039598438888788223,0.002029942348599434
1772569019429442300,6.3834423828125,-0.0008668042719364166,0.000413382425904274,0.0026890644803643227
1772569019439514400,6.393514404296875,0.0007638493552803993,0.00016677379608154297,0.001190769486129284
1772569019449586400,6.40358642578125,0.0007367478683590889,-0.0005068201571702957,0.0015526022762060165
1772569019459658500,6.413658447265625,-0.001495247706770897,0.001432493794709444,-0.001139853149652481
1772569019469730300,6.423730224609375,-0.0005258852615952492,-0.0003070887178182602,0.0013841772451996803
1772569019479802400,6.43380224609375,-0.000016422942280769348,-0.0010650241747498512,0.0019671423360705376
1772569019489874400,6.44387451171875,0.002047098707407713,-0.0006661755032837391,-0.00010715331882238388
1772569019499946200,6.4539462890625,-0.0016419123858213425,0.0017338651232421398,0.002510734833776951
1772569019510018300,6.464018310546875,0.0003867354243993759,-0.0003414573147892952,0.0012066634371876717
1772569019520089300,6.47408935546875,0.0021087354980409145,0.0009863944724202156,-0.0000881655141711235
1772569019530161400,6.484161376953125,-0.000679459422826767,-0.001614636741578579,0.000029962509870529175
1772569019540233500,6.4942333984375,-0.0003710654564201832,-0.0014726901426911354,0.0002603260800242424
1772569019550305300,6.50430517578125,-0.0007136068306863308,0.0014336388558149338,0.001176958903670311
1772569019560377300,6.51437744140625,0.0010840268805623055,0.00022269971668720245,0.00012128148227930069
1772569019570449400,6.524449462890625,0.0023181303404271603,0.0001804581843316555,-0.0011426014825701714
1772569019580521500,6.534521484375,-0.001089917030185461,-0.0000669495202600956,0.00012959074229002
1772569019590593300,6.54459326171875,-0.0003571729175746441,-0.0007169432938098907,-0.0003204820677638054
1772569019600665300,6.554665283203125,0.00097653828561306,-0.0018256171606481075,-0.0035338522866368294
1772569019610737400,6.5647373046875,-0.0008363006636500359,0.002267735544592142,0.0015126056969165802
1772569019620809200,6.574809326171875,-0.001098888460546732,-0.0025904031936079264,0.00033202581107616425
1772569019630881300,6.58488134765625,-0.0009494121186435223,-0.0026888204738497734,-0.0025405678898096085
1772569019640953300,6.594953369140625,-0.0000018593855202198029,-0.0008376571349799633,0.001108761876821518
1772569019651025400,6.605025390625,0.002089189365506172,0.002551121637225151,-0.0008223634213209152
1772569019661097200,6.61509716796875,0.00017171353101730347,-0.002446033526211977,0.0014575691893696785
1772569019671169300,6.625169189453125,-0.0003543947823345661,-0.0012666704133152962,-0.001098891720175743
1772569019681241300,6.635241455078125,0.000016050878912210464,0.00015412596985697746,-0.0000887550413608551
1772569019691313200,6.645313232421875,-0.001808080356568098,-0.0035413061268627644,0.0002300972118973732
1772569019701385200,6.65538525390625,-0.0006410833448171616,-0.001291734166443348,-0.00006285030394792557
1772569019711457300,6.665457275390625,0.00009071966633200645,0.0006343219429254532,0.000580713152885437
1772569019721529300,6.675529296875,-0.0002853185869753361,0.0029062647372484207,-0.00012688897550106049
1772569019731601200,6.68560107421875,-0.0018100589513778687,-0.00003970041871070862,-0.0019956938922405243
1772569019741673200,6.695673095703125,0.0008459119126200676,0.0009704362601041794,0.0004008850082755089
1772569019751745300,6.705745361328125,-0.000046444591134786606,-0.0009029651992022991,0.0011806059628725052
1772569019761817300,6.7158173828125,0.001855318434536457,0.0007351450622081757,-0.0004135621711611748
1772569019771888400,6.725888427734375,0.002162532415241003,0.0012470842339098454,-0.000776992179453373
1772569019781960200,6.735960205078125,0.00022668065503239632,-0.002273082034662366,-0.0035283034667372704
1772569019792032300,6.7460322265625,0.000770288985222578,0.0004277410916984081,0.0021149516105651855
1772569019802104300,6.756104248046875,-0.00011521205306053162,0.0002911207266151905,0.0006717843934893608
1772569019812176100,6.766176025390625,0.0010461327619850636,-0.0021337922662496567,-0.00011632684618234634
1772569019822248200,6.776248291015625,-0.0000031525269150733948,-0.0013633398339152336,-0.0007245931774377823
1772569019832320500,6.786320556640625,0.0013329754583537579,0.0015310915187001228,-0.0014956137165427208
1772569019842392300,6.796392333984375,0.0003976733423769474,0.00023093633353710175,-0.00058774184435606
1772569019852464400,6.80646435546875,0.000242515467107296,-0.0027200786862522364,-0.00037633534520864487
1772569019862536400,6.816536376953125,-0.00043419376015663147,-0.001028438564389944,0.0024913568049669266
1772569019872608500,6.8266083984375,0.0005779187195003033,0.0014470904134213924,-0.000328931026160717
1772569019882680300,6.836680419921875,0.00041466718539595604,0.001601021271198988,0.002366187982261181
1772569019892752400,6.84675244140625,0.002277439460158348,0.0018089436925947666,0.0024389857426285744
1772569019902824400,6.856824462890625,-0.0024973414838314056,0.0014001480303704739,0.0011255145072937012
1772569019912896500,6.866896484375,0.0005939849652349949,0.000516925472766161,-0.0009508188813924789
1772569019922968300,6.87696826171875,-0.0019714380614459515,-0.0023310589604079723,0.0015642698854207993
1772569019933040400,6.887040283203125,-0.0008324254304170609,-0.0007286551408469677,0.0019194912165403366
1772569019943112400,6.897112548828125,-0.0016300426796078682,0.002952099312096834,-0.0003540497273206711
1772569019953184300,6.907184326171875,-0.0018290821462869644,0.0004386906512081623,-0.000038214027881622314
1772569019963256300,6.91725634765625,0.0012985342182219028,0.0010645333677530289,-0.003044656477868557
1772569019973328400,6.927328369140625,0.0011361283250153065,-0.0025307040195912123,0.000478881411254406
1772569019983399400,6.9373994140625,-0.0006394009105861187,0.0009130295366048813,0.002411537803709507
1772569019993471500,6.947471435546875,0.000356932170689106,0.0012288540601730347,0.0018070461228489876
1772569020003543300,6.957543212890625,0.0010080751962959766,-0.0011855675838887691,0.001184399239718914
1772569020013615400,6.967615478515625,-0.0007688500918447971,0.0013745352625846863,-0.0007007895037531853
1772569020023687400,6.9776875,0.00013316236436367035,-0.00195814436301589,-0.001360987313091755
1772569020033759200,6.98775927734375,0.0004986440762877464,0.0009013288654386997,-0.0015793247148394585
1772569020043831300,6.997831298828125,0.00008931616321206093,-0.0015290719456970692,0.0010444214567542076
1772569020053903400,7.0079033203125,0.002429270651191473,-0.0005626706406474113,-0.0012000380083918571
1772569020063975400,7.017975341796875,-0.0007276404649019241,0.0005760970525443554,0.001375238411128521
1772569020074047200,7.028047119140625,0.0014141304418444633,-0.0003147618845105171,0.0018341345712542534
1772569020084119300,7.038119384765625,-0.0007289154455065727,-0.00019651791080832481,0.0007033562287688255
1772569020094191400,7.04819140625,0.000042959582060575485,-0.0011242744512856007,0.000512891449034214
1772569020104263400,7.058263427734375,-0.0003826138563454151,0.0035583614371716976,-0.0014277547597885132
1772569020114335200,7.068335205078125,0.0012513529509305954,-0.0014871959574520588,0.002423045225441456
1772569020124407300,7.0784072265625,-0.00033455947414040565,-0.0012541692703962326,-0.0012742215767502785
1772569020134479400,7.088479248046875,0.002272295765578747,-0.002037595259025693,-0.0025949953123927116
1772569020144551200,7.09855126953125,0.0007476359605789185,0.00243997760117054,-0.000443960539996624
1772569020154623200,7.108623291015625,-0.0006261668168008327,-0.00034680310636758804,-0.00014021806418895721
1772569020164695300,7.1186953125,0.0006055454723536968,0.0006931615062057972,-0.0002869581803679466
1772569020174767400,7.128767333984375,-0.00162843381986022,-0.0001826249063014984,-0.0019996296614408493
1772569020184838400,7.13883837890625,-0.0005434621125459671,0.0016922401264309883,0.00013116560876369476
1772569020194910200,7.14891015625,-0.0010748542845249176,-0.00007909024134278297,-0.000988241285085678
1772569020204982300,7.158982177734375,-0.0018152138218283653,0.0006090705282986164,-0.00010194070637226105
1772569020215053000,7.169052978515625,0.00024062441661953926,0.00037756050005555153,0.001355741173028946
1772569020225125000,7.179125,-0.00034899963065981865,-0.00285818031989038,0.0010822350159287453
1772569020235197200,7.189197265625,-0.0005001393146812916,0.001038354355841875,-0.001196867786347866
1772569020245269000,7.19926904296875,0.00009134877473115921,0.002789116930216551,0.0008143512532114983
1772569020255341000,7.209341064453125,0.0019995886832475662,-0.0010052183642983437,0.0005994802340865135
1772569020265413000,7.2194130859375,0.0016275453381240368,-0.0013293246738612652,0.0007030768319964409
1772569020275485000,7.22948486328125,0.0007118373177945614,-0.0005350951105356216,-0.00333249568939209
1772569020285557000,7.239556884765625,0.00032674428075551987,-0.00040806224569678307,0.0005799541249871254
1772569020295629000,7.249629150390625,0.0001734476536512375,0.0011197659187018871,-0.0003397604450583458
1772569020305701000,7.259701171875,0.00009701494127511978,-0.0018802850972861052,0.0014767814427614212
1772569020315773000,7.26977294921875,0.0010976679623126984,-0.0010893158614635468,0.0006728107109665871
1772569020325845000,7.279844970703125,0.0017844969406723976,0.00005158223211765289,0.0009660245850682259
1772569020335917000,7.2899169921875,0.0006089257076382637,-0.00006452621892094612,-0.0005143312737345695
1772569020345988900,7.29998876953125,-0.000019846484065055847,0.000651863869279623,0.00034586992114782333
1772569020356061000,7.31006103515625,-0.0009310087189078331,0.0015155929140746593,0.00018493272364139557
1772569020366132000,7.320132080078125,0.0011497195810079575,0.0005499306134879589,0.0018044011667370796
1772569020376204000,7.3302041015625,-0.00041689304634928703,0.00100381625816226,-0.0014501893892884254
1772569020386276000,7.340276123046875,-0.0017689801752567291,0.0013356460258364677,-0.001019023358821869
1772569020396348000,7.350347900390625,0.0016959430649876595,0.0003957538865506649,-0.0005563180893659592
1772569020406420000,7.360419921875,0.0007201610133051872,0.001184315886348486,-0.0007970677688717842
1772569020416492000,7.370491943359375,-0.0017106542363762856,-0.002270021243020892,0.00008675362914800644
1772569020426564000,7.380564208984375,-0.000589463859796524,-0.000015389174222946167,0.0009240517392754555
1772569020436636000,7.390635986328125,0.0005048168823122978,0.0009377477690577507,-0.000006822869181632996
1772569020446708000,7.4007080078125,0.0005602105520665646,0.00016649626195430756,-0.0014984598383307457
1772569020456780300,7.4107802734375,-0.0004227999597787857,-0.00024362048134207726,0.0007067788392305374
1772569020466852000,7.42085205078125,-0.0027815615758299828,0.0007060626521706581,-0.0002639433369040489
1772569020476924200,7.430924072265625,-0.001416673418134451,0.0010841055773198605,-0.0009072823449969292
1772569020486996200,7.440996337890625,0.0012510153464972973,-0.0013465615920722485,-0.0009006252512335777
1772569020497068300,7.451068359375,0.0007232376374304295,-0.0005184621550142765,-0.00021483376622200012
1772569020507140000,7.46114013671875,0.00040765339508652687,0.000365440733730793,0.00243341363966465
1772569020517212200,7.471212158203125,-0.0006596059538424015,0.00014439132064580917,-0.0005931481719017029
1772569020527284200,7.4812841796875,0.0007643862627446651,0.0002575754188001156,-0.0012091370299458504
1772569020537356000,7.49135595703125,0.0017639375291764736,0.00017406605184078217,0.00011074822396039963
1772569020547427000,7.501427001953125,0.0033418601378798485,-0.0027420956175774336,-0.0005651619285345078
1772569020557499100,7.5114990234375,0.0012525329366326332,-0.0014593261294066906,0.0013203667476773262
1772569020567571200,7.5215712890625,0.000501521397382021,-0.0023333753924816847,0.0010252883657813072
1772569020577643300,7.531643310546875,0.000840610358864069,-0.0018071357626467943,0.0017753960564732552
1772569020587715000,7.541715087890625,0.001918658148497343,-0.002335506957024336,0.001619068905711174
1772569020597787100,7.551787109375,0.0010113334283232689,0.0018555698916316032,0.002114175818860531
1772569020607859200,7.561859130859375,-0.0005285064689815044,-0.0004065190441906452,0.0015330743044614792
1772569020617931000,7.571930908203125,0.00243143318220973,0.001588091254234314,-0.0006837695837020874
1772569020628003000,7.582003173828125,-0.000996854156255722,-0.0014931862242519855,-0.002452375367283821
1772569020638075100,7.5920751953125,0.0012225247919559479,0.0012063980102539062,0.0001050662249326706
1772569020648147200,7.602147216796875,0.000676310621201992,-0.000572859775274992,0.00027178041636943817
1772569020658219000,7.612218994140625,0.0032221227884292603,0.0021900064311921597,-0.0002359207719564438
1772569020668291000,7.622291015625,-0.0031857090070843697,-0.0007647708989679813,-0.0004923827946186066
1772569020678363100,7.632363037109375,0.0005812933668494225,0.0020858249627053738,0.001477917656302452
1772569020688435200,7.642435302734375,0.0013586701825261116,-0.001558178337290883,0.0008640587329864502
1772569020698507000,7.652507080078125,-0.0004036487080156803,-0.0005052369087934494,0.000467631034553051
1772569020708578000,7.662578125,-0.002682515885680914,0.0015203631483018398,-0.00008790381252765656
1772569020718650000,7.672650146484375,0.00013071857392787933,0.001848307903856039,-0.0006799343973398209
1772569020728722200,7.68272216796875,0.0030617935117334127,-0.0018731935415416956,-0.0008224127814173698
1772569020738794000,7.6927939453125,-0.0022476855665445328,-0.0012695984914898872,0.0026143044233322144
1772569020748866000,7.702865966796875,-0.000819432083517313,0.001362670212984085,-0.0004083840176463127
1772569020758938000,7.712938232421875,-0.00044052256271243095,-0.003183115040883422,-0.00006114691495895386
1772569020769010200,7.72301025390625,0.0007427199743688107,0.0008209473453462124,0.0020209122449159622
1772569020779082000,7.73308203125,0.0006964425556361675,0.0008819522336125374,0.0016818242147564888
1772569020789154000,7.743154052734375,0.0006884527392685413,-0.0010304637253284454,0.0023398911580443382
1772569020799226000,7.75322607421875,0.0011061448603868484,0.0005445214919745922,-0.0009006317704916
1772569020809298000,7.7632978515625,-0.001715207938104868,-0.0001593516208231449,-0.0007376456633210182
1772569020819370000,7.773369873046875,-0.0003386763855814934,0.0022826516069471836,0.00021202024072408676
1772569020829442000,7.783442138671875,-0.0005525280721485615,-0.0005203252658247948,-0.000875348225235939
1772569020839514000,7.79351416015625,0.00040432997047901154,0.0008525564335286617,-0.00017265882343053818
1772569020849586000,7.8035859375,-0.0012231278233230114,0.0008235280402004719,0.0012470725923776627
1772569020859657000,7.813656982421875,-0.001243064645677805,0.0008733328431844711,0.00020321086049079895
1772569020869729000,7.82372900390625,-0.00151523994281888,-0.0021003526635468006,-0.00033767707645893097
1772569020879801000,7.833801025390625,0.0004999074153602123,-0.0023533820640295744,-0.0009591355919837952
1772569020889873200,7.843873046875,0.002175301779061556,-0.000020186416804790497,0.0000557946041226387
1772569020899945000,7.853945068359375,0.001027946826070547,-0.0003726566210389137,0.002287548966705799
1772569020910017000,7.86401708984375,0.0003578956238925457,-0.00010234583169221878,0.000029721297323703766
1772569020920089000,7.874089111328125,-0.0002456866204738617,-0.0004089968279004097,-0.0013405689969658852
1772569020930161000,7.884160888671875,-0.0011652763932943344,0.00008901441469788551,0.0002192435786128044
1772569020940233000,7.89423291015625,0.00039530685171484947,0.0006855586543679237,-0.0012972643598914146
1772569020950305000,7.904304931640625,-0.00004864204674959183,0.00028954679146409035,-0.0010589109733700752
1772569020960377000,7.914377197265625,-0.0019704927690327168,0.0004785340279340744,-0.00126572884619236
1772569020970449000,7.924448974609375,0.000022084452211856842,-0.0000692782923579216,0.0002810359001159668
1772569020980521200,7.934521240234375,0.0014947694726288319,0.002297190949320793,0.00019358284771442413
1772569020990593300,7.94459326171875,-0.0007188501767814159,-0.0011792993173003197,0.0017856201156973839
1772569021000665000,7.9546650390625,0.0003200741484761238,-0.0018908593337982893,0.0003782026469707489
1772569021010737200,7.964737060546875,-0.0003124265931546688,0.0013850950635969639,-0.0019704392179846764
1772569021020808000,7.974807861328125,0.0005705142393708229,-0.0013308627530932426,0.0013812119141221046
1772569021030878000,7.9848779296875,-0.003950734157115221,0.001449743751436472,0.00054205022752285
1772569021040950000,7.994949951171875,0.0018440061248838902,-0.0016762565355747938,-0.001423567533493042
1772569021051022000,8.00502197265625,-0.0011437945067882538,-0.0011116662062704563,-0.00010956451296806335
1772569021061094100,8.01509423828125,0.0033267273101955652,0.0024875523522496223,-0.0017821155488491058
1772569021071166000,8.025166015625,0.0012832838110625744,-0.0008456599898636341,0.0009686639532446861
1772569021081238000,8.035238037109375,0.0010146400891244411,0.00389108806848526,-0.0028494754806160927
1772569021091310000,8.04531005859375,-0.0009148200042545795,0.0007379059679806232,-0.00029044412076473236
1772569021101382100,8.055382080078125,0.00009969482198357582,0.0000798557884991169,0.001841711811721325
1772569021111454000,8.065453857421875,0.0003713369369506836,0.0008875923231244087,0.0004382254555821419
1772569021121526000,8.075526123046876,-0.00009947223588824272,-0.00012255599722266197,0.0031039929017424583
1772569021131598000,8.08559814453125,0.0011343704536557198,-0.0002786172553896904,0.0011790590360760689
1772569021141670000,8.095669921875,0.0006132964044809341,0.001004197634756565,0.0015003746375441551
1772569021151742000,8.105741943359375,0.0005746805109083652,0.000990881584584713,0.0006590820848941803
1772569021161814000,8.11581396484375,-0.0032905773259699345,0.0015939325094223022,0.0011109737679362297
1772569021171885000,8.125885009765625,-0.0025171958841383457,0.001923365518450737,0.001157313585281372
1772569021181957000,8.13595703125,-0.002804757561534643,-0.00038510048761963844,0.0025026872754096985
1772569021192029000,8.14602880859375,-0.000955990981310606,0.0012644613161683083,-0.0009508999064564705
1772569021202101000,8.15610107421875,0.0015451139770448208,0.0007391260005533695,0.001408824697136879
1772569021212173600,8.166173583984374,-0.0003473283722996712,0.00011195149272680283,0.0006370404735207558
1772569021222245400,8.176245361328125,0.0007183821871876717,-0.0010631033219397068,-0.0016252752393484116
1772569021232317400,8.1863173828125,-0.0022827344946563244,0.00022719847038388252,0.002079182304441929
1772569021242389500,8.196389404296875,0.00015422049909830093,-0.0024944643955677748,-0.0016200784593820572
1772569021252461300,8.20646142578125,-0.0015968084335327148,-0.0014787346590310335,-0.0007303161546587944
1772569021262533400,8.216533447265626,-0.0018014786764979362,-0.002102391328662634,0.00011206045746803284
1772569021272605400,8.22660546875,0.00017192400991916656,0.0027914331294596195,0.0013245977461338043
1772569021282677500,8.236677490234374,-0.001360471360385418,-0.0000925697386264801,-0.00042800046503543854
1772569021292749300,8.246749267578124,0.0008552782237529755,-0.0006102882325649261,-0.001658647321164608
1772569021302821400,8.2568212890625,-0.00009281188249588013,0.00039414316415786743,0.000058720819652080536
1772569021312893400,8.2668935546875,0.003316034097224474,-0.0012415703386068344,-0.00023475941270589828
1772569021322964500,8.276964599609375,-0.00031434744596481323,-0.0018922367598861456,0.0017867544665932655
1772569021333036500,8.28703662109375,0.0032934369519352913,-0.0018648062832653522,-0.002079356461763382
1772569021343108400,8.2971083984375,-0.0020719110034406185,0.0012631956487894058,-0.0015746662393212318
1772569021353180400,8.307180419921876,0.0013161622919142246,0.0036688288673758507,-0.0002452163025736809
1772569021363252500,8.31725244140625,-0.0004739775322377682,0.00016566971316933632,-0.0009335475042462349
1772569021373324300,8.32732421875,0.0012142001651227474,-0.0012362184934318066,-0.0002573709934949875
1772569021383396400,8.337396240234375,0.0018787262961268425,0.00042358459904789925,-0.0014490196481347084
1772569021393468400,8.347468505859375,0.0013884380459785461,-0.0014190562069416046,0.0007195929065346718
1772569021403540500,8.35754052734375,0.002156347967684269,-0.0001582684926688671,0.000714324414730072
1772569021413612300,8.3676123046875,-0.0014229407534003258,-0.00028689950704574585,-0.0023328643292188644
1772569021423684400,8.377684326171876,-0.002590049523860216,0.001088394783437252,0.00041844509541988373
1772569021433756400,8.38775634765625,-0.0025080242194235325,-0.0014035250060260296,0.0003002006560564041
1772569021443828200,8.397828125,-0.0003689774312078953,0.001012235414236784,0.0015200832858681679
1772569021453900300,8.407900390625,-0.0014547482132911682,0.0011611063964664936,0.00013204384595155716
1772569021463971300,8.417971435546875,0.0002697678282856941,0.0005107931792736053,0.00048525724560022354
1772569021474043400,8.42804345703125,-0.001975010149180889,-0.0002564634196460247,0.000933733768761158
1772569021484115500,8.438115478515625,0.0000018398277461528778,-0.0001932922750711441,0.0016200505197048187
1772569021494187300,8.448187255859375,0.0032503637485206127,-0.00039143161848187447,-0.0015578996390104294
1772569021504259300,8.45825927734375,-0.001239098608493805,0.00018767686560750008,-0.0005250386893749237
1772569021514331400,8.468331298828126,0.00062511395663023,-0.0013151448220014572,-0.00034128036350011826
1772569021524403500,8.478403564453124,-0.0006133681163191795,0.0006502419710159302,-0.0016649477183818817
1772569021534475300,8.488475341796875,0.0000803852453827858,-0.00011488422751426697,0.0014693262055516243
1772569021544547300,8.49854736328125,-0.0005121543072164059,0.0011826492846012115,0.00024404097348451614
1772569021554619400,8.508619384765625,-0.0003523644991219044,-0.001362533774226904,-0.00001854635775089264
1772569021564691200,8.518691162109375,0.000578815583139658,0.00016336003318428993,-0.0014666076749563217
1772569021574763300,8.52876318359375,-0.0014593014493584633,-0.001479544211179018,0.002616817131638527
1772569021584835300,8.53883544921875,-0.0008439491502940655,0.0013781101442873478,-0.001369488425552845
1772569021594907400,8.548907470703124,-0.0008370247669517994,-0.0029649727512151003,-0.00011647026985883713
1772569021604979200,8.558979248046874,0.0013199602253735065,-0.00041783927008509636,-0.0013102516531944275
1772569021615051300,8.56905126953125,-0.0026992824859917164,-0.0002452665939927101,-0.0017238399013876915
1772569021625124400,8.579124267578125,-0.0007387264631688595,-0.0019544060342013836,-0.001994100399315357
1772569021635196400,8.589196533203125,0.0002711443230509758,-0.0012057912535965443,-0.0010971473529934883
1772569021645268500,8.5992685546875,-0.00008666608482599258,-0.0014563025906682014,-0.0008565187454223633
1772569021655340500,8.609340576171874,0.002135741524398327,0.0023416313342750072,-0.0005356082692742348
1772569021665412400,8.619412353515624,-0.00033316807821393013,-0.0011539054103195667,0.00040642358362674713
1772569021675484400,8.629484375,-0.00007590698078274727,-0.0003248634748160839,0.0010860618203878403
1772569021685556500,8.639556396484375,-0.0013109412975609303,-0.0017016048077493906,-0.0012787571176886559
1772569021695628300,8.649628173828125,0.000754872802644968,0.0007788632065057755,-0.00044065993279218674
1772569021705700400,8.659700439453125,-0.0028434735722839832,-0.00008591823279857635,-0.0003532925620675087
1772569021715772400,8.6697724609375,-0.0005153380334377289,0.0021591265685856342,0.000007033348083496094
1772569021725844500,8.679844482421874,-0.0009672120213508606,0.0005733659490942955,0.0009326664730906487
1772569021735916300,8.689916259765624,0.001828041858971119,-0.0017883251421153545,-0.0034373141825199127
1772569021745988400,8.69998828125,0.0002344781532883644,0.0014491002075374126,-0.001553940586745739
1772569021756060400,8.710060302734375,0.0008661802858114243,-0.002221801085397601,-0.0011627217754721642
1772569021766131500,8.72013134765625,-0.0015477812848985195,-0.00032272934913635254,0.0012938501313328743
1772569021776203500,8.73020361328125,-0.00026120804250240326,-0.00375980488024652,0.0004080832004547119
1772569021786275300,8.740275390625,0.002210118342190981,0.001187237910926342,-0.0006878990679979324
1772569021796347400,8.750347412109376,-0.0010730265639722347,0.001638110727071762,-0.0023664897307753563
1772569021806419500,8.76041943359375,0.002467869780957699,0.000024496112018823624,0.00010828860104084015
1772569021816491300,8.7704912109375,-0.0013476405292749405,-0.0021531707607209682,0.0009823385626077652
1772569021826563300,8.780563232421875,0.001205400563776493,0.0020501338876783848,-0.0025514382869005203
1772569021836635400,8.790635498046875,0.0009207087568938732,-0.0006042388267815113,0.0010190624743700027
1772569021846707500,8.80070751953125,0.001021756324917078,-0.00010583503171801567,0.0003167232498526573
1772569021856779300,8.810779296875,-0.00013485457748174667,0.0013578380458056927,-0.000032949261367321014
1772569021866851300,8.820851318359376,-0.00007686903700232506,-0.0006721480749547482,-0.0021306080743670464
1772569021876923400,8.83092333984375,0.00184966204687953,0.0004977788776159286,0.0009991396218538284
1772569021886995200,8.8409951171875,0.0004182159900665283,-0.0012900745496153831,0.0014576185494661331
1772569021897067300,8.8510673828125,0.00030236877501010895,-0.0004019103944301605,-0.0002217702567577362
1772569021907139300,8.861139404296875,-0.0015088645741343498,0.0015141530893743038,0.0003782939165830612
1772569021917210400,8.87121044921875,0.0002490878105163574,-0.0004667062312364578,0.0011812364682555199
1772569021927282400,8.881282470703125,-0.000868549570441246,-0.0012227077968418598,-0.0007908297702670097
1772569021937354200,8.891354248046875,0.0006742202676832676,-0.0028080877382308245,0.001453682780265808
1772569021947426300,8.90142626953125,-0.00015792017802596092,0.0008256379514932632,-0.001241082325577736
1772569021957498400,8.911498291015626,0.0014279922470450401,-0.0006774500943720341,0.002205846831202507
1772569021967570400,8.9215703125,-0.0011244178749620914,0.0034408625215291977,0.0005293507128953934
1772569021977642200,8.931642333984374,-0.0002921801060438156,-0.000101407989859581,0.0012406809255480766
1772569021987714300,8.94171435546875,0.00023322412744164467,0.0012880819849669933,0.00018387753516435623
1772569021997786400,8.951786376953125,0.0002060597762465477,-0.0035490174777805805,0.00022169388830661774
1772569022007858200,8.961858154296875,0.0009191995486617088,0.0003275405615568161,-0.0005535008385777473
1772569022017930200,8.97193017578125,0.0005452916957437992,0.00004418008029460907,0.00025583337992429733
1772569022028002300,8.982002197265626,0.0007334453985095024,0.0009096735157072544,-0.0014784857630729675
1772569022038074400,8.992074462890624,-0.0003603147342801094,0.001050022430717945,0.00017720181494951248
1772569022048146400,9.002146484375,-0.00015262840315699577,0.0034232097677886486,-0.0004949085414409637
1772569022058217200,9.01221728515625,0.00017680460587143898,0.0012708432041108608,-0.0016251541674137115
1772569022068289300,9.022289306640625,-0.001365399919450283,-0.0008508707396686077,0.0009269826114177704
1772569022078361300,9.032361328125,-0.0010346360504627228,0.0007102745585143566,-0.0007641250267624855
1772569022088433200,9.04243310546875,-0.0019631367176771164,-0.0024311740417033434,0.000973336398601532
1772569022098505200,9.052505126953125,0.00034768832847476006,0.00084664486348629,-0.0016517415642738342
1772569022108577500,9.06257763671875,-0.002049169037491083,-0.0009984471835196018,0.00006284378468990326
1772569022118649600,9.072649658203124,0.0010060090571641922,0.0017813602462410927,0.00040878821164369583
1772569022128721400,9.082721435546874,-0.0014014588668942451,-0.00039328262209892273,-0.00017788540571928024
1772569022138793500,9.09279345703125,-0.00021715136244893074,-0.00203964882530272,0.00004235748201608658
1772569022148865500,9.102865478515625,-0.0006329161114990711,0.0005456507205963135,-0.0016915565356612206
1772569022158937300,9.112937255859375,-0.00048138201236724854,0.001213571522384882,0.0007114140316843987
1772569022169009400,9.123009521484375,0.0034220560919493437,0.0003108256496489048,0.0014220364391803741
1772569022179081500,9.13308154296875,-0.0014587189070880413,-0.00198242231272161,0.0003485167399048805
1772569022189152500,9.143152587890626,-0.0009328429587185383,0.00004051206633448601,-0.004049533046782017
1772569022199224600,9.153224609375,-0.0007719877175986767,-0.0011648344807326794,-0.0006811665371060371
1772569022209296400,9.16329638671875,-0.001319339033216238,0.0004867948591709137,0.00033791083842515945
1772569022219372500,9.17337255859375,0.0017068106681108475,-0.00002985820174217224,-0.002584642730653286
1772569022229444600,9.183444580078126,0.0010486715473234653,0.001790093258023262,0.0013101454824209213
1772569022239516400,9.193516357421874,-0.0004376387223601341,-0.001422744244337082,0.00039295200258493423
1772569022249588500,9.20358837890625,-0.0012341979891061783,-0.0026003781240433455,0.00017547979950904846
1772569022259660500,9.21366064453125,0.0022353678941726685,0.0001488029956817627,0.0009270235896110535
1772569022269732400,9.223732421875,-0.000299250241369009,0.0003720717504620552,-0.0015463372692465782
1772569022279804400,9.233804443359375,-0.0009405394084751606,0.003846697974950075,0.000025194138288497925
1772569022289876500,9.24387646484375,0.00017781509086489677,-0.0006489446386694908,-0.0005166428163647652
1772569022299948500,9.253948486328126,0.002281179651618004,0.00039022089913487434,-0.0014889631420373917
1772569022310020400,9.264020263671876,-0.0005980278365314007,-0.002260679379105568,0.003603952005505562
1772569022320092400,9.274092529296874,0.00041823461651802063,-0.0016476197633892298,0.00004756636917591095
1772569022330163500,9.28416357421875,-0.0006367494352161884,-0.0016577770002186298,0.00033011380583047867
1772569022340235500,9.294235595703125,-0.0013350299559533596,0.0019257725216448307,0.0006499588489532471
1772569022350307600,9.3043076171875,-0.0009133820421993732,0.00046370504423975945,0.00013719592243433
1772569022360379400,9.31437939453125,0.0006501595489680767,-0.00015441467985510826,-0.0008258037269115448
1772569022370451500,9.324451416015625,-0.000743853859603405,0.0015624337829649448,-0.00070231594145298
1772569022380523500,9.3345234375,0.0014031869359314442,0.0013091671280562878,0.0008332626894116402
1772569022390595300,9.34459521484375,0.0013247192837297916,-0.0033795477356761694,0.0007425118237733841
1772569022400667400,9.35466748046875,-0.002892663236707449,-0.0013680621050298214,0.0003475649282336235
1772569022410739500,9.364739501953125,0.0015843026340007782,0.0011344910599291325,-0.00043954700231552124
1772569022420811500,9.3748115234375,-0.002258105669170618,-0.0006996281445026398,-0.000498402863740921
1772569022430883300,9.38488330078125,0.0006113462150096893,0.0007040505297482014,-0.0012737736105918884
1772569022440955400,9.394955322265625,0.0006587505340576172,0.00007847417145967484,-0.00042076315730810165
1772569022451026400,9.4050263671875,0.0008199010044336319,-0.0022802616003900766,0.0007334435358643532
1772569022461098500,9.415098388671876,-0.0017532450146973133,0.0024383272975683212,0.0026370706036686897
1772569022471170300,9.42517041015625,0.0005884296260774136,0.0015716380439698696,-0.00012402981519699097
1772569022481242400,9.435242431640624,-0.0002890820614993572,-0.0005218731239438057,-0.0005852887406945229
1772569022491314400,9.445314453125,-0.0021430556662380695,-0.0036049920599907637,-0.00047251489013433456
1772569022501386500,9.455386474609375,-0.0012269285507500172,-0.00022384291514754295,-0.0005662580952048302
1772569022511458300,9.465458251953125,-0.0006142770871520042,0.0010556261986494064,-0.000363658182322979
1772569022521530400,9.4755302734375,0.0007324833422899246,0.00020021898671984673,-0.00016818195581436157
1772569022531602400,9.4856025390625,0.00153003865852952,0.0014495044015347958,-0.0015785880386829376
1772569022541674500,9.495674560546876,-0.0012548291124403477,0.0023192926310002804,0.0008837701752781868
1772569022551746600,9.50574658203125,0.0004566456191241741,0.00037073204293847084,-0.0002931477501988411
1772569022561818600,9.515818603515624,0.0012161792255938053,-0.001984567381441593,0.001807553693652153
1772569022571890700,9.525890625,0.0014732657000422478,0.00054882001131773,-0.0008945949375629425
1772569022581961500,9.53596142578125,-0.00007190043106675148,0.0005677281878888607,-0.00020084157586097717
1772569022592033300,9.546033203125,0.0020248666405677795,0.002413411159068346,0.000258028507232666
1772569022602105600,9.556105712890625,-0.00026918016374111176,0.003220349084585905,0.000008489936590194702
1772569022612177700,9.566177734375,0.0014231633394956589,0.0008715805597603321,0.0008116532117128372
1772569022622249700,9.576249755859376,-0.00016221683472394943,0.000852405559271574,-0.0011452380567789078
1772569022632321500,9.586321533203124,-0.00007968908175826073,-0.0007389029487967491,-0.0015389369800686836
1772569022642393600,9.5963935546875,-0.0009398902766406536,0.0019956310279667377,0.001053650863468647
1772569022652465700,9.606465576171875,-0.0029227635823190212,-0.003901535179466009,0.00010191649198532104
1772569022662537500,9.616537353515625,0.0006131157279014587,0.0013358374126255512,0.0005866121500730515
1772569022672609500,9.626609619140625,0.00003184843808412552,0.00011855829507112503,-0.0024232296273112297
1772569022682681600,9.636681640625,0.0008518360555171967,-0.0017041091341525316,0.00133608840405941
1772569022692753700,9.646753662109376,-0.0014623524621129036,-0.0014087148010730743,-0.0005864985287189484
1772569022702824700,9.65682470703125,-0.0009323833510279655,0.0015452634543180466,0.003418629989027977
1772569022712896500,9.666896484375,0.0005351747386157513,-0.0011209952645003796,0.0014946293085813522
1772569022722968600,9.676968505859374,-0.00022462476044893265,-0.00007756892591714859,0.0009774435311555862
1772569022733040600,9.68704052734375,0.0004537208005785942,0.0024619284085929394,0.0008698394522070885
1772569022743112400,9.697112548828125,-0.00023071188479661942,-0.0008113626390695572,0.0012855585664510727
1772569022753184500,9.7071845703125,0.0005294387228786945,0.0012322883121669292,0.00009224005043506622
1772569022763256600,9.717256591796875,-0.0008476818911731243,0.000988608691841364,-0.0012989956885576248
1772569022773328600,9.72732861328125,-0.0002637812867760658,0.00134279765188694,-0.002456740476191044
1772569022783400400,9.737400390625,0.00117006478831172,-0.0011464590206742287,-0.0002897260710597038
1772569022793472500,9.747472412109374,0.00040381401777267456,-0.0006905877962708473,-0.0015087397769093513
1772569022803544600,9.757544677734375,0.001318077091127634,-0.0005672834813594818,0.00018849223852157593
1772569022813616600,9.76761669921875,-0.0007279030978679657,0.0023325742222368717,-0.00007865205407142639
1772569022823687700,9.777687744140625,0.0014364481903612614,0.0008787545375525951,-0.0005942406132817268
1772569022833759500,9.787759521484375,-0.0020290124230086803,-0.0008304477669298649,0.0009997179731726646
1772569022843831600,9.79783154296875,0.0035835993476212025,-0.0008030175231397152,-0.0002988390624523163
1772569022853903600,9.807903564453126,-0.0007417383603751659,-0.004664253443479538,0.0010429928079247475
1772569022863975400,9.817975341796876,0.0020844079554080963,0.0005574063397943974,0.00030449870973825455
1772569022874047500,9.828047607421874,-0.002389088738709688,0.0005855150520801544,0.0013195648789405823
1772569022884119600,9.83811962890625,-0.00020369840785861015,0.0011919164098799229,-0.0009427899494767189
1772569022894191600,9.848191650390625,-0.0006878008134663105,0.0008836053311824799,0.0005726851522922516
1772569022904263400,9.858263427734375,0.00041954172775149345,-0.0020623833406716585,0.0033583510667085648
1772569022914335500,9.86833544921875,0.0025896248407661915,-0.0015213850419968367,-0.00042689405381679535
1772569022924407600,9.878407470703126,0.0012548486702144146,-0.0009874212555587292,-0.00014699622988700867
1772569022934479400,9.888479248046876,0.0018707471899688244,0.0003870292566716671,-0.00028930511325597763
1772569022944550400,9.89855029296875,-0.000983628910034895,0.0007915631867945194,0.0033416487276554108
1772569022954622500,9.90862255859375,0.003899712348356843,0.00132429925724864,0.0014025289565324783
1772569022964694500,9.918694580078125,-0.0006487006321549416,-0.0009146202355623245,-0.0016443943604826927
1772569022974766600,9.9287666015625,0.0019222544506192207,0.00171200605109334,0.00041902903467416763
1772569022984838400,9.93883837890625,0.000028747133910655975,-0.001225993037223816,-0.0016316045075654984
1772569022994910500,9.948910400390625,0.00060232263058424,0.0010233721695840359,0.0006673987954854965
1772569023004982500,9.958982421875,0.0018276432529091835,-0.00041872961446642876,-0.0015898970887064934
1772569023015054600,9.9690546875,-0.0005333456210792065,-0.0002842266112565994,0.0004528425633907318
1772569023025126400,9.97912646484375,-0.0016524065285921097,-0.00018489081412553787,0.0006166268140077591
1772569023035198500,9.989198486328124,-0.0007766922935843468,0.0020929230377078056,0.00229435320943594
1772569023045270500,9.9992705078125,-0.0003210254944860935,-0.001145480666309595,-0.0001829192042350769
1772569023055341600,10.009341552734375,0.002303150948137045,-0.0023228542413562536,0.0003269994631409645
1772569023065413400,10.019413330078125,-0.0005450998432934284,-0.0013526645489037037,-0.0006636967882514
1772569023075485400,10.0294853515625,-0.0006718635559082031,0.00009134970605373383,0.001337696798145771
1772569023085557500,10.0395576171875,-0.0016308678314089775,-0.003623760072514415,-0.0005456907674670219
1772569023095629600,10.049629638671876,0.0008959751576185226,0.00325646810233593,0.0009216861799359322
1772569023105701400,10.059701416015624,0.00014150142669677734,0.0016154279001057148,-0.0006975159049034119
1772569023115773400,10.0697734375,0.000956676434725523,-0.0005164681933820248,0.0012743594124913216
1772569023125845500,10.079845458984375,-0.0001703733578324318,0.0007575880736112595,-0.0005523031577467918
1772569023135917300,10.089917236328125,0.002413294743746519,-0.0019333125092089176,0.0011604446917772293
1772569023145989400,10.0999892578125,0.0013128765858709812,-0.002948509529232979,0.0006469879299402237
1772569023156061400,10.1100615234375,0.0018767891451716423,-0.0002712272107601166,0.0013681789860129356
1772569023166132500,10.120132568359375,0.0013705221936106682,-0.0020659314468503,0.0014792326837778091
1772569023176204500,10.13020458984375,0.0003668353892862797,0.0023059495724737644,-0.0027271918952465057
1772569023186276400,10.1402763671875,-0.003457730170339346,-0.0012001022696495056,-0.002404150553047657
1772569023196348400,10.150348388671874,0.0017632050439715385,0.0006594019941985607,-0.0002741655334830284
1772569023206420500,10.16042041015625,-0.00023975828662514687,-0.0021275959443300962,0.0003889612853527069
1772569023216489000,10.170489013671874,0.0002143639139831066,0.0029853018932044506,-0.0015568258240818977
1772569023226561000,10.18056103515625,0.0006862757727503777,0.001796733122318983,0.0007683802396059036
1772569023236633000,10.190633056640625,-0.0009501087479293346,-0.0018006348982453346,-0.00009507127106189728
1772569023246705200,10.200705078125,0.004569825250655413,0.0005168477073311806,0.00007723458111286163
1772569023256777000,10.21077685546875,0.0009092553518712521,0.0001411433331668377,-0.0011690156534314156
1772569023266849000,10.22084912109375,0.0018919617868959904,0.000074031762778759,0.0006850771605968475
1772569023276920000,10.230920166015625,-0.0005746805109083652,-0.0012493752874433994,0.0010974593460559845
1772569023286992100,10.2409921875,0.0007853955030441284,-0.002926634158939123,0.000057495199143886566
1772569023297064200,10.251064208984374,0.0024547246284782887,-0.0019203962292522192,-0.0012621376663446426
1772569023307136000,10.261135986328124,0.0005066222511231899,-0.0009922846220433712,0.002142447978258133
1772569023317208000,10.2712080078125,-0.000490059144794941,0.0007152077741920948,-0.0014494871720671654
1772569023327280000,10.281280029296875,0.000015408731997013092,-0.0035269414074718952,0.0009233886376023293
1772569023337352000,10.29135205078125,0.002196741756051779,-0.0019616109784692526,0.001098698005080223
1772569023347424000,10.301424072265625,-0.0003468431532382965,0.003038207069039345,0.00015540607273578644
1772569023357496000,10.31149609375,0.0002487306483089924,0.0012073898687958717,-0.0004893951117992401
1772569023367568100,10.321568115234374,0.0010796370916068554,0.00031576352193951607,-0.0014356160536408424
1772569023377640000,10.331639892578124,0.0022696773521602154,0.0007143998518586159,0.0017758561298251152
1772569023387711000,10.3417109375,0.0032222899608314037,-0.00026244763284921646,0.000015772879123687744
1772569023397783000,10.351782958984375,0.001110246405005455,0.0012990189716219902,-0.0006116516888141632
1772569023407855000,10.361855224609375,-0.0009731440804898739,0.020846355706453323,0.0035727061331272125
1772569023417927000,10.371927001953125,0.004190137609839439,-0.009866433218121529,-0.0014589549973607063
1772569023427999000,10.3819990234375,-0.0009391102939844131,0.007589522283524275,-0.0014091534540057182
1772569023438071000,10.392071044921876,-0.0006792386993765831,-0.0008850712329149246,-0.00027455762028694153
1772569023448143000,10.40214306640625,-0.00028881942853331566,0.003327783662825823,0.0011321231722831726
1772569023458215000,10.41221484375,-0.0017895540222525597,-0.000505165196955204,0.0001533105969429016
1772569023468287000,10.422286865234375,-0.00048087630420923233,0.0005941879935562611,-0.0004283236339688301
1772569023478359000,10.432359130859375,-0.0023193699307739735,-0.0030867443419992924,-0.002009608782827854
1772569023488430000,10.44243017578125,-0.001427211333066225,0.00003980658948421478,0.00016353093087673187
1772569023498502100,10.452502197265625,-0.00004264200106263161,-0.003665256779640913,-0.0025184452533721924
1772569023508574000,10.462573974609375,-0.0000639469362795353,-0.00047958362847566605,-0.0006023002788424492
1772569023518646000,10.47264599609375,0.00038894079625606537,0.0016292654909193516,0.0008022226393222809
1772569023528718000,10.482718017578126,0.0009719068184494972,0.0027683000080287457,0.0014589577913284302
1772569023538790000,10.492789794921874,0.0009739603847265244,-0.0017712374683469534,0.00023793894797563553
1772569023548862000,10.502862060546875,0.00011056382209062576,-0.0005850656889379025,-0.0013599582016468048
1772569023558934000,10.51293408203125,0.0024207085371017456,-0.0006529372185468674,0.0008102674037218094
1772569023569006000,10.523006103515625,-0.0016374164260923862,0.004663264844566584,0.0019037621095776558
1772569023579078000,10.533077880859375,0.0015487810596823692,0.0047697159461677074,-0.0003525335341691971
1772569023589149000,10.54314892578125,0.0011724764481186867,0.003414966631680727,-0.000037748366594314575
1772569023599221000,10.553220947265626,0.000581186730414629,-0.0024760484229773283,-0.0003622407093644142
1772569023609293000,10.56329296875,-0.0003658332861959934,-0.00022807391360402107,-0.0032674837857484818
1772569023619364900,10.57336474609375,0.00022084685042500496,0.0008486881852149963,0.001481219194829464
1772569023629437000,10.58343701171875,0.0008773161098361015,0.004631708841770887,0.0014239614829421043
1772569023639509000,10.593509033203125,-0.00032661156728863716,0.005500631406903267,0.00017789285629987717
1772569023649581000,10.6035810546875,0.00225985050201416,-0.002521076239645481,-0.00014887750148773193
1772569023659652900,10.61365283203125,-0.0008274074643850327,0.0002206633798778057,-0.00021455902606248856
1772569023669725000,10.623724853515625,0.0015238975174725056,0.00023850658908486366,-0.0009943321347236633
1772569023679797000,10.633796875,0.00039606913924217224,0.0027734003961086273,-0.0008561210706830025
1772569023689868800,10.643868896484374,0.0005329553969204426,0.00369245745241642,-0.0010547926649451256
1772569023699939800,10.65393994140625,-0.001414033118635416,0.008479494601488113,0.0006703557446599007
1772569023710012000,10.664011962890624,0.0006166268140077591,0.0033707530237734318,-0.0015981253236532211
1772569023720084000,10.674083984375,0.0004783403128385544,0.0019200262613594532,-0.0007554646581411362
1772569023730156000,10.684156005859375,-0.001754986122250557,-0.00002567889168858528,0.0012504281476140022
1772569023740227800,10.694227783203125,0.001148842740803957,-0.0023687840439379215,0.0010274779051542282
1772569023750300000,10.7042998046875,0.0011331303976476192,0.0005985097959637642,0.000846383161842823
1772569023760372000,10.7143720703125,0.0008606826886534691,0.004797105211764574,0.0014299321919679642
1772569023770444000,10.724444091796874,-0.0008610510267317295,-0.00018540304154157639,-0.00046011339873075485
1772569023780515800,10.734515869140624,0.0021820669062435627,0.001435485202819109,0.00130489282310009
1772569023790587000,10.7445869140625,-0.00014180736616253853,-0.000042036641389131546,-0.00035159289836883545
1772569023800659000,10.754658935546875,0.0016795527189970016,0.0006201374344527721,-0.0010742507874965668
1772569023810731000,10.76473095703125,-0.0009726895950734615,0.004449496977031231,0.001330849714577198
1772569023820802800,10.774802734375,0.00017044832929968834,0.006494584493339062,0.0012507755309343338
1772569023830875000,10.784875,0.0005518128164112568,0.0030399318784475327,0.0005543595179915428
1772569023840947000,10.794947021484376,0.0007135146297514439,0.0027029854245483875,-0.0013020820915699005
1772569023851019000,10.80501904296875,-0.0006140707992017269,-0.00668199360370636,-0.0026035690680146217
1772569023861090800,10.8150908203125,-0.0016524344682693481,0.0007716338150203228,-0.0009446097537875175
1772569023871163000,10.825162841796875,-0.0017328625544905663,0.010349959135055542,0.0010540932416915894
1772569023881235000,10.83523486328125,0.001695291604846716,0.0032377075403928757,-0.0014715641736984253
1772569023891306000,10.845305908203125,0.0006428100168704987,0.04096990451216698,0.013254384510219097
1772569023901377800,10.855377685546875,0.0003363564610481262,0.014442900195717812,0.010263140313327312
1772569023911449900,10.865449951171875,-0.0015315841883420944,0.011338453739881516,0.006107277236878872
1772569023921522000,10.87552197265625,0.0005197036080062389,-0.003368777222931385,0.0035057784989476204
1772569023931594000,10.885593994140624,0.0019903010688722134,-0.008078844286501408,-0.0029369406402111053
1772569023941665800,10.895665771484374,-0.00013135327026247978,-0.011011581867933273,-0.004627447575330734
1772569023951737900,10.90573779296875,0.00047371722757816315,-0.008470926433801651,-0.00788129772990942
1772569023961810200,10.91581005859375,0.0008530649356544018,-0.012757336720824242,-0.003348075784742832
1772569023971882000,10.925882080078125,-0.0012345872819423676,-0.01322232373058796,-0.008022456429898739
1772569023981954000,10.9359541015625,-0.0005011190660297871,-0.0032826592214405537,-0.001547521911561489
1772569023992024800,10.94602490234375,0.0010033007711172104,-0.006628388538956642,-0.004609092138707638
