time,seconds_elapsed,z,y,x
1772366295423633000,0.1146328125,-0.04557692530453205,0.005788017950067296,0.0029921675533056257
1772366295433703000,0.124702880859375,-0.06981646354794502,-0.00032578875510953364,0.0006656243018805981
1772366295443773000,0.13477294921875,-0.029299159720540046,-0.003188439044076949,-0.008773198640160263
1772366295453843000,0.144843017578125,-0.02652443431019783,-0.0023733780678361653,-0.0004573883786797523
1772366295463913000,0.154912841796875,-0.029953239715099333,0.005434080812707543,0.0002554725984111428
1772366295473982700,0.164982666015625,-0.04295534462928772,-0.0015840451878961176,0.0012573431173339485
1772366295484053800,0.1750537109375,-0.04393500331640243,0.0016583068673498927,0.002536094348877668
1772366295494124000,0.1851240234375,-0.038190906706452366,-0.0031361700007226318,0.010199541648849845
1772366295504194000,0.195194091796875,-0.033411271214485165,0.0032083310546353458,-0.0012981500517576933
1772366295514263800,0.205263916015625,-0.0389344185501337,0.007033259637653827,0.005175539474375546
1772366295524334000,0.215333984375,-0.02990530892014503,0.01032055594632402,0.00514748242367059
1772366295534404000,0.225404052734375,-0.03052373307943344,0.0031888591691851616,0.008332067276537418
1772366295544473900,0.235473876953125,-0.030681553989648818,-0.000986764281336218,0.0021667495798319576
1772366295554543900,0.2455439453125,-0.03801496561765671,-0.004193040376203134,0.0072808046579360955
1772366295564614000,0.25561376953125,-0.04280453798174858,-0.0007088241227902472,0.006206307294219732
1772366295574684000,0.265683837890625,-0.030720132434368132,-0.002379433349287137,0.003399469712562859
1772366295584754000,0.27575390625,-0.03774024032950401,-0.008064283185824752,-0.006073620825260877
1772366295594824000,0.285823974609375,-0.03310439722239971,-0.003253467104304582,-0.004468742911890149
1772366295604894000,0.29589404296875,-0.024265841728448867,-0.0018123283852823078,0.007141140458919107
1772366295614964000,0.3059638671875,-0.02771861253082752,-0.0004204265023116022,0.0034351255478337404
1772366295625033700,0.31603369140625,-0.02742050636708736,-0.00009140461049973964,0.005056297008879483
1772366295635104000,0.32610400390625,-0.027727964881062505,-0.00125380858653225,-0.002535619424842298
1772366295645174000,0.336174072265625,-0.02938040826320648,-0.0027833105755969883,0.0021018311174586415
1772366295655243800,0.346243896484375,-0.043453941801190374,-0.00555146011468023,0.00284563522208482
1772366295665314000,0.35631396484375,-0.034012159717082976,-0.0003299991393461823,0.002660634043999016
1772366295675383800,0.3663837890625,-0.02023380973339081,0.0008292264989111573,-0.0018455913340672848
1772366295685453800,0.376453857421875,-0.024880758756399154,0.003394894002145156,0.0030763752380385994
1772366295695524000,0.386524169921875,-0.03431143492460251,0.002112818302353844,0.005962379003129899
1772366295705593900,0.39659375,-0.03222293821275234,0.0025859979052096603,0.0029876375086605547
1772366295715664000,0.406663818359375,-0.037294250127673144,-0.002194843163155019,0.0009607347909361124
1772366295725734000,0.41673388671875,-0.031308161455392836,-0.0034149047437123953,0.0021682108845561742
1772366295735804700,0.4268046875,-0.04537468073070049,0.001153773145005107,0.002316533314064145
1772366295745875000,0.436875,-0.03564765196442604,0.005069311754079535,0.008172127474471927
1772366295755944700,0.44694482421875,-0.029366379737854,0.001313831678079441,0.004350888685882091
1772366295766014700,0.4570146484375,-0.03625204759836197,0.0032388997228350487,0.00010430062469094992
1772366295776085000,0.4670849609375,-0.029377485653758046,-0.0030465098227374253,0.0034951121067628263
1772366295786154800,0.47715478515625,-0.026834815433621404,-0.008456186846550553,-0.002817468573525548
1772366295796224800,0.487224853515625,-0.036409868508577345,0.006739619586477056,0.006510952796600759
1772366295806294800,0.497294677734375,-0.03057809361517429,0.006105869993893429,0.001847819823771715
1772366295816364800,0.50736474609375,-0.031180151161551473,0.0015746745713520794,-0.006026311084814369
1772366295826434800,0.517434814453125,-0.02400631400942802,0.0037837928550317882,0.0030202246040105817
1772366295836504600,0.527504638671875,-0.03493219717144966,-0.004315506845247,0.0004152297373861074
1772366295846574800,0.537574951171875,-0.031191257077455518,-0.0033616949854418632,0.0020402371233329175
1772366295856644900,0.547644775390625,-0.03508417286276817,0.002486272990936413,0.0009434183299541472
1772366295866714600,0.557714599609375,-0.04017360495626926,-0.005914466474484652,-0.0011588877115398645
1772366295876785000,0.567784912109375,-0.03060556614398956,-0.0027847170813940464,0.001758059181086719
1772366295886855000,0.57785498046875,-0.03014671646058559,-0.0061365939257200805,0.0012150018129497766
1772366295896924700,0.587924560546875,-0.04255728522241115,-0.0046761385848745705,-0.002898096061684191
1772366295906995000,0.597994873046875,-0.026547815185785292,-0.006678235654905438,0.001842230333201587
1772366295917065000,0.60806494140625,-0.037620997864007945,-0.002176339392084628,-0.00021722294725477694
1772366295927134700,0.618134765625,-0.028941432324051854,-0.00507413405966945,0.004607493795454502
1772366295937204700,0.628204833984375,-0.03777180451154709,-0.010869531598594039,0.003948262701742351
1772366295947274800,0.638274658203125,-0.03733282857239246,0.00006924757761880754,0.0028624402264133095
1772366295957344800,0.6483447265625,-0.03269055572450161,0.004072300073364749,0.0032293007774278517
1772366295967414800,0.658414794921875,-0.03194879744648933,0.006060405150661244,0.00234627086520195
1772366295977485800,0.66848583984375,-0.03523439498841762,0.009496316149784252,0.0008379121288657188
1772366295987555800,0.678555908203125,-0.030746435919404028,-0.00115426633534953,0.00742185709644109
1772366295997625900,0.6886259765625,-0.026852351090312,-0.0026048030703794208,0.00018733926564455032
1772366296007696000,0.69869580078125,-0.029841011512279508,-0.0036561844199895855,0.000753777509368956
1772366296017766000,0.708765869140625,-0.01741992135643959,0.007339485175767913,0.0018362024512141941
1772366296027836000,0.7188359375,-0.031039281386137006,0.0003428586209192872,0.005806348191201687
1772366296037905700,0.72890576171875,-0.022063363248109816,-0.001496293839206919,0.005299713843315839
1772366296047975700,0.7389755859375,-0.03404781555235386,0.0021569040392525494,0.008567520000226795
1772366296058046000,0.7490458984375,-0.029554011264443396,0.002477468629973009,0.004310629740729928
1772366296068115700,0.75911572265625,-0.03824117558896541,-0.00951818092172034,0.007895794751122594
1772366296078185700,0.769185791015625,-0.04212999972105026,-0.006290925970906391,0.006449504932947456
1772366296088256000,0.779256103515625,-0.036758243554830546,-0.0011514533237554133,0.0020849895805120466
1772366296098325800,0.78932568359375,-0.04125146332085133,-0.0005415869302581995,0.006608677550032734
1772366296108395800,0.799395751953125,-0.040057285100221635,-0.002362737942812964,0.007440707927383482
1772366296118465800,0.8094658203125,-0.031526188120245935,-0.003936225204076617,0.0033032062638550996
1772366296128535800,0.819535888671875,-0.03571954815685749,-0.003875407528085634,0.0014107435807585716
1772366296138605800,0.829605712890625,-0.034520109239220616,-0.003567008299194276,0.0022140593202784656
1772366296148675600,0.839675537109375,-0.03720832540988922,-0.0025729283610824495,-0.0027045097183436154
1772366296158745900,0.849745849609375,-0.027933132064342496,-0.01052229819665663,0.0026516104873269795
1772366296168815900,0.85981591796875,-0.032721535384655,-0.0046243535987101495,0.0038640184843912718
1772366296178885600,0.8698857421875,-0.031079028874635695,-0.0028351686269976195,0.006777202517352998
1772366296188956000,0.879955810546875,-0.03078326079845428,0.002180988167738542,0.007157981995865702
1772366296199026000,0.89002587890625,-0.02270633732676506,-0.001560947440098971,0.003981288188509643
1772366296209095700,0.900095703125,-0.03512918104827404,0.00009301204569637775,0.0006456774923950434
1772366296219166700,0.910166748046875,-0.034382162073254584,-0.0020791169621516017,0.0028474253203719852
1772366296229236700,0.92023681640625,-0.03438099302947521,-0.010515914121642708,-0.0006934256242588162
1772366296239306800,0.930306640625,-0.03692892394661903,-0.005226484210323542,-0.0017894772326573728
1772366296249376800,0.940376708984375,-0.01883154172003269,-0.0005261792985722422,0.00042900253441184756
1772366296259446800,0.95044677734375,-0.031711481559276576,-0.008878869238030164,-0.00442176196500659
1772366296269516800,0.960516845703125,-0.030818916633725164,-0.0022999566385988146,-0.0030378698585554957
1772366296279586800,0.9705869140625,-0.03351356254518032,-0.001236026334669441,0.007290778062678873
1772366296289656800,0.98065673828125,-0.036360184147953986,0.003646074017928913,-0.0004034662343561649
1772366296299726800,0.990726806640625,-0.030530747342109678,0.0023026417860295624,-0.0023600801948457954
1772366296309796900,1.000796875,-0.03891396028399467,-0.003757598967850208,-0.002607588682509959
1772366296319867000,1.010866943359375,-0.04026362132728099,0.002005750331841409,0.00171020145136863
1772366296329936600,1.0209365234375,-0.03113280488848686,0.0051006019414868205,0.009877981544286011
1772366296340007000,1.0310068359375,-0.03307400208413601,0.0010651450134813785,0.007163242692872882
1772366296350077000,1.041076904296875,-0.02304536002278328,0.0025319661630317566,0.004675809791311622
1772366296360146700,1.051146728515625,-0.03307166399657726,0.0012570599895436315,-0.0002969005873426795
1772366296370217000,1.061217041015625,-0.04025193088948727,0.00720444235294126,0.003942636678554118
1772366296380286700,1.07128662109375,-0.03486030097901821,-0.006959893007343634,0.003430632035806775
1772366296390356700,1.081356689453125,-0.028420623320341107,0.00209081653309986,-0.0016845190208405255
1772366296400426800,1.0914267578125,-0.03650280748903751,0.009580295505654066,0.0013963862618431447
1772366296410496800,1.101496826171875,-0.03725391811728477,-0.0025772848757915196,0.0025155630175024268
1772366296420566800,1.11156689453125,-0.030068975049257277,-0.00007624357398599386,-0.0001286678809672594
1772366296430636800,1.12163671875,-0.024680267748236655,0.003718591264868155,0.00006736614778637886
1772366296440706800,1.131706787109375,-0.03440145129561424,0.0038033743383362887,0.00046246641259640455
1772366296450776800,1.14177685546875,-0.027223522490262983,-0.0007249350073747336,0.001228445816412568
1772366296460846800,1.151846923828125,-0.03485562480390072,-0.0025393274855799973,-0.0036985987896099685
1772366296470916900,1.161916748046875,-0.043531098690629,0.00015334566449746488,0.007003668216988444
1772366296480987000,1.17198681640625,-0.04158054914474487,0.0037446755541954185,0.008583923145756124
1772366296491058000,1.182057861328125,-0.034546412724256514,0.001149270499823615,-0.0042763621449470515
1772366296501127700,1.192127685546875,-0.04501812237799167,0.005676282937591895,0.0049259851600974795
1772366296511197700,1.20219775390625,-0.04307107996344566,0.0031404717165045438,0.007958703919500112
1772366296521268000,1.21226806640625,-0.037082068681716915,0.0011412333238404243,0.0017818419154733418
1772366296531337700,1.222337646484375,-0.02361176173388958,0.0059823897446971384,0.001999905112944543
1772366296541407700,1.23240771484375,-0.020621347746253012,-0.002819076008722186,0.004343947488442063
1772366296551478000,1.24247802734375,-0.029155367335677144,0.002030829974170774,-0.006693287093564868
1772366296561547800,1.2525478515625,-0.023172201272845267,0.00008293817625381052,0.0026825901474803685
1772366296571617800,1.26261767578125,-0.027221184402704237,-0.005368331233272329,0.007559219740517437
1772366296581687800,1.272687744140625,-0.041140404161810876,-0.006853838816983625,0.004323123896121979
1772366296591757800,1.2827578125,-0.033359833288192746,0.0008118369726929813,-0.0004766410684213042
1772366296601827800,1.292827880859375,-0.04010112424194812,-0.005342475272808223,0.004746208146400749
1772366296611897600,1.302897705078125,-0.03187222507894039,-0.004862610200839117,0.006336692208237946
1772366296621968000,1.3129677734375,-0.037706338059902186,0.000275355475815013,0.0013043605968356131
1772366296632038000,1.323037841796875,-0.03440846555829048,-0.002512485144427046,0.0005428381724283099
1772366296642107600,1.333107666015625,-0.04263736472129821,-0.003245238132076338,0.0002673456992954016
1772366296652178000,1.343177978515625,-0.03410919035077095,0.0028926253021229055,-0.009634820438176393
1772366296662248000,1.353248046875,-0.04622983625531196,0.004263347399746999,0.0005244622655212879
1772366296672317700,1.363317626953125,-0.039946810463070866,0.0013747772182337939,0.0027136063402518626
1772366296682387700,1.3733876953125,-0.03590951777100563,-0.007197199761401861,-0.00016476210765540599
1772366296692458000,1.3834580078125,-0.038160511568188664,-0.00204714178815484,0.004153064558841288
1772366296702527700,1.39352783203125,-0.02948153055012226,-0.00015761998081579803,0.011174670291319489
1772366296712597800,1.40359765625,-0.033224224209785456,-0.004305752636212855,0.0021750059515237806
1772366296722667800,1.413667724609375,-0.031876316732168196,0.005814211837248877,-0.0026047756709158417
1772366296732737800,1.42373779296875,-0.03771335232257843,0.0008606262841727584,0.002161963806860149
1772366296742804700,1.4338046875,-0.03996376159787178,-0.0019329773565754293,0.0008443418696522712
1772366296752874500,1.44387451171875,-0.026350246787071225,0.000008895692508667706,0.000009790741652250289
1772366296762944800,1.45394482421875,-0.039823476344347,-0.0028925248374231157,0.0025608269313350317
1772366296773014800,1.464014892578125,-0.042969957676529884,-0.00003910816768184304,0.0012518997572362421
1772366296783084500,1.47408447265625,-0.0377449165046215,0.0006520067684818059,-0.003367357541248202
1772366296793154800,1.48415478515625,-0.038192660272121426,-0.006710557888774201,0.007266264675930142
1772366296803224800,1.494224853515625,-0.04641512969434261,0.0023179672193247825,0.00861366069689393
1772366296813294600,1.504294677734375,-0.03878945712149143,0.0014357958236243574,-0.002845379493758082
1772366296823364600,1.514364501953125,-0.022478958311676976,0.00396196243353188,0.002677658244036138
1772366296833435000,1.524434814453125,-0.03863280525505543,-0.0020324739419855177,0.005525960347242653
1772366296843504600,1.534504638671875,-0.03578209199905395,-0.00022743381401523947,0.0024095453597605225
1772366296853574700,1.54457470703125,-0.03622749767899513,0.001383344117179513,0.0016906199680641293
1772366296863644700,1.554644775390625,-0.045801381710171694,-0.004277996979607269,0.007605031643621623
1772366296873714700,1.564714599609375,-0.030993104156851768,0.0019542028076946732,-0.007019998297281563
1772366296883784700,1.57478466796875,-0.03234159615635872,-0.0010757303395774215,0.004904869306832552
1772366296893854700,1.584854736328125,-0.045806057885289186,-0.006920382980862632,0.005118512057512998
1772366296903924700,1.5949248046875,-0.032492987325787544,-0.007876889121253042,-0.0016980360895395277
1772366296913994800,1.604994873046875,-0.02786065135002136,0.00002047653244808316,-0.0024159385679289698
1772366296924064500,1.615064453125,-0.028458617243170736,-0.005974507832340895,-0.000011398176848888396
1772366296934134800,1.625134765625,-0.04207856179475784,-0.01054377937610261,0.0036394890135154124
1772366296944204800,1.635204833984375,-0.04223462913930416,-0.004213946166913956,-0.0006752323804423213
1772366296954274600,1.645274658203125,-0.030863340297341346,-0.003608545885980129,0.0016935425775125622
1772366296964344800,1.6553447265625,-0.036998482051491734,-0.0054913091589696705,0.00003496171552687883
1772366296974414800,1.665414794921875,-0.030119243931770324,-0.002190979838790372,0.004018076534941792
1772366296984484600,1.675484619140625,-0.027276129460334777,-0.0031918913764879104,0.0013313947342336178
1772366296994555000,1.685554931640625,-0.03790098384916782,-0.0015688384856097398,0.002204122448153794
1772366297004624600,1.695624755859375,-0.029079964011907575,0.00032390732527710496,0.0062224547114223235
1772366297014694700,1.705694580078125,-0.0326776962429285,-0.010356659306166693,0.005492313805967569
1772366297024765700,1.715765625,-0.038058220237493515,-0.0013065616870764642,0.005053228268958628
1772366297034835700,1.725835693359375,-0.046433249872922897,-0.004763396743219346,0.006530461214669049
1772366297044905700,1.73590576171875,0.0007014262676239013,-0.002099639160372317,-0.003379047979041934
1772366297054975700,1.745975830078125,-0.025481647258996962,-0.007818893590010702,0.011026603590138255
1772366297065045500,1.75604541015625,-0.03176993374824524,-0.004857249039132148,0.000592303337343037
1772366297075115800,1.76611572265625,-0.02683773804306984,-0.0021951902230270205,0.0022505919383838772
1772366297085185800,1.776185791015625,-0.0265431390106678,-0.0018288502618204801,-0.000679031772725284
1772366297095255600,1.786255615234375,-0.04001110787093639,-0.0017827917635440825,0.00758084705043584
1772366297105325800,1.796325927734375,-0.044940965488553045,0.0007219393326900899,-0.0016451003259047865
1772366297115395800,1.806395751953125,-0.031167876201868054,0.0029073753466829656,0.0006127250708639621
1772366297125465600,1.816465576171875,-0.022787585869431495,0.009822981687728315,0.007207556758634746
1772366297135535600,1.82653564453125,-0.034760347735881804,0.003620327655319124,0.0031215660866349935
1772366297145606000,1.83660595703125,-0.03701017248928547,-0.0008121931657195091,0.00032079291958361864
1772366297155675600,1.846675537109375,-0.026537293791770934,-0.004148443182650953,0.0025539587991312146
1772366297165745700,1.85674560546875,-0.022491233271360395,0.0020900310818105935,-0.007478263458795845
1772366297175816000,1.86681591796875,-0.03206570182442665,-0.00296350771440193,-0.0026321751344949005
1772366297185885700,1.8768857421875,-0.028774843585491178,-0.000564894740609452,0.003962802683748305
1772366297195955700,1.886955810546875,-0.027132921597361564,-0.0005076481280382722,0.008679675137810408
1772366297206025700,1.897025634765625,-0.0343202027529478,-0.008057944776583462,0.003315663886629045
1772366297216095700,1.907095703125,-0.035064883640408516,-0.004534419426089152,-0.0005019581727683544
1772366297226165800,1.917165771484375,-0.019649287843704222,-0.0017191428096499292,-0.0022498978186398745
1772366297236235500,1.927235595703125,-0.022349194452166557,-0.005784583883965387,-0.0008937339693307876
1772366297246305800,1.937305908203125,-0.02444704351425171,0.00010065649603493511,0.004856134794279932
1772366297256375800,1.947375732421875,-0.031183658292889594,0.005444912733975797,0.0025318565651774403
1772366297266445600,1.957445556640625,-0.027000819650292395,0.011070095671992748,0.0025234905956313014
1772366297276515800,1.967515869140625,-0.03658931672871112,0.006557541017839685,-0.002085574102401733
1772366297286585900,1.9775859375,-0.029705986955761907,0.006073894819896668,-0.00763356361836195
1772366297296655600,1.987655517578125,-0.02686462604999542,0.002393352276785299,-0.00540321075040847
1772366297306725600,1.9977255859375,-0.032548516905307766,-0.007794928192533552,-0.003719933838583529
1772366297316796700,2.007796630859375,-0.034492052188515664,-0.004063541378173977,0.006226911690831184
1772366297326866700,2.01786669921875,-0.04825695816874504,-0.0067999166726600375,0.005058123639784753
1772366297336936700,2.027936767578125,-0.014744564667344093,0.0011779851376544684,-0.0018068302262574433
1772366297347006700,2.0380068359375,-0.02686170344054699,-0.0003183361010160297,0.006502988685853779
1772366297357076700,2.04807666015625,-0.03344984965920448,-0.0032713132882490753,0.0011788710536435245
1772366297367146800,2.058146728515625,-0.01563654507100582,0.0010674465684220194,0.0048844475733116266
1772366297377216800,2.068216796875,-0.02551613405048847,0.005517274717288092,0.00797934484872967
1772366297387286800,2.078286865234375,-0.03479366548359394,0.003696023240033537,-0.0008538768829777836
1772366297397356800,2.088356689453125,-0.0340460619866848,0.004615667968755587,-0.006286277195252478
1772366297407426600,2.098426513671875,-0.022080314382910728,-0.00442504076748155,0.0037980405760928986
1772366297417496600,2.10849658203125,-0.02971592382788658,0.005318509875331074,0.002511106038093567
1772366297427566800,2.11856689453125,-0.036006548404693604,0.001463113088812679,0.00044164282027631997
1772366297437636600,2.12863671875,-0.036600422644615174,0.002491725484188646,-0.0026297639816999434
1772366297447706600,2.13870654296875,-0.037194296884536744,-0.0037433877794072028,0.007799239041469991
1772366297457777000,2.14877685546875,-0.03915069164931774,-0.005363591126073152,-0.00021722294725477694
1772366297467846700,2.1588466796875,-0.024940379989147186,-0.0021341076855547723,-0.000034559856727719304
1772366297477916700,2.168916748046875,-0.027785832548141477,0.001046394647238776,0.006177483058534562
1772366297487986700,2.178986572265625,-0.031820202630758285,0.005734360667224973,0.0006121405489742756
1772366297498056700,2.189056640625,-0.025385201147198676,-0.0027334252855740486,0.0038995647218078374
1772366297508126700,2.199126708984375,-0.027778233763575553,0.008684716639108955,0.005550254538282752
1772366297518196700,2.20919677734375,-0.028070494708418846,-0.0034042554855346677,0.00942903220038861
1772366297528266800,2.219266845703125,-0.02942132479548454,-0.005164333093771711,0.003956482540816068
1772366297538336800,2.229336669921875,-0.0346603944927454,0.0016985201467294244,-0.005064188054390252
1772366297548406500,2.239406494140625,-0.031820202630758285,-0.001011761725274846,0.0023156930638477207
1772366297558476800,2.249476806640625,-0.03212356949150562,0.001441111319558695,0.003447875431552529
1772366297568546800,2.259546875,-0.03541618129611015,-0.0039215938905254,0.0056748672986403105
1772366297578616600,2.269616455078125,-0.03811374981701374,-0.0059055433825124055,0.010519202057272196
1772366297588687600,2.2796875,-0.03003624182343483,-0.006971190719492733,0.007165142389014363
1772366297598757600,2.289757568359375,-0.03587853811085224,-0.0005518434627912938,0.001925232441537082
1772366297608828000,2.299827880859375,-0.034085809475183484,-0.003856154838344082,0.006823379746638238
1772366297618897700,2.309897705078125,-0.028097967237234112,0.0005824760630726814,0.0018154519241303205
1772366297628967700,2.3199677734375,-0.023010873231291768,0.004077040180563926,0.003573511105217039
1772366297639037700,2.33003759765625,-0.030503274813294408,0.0003888988528866321,0.0020149200189858675
1772366297649107700,2.340107666015625,-0.02916121255457401,-0.00037603937131352723,0.0023528832690790295
1772366297659177700,2.350177734375,-0.02856616927087307,-0.005706084420811384,0.001840367169678211
1772366297669247700,2.360247802734375,-0.03634732466638088,0.0036808622035197913,0.005867248065583408
1772366297679317800,2.37031787109375,-0.033954292050004005,0.004415113028511405,0.013509908305853604
1772366297689387800,2.3803876953125,-0.035755788514018054,0.0011697013664990663,0.001742167492210865
1772366297699457500,2.39045751953125,-0.03695756551921368,-0.00869467177754268,-0.00014594780933111905
1772366297709527800,2.40052783203125,-0.045783261531591415,0.0021299886328633873,0.015301285234652458
1772366297719597800,2.410597900390625,-0.028283845198154446,-0.000025426702201366424,0.004224522359855473
1772366297729667600,2.42066748046875,-0.036519758623838425,-0.0053284467474557454,0.0010813289633020758
1772366297739738600,2.430738525390625,-0.028743279403448105,0.004763643338391557,-0.0002307034833356738
1772366297749809000,2.440808837890625,-0.03293839300572872,-0.011459505981532857,0.001257818041369319
1772366297759878700,2.450878662109375,-0.03968085300326347,-0.0018485322098247706,-0.004199278320744634
1772366297769948700,2.46094873046875,-0.035490415576100345,0.0006818721837829798,0.008193462523445487
1772366297780018700,2.471018798828125,-0.029053076004981995,0.006246136981109157,0.0021077128689736126
1772366297790088700,2.481088623046875,-0.03743921155631542,-0.006457341179531067,-0.000006831599585711955
1772366297800158700,2.49115869140625,-0.03339198199212551,0.0038275863309856504,-0.0006188260180875659
1772366297810228500,2.501228515625,-0.03518587967157364,-0.001094425906892866,0.00017086305487900972
1772366297820298800,2.511298828125,-0.03398760979771614,-0.0006048431585077196,0.001522021935507655
1772366297830368800,2.52136865234375,-0.03294073109328747,0.0023948775135912,-0.0011485855132341385
1772366297840439600,2.531439453125,-0.03846972364783287,-0.00027530981004238127,0.0041167511364445086
1772366297850509600,2.541509521484375,-0.03502455163002014,-0.0009281476955860853,0.006123524381592869
1772366297860579800,2.551579833984375,-0.04160393002033234,-0.008792889721319079,-0.0009749459793791175
1772366297870649600,2.561649658203125,-0.03905833719074726,-0.0028068375816568732,-0.0003387669676914811
1772366297880719600,2.5717197265625,-0.027387188619375228,0.0001759867545682937,-0.0014009893717244267
1772366297890789600,2.58178955078125,-0.037412323549389837,0.0026374814972747115,0.0010187851211056113
1772366297900859600,2.591859619140625,-0.03591185585856437,0.0055066071928013115,0.006359634692408144
1772366297910929700,2.6019296875,-0.029178163689374922,-0.007232124944310635,0.006377097283862531
1772366297920999700,2.611999755859375,-0.03246960645020008,0.0036056963417679068,0.00715513245165348
1772366297931069700,2.622069580078125,-0.03965221143066883,-0.004884356241766363,0.0022262612147256732
1772366297941139700,2.6321396484375,-0.03216097889244556,-0.000189841749984771,0.005100464944168925
1772366297951209700,2.642209716796875,-0.03725099550783634,-0.00848829901786521,-0.0007605725763365626
1772366297961279700,2.65227978515625,-0.04547404945194721,0.00016259755003266034,0.010756444879248738
1772366297971349800,2.662349853515625,-0.0349959100574255,0.0021376787489745764,0.013493651290796696
1772366297981419500,2.67241943359375,-0.017637363499402998,-0.004114933638693765,0.0015180033475160597
1772366297991489500,2.682489501953125,-0.04053133235275745,-0.002482044340390712,0.003479110820032656
1772366298001559800,2.692559814453125,-0.03021393647789955,-0.006406359910964965,-0.00433441247511655
1772366298011629600,2.702629638671875,-0.027519290566444397,0.00298757357657887,0.0009174436384811997
1772366298021699600,2.712699462890625,-0.03185936559736729,0.0013437701586168258,-0.00046038405336439606
1772366298031769900,2.722769775390625,-0.03440262033939361,0.0005528115771710872,-0.001363726101256907
1772366298041839600,2.732839599609375,-0.027969956943392753,0.0015412015600129961,0.0011313786501064896
1772366298051909600,2.74290966796875,-0.033363924941420556,0.009131574490619822,0.008483787239529191
1772366298061979600,2.752979736328125,-0.04129822507202625,0.0035172965391073374,0.0018099354987964032
1772366298072049700,2.763049560546875,-0.04069382943809032,-0.0012750614371150732,0.0069949003886431455
1772366298082119700,2.77311962890625,-0.028573183533549307,-0.004441434779856354,0.0014188903545960783
1772366298092189700,2.783189697265625,-0.028113749328255652,0.002604008485935628,-0.007510375630110502
1772366298102260500,2.793260498046875,-0.03545008356571197,0.009645707158371805,0.00688172233775258
1772366298112330800,2.803330810546875,-0.03605038754642009,-0.0062946979637257755,-0.004183277034014463
1772366298122400800,2.81340087890625,-0.03785539114177227,-0.003129420599527657,-0.00004204904343932867
1772366298132470500,2.823470458984375,-0.03397007414102554,0.0018724154089111834,0.002376483340375125
1772366298142540800,2.833540771484375,-0.031878654819726945,-0.0028651253738440573,-0.0014697802916169166
1772366298152610800,2.84361083984375,-0.03218143715858459,0.0019454075798857955,-0.003481887299008667
1772366298162680600,2.8536806640625,-0.02978957358598709,-0.0012925422948785125,0.0026064196387305854
1772366298172750600,2.86375048828125,-0.03188566908240318,0.00500098662506789,0.004237089580483734
1772366298182820600,2.873820556640625,-0.04414893832802772,0.0037285190038383004,-0.0014655059752985834
1772366298192890600,2.883890625,-0.04010521589517593,0.00923072401615791,0.003993234354630113
1772366298202960600,2.893960693359375,-0.04085223487019539,0.00337392427935265,0.010148322918266058
1772366298213030700,2.90403076171875,-0.03545885139405727,-0.0032385800624266264,0.009983560810610652
1772366298223100700,2.9141005859375,-0.03619885610640049,0.0028431875366717574,0.00012819295693188904
1772366298233170700,2.924170654296875,-0.04097673803269863,0.0018114881350658834,0.004104768437705934
1772366298243240700,2.93424072265625,-0.02989069587290287,0.004696596851013601,0.00454341558329761
1772366298253310700,2.944310791015625,-0.03018295681774616,-0.0023883655744139105,-0.002170220178551972
1772366298263380700,2.954380615234375,-0.035865678629279134,-0.005130695685651153,-0.0007457768660038709
1772366298273450500,2.964450439453125,-0.03407178094983101,-0.005982252747379243,0.0032617417423054574
1772366298283520800,2.974520751953125,-0.034518940195441244,0.0006003679127898067,0.003750913498736918
1772366298293590800,2.9845908203125,-0.032278467792272565,-0.009503074684133753,0.001581058646366
1772366298303660500,2.99466064453125,-0.03467266945242881,0.002926436240179464,-0.0020183175524696706
1772366298313730800,3.004730712890625,-0.0337760128736496,-0.0013849789518397301,-0.006827142606303095
1772366298323800600,3.014800537109375,-0.03467091588675975,-0.003371978917438537,0.0011710530733689665
1772366298333870600,3.02487060546875,-0.03885901522636413,0.0033364326800219713,0.004494717603363096
1772366298343940600,3.034940673828125,-0.03931026612520218,0.0034083380056079476,0.005474741616658866
1772366298354010600,3.0450107421875,-0.03467033136487007,-0.004231819750322029,0.005190700510889291
1772366298364080600,3.05508056640625,-0.02823883701264858,-0.0008692936478182673,-0.002339366200380027
1772366298374151700,3.065151611328125,-0.035574586728215216,-0.006228601324418559,-0.00438760396707803
1772366298384221400,3.075221435546875,-0.02913198646008968,-0.005629539452726021,-0.0010939692491665483
1772366298394291700,3.085291748046875,-0.02674129193127155,0.012074322544783352,0.0007854147566482424
1772366298404361700,3.09536181640625,-0.028539281263947485,0.0016611472784075884,-0.0007846841042861342
1772366298414431500,3.105431396484375,-0.02972469165623188,-0.011604924067901447,0.00603968202304095
1772366298424501800,3.115501708984375,-0.02897299650609493,0.006502367631345987,0.00850672972369939
1772366298434571800,3.12557177734375,-0.021189503023028373,0.0008002469995990395,0.00361482949629426
1772366298444641500,3.1356416015625,-0.023434651601314544,0.002018637212878093,-0.002529445412382483
1772366298454711600,3.145711669921875,-0.028519407519698142,0.0012686682289466261,-0.0020151392146945
1772366298464781800,3.15578173828125,-0.02657002701759338,0.002302924913819879,0.006149206812120974
1772366298474851600,3.1658515625,-0.029853286471962927,-0.01191188025837764,0.006618358693830669
1772366298484921600,3.175921630859375,-0.026856442743539807,-0.003713074839534238,0.007144793720729649
1772366298494992000,3.185991943359375,-0.023562661895155906,-0.0019275796622503548,-0.0011971738953143359
1772366298505061600,3.1960615234375,-0.023119594302773473,0.0018233155701775103,-0.003714125152304768
1772366298515131600,3.206131591796875,-0.021177228063344954,-0.013407151184277608,0.0022162512773647902
1772366298525201700,3.21620166015625,-0.021767595171928403,-0.0003005081833805889,0.001778225186280906
1772366298535271700,3.226271728515625,-0.027450316983461377,-0.000900446837907657,0.008740538479574024
1772366298545341700,3.236341796875,-0.024444120904803274,0.0010763605272397399,0.002573211488872766
1772366298555411500,3.246411376953125,-0.022942484170198438,-0.0021727774618193504,-0.0019408684020861982
1772366298565481700,3.256481689453125,-0.025340777483582495,0.010489300109352916,-0.00006831599585711956
1772366298575551700,3.2665517578125,-0.019657471150159835,-0.0021258513138629493,0.0033318113038316366
1772366298585621500,3.27662158203125,-0.023549217891693112,0.002457969345059246,0.0034777225805446505
1772366298595691800,3.28669189453125,-0.025347207224369048,-0.002022564469324425,0.0007697057308629155
1772366298605761800,3.29676171875,-0.03417582584619522,-0.003456752857752144,0.002880414274521172
1772366298615832600,3.30683251953125,-0.025193477967381476,0.006612951866351068,0.004917984516732394
1772366298625902600,3.316902587890625,-0.028329437905550002,0.0015037830259185282,0.007755363367125391
1772366298635972900,3.326972900390625,-0.0278764334410429,-0.0015637969843111932,0.0008237009404227137
1772366298646042600,3.337042724609375,-0.024722353324294087,-0.000026011224091053008,0.004950242818519473
1772366298656112600,3.347112548828125,-0.014841010779142379,-0.002197738373139873,0.004005217053368687
1772366298666182700,3.3571826171875,-0.02875263175368309,-0.003254380419757217,0.008287022558413445
1772366298676252700,3.367252685546875,-0.008552724289894103,0.006098718733899295,0.008433701020106673
1772366298686322700,3.37732275390625,-0.011999065351486206,0.005869193427497521,0.010136559415236114
1772366298696392700,3.387392822265625,-0.019334230545163155,0.00010240092854946851,0.0027260274304077028
1772366298706462700,3.397462646484375,-0.028008535388112068,-0.003854465204756707,0.005953282381221651
1772366298716532700,3.40753271484375,-0.024113281515240666,0.0026755758848041296,0.00335829745195806
1772366298726602500,3.4176025390625,-0.028297873723506926,0.00706480555338785,0.009198182586580514
1772366298736672500,3.427672607421875,-0.0305342544734478,-0.003045678705675527,0.006696392366103828
1772366298746742800,3.43774267578125,-0.027541502398252486,0.0001636569959577173,0.005072882817499339
1772366298756812800,3.447812744140625,-0.016166706424951553,-0.00723586953766644,0.004957622407376766
1772366298766882800,3.4578828125,-0.01945814918577671,0.0005120503085199743,0.0019755013240501285
1772366298776952800,3.467952880859375,-0.01915653589069843,0.0018524594662711023,0.00833484375551343
1772366298787022800,3.47802294921875,-0.0211012402176857,0.002842182889673859,0.002381707504764199
1772366298797092900,3.4880927734375,-0.02034428437054157,0.0035614462080877274,0.009300583515129983
1772366298807163000,3.498162841796875,-0.023341712620854375,-0.0019929730486590415,0.009797828980162739
1772366298817234000,3.50823388671875,-0.022585925817489624,0.0038011915144044906,0.012973572939448058
1772366298827304000,3.518303955078125,-0.01914133832156658,0.006213275891123339,0.006614851562492549
1772366298837373700,3.528373779296875,-0.019142507365345954,0.000499437422119081,0.012415719860978424
1772366298847443700,3.538443603515625,-0.026018822875618932,-0.0031950423147995024,0.002709076295606792
1772366298857514000,3.548513916015625,-0.02751169178187847,0.0017259104771539567,0.008495696873031556
1772366298867583700,3.558583740234375,-0.024963760864734647,-0.005856607940560207,0.010090199522860348
1772366298877653800,3.56865380859375,-0.023317747223377226,-0.006547375816851854,0.005470284637250006
1772366298887723800,3.578723876953125,-0.022861820149421692,0.008836948058754205,0.009236687966063618
1772366298897793800,3.588793701171875,-0.022564883029460907,0.0027981610848568377,0.007260346391797065
1772366298907863800,3.59886376953125,-0.02914776855111122,0.004130085542052984,0.006416369848325848
1772366298917933800,3.608933837890625,-0.033195582637190815,-0.0057482247957959766,-0.0027252967780455944
1772366298928003800,3.61900390625,-0.018985855498909947,0.005746315966499969,0.001514642346650362
1772366298938073900,3.629073974609375,-0.024374562799930572,0.002858668233593926,0.007633015629090368
1772366298948143600,3.6391435546875,-0.015849311038851736,0.004348084807442501,0.006034677054360509
1772366298958214000,3.6492138671875,-0.026769933503866195,0.00006627016924321652,0.008365677285194396
1772366298968284000,3.659283935546875,-0.0270703777551651,0.0073538059620652345,0.002974156972579658
1772366298978353700,3.669353759765625,-0.01599602603316307,0.009251118350215255,0.007808372195996343
1772366298988424000,3.679423828125,-0.024224340674281118,-0.0012798380769323556,0.003219290840066969
1772366298998495000,3.689494873046875,-0.02646773568689823,0.004046663308609277,0.005811316627264022
1772366299008564700,3.699564697265625,-0.02781447412073612,0.007165991772385314,0.002547163732163608
1772366299018634800,3.709634765625,-0.02287234154343605,0.004727211184985936,0.007267689448036253
1772366299028704800,3.719704833984375,-0.029454642543196675,0.005613136307196691,0.003417151499725878
1772366299038774800,3.72977490234375,-0.029298575198650357,-0.005446693699108437,0.0035852380756288766
1772366299048844800,3.7398447265625,-0.025700258445739744,-0.002586089236754924,0.003306567264720797
1772366299058914800,3.749914794921875,-0.03586626315116882,0.00696090678749606,0.006074461075477302
1772366299068984800,3.75998486328125,-0.023892916762828825,0.004713849379913881,0.009125117350369692
1772366299079054800,3.770054931640625,-0.028525837260484695,0.0024222678440157324,0.008940627628937364
1772366299089124600,3.78012451171875,-0.021038111853599547,0.010660592422494664,0.007425071966834366
1772366299099195000,3.79019482421875,-0.02612695942521095,0.0023884477728046477,0.012811185451969504
1772366299109265000,3.800264892578125,-0.02492401337623596,0.00971288150991313,0.01679696715250611
1772366299119334700,3.810334716796875,-0.027764789760112762,0.007265990681294352,0.012653547204844653
1772366299129404700,3.82040478515625,-0.03703881406188011,0.0034489896764047442,0.002117503610625863
1772366299139475000,3.830474853515625,-0.031802082452178,0.007473185424879193,-0.0010049757914617657
1772366299149544700,3.840544677734375,-0.028055297139286995,0.011799350661458447,0.010042122597433626
1772366299159614700,3.85061474609375,-0.033441081830859185,0.005881066528381779,0.0039417598957195875
1772366299169685800,3.860685791015625,-0.023714637586474418,0.005238028517644852,0.005139335649833083
1772366299179755800,3.870755859375,-0.033577859953045845,0.001772370834229514,0.017086780411936342
1772366299189825800,3.88082568359375,-0.03238075912296772,-0.00007570471786893904,0.012014518648944794
1772366299199895800,3.890895751953125,-0.025343700093030927,0.002692600084841251,0.005996244740113616
1772366299209965800,3.9009658203125,-0.03267068198025226,0.0027481479306705296,0.0056654418831691145
1772366299220035800,3.911035888671875,-0.028924481189250943,-0.008276382433390244,-0.001529657252691686
1772366299230105900,3.92110595703125,-0.03326280265450477,0.00625905126160942,0.01044248355925083
1772366299240175600,3.931175537109375,-0.03685118253529072,0.007613662474649027,0.009759104404971002
1772366299250246000,3.941245849609375,-0.04028174150586128,0.0023247714194469154,0.010291238520294427
1772366299260316000,3.95131591796875,-0.04356792356967926,-0.0038322077071759847,0.004764803249016404
1772366299270385700,3.9613857421875,-0.027554946401715276,0.0010091131104622035,0.003759206403046846
1772366299280456000,3.9714560546875,-0.036679917621612546,0.006154860234772786,0.006834522195160389
1772366299290526000,3.98152587890625,-0.033228315863013266,0.00008073708601295947,0.015891908071562648
1772366299300594000,3.991593994140625,-0.024691958186030386,-0.002509553401824087,0.004847293900698423
1772366299310663700,4.00166357421875,-0.02348842761516571,-0.010043501703767105,0.0057372650103643535
1772366299320733700,4.011733642578125,-0.02423427754640579,-0.0017662972864694892,0.002387004734389484
1772366299330804000,4.021803955078125,-0.03290799786746502,-0.0013248371292836963,0.007584609910100698
1772366299340873700,4.031873779296875,-0.037840778094530104,0.002874103264743462,0.004570047861896455
1772366299350943700,4.04194384765625,-0.039784897899627684,0.0033141021172050384,0.011201156439445912
1772366299361014000,4.052013916015625,-0.03739712598025799,0.0058980541958007955,0.010468713979050517
1772366299371084800,4.062084716796875,-0.025873276925086973,-0.000993440617294982,0.011255480442568659
1772366299381154800,4.07215478515625,-0.04906593646407127,0.009405222066538408,0.013693155918270349
1772366299391224800,4.082224853515625,-0.04188274696171283,-0.004745267431484535,0.005497355307266116
1772366299401294600,4.092294677734375,-0.035593291428685184,0.004688249147776514,0.008587430277094245
1772366299411364900,4.10236474609375,-0.022284312522411344,-0.0007444890912156551,0.013776925211586057
1772366299421435000,4.112434814453125,-0.032603461962938306,0.004848526876559481,0.011186799120530486
1772366299431504600,4.122504638671875,-0.046375382205843925,0.004906522407801822,0.008840345592238008
1772366299441575000,4.132574951171875,-0.037842531660199165,-0.0003749525259248912,0.006214928992092609
1772366299451645000,4.14264501953125,-0.03753624219000339,0.004900531058432534,0.009938150766305625
1772366299461714700,4.152714599609375,-0.029597265884280202,0.006013223274378106,0.009952581150457263
1772366299471784700,4.16278466796875,-0.030187632992863655,0.004866254329495132,0.0019165376784279942
1772366299481855000,4.17285498046875,-0.033923312389850614,0.008643982769921421,0.006786079943552613
1772366299491924700,4.1829248046875,-0.03497136013805866,0.003147823905898258,0.012739216194301843
1772366299501994800,4.192994873046875,-0.029436522364616392,0.00466955358046107,0.014026735254190861
1772366299512064800,4.203064697265625,-0.04425649035573005,-0.006314708705293015,-0.0023981471829116344
1772366299522134800,4.213134765625,-0.04051847287118435,0.002808883408270776,0.013128032848797738
1772366299532204800,4.223204833984375,-0.028693010520935057,0.0035401750911958512,0.005281739795207977
1772366299542275800,4.23327587890625,-0.030940497186779974,-0.0030882666052319107,0.011347798368521034
1772366299552345900,4.243345947265625,-0.03348550549447536,0.0009363218688871711,0.01045658514983952
1772366299562415900,4.253415771484375,-0.02720364874601364,0.00697893563453108,0.007106105678156018
1772366299572485600,4.263485595703125,-0.032442718443274496,-0.0014322795591317117,0.0103518096011132
1772366299582555600,4.2735556640625,-0.041568274185061455,-0.007134637652896344,0.015789251414686442
1772366299592626000,4.2836259765625,-0.040519057393074036,-0.0017176541054621337,0.01017879112176597
1772366299602695700,4.29369580078125,-0.03304243790209293,0.011108244858449324,0.013383322784118353
1772366299612765700,4.303765625,-0.025267712247371673,0.005523768390156328,0.012746120859123765
1772366299622836000,4.3138359375,-0.025574001717567442,-0.0010757120732683687,0.008583119428157806
1772366299632905700,4.32390576171875,-0.037541502887010574,0.005680246726656332,0.01299958416353911
1772366299642975700,4.333975830078125,-0.03035772886276245,-0.0012720200966577977,0.0019352423788979649
1772366299653046000,4.3440458984375,-0.02557049458622932,-0.00771620040051639,-0.0004842398529872298
1772366299663115800,4.35411572265625,-0.03484861054122448,0.0042375371050555255,0.007736329873092472
1772366299673185800,4.364185791015625,-0.030960370931029317,-0.006526013368414714,0.007237842299044132
1772366299683255800,4.374255859375,-0.026619126856327054,-0.008283935552183538,-0.0009536109304055571
1772366299693325800,4.384325927734375,-0.03934007674157619,0.0036437633298337458,0.00618657968044281
1772366299703395800,4.394395751953125,-0.03111936088502407,-0.0032234281590674072,0.015137326844595372
1772366299713467000,4.404466796875,-0.03366846084594726,-0.003965478698024526,0.0054489130556583405
1772366299723536600,4.41453662109375,-0.029178748211264607,-0.0019962061853613703,0.008758512527681887
1772366299733607000,4.42460693359375,-0.0384551106005907,0.0008298110208008438,0.0071721931843087075
1772366299743676200,4.43467626953125,-0.036656536746025085,0.0054637818312272424,0.011720577203668653
1772366299753746200,4.44474609375,-0.03112052992880344,0.005946514713717624,0.010844780749827622
1772366299763816200,4.454816162109375,-0.02857610614299774,0.0033858247797004877,0.0047200873244553805
1772366299773886200,4.46488623046875,-0.025735914281010627,0.0004900394061114638,0.004043905095942318
1772366299783956200,4.474956298828125,-0.029181670820713042,0.006844267271040007,0.010522088134102523
1772366299794026200,4.485026123046875,-0.03800795135498047,0.00421002804362215,0.007747581919468939
1772366299804096300,4.49509619140625,-0.022737316986918447,0.0034288054049015043,0.008354680967144668
1772366299814166300,4.505166259765625,-0.02691664849817753,0.005269455702370032,0.004383256585523486
1772366299824236000,4.515236083984375,-0.033953707528114316,0.0074228343439754095,0.005466887103766202
1772366299834306300,4.525306396484375,-0.03650397653281688,0.008375431494228541,0.009491393379494548
1772366299844376300,4.535376220703125,-0.025131518647074698,0.009669371161749585,0.004544621159695088
1772366299854446000,4.545446044921875,-0.025725392886996268,-0.003430714234197512,0.001068652144819498
1772366299864516400,4.555516357421875,-0.02558160050213337,0.0010303385615814476,0.016192827246896923
1772366299874587400,4.56558740234375,-0.037704584494233126,0.0087462832337711,0.010746836800687014
1772366299884657200,4.5756572265625,-0.03874854058921337,-0.001099914932763204,0.004089570868574082
1772366299894729200,4.585729248046875,-0.029326047727465627,0.010562739804899319,0.00521411791909486
1772366299904799200,4.59579931640625,-0.03815817348062992,0.0027005002635065467,0.005894610996544361
1772366299914869200,4.605869140625,-0.04025543802082538,0.004025675319507717,0.002817651236616075
1772366299924939300,4.615939208984375,-0.03965922569334507,0.001257534913579002,0.0012550050297752023
1772366299935009300,4.62600927734375,-0.020504443368315695,-0.007654816468944773,0.005001644212193786
1772366299945079300,4.636079345703125,-0.03307634017169475,0.0024097462891601025,0.013823833093233406
1772366299955149000,4.646149169921875,-0.0332224706441164,0.000155729417828843,0.010302307903580367
1772366299965219300,4.65621923828125,-0.037567806372046465,-0.0007588281438220292,0.008413717678003012
1772366299975289000,4.6662890625,-0.03353285176753998,0.002776478976011276,0.006809424286521971
1772366299985359000,4.676359130859375,-0.030536592561006545,0.0024202585500199348,0.0074746101969853035
1772366299995429400,4.686429443359375,-0.020965046617388725,-0.0003642393356654793,0.006439714191295206
1772366300005500400,4.69650048828125,-0.030853403425216672,0.006830805001268163,0.008304631280340254
1772366300015570200,4.706570068359375,-0.03505202415883541,0.005798868137644604,0.0031396862652152773
1772366300025640200,4.71664013671875,-0.03415653662383556,-0.000600815437361598,0.007579860669746995
1772366300035710200,4.726710205078125,-0.04044833024442196,0.0037983054375741628,0.013398191559687257
1772366300045780200,4.7367802734375,-0.03326923239529132,0.005319130929838866,0.013431070915982127
1772366300055850200,4.746850341796875,-0.0284819981187582,0.015818130449298768,0.007852722794376312
1772366300065920000,4.756919921875,-0.054363458350300785,0.0010746343610342592,0.0024620792645961044
1772366300075990300,4.766990234375,-0.03969838865995407,0.0074397306798491625,-0.0035369419544935225
1772366300086060300,4.777060302734375,-0.031024083817005155,-0.0006210727741010486,0.010554894425161183
1772366300096130000,4.787130126953125,-0.042704000216722486,0.0056434766465332355,0.004086977052688599
1772366300106200300,4.797200439453125,-0.04120703965723514,0.0007938811908941715,0.015640782854706048
1772366300116270300,4.807270263671875,-0.031628479450941084,0.006794975636061281,0.011643712575174867
1772366300126340000,4.817340087890625,-0.032985739278793336,0.001838604470854625,0.009454130109027027
1772366300136410000,4.82741015625,-0.03583879062235355,0.006954577511409297,0.0032506723590195177
1772366300146480400,4.83748046875,-0.029107436540722845,-0.0008947294831741601,0.00469031324069947
1772366300156550100,4.847550048828125,-0.029105682975053785,0.004382078408589586,0.009184373256936669
1772366300166620200,4.8576201171875,-0.02642155845761299,0.007806390301464125,0.0022447467194870114
1772366300176691200,4.867691162109375,-0.036004210317134855,-0.0034854218298103657,0.009318776758946478
1772366300186761200,4.87776123046875,-0.046484687799215316,-0.00431540638054721,0.008594809865951538
1772366300196831200,4.887831298828125,-0.032574820390343665,0.002009001734852791,0.004271832100301981
1772366300206901200,4.8979013671875,-0.03212649210095406,0.01077093919548206,0.00035721593983471393
1772366300216971300,4.90797119140625,-0.03736322371065617,0.00040060755698941643,0.007995930657349526
1772366300227041300,4.918041259765625,-0.03347673766613007,-0.002901639725640416,0.0019482479909434913
1772366300237111300,4.928111328125,-0.03587561550140381,-0.002979828661540523,0.00919032807368785
1772366300247181000,4.93818115234375,-0.031094226443767546,-0.0013667674417141824,0.007051452881470322
1772366300257251300,4.948251220703125,-0.039627076989412306,0.000438382284110412,0.0063750514572486275
1772366300267321000,4.958321044921875,-0.03394669326543808,0.007232152343774214,0.009102795920707285
1772366300277391000,4.96839111328125,-0.034999417188763614,0.0045117600697092706,0.00014777444023638962
1772366300287461400,4.97846142578125,-0.03171966486573219,-0.0022257497580721974,0.0008065671425312757
1772366300297531100,4.98853125,-0.039811201384663576,0.006290761574124917,0.009717457220330834
1772366300307601200,4.99860107421875,-0.0402677129805088,0.001554609030857682,0.008220569726079702
1772366300317671400,5.00867138671875,-0.024863223099708554,-0.0008180566509254277,0.010436053818464278
1772366300327741200,5.0187412109375,-0.04386719877719879,0.006451505093788727,0.013718765283562242
1772366300337811200,5.028811279296875,-0.05015782335400581,-0.0008456753102131187,0.007749298952519893
1772366300347881200,5.038881103515625,-0.04252572104036808,-0.003329701545136049,0.0035565599704161285
1772366300357952000,5.048951904296875,-0.0404290410220623,0.0037708511750679462,0.013907054397277532
1772366300368022300,5.059022216796875,-0.04087035504877567,0.008006031926255673,0.010340228761173784
1772366300378092300,5.06909228515625,-0.036683424752950666,0.00510525985029526,0.005782455858960748
1772366300388162000,5.079162109375,-0.03593465221226215,0.0029255411910358814,0.003078238401561975
1772366300398232300,5.089232421875,-0.02546177351474762,0.0031753968994133173,0.007367496560700237
1772366300408302300,5.09930224609375,-0.030100539231300353,-0.0010624781323596835,0.0070898121304810045
1772366300418372000,5.1093720703125,-0.04072656266391277,0.008559994280897081,0.0034644247075542806
1772366300428442000,5.119442138671875,-0.028905191966891286,0.008198321361653505,0.004983962425030767
1772366300438512400,5.129512451171875,-0.03145195384025574,-0.0011922237255610525,0.007470847337320447
1772366300448582100,5.13958203125,-0.03475391799509525,-0.00010819134851917624,0.002917093023099005
1772366300458652200,5.149652099609375,-0.033113165050745005,-0.003927621772512793,0.003690269352681935
1772366300468722200,5.15972216796875,-0.03461421726346016,-0.002191600893298164,0.009402217258699238
1772366300478792200,5.169792236328125,-0.04045592902898788,0.005538975092442706,0.005858334106765687
1772366300488862200,5.1798623046875,-0.03372223685979843,0.0054332314293365925,0.003917392639443278
1772366300498932200,5.18993212890625,-0.04105681753158569,-0.0015098474405240267,0.007602182099409401
1772366300509002200,5.200002197265625,-0.03312485548853874,-0.0011076689809560775,0.009105755062773823
1772366300519072300,5.210072265625,-0.03821194949448108,0.006627217853721231,0.007469970554485917
1772366300529142000,5.22014208984375,-0.04824000703394413,0.004885397421382367,0.005810805170610547
1772366300539212300,5.23021240234375,-0.040462358769774436,0.007904361650068312,0.004093224130384624
1772366300549283300,5.240283447265625,-0.02759410936832428,0.0020573891875334083,0.012752075675874948
1772366300559353000,5.25035302734375,-0.04120762417912483,0.000031527649424970145,0.0014420520344749091
1772366300569423000,5.260423095703125,-0.036412206596136094,-0.005145920654246583,0.004724507771246135
1772366300579493400,5.270493408203125,-0.03057809361517429,0.004746902266144752,0.006039937751367688
1772366300589563100,5.280563232421875,-0.04704115263819694,0.006078068671515211,0.005664418969862163
1772366300599633200,5.290633056640625,-0.03312485548853874,0.002747636474017054,0.006134776427969336
1772366300609703400,5.300703369140625,-0.03686579558253288,-0.0007336480367928742,0.013315810505859553
1772366300619773200,5.310773193359375,-0.03955518079698086,0.005415522242709994,0.0039485914953053
1772366300629843200,5.32084326171875,-0.03521452124416828,-0.003110560635430738,0.0021497619124129412
1772366300639913200,5.330913330078125,-0.0359673854380846,-0.001714813694404438,0.006839198370277882
1772366300649983200,5.340983154296875,-0.038509471136331554,-0.0012121066029649227,0.008237557393498718
1772366300660053200,5.35105322265625,-0.03297287979722023,0.010701015764428301,0.004193908025883138
1772366300670123000,5.361123046875,-0.03701134153306484,0.009462742673745379,0.007962211050838231
1772366300680193300,5.371193359375,-0.03461421726346016,0.00788864349112846,0.013128142446652055
1772366300690263300,5.38126318359375,-0.028481413596868514,0.005511529963091015,0.008294109886325896
1772366300700333000,5.3913330078125,-0.035514965495467184,0.007989491783408447,0.0052653001170605415
1772366300710403300,5.4014033203125,-0.03491933768987655,0.0019618107254151256,0.003993709278665483
1772366300720473300,5.411473388671875,-0.03671381989121437,0.004414382376149296,0.0077488605611026285
1772366300730543000,5.421543212890625,-0.03626256899237632,-0.0045902412665542215,0.010521503612212836
1772366300740614400,5.431614501953125,-0.034168227061629294,-0.004460897532152012,0.005265446247532964
1772366300750684200,5.44168408203125,-0.042247488620877266,0.00728299661502242,0.012934811831638216
1772366300760754400,5.45175439453125,-0.024134908825159073,0.00047219322216697035,0.012351166724786162
1772366300770824400,5.461824462890625,-0.03461012561023235,-0.006340418535284697,0.00860076468270272
1772366300780894200,5.471894287109375,-0.03161678901314735,0.014080419936496764,0.003998458519019186
1772366300790964500,5.481964599609375,-0.041186581391096114,0.00496119347079657,0.012085684189014135
1772366300801034500,5.492034423828125,-0.03774024032950401,0.0010066562918946147,0.0015470833115279674
1772366300811104300,5.502104248046875,-0.03923603184521198,-0.002286174708418548,0.00006835252847522497
1772366300821174300,5.51217431640625,-0.03384907810986042,0.0038519718535710125,0.007841689943708478
1772366300831244300,5.522244384765625,-0.03189735952019691,0.00506218789354898,0.004101918893493712
1772366300841314300,5.532314208984375,-0.030551790130138395,0.004552923197159543,-0.0005491217827424407
1772366300851384300,5.54238427734375,-0.03309972104728222,-0.002041981555847451,0.012677293406613171
1772366300861454300,5.552454345703125,-0.03893617211580276,0.0021348657373804598,0.006112381933070719
1772366300871524400,5.5625244140625,-0.030557635349035262,0.0025396562791429457,0.005781980934925377
1772366300881594400,5.572594482421875,-0.03698912970125675,-0.0016961637928616254,0.007062193471193313
1772366300891664400,5.582664306640625,-0.0416314025491476,0.00099903010786511,0.003575593464449048
1772366300901734400,5.592734375,-0.02637362766265869,0.006675093849748372,0.0027102818720042706
1772366300911804400,5.602804443359375,-0.031763504007458684,-0.00535382778388448,0.0012901494083926081
1772366300921874200,5.612874267578125,-0.035655250748991965,-0.004727622176939622,0.011023315654508769
1772366300931944400,5.6229443359375,-0.04299216950833797,0.005283895219676196,0.009596972645819187
1772366300942014500,5.633014404296875,-0.03296352744698524,0.0020571425923611966,0.006807232329435646
1772366300952085200,5.643085205078125,-0.02637713479399681,0.0019672449523583054,0.006269106864742934
1772366300962155300,5.6531552734375,-0.03774725459218025,0.003777573176799342,0.009167020263336599
1772366300972225500,5.6632255859375,-0.032653730845451354,0.00457234028368257,0.009725348265841602
1772366300982295300,5.67329541015625,-0.03340016529858112,0.0032548005448654292,0.0018419746048748491
1772366300992365300,5.683365234375,-0.0339981311917305,0.004320438748691231,0.000367079746723175
1772366301002435300,5.693435302734375,-0.0416314025491476,0.0025098091301508246,0.01184599368162453
1772366301012505300,5.70350537109375,-0.030858079600334164,0.0021362996426410974,0.01345708214007318
1772366301022575400,5.713575439453125,-0.02606558462679386,-0.006498486040672287,0.004064217231608927
1772366301032645000,5.72364501953125,-0.0212754277408123,-0.0026944997809827324,0.009922770534083247
1772366301042715400,5.73371533203125,-0.025616671815514563,-0.0012946794530376792,0.002679813668504357
1772366301052785400,5.743785400390625,-0.028005612778663633,0.00805772558087483,0.0068493544381111856
1772366301062855200,5.753855224609375,-0.032495325413346286,0.003189936881419271,0.0012804317319765686
1772366301072925400,5.763925537109375,-0.036382395979762075,0.0009948197236284613,0.001073620580881834
1772366301082995500,5.773995361328125,-0.02755436187982559,0.008058392301155255,0.007509023923240601
1772366301093065200,5.784065185546875,-0.04282032007277012,0.007023742890637367,0.00250073077455163
1772366301103135200,5.79413525390625,-0.03533843988478184,0.0006225797445978969,0.006557349221594631
1772366301113205500,5.80420556640625,-0.039971360382437704,0.005907552676508203,0.009534319205768405
1772366301123275300,5.814275146484375,-0.039516017830371855,-0.001152896362170577,0.0107447179088369
1772366301133345300,5.82434521484375,-0.036816695743799206,0.00877655964102596,0.0032208617426455017
1772366301143415600,5.83441552734375,-0.025583938589692115,0.003237191822938621,0.010325067724660039
1772366301153485300,5.8444853515625,-0.03290916691124439,0.0028137057138606903,0.00955554465688765
1772366301163556400,5.854556396484375,-0.02512450438439846,-0.004683910899376496,0.009184555920027196
1772366301173626400,5.86462646484375,-0.030803134542703628,-0.005799891050951555,0.00934336321093142
1772366301183696400,5.8746962890625,-0.031098318096995353,-0.0011429138242732733,0.00026858780831098556
1772366301193766400,5.884766357421875,-0.04172141892015934,-0.0004061879144050181,0.004789389701001346
1772366301203836400,5.89483642578125,-0.030489830809831617,0.00252624880829826,0.011247479799203574
1772366301213906200,5.90490625,-0.03497662083506584,0.004244249973632395,0.004442439426854253
1772366301223976400,5.9149765625,-0.03872048353850841,-0.0021752342803869396,0.00018467238452285527
1772366301234046200,5.925046142578125,-0.034983050575852395,-0.001963482092693448,0.013285598030686378
1772366301244116200,5.9351162109375,-0.03617898236215114,-0.004839000996388495,0.012436214659735559
1772366301254186500,5.9451865234375,-0.03572597789764404,0.0003567318826448172,0.007139313828013837
1772366301264256300,5.95525634765625,-0.03901566709280014,-0.00627893413901329,0.010047492892295121
1772366301274326300,5.965326171875,-0.04155833731293678,0.008067653319844976,-0.00219714471809566
1772366301284396300,5.975396240234375,-0.04545008405447006,0.007775364975538104,0.0051115343274548645
1772366301294466300,5.98546630859375,-0.037220015847682954,0.007065189145877957,0.008857735118456184
1772366301304536300,5.995536376953125,-0.04036708170175552,-0.0002341740820556879,0.008015292944945395
1772366301314606300,6.0056064453125,-0.038116087904572486,0.0014076200419105588,0.01058850443381816
1772366301324676400,6.01567626953125,-0.04499649506807327,-0.0032752222783863543,0.002261405593343079
1772366301334746400,6.025746337890625,-0.030927053183317184,0.0027066925422754135,0.004705766538158059
1772366301344816400,6.03581640625,-0.029282208585739135,0.005613885225867852,0.005283310697786509
1772366301354886400,6.045886474609375,-0.032277883270382876,0.004821173078753054,0.002993226999230683
1772366301364956400,6.055956298828125,-0.023742694637179373,0.002648669611569494,0.009734262224659323
1772366301375026200,6.066026123046875,-0.033765491479635236,0.004636555493157357,0.001272906012646854
1772366301385097200,6.07609716796875,-0.03242342922091484,0.009148251630784943,0.007753573268838227
1772366301395167200,6.086167236328125,-0.03168050189912319,-0.00006189538822509347,-0.0032648470148444173
1772366301405237500,6.096237548828125,-0.02808276966810226,-0.005907908869534731,0.001959061645902693
1772366301415307300,6.106307373046875,-0.039600188982486725,-0.004818469665013253,0.01700925819631666
1772366301425377300,6.116377197265625,-0.04243687371313572,-0.0004550685574300587,0.010724807631969452
1772366301435447600,6.126447509765625,-0.04917115040421485,0.00643143955329433,0.0057678428117185826
1772366301445517300,6.136517333984375,-0.03406476668715477,0.007968832587869838,0.01460588684901595
1772366301455587300,6.14658740234375,-0.027470190727710724,0.002037122717639431,0.008977890899404883
1772366301465657300,6.1566572265625,-0.034496728363633156,0.007710309515846892,0.006567834082990885
1772366301475727400,6.166727294921875,-0.03164718415141105,0.006152147687878459,0.009090447895787656
1772366301485797400,6.17679736328125,-0.038969489863514895,0.006248794729076326,0.008407872459106147
1772366301495867100,6.1868671875,-0.03193184631168842,-0.0013313582016155122,0.012980075745470821
1772366301505937400,6.1969375,-0.03177928609848022,-0.005656217397097498,0.015591683015972375
1772366301516007400,6.20700732421875,-0.03386369115710258,0.001775740968249738,0.011032850667834281
1772366301526077200,6.2170771484375,-0.035357144585251805,0.008593576890090479,0.006284998553618788
1772366301536147500,6.2271474609375,-0.028166356298327443,-0.0011662673003971576,0.005452748980559408
1772366301546217500,6.237217529296875,-0.03968552917838097,-0.0017841343372594564,0.0064032911710441105
1772366301556287200,6.247287353515625,-0.0437228218704462,0.004012706240080296,0.00858626123331487
1772366301566357200,6.257357177734375,-0.028458617243170736,0.009270772898755967,0.008321838143467902
1772366301576427300,6.26742724609375,-0.03309913652539253,-0.0028060612635221333,0.007396101600676774
1772366301586497300,6.277497314453125,-0.04087736931145191,0.0018662322632968424,0.005224639313109219
1772366301596567300,6.2875673828125,-0.03729132751822471,0.00511106853657402,0.012133724581822752
1772366301606638300,6.297638427734375,-0.03296060483753681,0.00153322831611149,0.0036773002732545137
1772366301616708400,6.307708251953125,-0.03131809832751751,-0.005206263406202197,0.009725348265841602
1772366301626778400,6.3177783203125,-0.027274375894665717,0.002130591421062127,0.014302446923032402
1772366301636848400,6.327848388671875,-0.024134324303269384,0.004943329020543024,0.005864909978024661
1772366301646918400,6.33791845703125,-0.03266659032702446,-0.007020610218634828,0.01343454151470214
1772366301656988400,6.347988525390625,-0.032065117302536965,-0.003083279902860522,0.008442432315833866
1772366301667058200,6.35805810546875,-0.03640402328968048,0.004917884052032605,0.005630260971933603
1772366301677128200,6.368128173828125,-0.026679332610964772,-0.0035558932501357048,0.007550232716463506
1772366301687198500,6.378198486328125,-0.03221709299385547,0.004997516026347876,0.010818404199555516
1772366301697268200,6.388268310546875,-0.03476093225777149,0.012277699629776179,0.011564217598177492
1772366301707338200,6.398338134765625,-0.02458382163643837,0.0023870869327802208,0.005466010320931673
1772366301717408500,6.408408447265625,-0.039541736793518065,-0.002232133833086118,0.0039508199850097295
1772366301727478300,6.418478271484375,-0.03609598025381565,0.0006168989224825054,-0.0026871201921254396
1772366301737548300,6.42854833984375,-0.02577449272572994,-0.005919096983829513,0.001873904113098979
1772366301747618600,6.43861865234375,-0.03280512201488018,0.002206570133566856,0.00927592399790883
1772366301757688600,6.4486884765625,-0.033249943172931666,-0.004683070649160072,0.00849383370950818
1772366301767758600,6.458758544921875,-0.04072656266391277,-0.001968066936265677,0.011608970055356622
1772366301777828400,6.468828369140625,-0.03294014657139778,0.00495788726885803,0.010245609280280768
1772366301787898600,6.478898681640625,-0.03263970232009888,-0.0009005564357619732,0.004457344735041261
1772366301797968600,6.48896875,-0.026805004817247388,0.0024303780852351336,0.0011810630107298493
1772366301808038400,6.499038330078125,-0.04116320051550865,-0.007758203778183087,0.011990662849321961
1772366301818108700,6.509108642578125,-0.04251695321202278,-0.004490507219126447,0.0073738167036324735
1772366301828178700,6.5191787109375,-0.03175122904777527,-0.0007786105565261095,0.006921579424105585
1772366301838248400,6.52924853515625,-0.029518355429172513,0.0027088388335891065,0.011912373448722063
1772366301848319500,6.539319580078125,-0.02682546308338642,0.004193725362792611,0.013231639353744684
1772366301858389500,6.549389404296875,-0.03474865729808807,0.000134714029263705,0.009064655867405236
1772366301868459500,6.55945947265625,-0.038788288077712056,0.0041885377310216425,0.010276187081634998
1772366301878529500,6.569529541015625,-0.03997895916700363,0.0033760523043572903,0.00846581319142133
1772366301888599600,6.579599609375,-0.038331776481866836,0.0034192612584214655,0.0010190773820504546
1772366301898669600,6.589669677734375,-0.03952244757115841,-0.003437253572838381,0.004299669955298304
1772366301908739600,6.599739501953125,-0.029193361258506773,0.0027452344543766227,0.004406893189437687
1772366301918809600,6.6098095703125,-0.021406360644102094,0.004220741233881563,-0.0036668884770944712
1772366301928879600,6.619879638671875,-0.029340660774707792,0.005461315879505127,0.005844926635921001
1772366301938949600,6.62994970703125,-0.02485562431514263,0.0027758396551944313,0.007844320292212069
1772366301949019400,6.640019287109375,-0.02605214062333107,-0.004451819176552817,0.014891389259509741
1772366301959089400,6.65008935546875,-0.0333791225105524,0.010626516622956841,0.00781461927369237
1772366301969159700,6.66015966796875,-0.04220364947915077,-0.003067981869028881,0.003128215023130178
1772366301979229400,6.6702294921875,-0.03831365630328655,-0.004221344022080302,0.009413067446276544
1772366301989299500,6.680299560546875,-0.03113455845415592,0.001270503993006423,0.009024871846288442
1772366301999369700,6.69036962890625,-0.033681320327520366,-0.0054500455668196075,0.007434351251833141
1772366302009439500,6.700439453125,-0.03637362815141677,0.006454537301091477,0.0014568112121894955
1772366302019509500,6.710509521484375,-0.03323825273513794,0.00845967571157962,-0.00047949061263352627
1772366302029579500,6.72057958984375,-0.039823476344347,0.00370107387448661,0.0063844768727198235
1772366302039649500,6.7306494140625,-0.034437691652774806,0.006944932900229468,0.012926007470674811
1772366302049719600,6.740719482421875,-0.03279460062086582,-0.0008555117176380008,0.007770634001493453
1772366302059789600,6.75078955078125,-0.0395312153995037,0.003080795684829354,0.007309738491475582
1772366302069859600,6.760859619140625,-0.036543139499425885,0.012478802559291943,0.009615640813671052
1772366302079929600,6.7709296875,-0.03011456775665283,0.004763962998799979,0.005044789234176278
1772366302089999400,6.780999267578125,-0.04657879582345485,0.005146496042981744,0.005121142406016588
1772366302100069600,6.791069580078125,-0.038052959540486334,0.000328437369922176,0.0029763489296659824
1772366302110140700,6.801140625,-0.03850537948310375,0.006382805505441501,0.003666961542330682
1772366302120210700,6.811210693359375,-0.03312193287909031,-0.002272611973946914,0.009275156812928616
1772366302130280400,6.821280517578125,-0.030584523355960843,-0.005198527624318376,0.006758132490701973
1772366302140350500,6.8313505859375,-0.03687865506410599,0.004031995462439954,0.0066861267004162065
1772366302150420700,6.841420654296875,-0.034787235742807385,0.005309486318659037,0.002108005129918456
1772366302160490500,6.851490478515625,-0.034490883144736285,0.006454409436928108,0.008049122149311005
1772366302170560500,6.861560546875,-0.030154315245151518,-0.004003646150790155,0.013099318210966885
1772366302180630500,6.871630615234375,-0.026261983981728552,0.0031548473017290234,0.012835808436572551
1772366302190700500,6.881700439453125,-0.03524666994810104,0.002886140762409195,0.0014771233478561043
1772366302200770600,6.8917705078125,-0.033445758005976677,0.005276734826527536,0.0016292817022651434
1772366302210840600,6.901840576171875,-0.032841362372040744,-0.0035102092111948873,0.007484145210310817
1772366302220910600,6.91191064453125,-0.03927694837749004,-0.006225103326234966,0.010151830049604177
1772366302230980600,6.921980712890625,-0.024613047730922696,0.00616639540893957,0.0064221054693683974
1772366302241050400,6.93205029296875,-0.028057050704956052,-0.0006671860713046044,0.00802639886084944
1772366302251120600,6.94212060546875,-0.025215689799189565,0.0013996011322364211,0.016698438681475816
1772366302261190700,6.952190673828125,-0.03643149581849575,0.0001284304189495742,0.003100742494314909
1772366302271260400,6.962260498046875,-0.037924949246644975,-0.0009386690896004438,0.0005043327929452062
1772366302281330700,6.97233056640625,-0.034487960535287854,0.00016502696913667022,0.006071027009375393
1772366302291400400,6.982400390625,-0.029698388171195984,-0.0030350751132704316,0.006714695207774638
1772366302301470500,6.992470458984375,-0.03971767788231373,0.0044870548867154865,0.010604505720548331
1772366302311540500,7.00254052734375,-0.02774608505964279,0.0021833079889882353,0.008388437106274068
1772366302321610500,7.012610595703125,-0.03312953166365623,-0.00022157946196384726,0.006527136746421456
1772366302331680500,7.022680419921875,-0.03821370306015014,0.00047001953138969837,0.00239467658419162
1772366302341750500,7.03275048828125,-0.03896306012272834,0.0070336797627620394,0.012249021524563431
1772366302351820500,7.042820556640625,-0.0322334596067667,0.004322941233031451,0.0025350714355707165
1772366302361890600,7.052890625,-0.027591186758875844,0.006098344274563714,0.006770845841802656
1772366302371961600,7.062961669921875,-0.030585692399740218,0.0025685809795279054,0.004764730183780193
1772366302382031400,7.07303125,-0.034929859083890916,-0.00355370129304938,0.0033114991681650278
1772366302392101600,7.0831015625,-0.030585692399740218,-0.002482519264426082,0.012704656337574123
1772366302402171600,7.093171630859375,-0.029088147318363188,0.0007477952931541949,0.008414521395601332
1772366302412241400,7.103241455078125,-0.03447042487859726,-0.00013684205426834522,0.008666304199583828
1772366302422311400,7.1133115234375,-0.03177870157659054,0.0013559537867549806,0.002634257493726909
1772366302432381700,7.123381591796875,-0.030139702197909353,0.004621303125098348,0.00457892528809607
1772366302442451500,7.133451416015625,-0.03104045042991638,-0.001566071139788255,0.0016813772156834602
1772366302452521500,7.143521484375,-0.036132220610976214,0.005389410553919151,0.005465973788313567
1772366302462591700,7.153591796875,-0.037032384321093556,0.010302116107335314,0.0013737360386177897
1772366302472661500,7.16366162109375,-0.038976504126191136,0.008481403486197813,0.006778444626368582
1772366302482731500,7.1737314453125,-0.04376373840272426,0.002285973779018968,0.007270758187957108
1772366302492801800,7.1838017578125,-0.039726445710659024,0.01141612349753268,0.006306991189718246
1772366302502871600,7.19387158203125,-0.036736616244912146,-0.0025375008546747266,0.00867130916826427
1772366302512941600,7.203941650390625,-0.04377309075295925,0.0037904965904541313,0.003509944349713623
1772366302523011300,7.21401123046875,-0.03180792767107486,0.0009398016007617115,0.005476275986619293
1772366302533081600,7.22408154296875,-0.03061901014745235,0.010646262503042816,0.009630217328295112
1772366302543151600,7.234151611328125,-0.02463701312839985,0.00495994222862646,0.009994922454841435
1772366302553221400,7.244221435546875,-0.03331599414646625,0.0038191016304306683,0.005366897328011691
1772366302563291600,7.254291748046875,-0.04095160359144211,0.002600346090970561,0.0012320260129868984
1772366302573361700,7.264361572265625,-0.03931844943165779,0.005118292861804366,0.00768244426138699
1772366302583431400,7.274431396484375,-0.0397755455493927,0.00901132737812586,0.006448518552258611
1772366302593501400,7.28450146484375,-0.035732407638430594,0.0050813583848997946,0.011137918477505445
1772366302603571700,7.29457177734375,-0.03782265791594982,0.0033125494809355584,0.0073671312345191834
1772366302613641500,7.304641357421875,-0.04619885659515857,0.003461429032869637,0.008631159820966423
1772366302623711500,7.31471142578125,-0.03707213180959224,0.002142638051882386,0.0015814605051651595
1772366302633782500,7.324782470703125,-0.03243511965870857,0.002087692994251847,0.009908595878258347
1772366302643852500,7.3348525390625,-0.032433950614929194,0.0046157227676827456,0.007243760583177208
1772366302653922600,7.344922607421875,-0.032579496565461157,-0.0008484061234164983,0.007758285976573825
1772366302663992600,7.35499267578125,-0.020906009906530378,0.0014050444923341273,0.01349259184487164
1772366302674062600,7.3650625,-0.02824059057831764,0.0020405202511232347,0.010637750403024256
1772366302684132600,7.375132568359375,-0.0382633874207735,0.00808229376655072,0.009480360528826713
1772366302694202600,7.38520263671875,-0.044994156980514524,0.0077100355212111026,0.009227591344155371
1772366302704272400,7.3952724609375,-0.03961012585461139,0.010074636627547442,0.009791910696029662
1772366302714342700,7.4053427734375,-0.04035363769829273,-0.001776517286384478,0.007533939168788493
1772366302724412400,7.415412353515625,-0.024491467177867886,0.0036214966990984975,0.011590484550595283
1772366302734482400,7.425482421875,-0.033764322435855865,-0.002357586843660101,0.006427146970666944
1772366302744552400,7.435552490234375,-0.03197977710664272,0.0025403138662688433,0.006046440557390451
1772366302754622200,7.445622314453125,-0.02794949867725372,0.00854449531766586,0.014813684380799531
1772366302764692200,7.455692138671875,-0.03574409807622433,0.013421398905338718,0.005857639987021684
1772366302774762500,7.465762451171875,-0.03919745340049267,-0.0010171046206727623,0.00049490737747401
1772366302784832300,7.475832275390625,-0.039651626908779145,0.004566942589357495,0.005174881887249648
1772366302794902300,7.48590234375,-0.03785948279500007,-0.0016806556964758784,0.00794208157826215
1772366302804972300,7.49597216796875,-0.036060324418544766,-0.00033896789709106086,0.009333426338806747
1772366302815042300,7.506042236328125,-0.03620879297852516,0.000897524228459224,0.005595737647823989
1772366302825112300,7.5161123046875,-0.03440495842695236,0.013017156352847814,0.003529525833018124
1772366302835182000,7.52618212890625,-0.043836803638935086,0.006362118910439312,0.0037167189681902527
1772366302845252400,7.53625244140625,-0.03231587719321251,0.010064160899305716,0.010592559554427861
1772366302855322400,7.546322265625,-0.03276362096071243,0.005603190301917493,0.01196885287631303
1772366302865392000,7.55639208984375,-0.03890577697753906,0.000670437474315986,0.010948241124302148
1772366302875462400,7.56646240234375,-0.030531331863999363,0.006944494508812204,0.004846490183100104
1772366302885532400,7.576532470703125,-0.03128594962358475,0.004738636761298403,0.005465060472860932
1772366302895602200,7.586602294921875,-0.034281039786338806,0.005436108373012394,0.011723353682644665
1772366302905673200,7.596673095703125,-0.035628947263956066,-0.0024446349394507704,0.004823803427256644
1772366302915743200,7.6067431640625,-0.03188800716996193,0.0033361586853861806,0.003164857239089906
1772366302925813200,7.616813232421875,-0.044915831047296524,0.011213614062219858,0.006863200300373137
1772366302935883300,7.62688330078125,-0.03549918340444565,0.010942551169032231,0.010238302756659686
1772366302945953300,7.636953369140625,-0.025036241579055783,0.012456618126947433,0.0033959625812247395
1772366302956023300,7.647023193359375,-0.029082886621356007,0.005575763438874855,0.0010030760953202843
1772366302966093300,7.65709326171875,-0.029380992785096167,0.006074698537494987,0.004634491400234401
1772366302976163300,7.667163330078125,-0.040599721413850785,0.006686692955996841,0.0035268954845145343
1772366302986233300,7.6772333984375,-0.03207096252143383,0.004067879626573995,0.0012617635641247033
1772366302996303400,7.687303466796875,-0.03790449098050594,0.0024124679692089555,0.004299377694353461
1772366303006373400,7.697373291015625,-0.04014671694934368,0.009479602477001026,0.0032845746286213396
1772366303016443100,7.707443115234375,-0.03744797938466072,0.005628699202509597,0.004867788699455559
1772366303026513400,7.717513427734375,-0.04088438357412815,0.0027156613000202923,0.012301628494635224
1772366303036583200,7.727583251953125,-0.03534253153800964,0.0031655696251429617,0.009879260185919702
1772366303046653200,7.737653076171875,-0.03907528832554817,0.0019306118695531038,0.0016609920147806405
1772366303056723500,7.747723388671875,-0.028751462709903714,0.00532800835603848,0.001060140044800937
1772366303066793200,7.757793212890625,-0.03758066585361957,0.002609881104296073,0.008230871924385428
1772366303076863200,7.76786328125,-0.036385903111100196,0.0012220891408622264,0.007906608406081796
1772366303086933200,7.777933349609375,-0.028012627041339874,0.00624825587295927,0.002542889415845275
1772366303097003300,7.788003173828125,-0.04447743963003158,0.00289754807241261,0.0019780951399356126
1772366303107073300,7.7980732421875,-0.03190904995799065,-0.00676675418857485,0.0019264014853164553
1772366303117143300,7.808143310546875,-0.028622867894172666,0.0031376130391377955,0.0067406698992475865
1772366303127213300,7.81821337890625,-0.03295885127186775,0.004247154316771775,0.0045878392469137904
1772366303137283300,7.828283447265625,-0.032658407020568846,0.004482223447971046,0.0037116044016554947
1772366303147353300,7.838353271484375,-0.037888124367594714,0.009149320209864526,0.010431048849783837
1772366303157423400,7.84842333984375,-0.031900282129645345,0.001008318526018411,0.011363288198597728
1772366303167493400,7.858493408203125,-0.031000702941417692,0.005251125461235642,0.00587901156861335
1772366303177563100,7.868563232421875,-0.03788929341137409,0.00861363329743035,0.00937321035992354
1772366303187633200,7.878633056640625,-0.029957915890216825,0.009762109212810174,0.003987644864059984
1772366303197704200,7.8887041015625,-0.032198388293385505,0.0035579390767496075,0.004215571868419647
1772366303207774500,7.8987744140625,-0.038028409621119495,0.006388723789574578,0.00268982360586524
1772366303217844200,7.90884423828125,-0.039678514915704725,0.012074258612701668,0.004103234067745506
1772366303227914200,7.918914306640625,-0.0312964710175991,-0.0010468147723469883,0.011311338815651833
1772366303237984300,7.928984375,-0.029061843833327293,0.0049691484483890234,0.006578647737950086
1772366303248054300,7.93905419921875,-0.03833703717887401,0.0021914912954438476,0.014244213929772376
1772366303258124300,7.949124267578125,-0.02831248677074909,0.006161545703886076,0.00850632786490023
1772366303268194300,7.9591943359375,-0.03729366560578346,0.013556505660247057,0.009331636240519582
1772366303278264300,7.969264404296875,-0.03415653662383556,0.005000073309615254,0.006964322587288916
1772366303288334300,7.979334228515625,-0.03459668160676956,-0.0018937687241937964,0.004753222409076988
1772366303298404000,7.989404052734375,-0.03309679843783379,0.013114862839970737,0.013785291181132196
1772366303308472300,7.999472412109375,-0.03772796536982059,0.009773909248458222,0.00631842589918524
1772366303318542300,8.009542236328125,-0.04221007921993732,-0.0005056297008879482,0.008430011225678026
1772366303328612400,8.0196123046875,-0.04100947125852108,-0.00276570185367018,0.016276158148795364
1772366303338682400,8.029682373046874,-0.040102877807617184,0.004334284610953182,0.0028452333632856606
1772366303348752400,8.03975244140625,-0.023187398841977118,0.0062624944608658546,0.0077390332868322725
1772366303358822400,8.049822509765624,-0.033360417810082435,-0.0005758453928865492,-0.00135868459995836
1772366303368892200,8.05989208984375,-0.05280921464562416,0.004563526789564639,0.004716945519298315
1772366303378962200,8.069962158203126,-0.04038286379277706,0.005080490735219791,0.003949687473848462
1772366303389032400,8.080032470703125,-0.030808395239710806,-0.0022366730108857153,0.004655168862082064
1772366303399102200,8.090102294921875,-0.04532908802330494,-0.002495862803189084,0.0036274697821587322
1772366303409172200,8.100172119140625,-0.0317062208622694,-0.001020721349865198,0.007202076865918934
1772366303419242500,8.110242431640625,-0.03334638928472996,-0.001304433662071824,0.0022437968714162705
1772366303429312300,8.120312255859375,-0.04576104969978332,0.0032729207234457134,0.008035860808938741
1772366303439382300,8.13038232421875,-0.04141103779673576,0.0028457448199391364,0.009130524177849292
1772366303449452300,8.140452392578124,-0.02972819878757,0.0025243947779294102,0.007727854305692017
1772366303459522300,8.150522216796874,-0.04393734140396118,0.003713047440070659,0.008027714035101234
1772366303469592300,8.16059228515625,-0.020437807872891425,-0.0008594572403933852,0.006653722268156707
1772366303479662000,8.170662109375,-0.03180266697406769,-0.0013377331434749067,0.0024750118114054203
1772366303489732400,8.180732421875,-0.031054478955268857,0.008220040003117173,0.003397971875220537
1772366303499802400,8.19080224609375,-0.031205870124697683,0.008099811156932264,0.004114266918413341
1772366303509872000,8.2008720703125,-0.02671791105568409,-0.0024909674323629586,0.009035539370775222
1772366303519942400,8.2109423828125,-0.036298224827647205,-0.0002194971027318388,0.007312770698778331
1772366303530012400,8.221012451171875,-0.035251346123218535,0.0027482575285248455,0.0052045463731512425
1772366303540082200,8.231082275390625,-0.03391279099583626,0.0042234355144668365,0.0026171602284535763
1772366303550152200,8.241152099609375,-0.02972293809056282,0.004507138693518937,0.011448482264019549
1772366303560222500,8.251222412109374,-0.025981413474678992,-0.004668512400845065,0.01881027973629534
1772366303570292200,8.261292236328124,-0.03810030581355095,-0.0018224935862701385,0.00644095630031079
1772366303580362200,8.2713623046875,-0.042885786524415014,-0.0003862502380739897,0.006482493887096643
1772366303590433300,8.281433349609374,-0.03615326339900493,-0.007345385193591937,0.00405344010926783
1772366303600503300,8.29150341796875,-0.03450900332331657,0.0011810630107298493,0.0037054669218137856
1772366303610573300,8.3015732421875,-0.03256137638688087,0.004454120731493458,0.005410225013084709
1772366303620643300,8.311643310546875,-0.027622166419029235,0.0007861271427012979,0.001817278555035591
1772366303630713300,8.32171337890625,-0.025975568255782126,0.0033211163798812773,0.006625774815306067
1772366303640783400,8.331783447265625,-0.0345078342795372,0.0008317198500968515,0.003576433714665472
1772366303650853400,8.341853271484375,-0.04123801931738853,-0.0019052856320515275,0.01037760162949562
1772366303660923100,8.351923095703125,-0.027175591695308685,0.003967551924102008,0.01042418071758002
1772366303670993400,8.361993408203125,-0.024482699349522588,0.005221177847543731,0.006537402412109076
1772366303681063400,8.3720634765625,-0.044079964745044706,0.005474303225241601,0.013518603068962692
1772366303691133200,8.38213330078125,-0.03584638940691948,-0.003386117040645331,0.006717617817223072
1772366303701203500,8.392203369140624,-0.030906594917178152,-0.0039413945695385335,0.007213548108004033
1772366303711273200,8.402273193359376,-0.036738369810581206,0.005402123905019834,0.01087601613830775
1772366303721343200,8.41234326171875,-0.03359130395650863,0.0005109543299768119,0.01184672433398664
1772366303731413200,8.422413330078125,-0.023864275190234183,0.002203172600083053,0.010529321592487394
1772366303741483300,8.432483154296875,-0.03659107029438018,-0.0030243345235474407,0.011709069428965449
1772366303751552800,8.442552734375,-0.0395750545412302,-0.0025232074678409842,0.012928528221324086
1772366303761622800,8.452622802734375,-0.03687456341087818,-0.002638814937835559,0.011413995472528039
1772366303771693000,8.462693115234375,-0.037467268607020376,0.004635961838113144,0.005700294000841677
1772366303781762800,8.4727626953125,-0.03895955299139023,0.006040248278621584,0.007900324795767664
1772366303791832800,8.482832763671874,-0.041650107249617575,-0.0017114070277661085,0.00957687970586121
1772366303801903000,8.492903076171874,-0.031173136898875235,0.009433754041278735,0.005014722889475524
1772366303811972900,8.502972900390626,-0.03596212474107742,0.0066787288452498615,0.008014123901166022
1772366303822043000,8.51304296875,-0.029519524472951888,0.00635596316428855,0.009570340367220341
1772366303832113200,8.523113037109376,-0.02487958971261978,0.0028456443552393467,0.006887750219739973
1772366303842183000,8.533182861328125,-0.044184594163298604,-0.0035868272445164617,0.0017273717818781732
1772366303852253000,8.5432529296875,-0.037597032466530796,0.000470476189116016,0.005698467369936407
1772366303862322700,8.55332275390625,-0.04133446542918682,0.0022743198738433418,0.008473959965258836
1772366303872393000,8.56339306640625,-0.03250584680736065,-0.00006760360980406403,0.010697408168390392
1772366303882463000,8.573462890625,-0.02831424033641815,0.004150032351538538,0.004598214510455727
1772366303892535800,8.583535888671875,-0.048805239701271055,-0.0010458375248126686,0.006762808665819466
1772366303902606000,8.593606201171875,-0.030991350591182708,-0.0009665800098329782,0.010050561632215975
1772366303912675800,8.60367578125,-0.028446926805377006,-0.0024577227498870343,0.009915208282135426
1772366303922745900,8.613745849609375,-0.032333997371792794,0.0016856058662291615,0.006388312797620892
1772366303932816100,8.623816162109375,-0.04085808008909225,0.0005351480563171207,0.0072302435144782065
1772366303942886000,8.633885986328124,-0.04265256229043007,-0.00043053690437227485,0.01622468368988484
1772366303952956000,8.643955810546874,-0.03965747212767601,0.008709239159012214,0.008790843894705176
1772366303963026000,8.65402587890625,-0.04039806136190891,0.007614374860702082,0.005807334571890532
1772366303973096000,8.664095947265626,-0.026172552132606504,0.002871071057440713,0.011247297136113048
1772366303983166000,8.674166015625,-0.0361982715845108,0.0022175573184620586,0.01081957324333489
1772366303993235700,8.684235595703125,-0.030658173114061354,-0.008853816995164378,0.0040155192516744135
1772366304003306000,8.694305908203125,-0.04652209720015526,-0.003368471786100417,0.006948467431031167
1772366304013376000,8.7043759765625,-0.03290682882368565,0.0032210900715086608,0.0031622999558225274
1772366304023445800,8.71444580078125,-0.030517303338646887,0.006779650202766061,0.009937785440124572
1772366304033516000,8.72451611328125,-0.030823592808842656,0.007366592378402128,0.0054375148788094515
1772366304043586000,8.7345859375,-0.03726210142374038,-0.0017866002889815717,0.017645510273240506
1772366304053655800,8.74465576171875,-0.02933247746825218,0.004796294365823269,0.011785057274624705
1772366304063725800,8.754725830078126,-0.035313889965415,0.009806258881790562,0.00844988496992737
1772366304073796000,8.764796142578126,-0.030522564035654065,0.0005253755809739232,0.0034217180769890543
1772366304083865900,8.774865966796876,-0.03187047151327133,0.006256658375123516,0.008223492335528135
1772366304093935900,8.784935791015625,-0.029326632249355316,0.013147815261501819,0.008387268062494695
1772366304104006000,8.795005859375,-0.038003275179862975,0.014880055014742537,-0.00011350684445351362
1772366304114077000,8.805076904296875,-0.04144377102255821,0.0006685377781745046,0.01787197597287595
1772366304124147000,8.81514697265625,-0.04009235641360283,0.0022960019826889035,0.008841039711982012
1772366304134217000,8.825217041015625,-0.033356910678744314,0.001368411409528926,0.00648267655018717
1772366304144287000,8.835286865234375,-0.03575637303590774,0.0011132676046807317,-0.00021079320646822452
1772366304154357000,8.84535693359375,-0.030070728614926337,-0.00023737981929443776,0.010097396448627114
1772366304164426800,8.8554267578125,-0.03725625620484352,0.0015475582355633378,0.003755297412909567
1772366304174496800,8.865496826171874,-0.032467852884531016,-0.0031828769529704004,0.010461736248992383
1772366304184567000,8.875567138671874,-0.029476854375004767,0.00020290216095745562,0.00565218054279685
1772366304194636800,8.88563671875,-0.03890285436809063,0.010621931779384612,0.006454144575446844
1772366304204706800,8.895706787109376,-0.042192543563246726,0.01268873724923469,0.007128865499235689
1772366304214777000,8.905777099609375,-0.02991933744549751,0.004733695724699646,-0.0014936360912397504
1772366304224846800,8.915846923828125,-0.04906593646407127,0.0036144093711860475,-0.0007546542922034859
1772366304234916900,8.925916748046875,-0.0379933383077383,0.0013482636706437915,0.0034181013477966185
1772366304244987100,8.935987060546875,-0.032309447452425956,0.00022242884533479808,0.0035008111951872704
1772366304255057000,8.946056884765625,-0.03574877425134182,0.0032001477481797334,0.006697597942501306
1772366304265127000,8.956126953125,-0.027519290566444397,0.008701074118865653,0.011466310181654988
1772366304275197000,8.966197021484374,-0.02931143468022346,0.0038797914422582834,0.016320216486230492
1772366304285267000,8.976266845703124,-0.02945931871831417,-0.003048564782505855,0.009019209290482104
1772366304295337000,8.9863369140625,-0.03588964402675628,0.005136476972466334,0.005659304403327405
1772366304305406700,8.99640673828125,-0.02825578814744949,-0.0016906747669912874,0.004822597850859165
1772366304315477000,9.00647705078125,-0.044859132423996924,0.00750043875798583,0.009312675811722874
1772366304325547000,9.016547119140625,-0.048588382080197334,0.009679417631728575,0.018128690680302678
1772366304335616800,9.02661669921875,-0.04439093039035797,0.004213608240196481,0.008735935369692742
1772366304345687000,9.03668701171875,-0.010876783323287963,0.002549931077985093,0.0027886078052222728
1772366304355757000,9.046757080078125,-0.02748772638440132,0.0016194178953766823,0.006984744320809841
1772366304365826800,9.056826904296875,-0.0379629431694746,0.007239833326730877,0.007288805301301181
1772366304375896800,9.066896728515625,-0.03183189306855202,0.0056101314993575215,-0.0013662833845242857
1772366304385967000,9.076967041015624,-0.03693009299039841,-0.0016729016482830046,0.00412836850900203
1772366304396036900,9.087036865234374,-0.04082943851649761,0.004834827144769951,0.018026655077934266
1772366304406107000,9.09710693359375,-0.03528934004604816,-0.0013138499443884938,0.007801723259501158
1772366304416177200,9.10717724609375,-0.03528583291471004,-0.006480758587736636,0.009534940260276199
1772366304426247000,9.117246826171876,-0.03454349011480808,-0.00469757409854792,0.011658362155035138
1772366304436317000,9.12731689453125,-0.03185527394413948,0.013969525174237787,0.010070179648138581
1772366304446388000,9.137387939453125,-0.03858662802577018,0.011179739192081614,0.013274126788601279
1772366304456457700,9.147457763671875,-0.026468904730677603,0.0036991467788815495,0.012943360464274882
1772366304466528000,9.157528076171875,-0.033199089768528936,0.0028502839977387335,0.007197875614836812
1772366304476598000,9.167597900390625,-0.04173135579228401,0.00795858518849127,0.014954079232178627
1772366304486667800,9.177667724609375,-0.024074703070521352,0.001861638286570087,0.00473608861118555
1772366304496738000,9.187738037109375,-0.027364976787567136,0.004612763625616207,0.008673501125350595
1772366304506807800,9.197807861328124,-0.03394961587488651,0.0007829762043897062,0.01646528751272708
1772366304516877800,9.2078779296875,-0.0324555779248476,0.0029726774015463885,0.008461100483685731
1772366304526948000,9.217947998046874,-0.03454349011480808,-0.0008774221553467214,0.0032411738783121105
1772366304537017900,9.228017822265626,-0.03453413776457309,-0.0018391067943535743,0.007767455663718283
1772366304547088000,9.238087890625,-0.037974633607268334,0.0038596437033731486,0.0022968057002872226
1772366304557158000,9.248157958984375,-0.027507015606760978,0.0033408074610400944,0.007405380885675549
1772366304567228000,9.258227783203125,-0.03872749780118465,0.0030013555067591366,0.011293803158961236
1772366304577298000,9.2682978515625,-0.03618599662482738,0.0057909588258247815,0.01019106608144939
1772366304587368000,9.278367919921875,-0.03424129229784011,0.00761405520029366,0.009585318740643561
1772366304597438000,9.28843798828125,-0.046508068674802776,0.007728493626508862,0.006209741360321641
1772366304607508000,9.298508056640625,-0.04441548030972481,0.00194091406785883,0.01362228263914585
1772366304617578000,9.308577880859374,-0.0397755455493927,-0.0001535191944334656,0.013343977154418825
1772366304627648000,9.31864794921875,-0.02646422855556011,0.0045557179424446075,0.0021172844149172304
1772366304637718000,9.328718017578124,-0.03485504028201103,0.005820303651317953,0.003789638073928654
1772366304647787800,9.338787841796876,-0.02782499551475048,-0.006169683344569057,0.013148710310645401
1772366304657857800,9.34885791015625,-0.036356092494726176,-0.000135490347398445,0.006537913868762553
1772366304667928000,9.358927978515625,-0.039348260048031804,-0.009990757736377417,0.012994615727476774
1772366304677997800,9.368997802734375,-0.03649637774825096,-0.0020704130658879875,0.011088745573535562
1772366304688067800,9.37906787109375,-0.03933656961023807,0.007783018559031188,0.007855718469060956
1772366304698138000,9.38913818359375,-0.025120412731170653,0.006394815603643656,0.006214746329002082
1772366304708207900,9.399207763671875,-0.03169920659959316,0.008258682379918173,0.007211136955209076
1772366304718278000,9.40927783203125,-0.026156770041584967,0.00006887311828322709,0.00028057050704956055
1772366304728348000,9.419347900390624,-0.0261509248226881,0.006032311567338183,0.0016071064030751586
1772366304738418000,9.42941796875,-0.02854863361418247,0.0005932257859501988,0.0024101298816502094
1772366304748488700,9.43948876953125,-0.036331542575359345,0.0007717972232494502,0.007608173448778689
1772366304758558500,9.449558349609376,-0.040374680486321445,0.006735564465867355,0.010274360450729728
1772366304768628500,9.45962841796875,-0.04546469710171223,0.0038505014156922698,0.012947853976301849
1772366304778698500,9.469698486328125,-0.031252047353982924,0.004752382158860564,0.010331314802356063
1772366304788769500,9.47976953125,-0.026612697115540502,0.00004606763143092394,0.005997158055566251
1772366304798839600,9.489839599609375,-0.037086160334944725,0.009144351773802191,0.016336327370814977
1772366304808909600,9.49990966796875,-0.02990063274502754,0.0073498969719279555,0.002031578892841935
1772366304818979600,9.5099794921875,-0.03454115202724933,-0.0004549680927302688,0.007230901101604103
1772366304829049600,9.520049560546875,-0.0328910467326641,0.0032532570417504758,0.014046462867967784
1772366304839119400,9.530119384765625,-0.03108838122487068,0.005156140654161572,0.009544657936692237
1772366304849189600,9.540189697265625,-0.03811725694835186,0.004764209593972191,0.002466499711386859
1772366304859259600,9.550259765625,-0.02793956180512905,-0.005483564243931323,0.011076397548615932
1772366304869329400,9.560329345703124,-0.035413843208551406,-0.008378472834685817,0.004948306589759886
1772366304879399400,9.5703994140625,-0.03361760744154453,-0.0013113017942756413,0.010345891316980122
1772366304889469700,9.5804697265625,-0.03615267887711525,-0.004532501463638618,0.013076083465851842
1772366304899539500,9.59053955078125,-0.02702595409154892,0.0048667931856121865,0.01532444691453129
1772366304909609500,9.600609375,-0.03691547994315624,0.003934088045917451,0.01486227276287973
1772366304919679700,9.6106796875,-0.037519291055202485,0.0007353468035347759,0.01173972029555589
1772366304929749500,9.62074951171875,-0.03377952000498771,0.00015980280474759637,0.009468158634379506
1772366304939819500,9.630819580078125,-0.03587795358896255,0.00655271871224977,0.003852766438014805
1772366304949889500,9.6408896484375,-0.029746903488039968,0.003714636608958244,0.0086931191412732
1772366304959959600,9.65095947265625,-0.041270168021321295,0.0008527443718165158,0.016484174876287578
1772366304970029600,9.661029541015624,-0.04321896400153637,0.0027738303611986336,0.010452018572576343
1772366304980099300,9.671099365234374,-0.030500936725735662,0.0024572386926971375,0.01670757183600217
1772366304990169600,9.681169677734376,-0.03169628399014473,0.0028407489844132212,0.012538652120903134
1772366305000239600,9.691239501953126,-0.033488428103923794,0.007455074379453435,0.004407879570126534
1772366305010309400,9.701309326171875,-0.02975157966315746,0.002304842876270413,0.0037063071720302102
1772366305020379600,9.711379638671875,-0.03334112858772278,-0.0003756283793598413,0.0014999927667900918
1772366305030449700,9.72144970703125,-0.03917524156868458,0.013369960979046299,0.01245579614304006
1772366305040519400,9.73151953125,-0.04216857816576958,0.0068815031420439475,0.007687814556248486
1772366305050589400,9.74158935546875,-0.03064531363248825,0.0033167233325541016,0.012799495014175773
1772366305060659700,9.75165966796875,-0.040514381217956544,0.00665614255410619,0.00608235212098807
1772366305070729500,9.7617294921875,-0.03587795358896255,0.009756537988549098,0.015001863896660505
1772366305080799500,9.771799560546874,-0.018368600383400917,-0.005892510371003299,0.003985160646028816
1772366305090869800,9.781869873046874,-0.02944178306162357,0.0034466972546186294,0.0025006211766973136
1772366305100939500,9.791939453125,-0.02869417956471443,0.0032863281942903996,0.010828450669534504
1772366305111009500,9.802009521484376,-0.015843465819954872,0.004917838386259973,0.012226152105629443
1772366305121079600,9.81207958984375,-0.034703649112582204,0.002801512952568009,0.006996361693367361
1772366305131149600,9.822149658203125,-0.03515723809897899,0.0049168428724166,0.015096044986136257
1772366305141219600,9.832219482421875,-0.03232289145588874,0.004145657570520415,0.00993245167788118
1772366305151290600,9.84229052734375,-0.04145078528523445,0.005059219618327915,0.012290047654695808
1772366305161360400,9.8523603515625,-0.025442484292387962,-0.0006639164019841701,0.008621405611932278
1772366305171430700,9.8624306640625,-0.04085866461098194,-0.0032889220101758837,0.01125285009406507
1772366305181500400,9.87250048828125,-0.02918517795205116,0.006484841107809915,0.009919994055107236
1772366305191570400,9.8825703125,-0.043400165787339205,0.0036571068685967473,0.006644881374575197
1772366305201640700,9.892640625,-0.04085749556720256,-0.0052170953274704515,0.007665785387530923
1772366305211710500,9.90271044921875,-0.03218026811480522,0.0012027542527299373,0.013718071163818239
1772366305221780500,9.912780517578126,-0.03382861984372139,-0.005283018436841667,0.006329787543416023
1772366305231850800,9.922850830078126,-0.024701310536265373,0.00434841360100545,0.0073435676958411925
1772366305241920500,9.93292041015625,-0.03248421949744224,0.0008446067311335355,0.009079013186320662
1772366305251990500,9.942990478515625,-0.02889408605098724,0.003917721433006227,0.00799231392815709
1772366305262060500,9.953060546875,-0.02933949173092842,-0.0008048592426348478,0.010897168524190783
1772366305272130600,9.963130615234375,-0.04265840750932693,0.009168271505506708,0.013700681637600064
1772366305282200600,9.97320068359375,-0.032633272579312325,0.0025261574767529963,0.012505918895080684
1772366305292270600,9.9832705078125,-0.030691490861773488,-0.0022513773896731433,0.015573453239537774
1772366305302340600,9.993340576171875,-0.03623217385411262,0.00007876432463526726,0.00607478986904025
1772366305312410600,10.00341064453125,-0.04491057035028934,0.0037169746965169904,0.01059694346860051
1772366305322480400,10.01348046875,-0.028453941068053244,0.0029419352034106847,0.007393105925992131
1772366305332550400,10.02355029296875,-0.030113398712873458,0.002461156815988943,0.007096351469121873
1772366305342620700,10.03362060546875,-0.025479893693327902,-0.0008675126826856285,0.007118124909512699
1772366305352690400,10.0436904296875,-0.036110593301057814,-0.0031058296613860874,0.01535955476053059
1772366305362760400,10.053760498046875,-0.035814240702986715,0.009468368696933611,0.01633168772831559
1772366305372830700,10.063830810546875,-0.03462240056991577,0.004875716277584433,0.007067600298672914
1772366305382900500,10.073900390625,-0.033870120897889135,0.0025002741168253123,0.004470459944941103
1772366305392970500,10.083970458984375,-0.04509001857042312,0.00428911202866584,0.004684650684893131
1772366305403040800,10.094040771484375,-0.042241643401980396,0.0006737162767909467,0.007154219136200845
1772366305413110500,10.104110595703125,-0.03415536758005619,0.00777995895226486,0.010001827119663357
1772366305423180500,10.1141806640625,-0.04029109385609626,0.006336719607701525,0.008652860196121036
1772366305433250600,10.12425048828125,-0.00618657968044281,0.0037687414163723584,-0.005260404746234417
1772366305443320600,10.134320556640626,-0.0479576829612255,0.0019936763015575704,0.01056318732947111
1772366305453390600,10.144390625,-0.027185528567433354,0.004078474085824564,0.009493658401817083
1772366305463460400,10.15446044921875,0.014963760375976562,0.006801204447448253,-0.00940459187887609
1772366305473530600,10.164530517578125,-0.03608896599113941,0.0004674713812768459,0.01663121866416186
1772366305483600600,10.1746005859375,-0.09001870909929274,0.00534781816820614,0.009697218149900436
1772366305493670400,10.18467041015625,0.35985914781987666,0.016070689571416004,-0.057747730493731796
1772366305503740700,10.19474072265625,-0.12134089908003806,-0.013426486072409897,0.043099940731748936
1772366305513810700,10.204810791015625,-0.2964081276506185,-0.022355788589734582,0.07214432197362185
1772366305523881500,10.214881591796875,-0.1053010339051485,0.024665362440049646,-0.0008577493404969572
1772366305533951500,10.224951416015625,-0.04972878428697586,0.00929725904688239,0.018824965848773717
1772366305544021500,10.235021484375,-0.13233867843449115,-0.0019302100107539443,0.020423340956121683
1772366305554091500,10.245091552734374,-0.11197861197292804,0.00012850348418578505,0.019528474475629626
1772366305564161500,10.25516162109375,0.03550678218901157,-0.008028810013644397,-0.007717588640004396
1772366305574231600,10.2652314453125,0.05961655657291412,0.010557113781711086,-0.00890745601169765
1772366305584301600,10.275301513671875,-0.01323883627951145,0.007323155095474794,0.004304053869470954
1772366305594371600,10.28537158203125,-0.09340542892813682,-0.0029784221557434647,0.01950648183953017
1772366305604441600,10.295441650390625,0.008505962538719177,0.0037513792896177616,-0.008533033208735287
1772366305614511600,10.30551171875,-0.036222821503877636,-0.0004635897906031459,0.014980784576013683
1772366305624581600,10.31558154296875,-0.040245501148700714,-0.009272060673544183,0.015366569023206829
1772366305634651600,10.325651611328125,-0.02945873419642448,0.003849661165475845,0.0005315495934337377
1772366305644721400,10.335721435546875,-0.050524903100728984,0.007123760065855458,0.015920659242011605
1772366305654791700,10.345791748046874,-0.04256079235374927,0.006712475851224735,0.009040763535164297
1772366305664861400,10.355861328125,-0.015161913296580313,-0.0016408990748226643,0.010579809670709072
1772366305674931500,10.365931396484376,-0.014100421544909477,0.0019132862754166124,0.004447444395534694
1772366305685001700,10.376001708984376,-0.03040039896070957,0.0009246040316298604,0.010354330351762473
1772366305695071500,10.386071533203125,-0.03428746952712536,-0.004438630901416763,0.018365823904424906
1772366305705141500,10.3961416015625,-0.019631752187013626,0.000854972861520946,0.004744308450259268
1772366305715211500,10.40621142578125,-0.019487959802150723,0.007789594430290162,0.002975435614213347
1772366305725281500,10.416281494140625,-0.026534371182322502,0.006636031347839162,0.004783325286395848
1772366305735351600,10.4263515625,-0.018030162209272383,-0.0015420692096929996,0.009323197205737233
1772366305745421600,10.436421630859375,-0.02836567826271057,0.002969973987806588,0.005773943758942186
1772366305755491000,10.446490966796874,-0.0725146165907383,0.014830635515600443,0.011340564910136162
1772366305765560800,10.456560791015624,-0.04109714954197406,-0.00211923890998587,0.012535254587419331
1772366305775630800,10.466630859375,-0.022100772649049756,-0.0002568973705172539,0.01070109796281904
1772366305785701000,10.476701171875,-0.024064766198396682,0.011417913595819845,0.005641366887837648
1772366305795771000,10.48677099609375,-0.04307107996344566,-0.004243217927170917,0.006769457602314651
1772366305805841000,10.4968408203125,-0.03844342016279697,0.00821611274667084,0.0011474164694547653
1772366305815911000,10.506910888671875,-0.03739595693647861,-0.0014004505156073718,0.011273637153767049
1772366305825981000,10.51698095703125,-0.036495793226361276,0.00008193352925591171,0.010100026797130703
1772366305836051000,10.527051025390625,-0.05160217694342136,0.009776758792670443,0.0026506606392562387
1772366305846121000,10.537120849609375,-0.034983050575852395,0.001783577214833349,0.011066351078636944
1772366305856191000,10.54719091796875,-0.03302840937674045,0.005268387123290449,0.020420199150964616
1772366305866261000,10.557260986328124,-0.04932838679254055,0.0033944921433459964,0.003012552754208445
1772366305876330800,10.567330810546874,-0.022395371681451795,-0.0022922117235604673,0.005246668481826782
1772366305886401000,10.577401123046876,-0.03227379161715507,-0.0040064682955387974,0.004467610400728881
1772366305896471000,10.587470947265626,-0.03496785300672054,0.005761011212132871,0.008643946237303315
1772366305906540800,10.597540771484375,-0.030928222227096555,0.00475259222141467,0.011493198188580573
1772366305916611000,10.607611083984375,-0.03332476197481155,-0.005358211698057129,0.009657982118055224
1772366305926680800,10.617680908203125,-0.04290273765921592,0.006358082056138664,0.01049750168211758
1772366305936751900,10.627751953125,-0.039161797565221784,0.0064437236461322754,0.006035115445777774
1772366305946822000,10.63782177734375,-0.026151509344577786,0.004031447473168373,0.004833374973200261
1772366305956892000,10.647891845703125,-0.03514262505173683,0.006690784609224647,0.0018803703865036367
1772366305966962000,10.6579619140625,-0.03320201237797737,0.0068038713285699486,0.00925276231803
1772366305977032000,10.668031982421875,-0.047121232137084,0.0018825440772809088,0.009191095258668064
1772366305987102000,10.67810205078125,-0.004642272847890853,0.0023696791402529923,0.00100756960734725
1772366305997172000,10.688171875,-0.03202770790159702,0.0025348065740894523,0.014747377678938208
1772366306007242000,10.698241943359376,-0.05701952581703663,0.004677545090671628,0.008721468452922999
1772366306017311700,10.708311767578126,-0.03517828088700771,0.0016526351783890277,0.0049962008520960804
1772366306027382000,10.718382080078126,-0.028449849414825437,0.006235140663059428,0.00863547066990286
1772366306037452000,10.7284521484375,-0.03728840490877628,0.009479118419811128,0.004395531545206904
1772366306047521800,10.738521728515625,-0.04074351379871368,0.005702230229601263,0.013823029375635086
1772366306057591800,10.748591796875,-0.041945290803909296,0.0016435842222534119,0.006262457928247749
1772366306067662000,10.758662109375,-0.03625964638292789,-0.0024789573341608044,0.0016295008979737757
1772366306077731800,10.76873193359375,-0.029369302347302437,-0.0037058413811493665,0.013291881641000508
1772366306087801900,10.7788017578125,-0.03685001349151134,-0.0014605466723907738,0.014845723486877977
1772366306097872100,10.7888720703125,-0.03011807488799095,0.00437187667498365,0.013498911987803876
1772366306107942000,10.79894189453125,-0.03535129936635494,0.0018934673300944269,0.005113251360505819
1772366306118012000,10.809011962890626,-0.03251344559192657,0.00032789851380512114,0.011447715079039335
1772366306128082000,10.81908203125,-0.017703414472937582,0.008328551012044771,0.0014960837766528129
1772366306138152000,10.82915185546875,-0.045834699457883835,0.009863624225370585,0.013630356347747147
1772366306148222000,10.839221923828125,-0.03177110279202461,0.006674290132150053,0.00473831710088998
1772366306158291700,10.849291748046875,-0.026232173365354536,0.00543358762236312,0.013469137904047966
1772366306168362000,10.859362060546875,-0.03088672117292881,-0.0010054141828790305,0.006673413349315524
1772366306178432000,10.869431884765625,0.001541384223103523,0.0017994597705546765,-0.00026763796024024483
1772366306188501800,10.879501708984375,-0.029759762969613072,0.0005441533466801047,0.005721482919342815
1772366306198572000,10.889572021484375,-0.07346446466147899,0.0062781943534966555,0.00845035989396274
1772366306208642000,10.89964208984375,-0.015445406413078308,0.005428628319455311,-0.002031250099278986
1772366306218711800,10.9097119140625,-0.014555179575085639,0.009355775167932734,0.007879464670829475
1772366306228781800,10.91978173828125,0.32912440233826634,0.04691898756325245,-0.06015811610370874
1772366306238852000,10.92985205078125,-0.3524573471307754,-0.04176190619417466,0.10446633664667605
1772366306248921900,10.939921875,-0.11797697560489177,0.0058635400048457085,-0.013998933931812643
1772366306258991900,10.949991943359375,-0.15453005197644232,0.006115980395954102,0.025738800357840954
1772366306269062000,10.960061767578125,-0.07778115881681442,-0.004803372560581192,0.020869258092716336
1772366306279132000,10.9701318359375,-0.07836392714083194,-0.005185987803153693,0.006344217927567661
1772366306289202000,10.980201904296875,-0.012875848186016082,-0.0026136896297335624,0.0012343275679275393
1772366306299272000,10.99027197265625,0.06542728867828845,0.006168231172999367,-0.009910787835344671
1772366306309342000,11.000342041015625,-0.03553951541483402,-0.003226633896306157,0.011079466288536786
1772366306319412000,11.010411865234374,0.004558101695775986,-0.002208743824344128,0.00036043081022799013
1772366306329481700,11.020481689453124,-0.009801847568154335,-0.0016592749817296861,0.01183795650564134
