time,seconds_elapsed,z,y,x
1772568094763401000,0.11340087890625,-0.0006881165318191051,-0.0001765526831150055,-0.0016892049461603165
1772568094773473000,0.12347314453125,0.0006645028479397297,0.0012517007999122143,-0.0005605574697256088
1772568094783545000,0.133545166015625,-0.00284021720290184,-0.002694038674235344,-0.00012699421495199203
1772568094793617000,0.143616943359375,-0.0007953625172376633,0.003043144941329956,-0.00266248919069767
1772568094803689000,0.15368896484375,-0.0002470179460942745,0.0020796130411326885,0.00006192456930875778
1772568094813761000,0.163760986328125,0.000551475677639246,0.00010526413097977638,-0.0016345130279660225
1772568094823833000,0.1738330078125,-0.001502886414527893,0.00017850100994110107,-0.00016577914357185364
1772568094833905000,0.18390478515625,-0.0016084946691989899,0.0016440409235656261,-0.0009605064988136292
1772568094843977000,0.19397705078125,-0.000779186375439167,-0.0007482767105102539,-0.0027094045653939247
1772568094854049000,0.204049072265625,0.0012439577840268612,-0.0007386901415884495,0.0007829507812857628
1772568094864120000,0.2141201171875,0.0032381329219788313,0.00022058049216866493,0.0006902730092406273
1772568094874192000,0.22419189453125,-0.0004203217104077339,0.00045612407848238945,0.0013653431087732315
1772568094884264000,0.234263916015625,0.0007429467514157295,0.0042213015258312225,-0.0011321688070893288
1772568094894336000,0.2443359375,-0.002368515357375145,0.0011374582536518574,-0.0019898712635040283
1772568094904408000,0.254407958984375,0.0011005187407135963,-0.0014466065913438797,-0.0028210440650582314
1772568094914479900,0.26447998046875,-0.000583374872803688,-0.0013446793891489506,0.000834241509437561
1772568094924552000,0.274552001953125,-0.00044782040640711784,-0.001239484641700983,-0.00011171307414770126
1772568094934624000,0.2846240234375,0.0023387381806969643,0.0008909464813768864,-0.0005166195333003998
1772568094944696000,0.294696044921875,0.0001642671413719654,-0.0007895082235336304,0.0010162955150008202
1772568094954768000,0.304767822265625,-0.0016713938675820827,-0.0013899547047913074,-0.0006307251751422882
1772568094964840000,0.31483984375,-0.0030125617049634457,-0.0024320497177541256,0.0003578402101993561
1772568094974912000,0.324912109375,-0.00007546413689851761,0.0005386597476899624,-0.0003394670784473419
1772568094984983800,0.33498388671875,-0.00019610533490777016,-0.0006586974486708641,-0.0017469469457864761
1772568094995055900,0.345055908203125,0.0011985115706920624,0.0017897896468639374,0.002264338545501232
1772568095005128000,0.3551279296875,0.000196896493434906,0.0010670074261724949,-0.0010134801268577576
1772568095015200000,0.365199951171875,0.0011830870062112808,0.0019356580451130867,0.0013030320405960083
1772568095025271800,0.375271728515625,-0.00024090521037578583,-0.000028689857572317123,-0.0004184357821941376
1772568095035342800,0.3853427734375,-0.000405303668230772,-0.00263914349488914,-0.00026393868029117584
1772568095045415000,0.395414794921875,0.001428815070539713,-0.0007562888786196709,-0.000530521385371685
1772568095055487000,0.405487060546875,-0.0004308447241783142,0.0009044809266924858,-0.001507786102592945
1772568095065558800,0.415558837890625,0.0005393447354435921,0.003054717555642128,0.0013654986396431923
1772568095075630800,0.425630859375,0.0017028800211846828,0.00014201831072568893,0.0010778773576021194
1772568095085703000,0.435702880859375,-0.0003096708096563816,-0.0009762430563569069,0.0006842613220214844
1772568095095775000,0.44577490234375,-0.00015371432527899742,-0.0012837909162044525,0.00008232519030570984
1772568095105846800,0.4558466796875,0.00046014413237571716,-0.0007141404785215855,-0.0004873247817158699
1772568095115918800,0.4659189453125,0.0007125274278223515,-0.0009667268022894859,-0.0018705567345023155
1772568095125991000,0.475990966796875,0.0020646145567297935,0.00014940369874238968,0.0005398700013756752
1772568095136063000,0.48606298828125,0.0011594435200095177,0.0021277680061757565,-0.0005168328061699867
1772568095146134800,0.496134765625,-0.0019777598790824413,0.0015802220441401005,0.0013316664844751358
1772568095156206800,0.506206787109375,0.0020392658188939095,0.002216065302491188,0.00044644996523857117
1772568095166279000,0.51627880859375,-0.00005024997517466545,0.0013345587067306042,-0.0004654163494706154
1772568095176350700,0.526350830078125,0.00021112756803631783,-0.00025409087538719177,-0.0010736798867583275
1772568095186422800,0.5364228515625,-0.00020192889496684074,0.0018801665864884853,0.001536218449473381
1772568095196494800,0.546494873046875,-0.0003505116328597069,0.0014173327945172787,0.000003956258296966553
1772568095206567200,0.556567138671875,-0.0004716855473816395,-0.0019454408902674913,-0.0018277661874890327
1772568095216638000,0.566637939453125,-0.00027713365852832794,0.0012436732649803162,0.0018753381446003914
1772568095226709800,0.576709716796875,-0.00047181081026792526,0.000013825483620166779,-0.00007036793977022171
1772568095236781800,0.58678173828125,0.0003442852757871151,0.0006529819220304489,0.0010667024180293083
1772568095246854000,0.59685400390625,0.0020748074166476727,0.0002881288528442383,0.0003260774537920952
1772568095256925700,0.60692578125,-0.002405816223472357,0.002836049534380436,0.0011372733861207962
1772568095266997800,0.616997802734375,0.0012256703339517117,-0.0027928079944103956,-0.00013997871428728104
1772568095277070000,0.627070068359375,-0.000051131471991539,-0.0004396634176373482,-0.0017980299890041351
1772568095287142100,0.63714208984375,0.0018314570188522339,0.0024535953998565674,-0.0011852364987134933
1772568095297214000,0.6472138671875,0.000266938004642725,-0.0012331646867096424,0.0008752336725592613
1772568095307286000,0.6572861328125,-0.0003365343436598778,0.0014094901271164417,0.0006478000432252884
1772568095317358000,0.667358154296875,-0.0017802813090384007,0.0014606709592044353,0.00020257104188203812
1772568095327430000,0.677429931640625,0.0009377407841384411,-0.0010389718227088451,0.0005589015781879425
1772568095337502000,0.687501953125,0.0009787068702280521,0.0009113093838095665,-0.000022677704691886902
1772568095347574000,0.697573974609375,-0.0015057562850415707,0.0003890632651746273,-0.0006426619365811348
1772568095357646000,0.70764599609375,0.0009592180140316486,0.0010258746333420277,0.0023904675617814064
1772568095367718000,0.7177177734375,-0.002700498327612877,0.00005675014108419418,0.0005315812304615974
1772568095377790200,0.727790283203125,-0.0007267268374562263,0.001855731476098299,-0.002772619016468525
1772568095387862300,0.7378623046875,0.0013750400394201279,0.0005220202729105949,-0.0004253089427947998
1772568095397934000,0.74793408203125,0.0007721409201622009,0.0003328463062644005,0.0006299661472439766
1772568095408005000,0.758005126953125,0.00006480561569333076,-0.001707401592284441,0.0005511362105607986
1772568095418077000,0.768076904296875,-0.0016383761540055275,0.001165230292826891,0.0021360283717513084
1772568095428149000,0.77814892578125,0.0010881680063903332,0.0001260647550225258,0.0008904682472348213
1772568095438221300,0.78822119140625,0.0015725619159638882,0.00048300810158252716,0.001034255139529705
1772568095448293000,0.798293212890625,-0.00033585913479328156,-0.0009327284060418606,-0.0016174539923667908
1772568095458365200,0.808365234375,0.0010051112622022629,-0.001442973967641592,-0.001760152168571949
1772568095468437200,0.818437255859375,-0.0005826652050018311,0.00032962625846266747,-0.00004933774471282959
1772568095478509300,0.82850927734375,0.0009733051992952824,0.00045380787923932076,-0.000004698522388935089
1772568095488581000,0.8385810546875,0.0008886167779564857,-0.001171519048511982,0.0008192835375666618
1772568095498653200,0.848653076171875,-0.00025796331465244293,-0.0009956564754247665,0.00020404253154993057
1772568095508725200,0.858725341796875,0.0011820080690085888,-0.0035930373705923557,-0.000996776856482029
1772568095518797000,0.868797119140625,-0.0017115436494350433,0.0010545128025114536,0.003465915098786354
1772568095528869000,0.878869140625,-0.0002947417087852955,-0.0034305164590477943,0.00020487327128648758
1772568095538941200,0.888941162109375,0.0012618652544915676,0.0011303620412945747,0.0013819439336657524
1772568095549013200,0.89901318359375,0.0005052611231803894,-0.0009730025194585323,-0.0006050411611795425
1772568095559085000,0.9090849609375,-0.0014270953834056854,-0.00031569693237543106,-0.0011996310204267502
1772568095569157000,0.9191572265625,-0.0016625188291072845,-0.0021964211482554674,-0.0011160075664520264
1772568095579229200,0.929229248046875,0.0005621910095214844,-0.000005634967237710953,0.0011671697720885277
1772568095589301000,0.939301025390625,0.00033395783975720406,-0.0012778271920979023,-0.0016946634277701378
1772568095599373000,0.949373046875,0.0020655738189816475,0.0014060945250093937,0.00008783489465713501
1772568095609444000,0.959444091796875,-0.0011363448575139046,0.0014700102619826794,0.0006694691255688667
1772568095619516200,0.96951611328125,0.00011485489085316658,-0.00048469798639416695,0.000046664848923683167
1772568095629588200,0.979588134765625,-0.000295005738735199,0.000546477735042572,-0.0009488249197602272
1772568095639660000,0.989659912109375,-0.0011188560165464878,0.004026574082672596,-0.0016154143959283829
1772568095649732000,0.999732177734375,0.0006412272341549397,0.0007021501660346985,-0.0009304489940404892
1772568095659804200,1.00980419921875,-0.0023958845995366573,0.0015197386965155602,0.0008190479129552841
1772568095669876200,1.019876220703125,-0.000633937306702137,-0.003642799099907279,-0.0016526319086551666
1772568095679948000,1.029947998046875,-0.0001576235517859459,0.0021052518859505653,-0.00057241041213274
1772568095690020000,1.04002001953125,0.0010149660520255566,-0.0008359430357813835,0.00007074233144521713
1772568095700092200,1.050092041015625,0.0023971358314156532,0.0003245333209633827,0.00018788408488035202
1772568095710164000,1.0601640625,-0.00042288564145565033,0.00038898177444934845,0.0012206584215164185
1772568095720236000,1.070236083984375,0.0012857154943048954,-0.0005974001251161098,-0.0000026552006602287292
1772568095730308000,1.08030810546875,0.00031366152688860893,0.00233633816242218,0.0010783225297927856
1772568095740380200,1.090380126953125,-0.00019871722906827927,-0.000004002358764410019,-0.0024045733734965324
1772568095750452000,1.100451904296875,-0.0016757058911025524,0.0007619229145348072,-0.000601879321038723
1772568095760524000,1.11052392578125,0.00236807344481349,0.001347595825791359,-0.00020042993128299713
1772568095770596000,1.12059619140625,-0.0009225280955433846,-0.0015595108270645142,-0.0025725075975060463
1772568095780668000,1.13066796875,-0.002691669389605522,-0.00039976462721824646,0.00027860887348651886
1772568095790740000,1.140739990234375,-0.0013441098853945732,0.002091888803988695,0.0006344076246023178
1772568095800811000,1.15081103515625,0.000010597053915262222,0.0014807675033807755,-0.0004175826907157898
1772568095810883000,1.160883056640625,0.0010130112059414387,-0.0003110072575509548,-0.00011478085070848465
1772568095820955100,1.170955078125,-0.0015583187341690063,-0.00201746285893023,0.0013487720862030983
1772568095831027000,1.18102685546875,-0.00025816354900598526,0.0004025516100227833,0.0019149603322148323
1772568095841099000,1.19109912109375,0.001632045954465866,-0.000828353688120842,0.0004216134548187256
1772568095851171000,1.201171142578125,-0.001210345420986414,0.0022276234813034534,0.002476242370903492
1772568095861243100,1.2112431640625,-0.002169718500226736,-0.0014103995636105537,-0.0011057257652282715
1772568095871315000,1.22131494140625,0.00007852213457226753,-0.0012231795117259026,0.0000996217131614685
1772568095881387000,1.231386962890625,0.0002014744095504284,-0.0025864935014396906,-0.0011621583253145218
1772568095891459000,1.241458984375,0.0011207973584532738,0.0034445011988282204,0.0017705149948596954
1772568095901531000,1.25153076171875,0.0004754960536956787,-0.00011798087507486343,-0.0005293553695082664
1772568095911603200,1.261603271484375,-0.0004595397040247917,-0.001268200110644102,-0.0004475964233279228
1772568095921675300,1.27167529296875,-0.00020308839157223701,-0.0009465888142585754,-0.0008973740041255951
1772568095931747000,1.2817470703125,-9.541399776935577e-7,-0.00027360813692212105,0.0001340685412287712
1772568095941819100,1.291819091796875,-0.00020362762734293938,0.0007253699004650116,0.000527428463101387
1772568095951891200,1.30189111328125,0.0007772142998874187,-0.00014894595369696617,0.0020765895023941994
1772568095961963300,1.31196337890625,0.00016660010442137718,-0.0017316918820142746,-0.0015679746866226196
1772568095972035000,1.32203515625,0.0016201534308493137,-0.0016480686608701944,-0.00042175035923719406
1772568095982107100,1.332107177734375,-0.0006479588337242603,-0.0008842558600008488,-0.001533549278974533
1772568095992178200,1.34217822265625,-0.0010998970828950405,0.0024367058649659157,0.002675311639904976
1772568096002250200,1.352250244140625,-0.000793075654655695,-0.00011755898594856262,-0.0029584048315882683
1772568096012322300,1.362322265625,-0.0018889661878347397,0.000490706879645586,-0.002531234174966812
1772568096022394000,1.37239404296875,-0.0008609085343778133,-0.0012620403431355953,-0.0013029072433710098
1772568096032466200,1.382466064453125,0.000350296963006258,-0.0018159779720008373,-0.00016387272626161575
1772568096042538200,1.392538330078125,0.001333883497864008,0.0008868123404681683,0.0009805234149098396
1772568096052610000,1.402610107421875,0.0008646342903375626,0.0008039879612624645,-0.00011936202645301819
1772568096062682000,1.41268212890625,0.0012947367504239082,-0.0011394652538001537,0.0010875705629587173
1772568096072754200,1.422754150390625,0.0003391942009329796,-0.000561026856303215,0.0012170001864433289
1772568096082826200,1.432826171875,-0.00022285478189587593,0.0012833611108362675,-0.0003683846443891525
1772568096092898000,1.44289794921875,-0.0013208761811256409,-0.0006295875646173954,0.0012766504660248756
1772568096102970000,1.45297021484375,0.000696476548910141,-0.0027546288911253214,0.00007800944149494171
1772568096113042200,1.463042236328125,-0.00009022140875458717,0.0004318435676395893,0.0022269142791628838
1772568096123114000,1.473114013671875,0.00008662231266498566,-0.0009507550857961178,-0.0006981547921895981
1772568096133186000,1.48318603515625,-0.0023536323569715023,-0.0005422262474894524,0.0012579374015331268
1772568096143258000,1.493258056640625,-0.0002811271697282791,-0.0023265748750418425,0.0022759316489100456
1772568096153330200,1.503330078125,-0.0003900504671037197,0.002252730540931225,-0.000568857416510582
1772568096163402000,1.513402099609375,-0.0023094164207577705,-0.0013768658973276615,-0.00089222751557827
1772568096173474000,1.52347412109375,0.0003353692591190338,-0.0026346766389906406,0.00035706162452697754
1772568096183545000,1.533545166015625,-0.00022083288058638573,-0.0012905658222734928,0.0007009077817201614
1772568096193617200,1.5436171875,0.0011749295517802238,-0.0045745098032057285,-0.0005459841340780258
1772568096203689200,1.553689208984375,0.0004079756326973438,0.0004603327251970768,0.000600963830947876
1772568096213761000,1.563760986328125,0.0010756300762295723,0.0016401130706071854,0.000018530525267124176
1772568096223833000,1.5738330078125,-0.000642772763967514,-0.0004218253307044506,-0.0009289942681789398
1772568096233905200,1.5839052734375,0.001523442566394806,0.0003294525668025017,-0.0019148960709571838
1772568096243977000,1.59397705078125,0.0019779540598392487,-0.0013036904856562614,0.00017508957535028458
1772568096254049000,1.604049072265625,-0.0007017184980213642,0.00023774709552526474,-0.00024995114654302597
1772568096264121000,1.61412109375,-0.0009276489727199078,-0.0002945875748991966,-0.0012453878298401833
1772568096274193200,1.624193115234375,-0.0018352544866502285,0.000002887565642595291,-0.0002704048529267311
1772568096284265000,1.634264892578125,-0.000007320195436477661,0.0003214646130800247,0.0015368200838565826
1772568096294337000,1.6443369140625,-0.002335722092539072,-0.0006484584882855415,0.0014822250232100487
1772568096304409000,1.6544091796875,-0.0008142553269863129,-0.004122796002775431,-0.0019463291391730309
1772568096314481000,1.66448095703125,-0.0006371550261974335,0.0008599781431257725,-0.000055750831961631775
1772568096324553000,1.674552978515625,0.001275463029742241,0.003077977802604437,0.0017780931666493416
1772568096334624500,1.68462451171875,-0.000585820060223341,0.0004901839420199394,0.0003642207011580467
1772568096344696600,1.694696533203125,-0.00117817847058177,-0.0026055367197841406,-0.0013708816841244698
1772568096354768600,1.7047685546875,-0.00283386604860425,0.002209192141890526,0.00032049231231212616
1772568096364840400,1.71484033203125,-0.0009466102346777916,0.0012913173995912075,-0.0004107281565666199
1772568096374911500,1.724911376953125,0.00037644756957888603,-0.00043867202475667,-0.0001737065613269806
1772568096384983600,1.734983642578125,-0.0004883389919996262,-0.001404392533004284,0.0003769742324948311
1772568096395055600,1.7450556640625,-0.00019086385145783424,-0.0005290117114782333,-0.0026907213032245636
1772568096405127400,1.75512744140625,-0.0001169256865978241,-0.00016923341900110245,-0.00009925477206707001
1772568096415199500,1.765199462890625,0.0018181274645030499,0.0013247998431324959,-0.0004726303741335869
1772568096425271600,1.775271484375,-0.00001310417428612709,-0.0014673713594675064,0.0009914655238389969
1772568096435343600,1.785343505859375,-0.0003755600191652775,-0.0003280709497630596,-0.00021041929721832275
1772568096445415400,1.79541552734375,-0.001016564667224884,0.00030444003641605377,0.0006230510771274567
1772568096455487500,1.805487548828125,0.001603452954441309,-0.0015326084103435278,-0.0012685926631093025
1772568096465559600,1.8155595703125,0.0020987996831536293,0.0003658006899058819,0.00016904715448617935
1772568096475631400,1.82563134765625,-0.0003707492724061012,-0.0013862927444279194,-0.0005350932478904724
1772568096485703400,1.835703369140625,0.0017348229885101318,-0.0013344553299248219,-0.0014542685821652412
1772568096495775500,1.845775390625,0.003027255181223154,0.0015135291032493114,0.0009529627859592438
1772568096505847600,1.85584765625,0.0023409342393279076,-0.0009567956440150738,-0.0018782932311296463
1772568096515919400,1.86591943359375,0.00012704823166131973,0.0032973377965390682,-0.003030110150575638
1772568096525991400,1.875991455078125,-0.0003978703171014786,-0.0007804022170603275,-0.0003841044381260872
1772568096536063700,1.886063720703125,-0.0006878883577883244,0.0006710207089781761,-0.000756680965423584
1772568096546135600,1.896135498046875,0.0011801542714238167,-0.0021310870070010424,0.0009703682735562325
1772568096556206600,1.90620654296875,0.0010411371476948261,0.0022780424915254116,-0.001140187494456768
1772568096566278400,1.9162783203125,-0.001321074552834034,0.00007306830957531929,0.00009189639240503311
1772568096576350500,1.9263505859375,0.0010992065072059631,0.001967907417565584,-0.0002572443336248398
1772568096586422500,1.936422607421875,-0.00036382395774126053,0.00016516679897904396,-0.0027891863137483597
1772568096596494600,1.94649462890625,0.0010077040642499924,-0.0022825447376817465,0.001103823073208332
1772568096606566700,1.956566650390625,-0.0005391673184931278,-0.0007509533315896988,0.00025955680757761
1772568096616638700,1.966638671875,0.0012531401589512825,-0.000980251468718052,-0.0003444477915763855
1772568096626710500,1.97671044921875,-0.00153307244181633,-0.0006926408968865871,-0.0012324787676334381
1772568096636782600,1.986782470703125,0.0001660240814089775,0.001157989725470543,0.00194547139108181
1772568096646854700,1.996854736328125,-0.00016189785674214363,0.0006732400506734848,-0.0013520661741495132
1772568096656926700,2.0069267578125,-0.0012053241953253746,-0.001196298748254776,-0.0037768734619021416
1772568096666998500,2.01699853515625,0.0011974005028605461,-0.0019065255764871836,0.0008057719096541405
1772568096677070600,2.027070556640625,-0.00003457767888903618,0.001021087635308504,0.00043985340744256973
1772568096687142700,2.037142578125,0.0019040959887206554,0.0019277660176157951,-0.0006449911743402481
1772568096697214700,2.047214599609375,-0.0007193838246166706,-0.0013439273461699486,0.0006578275933861732
1772568096707286500,2.05728662109375,-0.00009440397843718529,0.0010096272453665733,0.0011551650241017342
1772568096717358600,2.067358642578125,0.0006837719120085239,-0.0000050370581448078156,0.0002603428438305855
1772568096727430700,2.0774306640625,-0.0014182096347212791,0.0001375339925289154,-0.0005480097606778145
1772568096737501700,2.087501708984375,-0.0013521639630198479,0.0007836166769266129,0.0022014379501342773
1772568096747573500,2.097573486328125,-0.0014568725600838661,-0.0006846976466476917,-0.00028808414936065674
1772568096757645600,2.1076455078125,-0.0005908124148845673,-0.0009233169257640839,-0.00021378137171268463
1772568096767717600,2.117717529296875,-0.0015170099213719368,-0.0007008751854300499,0.0024359971284866333
1772568096777789700,2.127789794921875,-0.000025906134396791458,-0.0007759761065244675,-0.00012596417218446732
1772568096787861500,2.137861572265625,-0.0003171004354953766,-0.002727865008637309,-0.0007163956761360168
1772568096797933600,2.14793359375,0.0013822629116475582,0.0005057449452579021,0.001104140654206276
1772568096808005600,2.158005615234375,-0.0026099621318280697,-0.0026739095337688923,-0.0004149461165070534
1772568096818077400,2.168077392578125,0.001007676124572754,0.0003530392423272133,0.0011930698528885841
1772568096828149500,2.1781494140625,0.000023554079234600067,-0.0017174631357192993,0.000028903596103191376
1772568096838221600,2.1882216796875,0.00024246610701084137,0.0017297323793172836,-0.0003972025588154793
1772568096848293600,2.198293701171875,-0.0013378611765801907,-0.0005441750399768353,0.000010120682418346405
1772568096858365400,2.208365478515625,-0.0012254766188561916,-0.00011940067633986473,0.00001091882586479187
1772568096868437500,2.2184375,-0.001453364733606577,-0.0006592823192477226,-0.000984715297818184
1772568096878509600,2.228509521484375,-0.00011459318920969963,0.0009468700736761093,0.0013540731742978096
1772568096888581600,2.23858154296875,0.00012428872287273407,-0.0012364117428660393,-0.0005644820630550385
1772568096898653400,2.2486533203125,-0.00040754443034529686,0.00022806087508797646,-0.000976739451289177
1772568096908725500,2.2587255859375,-0.001327617559581995,-0.0014350139535963535,-0.00011465046554803848
1772568096918797600,2.268797607421875,0.00037440843880176544,-0.0010126368142664433,0.0009045414626598358
1772568096928868600,2.27886865234375,0.0010633044876158237,-0.003528674365952611,0.0007142005488276482
1772568096938940400,2.2889404296875,0.0008672960102558136,0.00042585376650094986,-0.0003739669919013977
1772568096949012500,2.299012451171875,-0.0026789186522364616,0.00010209716856479645,0.0001436881721019745
1772568096959084500,2.30908447265625,0.00005961023271083832,-0.0003892560489475727,0.0006909677758812904
1772568096969156600,2.319156494140625,-0.0013800538145005703,-0.001118409913033247,-0.0009142337366938591
1772568096979228400,2.329228515625,0.001166726928204298,-0.001415885053575039,0.0010786093771457672
1772568096989300500,2.339300537109375,-0.0012927199713885784,0.00035975128412246704,0.0009245555847883224
1772568096999372500,2.34937255859375,0.002003740519285202,0.0020692343823611736,-0.0007540350779891014
1772568097009444400,2.3594443359375,-0.0009024864993989468,-0.0006257290951907635,-0.0002600261941552162
1772568097019516400,2.369516357421875,-0.0007328432984650135,-0.0009620864875614643,0.0006254743784666061
1772568097029588500,2.37958837890625,-0.00042522139847278595,-0.0002428954467177391,-0.0005791150033473969
1772568097039660500,2.38966064453125,-0.0006944672204554081,0.002153417095541954,0.00023980718106031418
1772568097049732400,2.399732421875,0.0017629973590373993,-0.0013475939631462097,0.00023891497403383255
1772568097059804400,2.409804443359375,-0.0006495602428913116,0.0005094283260405064,0.00027353595942258835
1772568097069876700,2.419876708984375,0.0014019990339875221,0.00002887565642595291,-0.00010947044938802719
1772568097079948500,2.429948486328125,0.0007497910410165787,-0.002799401292577386,0.0007163751870393753
1772568097090020600,2.4400205078125,0.0013483879156410694,0.0014768438413739204,0.0010927282273769379
1772568097100092700,2.4500927734375,-0.00176165159791708,-0.0023519829846918583,-0.0014383401721715927
1772568097110164700,2.460164794921875,0.001256780233234167,-0.0005963142029941082,0.002380484715104103
1772568097120236500,2.470236572265625,0.0031705275177955627,0.00031448667868971825,-0.0021343715488910675
1772568097130307600,2.4803076171875,-0.0012361472472548485,0.002142957877367735,-0.00011926982551813126
1772568097140379600,2.490379638671875,-0.0006670295260846615,-0.0022592474706470966,-0.0018857447430491447
1772568097150451700,2.50045166015625,-0.0012053940445184708,-0.0013563800603151321,0.002237759530544281
1772568097160523800,2.510523681640625,0.0011760042980313301,0.0009706900455057621,0.0013687703758478165
1772568097170595600,2.520595703125,-0.00033472245559096336,-0.0013389931991696358,0.00005248561501502991
1772568097180667600,2.530667724609375,0.0010772859677672386,0.001981702633202076,-0.002126513049006462
1772568097190739700,2.54073974609375,-0.00028785504400730133,-0.0006483937613666058,0.0012596873566508293
1772568097200811500,2.5508115234375,0.00023092841729521751,-0.00035012001171708107,0.001299101859331131
1772568097210883600,2.560883544921875,-0.0014261831529438496,-0.00034259306266903877,-0.0012272056192159653
1772568097220955600,2.57095556640625,0.0006505502387881279,-0.0006073112599551678,0.0020506130531430244
1772568097231027700,2.58102783203125,0.00003724033012986183,0.0009672772139310837,-0.00023209955543279648
1772568097241099500,2.591099609375,0.0010489756241440773,0.00025621335953474045,0.0006744405254721642
1772568097251171600,2.601171630859375,-0.00046098511666059494,-0.0004075043834745884,0.0016206176951527596
1772568097261243600,2.61124365234375,-0.0008988091722130775,-0.00035290932282805443,0.0008208705112338066
1772568097271315500,2.6213154296875,-0.0002713678404688835,-0.0012858049012720585,0.0015807375311851501
1772568097281387500,2.631387451171875,0.0012197359465062618,-0.0010242825374007225,-0.000012631528079509735
1772568097291459600,2.64145947265625,0.0005381423979997635,-0.00018914416432380676,0.0012128278613090515
1772568097301531600,2.65153173828125,-0.0019987844862043858,0.0013027586974203587,-0.0005792127922177315
1772568097311602700,2.661602783203125,0.0007887440733611584,0.0015087584033608437,-0.0026909448206424713
1772568097321674500,2.671674560546875,0.0012880866415798664,-0.0035493834875524044,0.0007426692172884941
1772568097331747000,2.6817470703125,-0.0012666787952184677,-0.0013502673245966434,-0.00027610454708337784
1772568097341819100,2.691819091796875,0.0021245907992124557,-0.00014358898624777794,0.0012078089639544487
1772568097351891000,2.701890869140625,-0.0008879979141056538,0.0021956157870590687,-0.000040207989513874054
1772568097361963000,2.711962890625,0.00046249106526374817,0.0027937614358961582,-0.0009776400402188301
1772568097372035000,2.72203515625,-0.0007453393191099167,0.0013484936207532883,0.00025957170873880386
1772568097382107100,2.732107177734375,0.0033756361808627844,-0.0011125337332487106,0.0005352087318897247
1772568097392179000,2.742178955078125,0.0005470030009746552,0.0015045981854200363,-0.0021665217354893684
1772568097402251000,2.7522509765625,0.0005235671997070312,0.003756034653633833,0.0007001049816608429
1772568097412323000,2.762322998046875,0.0021325754933059216,-0.0006632702425122261,-0.0012325812131166458
1772568097422395000,2.772394775390625,-0.0006664064712822437,0.0010984106920659542,-0.0008831750601530075
1772568097432467000,2.782467041015625,-0.003621152136474848,0.0034739933907985687,0.0005152532830834389
1772568097442539000,2.7925390625,-0.0001917998306453228,0.0000739353708922863,0.0009671924635767937
1772568097452611000,2.802611083984375,-0.0010149097070097923,0.00288776820525527,-0.0009184302762150764
1772568097462683000,2.812682861328125,-0.0005054469220340252,-0.0008960510604083538,-0.0014276262372732162
1772568097472755000,2.8227548828125,0.0007805870845913887,0.0011006337590515614,0.0037615038454532623
1772568097482827000,2.832826904296875,-0.001184825785458088,0.000892906915396452,-0.0013456400483846664
1772568097492898800,2.84289892578125,-0.0002653193660080433,-0.0029361869674175978,0.001346544362604618
1772568097502969900,2.852969970703125,0.00153018394485116,-0.0007313559763133526,0.000037867575883865356
1772568097513042000,2.8630419921875,-0.0006616944447159767,-0.00041892286390066147,-0.0003982679918408394
1772568097523114000,2.873114013671875,-0.000302167609333992,-0.002160896547138691,0.0003905603662133217
1772568097533186000,2.88318603515625,0.00035085855051875114,-0.0009874249808490276,0.0009605353698134422
1772568097543257900,2.8932578125,0.002006546128541231,-0.0004526623524725437,-0.0006775753572583199
1772568097553330000,2.903329833984375,-0.00009190337732434273,0.0030670035630464554,0.0016013868153095245
1772568097563402000,2.913402099609375,0.0008708289824426174,-0.0009080306626856327,0.001452515833079815
1772568097573474000,2.92347412109375,-0.0001661377027630806,0.00037174439057707787,-0.0026343148201704025
1772568097583545900,2.9335458984375,-0.0007291301153600216,0.0015451330691576004,0.0012408504262566566
1772568097593618000,2.943617919921875,-0.0006993007846176624,-0.00009513506665825844,0.00016455631703138351
1772568097603690000,2.95368994140625,0.0003417287953197956,0.0011541536077857018,-0.0011923247948288918
1772568097613761800,2.96376171875,0.001625316683202982,-0.004190786741673946,-0.000984998419880867
1772568097623833900,2.973833740234375,-0.001409089658409357,-0.00047807395458221436,-0.0013008490204811096
1772568097633906000,2.983906005859375,-0.0018151751719415188,0.00033982936292886734,-0.0002462519332766533
1772568097643978000,2.99397802734375,0.00028259633108973503,0.0015427791513502598,-0.00014638341963291168
1772568097654049800,3.0040498046875,0.0023664883337914944,-0.00022443803027272224,0.0011207833886146545
1772568097664121900,3.014121826171875,0.0014402405358850956,-0.0030314098112285137,-0.0005756495520472527
1772568097674194000,3.02419384765625,-0.0017310031689703465,0.002589793410152197,-0.0010860152542591095
1772568097684266000,3.034265869140625,-0.0011866535060107708,0.00021079182624816895,0.0003518257290124893
1772568097694336800,3.044336669921875,0.0015038680285215378,-0.0016474795993417501,-0.00040428526699543
1772568097704408800,3.054408935546875,0.00019226130098104477,-0.0026448334101587534,-0.003820321522653103
1772568097714481000,3.06448095703125,0.0007812464609742165,0.0008118585683405399,0.00008563417941331863
1772568097724553000,3.074552978515625,-0.000452596228569746,0.0010627279989421368,0.001795383170247078
1772568097734624800,3.084624755859375,-0.0009101233445107937,-0.0010355017147958279,-0.00003748945891857147
1772568097744696800,3.09469677734375,-0.000831293873488903,0.0006497465074062347,-0.001088639721274376
1772568097754769200,3.10476904296875,-0.00039854273200035095,0.0003356500528752804,-0.0006559388712048531
1772568097764841000,3.114841064453125,-0.0006467495113611221,0.00026214681565761566,-0.00014993827790021896
1772568097774913000,3.1249130859375,-0.0003294604830443859,-0.0013470822013914585,-0.0012391600757837296
1772568097784985000,3.134985107421875,0.0013970667496323586,-0.0016727866604924202,0.001199229620397091
1772568097795057200,3.14505712890625,-0.0002892687916755676,0.0007615713402628899,-0.0004801293835043907
1772568097805129000,3.15512890625,0.0012154174037277699,0.0019695814698934555,0.00020563509315252304
1772568097815201000,3.165200927734375,0.0005797506310045719,-0.0009864503517746925,0.003054293803870678
1772568097825273000,3.175273193359375,0.0001722872257232666,0.00038800714537501335,-0.0002453615888953209
1772568097835345200,3.18534521484375,0.0010017547756433487,-0.002489002887159586,-0.0014791209250688553
1772568097845417000,3.1954169921875,-0.00199856236577034,0.002530256286263466,-0.0006815046072006226
1772568097855489000,3.205489013671875,0.001242668367922306,0.002219724003225565,0.0007710298523306847
1772568097865561000,3.21556103515625,0.00013985345140099525,0.00014671962708234787,0.0017010057345032692
1772568097875633000,3.2256328125,-0.001219775527715683,0.0013330788351595402,0.0001282552257180214
1772568097885705000,3.235705078125,0.0013392562977969646,0.0018960707820951939,-0.00034046079963445663
1772568097895776000,3.24577587890625,0.0006903293542563915,-0.00045864470303058624,0.0013378998264670372
1772568097905848000,3.25584814453125,0.0022504092194139957,0.000538709107786417,0.0021799905225634575
1772568097915920100,3.265920166015625,-0.0012080376036465168,0.00011467887088656425,0.0004078289493918419
1772568097925992000,3.275991943359375,0.00007320940494537354,0.001494462601840496,0.00011647958308458328
1772568097936064000,3.28606396484375,-0.0018100002780556679,0.0017112432979047298,0.0011020228266716003
1772568097946136000,3.296135986328125,-0.00021476717665791512,-0.001043530646711588,-0.0010580671951174736
1772568097956207900,3.306207763671875,-0.0012301979586482048,0.001048701349645853,-0.00043103378266096115
1772568097966280000,3.316280029296875,-0.00020328303799033165,0.00238507566973567,0.0004938822239637375
1772568097976352000,3.32635205078125,-0.0006562871858477592,-0.000498275738209486,-0.0013925116509199142
1772568097986424000,3.336424072265625,-0.0006464333273470402,0.001065798569470644,0.0019537508487701416
1772568097996496000,3.346495849609375,0.00010485853999853134,-0.0006151781417429447,-0.0014900099486112595
1772568098006568000,3.35656787109375,0.000012979377061128616,0.00044742273166775703,-0.0015917420387268066
1772568098016640000,3.366639892578125,-0.0013950788415968418,0.001537351869046688,-0.0008022896945476532
1772568098026712000,3.376712158203125,0.0028393473476171494,0.00009098881855607033,-0.0012587551027536392
1772568098036783900,3.386783935546875,0.0006630080752074718,0.00006249779835343361,-0.0004827147349715233
1772568098046856000,3.39685595703125,0.0008446355350315571,0.0015277690254151821,0.0011490033939480782
1772568098056928000,3.406927978515625,0.00037297140806913376,-0.0024398379027843475,-0.0007597729563713074
1772568098066999800,3.416999755859375,-0.0003700507804751396,-0.00005337921902537346,-0.000016218051314353943
1772568098077072000,3.42707177734375,-0.0016453261487185955,-0.00036795390769839287,0.001329144462943077
1772568098087143000,3.437142822265625,0.0014412770979106426,0.0013681608252227306,0.002382424660027027
1772568098097215000,3.447215087890625,0.0010870820842683315,0.002600290346890688,-0.00031375885009765625
1772568098107287000,3.457287109375,-0.002731624525040388,-0.002435214351862669,-0.0015798257663846016
1772568098117358800,3.46735888671875,0.0008875899948179722,-0.0008321776986122131,-0.0018324293196201324
1772568098127431000,3.477430908203125,0.0011219480074942112,-0.0009504221379756927,-0.00012774020433425903
1772568098137503000,3.4875029296875,-0.00044367043301463127,-0.0014657136052846909,-0.0020237872377038
1772568098147574800,3.49757470703125,0.0022562420926988125,-0.0010081822983920574,-0.00002455245703458786
1772568098157646800,3.507646728515625,-0.00016142753884196281,0.0026679597795009613,-0.0017402442172169685
1772568098167719000,3.517718994140625,-0.0004961867816746235,0.0011448976583778858,0.0007428871467709541
1772568098177791000,3.527791015625,-0.0025153132155537605,0.0009174183942377567,0.0000012414529919624329
1772568098187862800,3.53786279296875,-0.0003949040547013283,0.00010914914309978485,-0.0004847850650548935
1772568098197934800,3.547934814453125,-0.0024282652884721756,0.0019023059867322445,-0.00009658560156822205
1772568098208007000,3.5580068359375,-0.00000878283753991127,-0.0012471480295062065,-0.0010473337024450302
1772568098218079000,3.568078857421875,0.002093660645186901,-0.002143663354218006,0.0018592141568660736
1772568098228151000,3.578151123046875,0.0010723383165895939,-0.0008501661941409111,-0.0026958566159009933
1772568098238223000,3.58822314453125,0.001239784061908722,0.000017695128917694092,0.0009856531396508217
1772568098248295200,3.598295166015625,-0.0002968600019812584,-0.0004371730610728264,-0.0013310303911566734
1772568098258367000,3.608366943359375,0.002384729217737913,0.0025314530357718468,-0.0016643460839986801
1772568098268439000,3.61843896484375,-0.0010350355878472328,0.0021098749712109566,0.000024364329874515533
1772568098278511000,3.628510986328125,-0.0006868680939078331,-0.00045978790149092674,-0.00042585190385580063
1772568098288583200,3.638583251953125,-0.0017081904225051403,-0.00007389578968286514,0.0003043869510293007
1772568098298654000,3.648654052734375,-0.00009983265772461891,0.0016103754751384258,-0.000018532387912273407
1772568098308726000,3.65872607421875,-0.00382186658680439,0.0012868009507656097,-0.0014084363356232643
1772568098318798000,3.668798095703125,-0.0024708989076316357,-0.0015170020051300526,-0.0015353802591562271
1772568098328870100,3.6788701171875,0.0015573990531265736,-0.00046611903235316277,-0.0011707935482263565
1772568098338942000,3.68894189453125,-0.0015140362083911896,0.0002566259354352951,0.000006234273314476013
1772568098349014000,3.699013916015625,0.0008500521071255207,-0.00148854311555624,0.0015428783372044563
1772568098359086000,3.709086181640625,-0.0012469002977013588,-0.0017738158348947763,-0.0005839532241225243
1772568098369158100,3.719158203125,0.0031771427020430565,-0.0027940727304667234,-0.0004329513758420944
1772568098379230000,3.72922998046875,-0.0003636716865003109,-0.0007769409567117691,-0.000040996819734573364
1772568098389302000,3.739302001953125,0.0016629938036203384,-0.0012677614577114582,-0.00039599649608135223
1772568098399374000,3.7493740234375,0.001011289656162262,-0.0012279404327273369,0.0009370949119329453
1772568098409446000,3.75944580078125,-0.00041430070996284485,-0.0009975768625736237,0.0000396091490983963
1772568098419518000,3.76951806640625,-0.0020137387327849865,-0.0016289371997117996,-0.0014238562434911728
1772568098429590000,3.779590087890625,0.0017431830056011677,-0.00016126921400427818,0.00016312208026647568
1772568098439662000,3.789662109375,0.0007991492748260498,-0.000603443942964077,-0.0002938099205493927
1772568098449734000,3.79973388671875,-0.0012743882834911346,-0.00017653917893767357,-0.00022643152624368668
1772568098459806000,3.809805908203125,-0.0007657911628484726,-0.002472009975463152,-0.0010263482108712196
1772568098469878000,3.8198779296875,0.0006339661777019501,-0.0009031416848301888,0.0004005739465355873
1772568098479949800,3.82994970703125,0.0003720531240105629,0.00021935859695076942,0.0019855545833706856
1772568098490022000,3.84002197265625,0.0021513113752007484,-0.0004949015565216541,0.000580204650759697
1772568098500094200,3.85009423828125,-0.0007096934132277966,-0.0015803389251232147,-0.0020288461819291115
1772568098510165000,3.8601650390625,0.0034222009126096964,-0.00025195395573973656,0.000641239807009697
1772568098520237000,3.870237060546875,-0.0016341544687747955,-0.00009136414155364037,0.0023324554786086082
1772568098530308900,3.880308837890625,-0.0013681044802069664,0.0019155940972268581,0.000728965736925602
1772568098540381000,3.890380859375,-0.001555697526782751,0.002364735584706068,-0.0014902586117386818
1772568098550453000,3.900452880859375,0.0013988134451210499,0.0011242353357374668,-0.0006633475422859192
1772568098560525000,3.910525146484375,-0.001983998343348503,-0.0023993859067559242,-0.0001262640580534935
1772568098570597000,3.92059716796875,-0.00283754151314497,0.0006131818518042564,-0.0016194982454180717
1772568098580669200,3.930669189453125,-0.00009525055065751076,-0.0000886945053935051,0.00006663240492343903
1772568098590741200,3.9407412109375,0.00015561934560537338,0.0012306352145969868,-0.0008252598345279694
1772568098600813000,3.95081298828125,0.00092351995408535,-0.0002978346310555935,0.0006293710321187973
1772568098610885000,3.960885009765625,-0.001997967716306448,-0.002040873747318983,-0.00010299775749444962
1772568098620957200,3.970957275390625,0.0001939777284860611,0.0024980749003589153,-0.001701250672340393
1772568098631029200,3.981029296875,-0.0022843601182103157,0.000337185338139534,-0.0008913837373256683
1772568098641101000,3.99110107421875,0.0032842280343174934,0.0001570587046444416,0.0008820965886116028
1772568098651173000,4.001173095703125,-0.0001403307542204857,-0.00041365670040249825,-0.00007451046258211136
1772568098661245200,4.0112451171875,0.0007320274598896503,0.00024861982092261314,0.00002587679773569107
1772568098671317000,4.02131689453125,0.0006627850234508514,0.0020763473585247993,-0.001057497225701809
1772568098681389000,4.03138916015625,0.0008158660493791103,-0.0013810070231556892,-0.0003497246652841568
1772568098691461000,4.041461181640625,-0.00020545627921819687,0.00246619526296854,-0.0006080511957406998
1772568098701533200,4.051533203125,-0.0015915045514702797,-0.002000456675887108,0.0017207814380526543
1772568098711605000,4.06160498046875,0.001961418893188238,0.0010962667874991894,0.0004933299496769905
1772568098721676000,4.071676025390625,0.0012322249822318554,-0.0009931530803442001,-0.00009185820817947388
1772568098731748000,4.081748046875,-0.0015313378535211086,-0.0012248479761183262,0.00022132880985736847
1772568098741820200,4.091820068359375,-0.000010250136256217957,0.00021449243649840355,-0.00013445597141981125
1772568098751892000,4.10189208984375,-0.0009029419161379337,0.0005351370200514793,-0.0005517732352018356
1772568098761964000,4.111964111328125,0.00009410642087459564,0.0006312807090580463,-0.0009374581277370453
1772568098772036000,4.1220361328125,0.0011886656284332275,0.00009438721463084221,0.0010684346780180931
1772568098782108200,4.132108154296875,0.001725226640701294,0.00034444546326994896,0.0004886500537395477
1772568098792180000,4.142179931640625,-0.0003400547429919243,-0.0003708796575665474,-0.001668776385486126
1772568098802252000,4.152251953125,0.0040015242993831635,-0.0005281488411128521,-0.0011655082926154137
1772568098812324000,4.162323974609375,-0.0001095971092581749,-0.0004192255437374115,-0.00017987191677093506
1772568098822396200,4.172396240234375,-0.0004381961189210415,-0.0034211543388664722,-0.001362633891403675
1772568098832468000,4.182468017578125,0.0019839489832520485,-0.0034248826559633017,-0.001097649335861206
1772568098842540000,4.1925400390625,0.001200356986373663,0.0005206824280321598,-0.000926777720451355
1772568098852612000,4.202612060546875,-0.00013015838339924812,0.0017446712590754032,0.0007086694240570068
1772568098862684000,4.212683837890625,0.0017465632408857346,0.0004965518601238728,-0.0011638933792710304
1772568098872756000,4.222755859375,-0.00265963701531291,0.0005657942965626717,-0.00045868847519159317
1772568098882828000,4.232828125,0.000667717307806015,-0.001519904937595129,0.000497797504067421
1772568098892900000,4.242900146484375,-0.00033096782863140106,0.0009262082166969776,0.00187651626765728
1772568098902972000,4.252971923828125,0.00018177274614572525,-0.001877432456240058,0.0010294876992702484
1772568098913044000,4.2630439453125,0.00023876409977674484,0.0030491487123072147,0.0011682379990816116
1772568098923115000,4.273114990234375,0.0003469386138021946,0.0024874545633792877,-0.001719597727060318
1772568098933187000,4.28318701171875,0.0007552015595138073,-0.00018209870904684067,0.0007430277764797211
1772568098943259000,4.2932587890625,-0.00043497420847415924,0.001709099393337965,-0.001016870141029358
1772568098953331000,4.3033310546875,0.0017155283130705357,-0.00030851131305098534,-0.0006402991712093353
1772568098963403000,4.313403076171875,-0.0014018225483596325,-0.0009306608699262142,-0.0009259665384888649
1772568098973475000,4.32347509765625,-0.00026411982253193855,-0.0011170823127031326,0.002336406148970127
1772568098983547000,4.333546875,-0.0010133897885680199,0.000021393876522779465,0.0012403931468725204
1772568098993619000,4.343618896484375,-0.00038088904693722725,-0.00012454763054847717,-0.0023178569972515106
1772568099003691000,4.35369091796875,0.000973965972661972,-0.0020343156065791845,-0.003094772808253765
1772568099013763000,4.36376318359375,0.0004602423869073391,0.0003939545713365078,-0.0002529127523303032
1772568099023835000,4.3738349609375,-0.000026982277631759644,0.001215051393955946,0.0016843639314174652
1772568099033907200,4.3839072265625,-0.0026477989740669727,-0.002601791173219681,-0.0003604106605052948
1772568099043979300,4.393979248046875,0.000873170793056488,-0.0005765925161540508,-0.0008148355409502983
1772568099054051000,4.404051025390625,-0.0005960953421890736,0.0009134463034570217,-0.0005027130246162415
1772568099064123100,4.414123046875,0.00002564210444688797,0.00021568452939391136,0.0009721638634800911
1772568099074195200,4.4241953125,0.003152992343530059,-0.0004999064840376377,0.00014791544526815414
1772568099084267300,4.434267333984375,0.0005562696605920792,-0.0027784104458987713,-0.00026133935898542404
1772568099094339000,4.444339111328125,-0.000699144322425127,0.0002354891039431095,-0.0026645753532648087
1772568099104411100,4.4544111328125,-0.001337453257292509,-0.0022542187944054604,0.0010246196761727333
1772568099114483200,4.464483154296875,0.0005211671814322472,-0.0005098483525216579,-0.0007474469020962715
1772568099124554200,4.47455419921875,-0.0019156010821461678,0.0003454843536019325,0.002796678803861141
1772568099134626000,4.4846259765625,-0.00022103171795606613,-0.0004923460073769093,0.001388399861752987
1772568099144698000,4.494697998046875,-0.0022636912763118744,-0.001540210098028183,0.001209205947816372
1772568099154770200,4.504770263671875,0.001083369366824627,-0.004053701646625996,0.002504567615687847
1772568099164842200,4.51484228515625,0.0015474529936909676,0.0007807728834450245,-0.0006530806422233582
1772568099174914000,4.5249140625,-0.000651518814265728,0.000353335402905941,-0.00024082325398921967
1772568099184986000,4.534986083984375,0.0010767951607704163,-0.000060306861996650696,0.0007963851094245911
1772568099195058200,4.54505810546875,-0.000167167279869318,0.00008403649553656578,0.0010089054703712463
1772568099205130000,4.5551298828125,0.001980777829885483,-0.000715562142431736,-0.002344798296689987
1772568099215202000,4.5652021484375,-0.00017691543325781822,-0.0034303884021937847,-0.0006781918928027153
1772568099225274000,4.575274169921875,0.0009304708801209927,0.0018625212833285332,0.00043453462421894073
1772568099235346200,4.58534619140625,-0.0013683694414794445,-0.00023871241137385368,0.0006049768999218941
1772568099245418000,4.59541796875,0.00023931032046675682,-0.006710383575409651,-0.0005622180178761482
1772568099255490000,4.605489990234375,-0.0015178429894149303,0.003761964850127697,-0.0011166883632540703
1772568099265562000,4.61556201171875,0.00007808255031704903,-0.0008032633922994137,-0.00034310854971408844
1772568099275634200,4.62563427734375,-0.0019483170472085476,-0.00004612654447555542,-0.0014722887426614761
1772568099285706000,4.6357060546875,0.002005491405725479,-0.000852879136800766,-0.0028316862881183624
1772568099295778000,4.645778076171875,0.0002936115488409996,-0.0002510049380362034,-0.00004681851714849472
1772568099305850000,4.65585009765625,-0.0016747922636568546,-0.0002495325170457363,0.000019078142940998077
1772568099315921200,4.665921142578125,0.00036465656012296677,0.0006980202160775661,0.00005343277007341385
1772568099325993000,4.675992919921875,-0.0000218292698264122,0.002545425668358803,0.00028473231941461563
1772568099336064800,4.686064697265625,0.0009390395134687424,0.0020833672024309635,-0.0015792138874530792
1772568099346137000,4.69613720703125,0.0023905388079583645,-0.0002862345427274704,0.0009586242958903313
1772568099356209200,4.706209228515625,-0.0003075096756219864,0.0008176458068192005,-0.0016587302088737488
1772568099366281000,4.716281005859375,-0.0009051007218658924,0.00019907904788851738,-0.0016971072182059288
1772568099376353000,4.72635302734375,-0.0008622235618531704,-0.001791100949048996,0.0008597942069172859
1772568099386425000,4.736425048828125,-0.0009142602793872356,-0.0018012123182415962,-0.0007952423766255379
1772568099396497000,4.746496826171875,-0.00043169548735022545,-0.001550342421978712,-0.00019496586173772812
1772568099406569000,4.75656884765625,0.001668610144406557,-0.0026051478926092386,-0.00017174985259771347
1772568099416641000,4.76664111328125,0.0005282447673380375,-0.0012653116136789322,0.0021390756592154503
1772568099426713000,4.776713134765625,-0.00016678916290402412,-0.0008498178794980049,0.0008994359523057938
1772568099436785000,4.786784912109375,-0.0024895984679460526,-0.00043862592428922653,0.0007156776264309883
1772568099446857000,4.79685693359375,0.0008703381754457951,-0.0026335741858929396,-0.0024667978286743164
1772568099456929000,4.806928955078125,-0.0014010719023644924,0.001877820584923029,-0.0010041892528533936
1772568099467001000,4.8170009765625,-0.000006470363587141037,-0.0006017438136041164,0.002377685159444809
1772568099477073000,4.827072998046875,-0.00045654457062482834,-0.0005210498347878456,0.0003416985273361206
1772568099487145000,4.83714501953125,-0.0003559100441634655,-0.0008988040499389172,-0.0012442609295248985
1772568099497217000,4.847217041015625,0.0005639460869133472,-0.0001435317099094391,-0.0007073674350976944
1772568099507288000,4.8572880859375,-0.00016429321840405464,-0.002243540482595563,-0.00018828455358743668
1772568099517359900,4.86735986328125,0.002977171679958701,-0.0016776188276708126,0.0004836311563849449
1772568099527432000,4.877431884765625,0.001130932942032814,-0.001267128624022007,0.0009890273213386536
1772568099537504000,4.88750390625,0.00040948251262307167,0.0016010957770049572,0.0020484328269958496
1772568099547576000,4.897576171875,-0.0021602255292236805,-0.0008315886370837688,0.0012068655341863632
1772568099557648000,4.90764794921875,-0.00065234350040555,-0.000049950554966926575,-0.0003329748287796974
1772568099567720000,4.917719970703125,-0.0018207360990345478,-0.000006970483809709549,-0.0007248064503073692
1772568099577792000,4.9277919921875,0.000779307447373867,0.0010542990639805794,-0.002419642172753811
1772568099587863800,4.93786376953125,0.0011372244916856289,0.0011600283905863762,0.0016562007367610931
1772568099597935900,4.947935791015625,0.00032229721546173096,0.00006626779213547707,0.0013595251366496086
1772568099608008000,4.958008056640625,0.00031566014513373375,-0.0012312326580286026,-0.0027478020638227463
1772568099618080000,4.968080078125,-0.0017837095074355602,-0.001131097786128521,0.0008320184424519539
1772568099628151800,4.97815185546875,-0.0004926025867462158,0.00086163729429245,-0.000931604765355587
1772568099638224000,4.988223876953125,-0.0024521565064787865,-0.000010015442967414856,0.0023880256339907646
1772568099648296000,4.9982958984375,0.0002045310102403164,0.0005996697582304478,0.0015154434368014336
1772568099658368000,5.008367919921875,-0.0012732567265629768,0.0025080908089876175,-0.00014051049947738647
1772568099668439800,5.018439697265625,0.00029241712763905525,-0.0026628251653164625,-0.000030046328902244568
1772568099678511900,5.028511962890625,0.0026519778184592724,-0.0020910443272441626,-0.00032192934304475784
1772568099688584000,5.038583984375,-0.0009096022695302963,-0.0004119514487683773,-0.001702597364783287
1772568099698655000,5.048655029296875,0.0005980129353702068,-0.0007232748903334141,0.0007515056058764458
1772568099708726800,5.058726806640625,-0.0018474254757165909,0.00008648307994008064,0.0004665954038500786
1772568099718798800,5.068798828125,-0.0011776406317949295,-0.00038915732875466347,-0.000445803627371788
1772568099728871000,5.078870849609375,0.0030902093276381493,-0.00047046737745404243,-0.00012575555592775345
1772568099738943000,5.08894287109375,0.00027045467868447304,0.0010230336338281631,-0.0004743626341223717
1772568099749014800,5.099014892578125,-0.0005246810615062714,-0.001043536700308323,-0.0023418571799993515
1772568099759086800,5.1090869140625,0.0010543069802224636,-0.0011380789801478386,0.0005743037909269333
1772568099769159000,5.119158935546875,0.0006893686950206757,0.00040688784793019295,0.0013189716264605522
1772568099779230700,5.129230712890625,0.00003982335329055786,0.0013664248399436474,0.0005061747506260872
1772568099789302800,5.139302734375,0.00074005126953125,-0.0005964366719126701,0.0012497128918766975
1772568099799374800,5.149374755859375,-0.001393407117575407,-0.000640645157545805,-0.0014318237081170082
1772568099809447200,5.159447265625,0.0007039369083940983,0.0006299028173089027,0.0010030176490545273
1772568099819519000,5.16951904296875,-0.00013921968638896942,-0.0011466918513178825,-0.002847646363079548
1772568099829591000,5.179591064453125,-0.00037368759512901306,0.0006021149456501007,0.002774159424006939
1772568099839663000,5.1896630859375,0.0009421803988516331,-0.0033729192800819874,-0.0006019305437803268
1772568099849735000,5.19973486328125,0.0009750910103321075,-0.0006139492616057396,0.0012508220970630646
1772568099859807000,5.209806884765625,0.0027538160793483257,0.002695827279239893,-0.000473574735224247
1772568099869879000,5.219879150390625,-0.00045466702431440353,0.0009344462305307388,0.0004494357854127884
1772568099879951000,5.229951171875,-0.001408345066010952,-0.00004559708759188652,0.0021171076223254204
1772568099890023000,5.24002294921875,0.0006664157845079899,-0.0014619575813412666,-0.0003644479438662529
1772568099900094000,5.250093994140625,0.0023117167875170708,-0.0005530207417905331,0.000453408807516098
1772568099910166000,5.260166015625,-0.00006004050374031067,-0.0016206903383135796,-0.001627407968044281
1772568099920238000,5.270238037109375,-0.00012289127334952354,-0.000010543037205934525,-0.0005517564713954926
1772568099930310000,5.280309814453125,-0.0007942952215671539,0.00042169075459241867,0.0006481967866420746
1772568099940382000,5.2903818359375,0.0031727494206279516,-0.0012965807691216469,-0.002531350590288639
1772568099950454000,5.3004541015625,-0.00014781765639781952,-0.0009433417581021786,0.0002944720908999443
1772568099960526000,5.310526123046875,0.00207645446062088,0.000781321432441473,0.0005631847307085991
1772568099970598000,5.320597900390625,-0.000901500228792429,-0.001265937928110361,-0.001130807213485241
1772568099980670000,5.330669921875,-0.0019087078981101513,0.000014510005712509155,-0.00045596249401569366
1772568099990742000,5.340741943359375,-0.00039796484634280205,-0.001226404681801796,-0.0025540832430124283
1772568100000814000,5.35081396484375,-0.00009116856381297112,0.000016226433217525482,0.00161802489310503
1772568100010886000,5.360885986328125,0.0011797896586358547,0.0007997383363544941,0.0010437406599521637
1772568100020958000,5.3709580078125,0.000030901748687028885,-0.0006522168405354023,-0.00018051452934741974
1772568100031030000,5.381030029296875,0.00032288627699017525,0.0001536463387310505,-0.0003760373219847679
1772568100041101800,5.391101806640625,0.0009753606282174587,-0.0008437074720859528,0.0006218487396836281
1772568100051174000,5.401173828125,-0.0011548791080713272,0.0018501789309084415,-0.00002829078584909439
1772568100061246000,5.411245849609375,0.0012273178435862064,-0.00016476912423968315,0.001485183835029602
1772568100071318000,5.421318115234375,0.0011889077723026276,0.001031060703098774,0.00194499921053648
1772568100081389800,5.431389892578125,-0.00017969077453017235,0.0014885920099914074,-0.0004401281476020813
1772568100091462000,5.4414619140625,-0.00028257444500923157,0.001394494902342558,-0.002320358529686928
1772568100101533000,5.451532958984375,-0.0005670003592967987,0.00019926857203245163,-0.0010798582807183266
1772568100111605000,5.46160498046875,0.00002158666029572487,0.0019123991951346397,-0.0011567194014787674
1772568100121676800,5.4716767578125,-0.00045591825619339943,-0.0014093616046011448,0.0011756764724850655
1772568100131748900,5.481748779296875,0.000765649601817131,-0.001474099699407816,-0.0014948118478059769
1772568100141821000,5.491821044921875,0.001608273945748806,-0.0006362693384289742,-0.0014303633943200111
1772568100151893000,5.50189306640625,-0.0017075617797672749,0.0036728628911077976,0.00025134533643722534
1772568100161964800,5.51196484375,-0.0005014161579310894,-0.0014191013760864735,-0.00033002253621816635
1772568100172036900,5.522036865234375,0.0021738638170063496,0.002592947334051132,-0.0015886472538113594
1772568100182109000,5.53210888671875,-0.0011953013017773628,-0.0010353433899581432,0.0011797081679105759
1772568100192181000,5.542180908203125,-0.0029555363580584526,-0.00042548123747110367,0.0024319421499967575
1772568100202252800,5.552252685546875,0.000653047114610672,-0.0010931356810033321,-0.0022307196632027626
1772568100212324900,5.562324951171875,0.0009755794890224934,-0.0011177333071827888,0.0014509465545415878
1772568100222397000,5.57239697265625,-0.0018998351879417896,0.0014207921922206879,0.002820611000061035
1772568100232468700,5.58246875,-0.0010441304184496403,0.00029935315251350403,-0.0015072347596287727
1772568100242540800,5.592540771484375,0.00024803588166832924,-0.001026634592562914,0.0026086801663041115
1772568100252612900,5.60261279296875,0.000902196392416954,0.00028251204639673233,0.0007534017786383629
1772568100262685000,5.612684814453125,0.002242831513285637,-0.0012786327861249447,-0.0014293249696493149
1772568100272756700,5.6227568359375,-0.0005148844793438911,-0.0013395086862146854,0.0009674448519945145
1772568100282829000,5.6328291015625,0.0005186884663999081,0.002451234497129917,0.001916595734655857
1772568100292899800,5.64289990234375,-0.00004905136302113533,0.002407494932413101,0.0004541249945759773
1772568100302972000,5.652971923828125,0.0000683940015733242,-0.0003438163548707962,-0.0011480329558253288
1772568100313043700,5.663043701171875,-0.001172846183180809,-0.00034301867708563805,0.0010478543117642403
1772568100323115800,5.67311572265625,-0.0008436799980700016,0.0003416799008846283,-0.0015274230390787125
1772568100333187800,5.683187744140625,0.0010466077364981174,0.00024386169388890266,0.00018998142331838608
1772568100343260400,5.693260498046875,-0.00044715963304042816,-0.001161221880465746,-0.00037354324012994766
1772568100353332500,5.70333251953125,0.0011976510286331177,-0.00046324869617819786,0.0019544409587979317
1772568100363404500,5.713404541015625,0.00024397345259785652,-0.0008374229073524475,-0.00022961758077144623
1772568100373476600,5.7234765625,0.00027683237567543983,-0.0004339986480772495,-0.00021139811724424362
1772568100383548400,5.73354833984375,-0.0015096166171133518,-0.0025144601240754128,0.0016469554975628853
1772568100393620500,5.743620361328125,0.0009694620966911316,-0.0003078607842326164,-0.0016473857685923576
1772568100403692500,5.753692626953125,-0.0019530905410647392,-0.001009603962302208,-0.000015667639672756195
1772568100413764400,5.763764404296875,0.0006535802967846394,-0.0013500102795660496,-0.0011045150458812714
1772568100423836400,5.77383642578125,-0.0012591015547513962,-0.000981695018708706,-0.00015057064592838287
1772568100433908500,5.783908447265625,0.00010103173553943634,0.0007140622474253178,0.0013323044404387474
1772568100443980500,5.79398046875,0.0007921219803392887,-0.0004332275129854679,-0.0006541470065712929
1772568100454052400,5.80405224609375,-0.000686397310346365,0.00002311263233423233,-0.0011765100061893463
1772568100464124400,5.81412451171875,-0.0026683215983211994,0.0029651066288352013,0.00022058375179767609
1772568100474196700,5.82419677734375,-0.003803038503974676,-0.0013347305357456207,-0.00040276534855365753
1772568100484267500,5.834267578125,-0.0012741000391542912,-0.0012487107887864113,0.0007210886105895042
1772568100494339600,5.844339599609375,0.0031435794662684202,0.0014809584245085716,-0.0007194457575678825
1772568100504411400,5.854411376953125,-0.0006146733649075031,-0.00016434257850050926,-0.000032883137464523315
1772568100514483500,5.8644833984375,-0.001601546537131071,0.00015986524522304535,-0.0005494579672813416
1772568100524555500,5.874555419921875,-0.0004478646442294121,0.001385984942317009,0.0006194030866026878
1772568100534627300,5.88462744140625,0.00008094171062111855,0.002318507991731167,0.0007311077788472176
1772568100544699600,5.89469970703125,-0.0013252072967588902,-0.0011806194670498371,-0.000037746503949165344
1772568100554771700,5.904771728515625,0.000836630817502737,-0.0032818906474858522,0.0009960625320672989
1772568100564843800,5.91484375,0.0004350263625383377,-0.0011564218439161777,-0.00037919357419013977
1772568100574915600,5.92491552734375,-0.0009438330307602882,0.00045984378084540367,0.00030139926820993423
1772568100584987600,5.934987548828125,-0.001564615871757269,0.00174641702324152,0.000008718110620975494
1772568100595059700,5.945059814453125,0.002672153525054455,0.0014608101919293404,0.0016811816021800041
1772568100605131500,5.955131591796875,-0.0006914190016686916,-0.0010305768810212612,-0.001110343262553215
1772568100615203600,5.96520361328125,0.0010740277357399464,-0.0022472862619906664,0.0003494909033179283
1772568100625275600,5.975275634765625,0.000022345222532749176,0.0011327979154884815,0.0017420575022697449
1772568100635347700,5.98534765625,0.0010625547729432583,-0.0021486894693225622,0.000959775410592556
1772568100645419500,5.99541943359375,-0.00008207187056541443,-0.0011830274015665054,-0.0017079124227166176
1772568100655491600,6.00549169921875,-0.0021063201129436493,-0.00027360720559954643,-0.0026535969227552414
1772568100665562600,6.015562744140625,0.0002670893445611,0.001490204595029354,-0.0034919604659080505
1772568100675634700,6.025634765625,-0.0017934013158082962,-0.00018592970445752144,0.002407113090157509
1772568100685706500,6.03570654296875,0.000053767114877700806,-0.002576649421826005,-0.000024884939193725586
1772568100695778600,6.045778564453125,0.00027618464082479477,-0.000692595262080431,-0.0014120237901806831
1772568100705850600,6.0558505859375,-0.0007374142296612263,-0.0013546571135520935,-0.0011185435578227043
1772568100715922700,6.065922607421875,-0.0028065675869584084,-0.0003654598258435726,-0.001094898208975792
1772568100725994500,6.075994384765625,-0.00043422356247901917,-0.0015716056805104017,0.0006340267136693001
1772568100736066600,6.086066650390625,0.001852488610893488,-0.0006230464205145836,-0.0007381243631243706
1772568100746138600,6.096138671875,0.00042290380224585533,-0.0021756691858172417,0.0021814992651343346
1772568100756210700,6.106210693359375,-0.0000017886050045490265,0.0007752915844321251,0.000209868885576725
1772568100766282500,6.116282470703125,-0.0006044618785381317,-0.002666044980287552,-0.0007230369374155998
1772568100776354600,6.1263544921875,0.0005114274099469185,0.0013214051723480225,0.0034555168822407722
1772568100786426600,6.136426513671875,0.0007604332640767097,0.00042232219129800797,0.0018839845433831215
1772568100796498400,6.14649853515625,0.0004801461473107338,-0.0002471134066581726,0.0012807371094822884
1772568100806570500,6.156570556640625,-0.0013883281499147415,0.0012751496396958828,-0.0015531331300735474
1772568100816642600,6.166642578125,0.00041541364043951035,-0.0025778247509151697,0.0009622257202863693
1772568100826714600,6.176714599609375,-0.002713001798838377,-0.0010877861641347408,0.00014703162014484406
1772568100836786400,6.186786376953125,-0.0000020926818251609802,-0.0008922908455133438,0.0008432203903794289
1772568100846857500,6.196857421875,-0.0012247501872479916,-0.0006797704845666885,0.0005995407700538635
1772568100856930600,6.2069306640625,-0.0009605498053133488,-0.0011044922284781933,0.00028373952955007553
1772568100867001600,6.217001708984375,-0.0003538820892572403,0.0003349464386701584,0.0004211580380797386
1772568100877073400,6.227073486328125,-0.0017859959043562412,0.0003037187270820141,0.0005095377564430237
1772568100887145500,6.2371455078125,-0.0005798507481813431,-0.000987648032605648,-0.00003854092210531235
1772568100897217500,6.247217529296875,0.0003730691969394684,0.0015895520336925983,-0.00023344345390796661
1772568100907289600,6.25728955078125,0.0003211377188563347,0.0024665314704179764,0.00029333028942346573
1772568100917361400,6.267361328125,0.0011031008325517178,0.000606524758040905,-0.00042102206498384476
1772568100927433500,6.27743359375,0.0014698184095323086,-0.0015783323906362057,0.0013036411255598068
1772568100937505500,6.287505615234375,-0.0010654297657310963,0.00008536642417311668,-0.001275407150387764
1772568100947577600,6.29757763671875,-0.000033987220376729965,0.0009644757956266403,-0.0008032284677028656
1772568100957649400,6.3076494140625,0.001100749708712101,0.0008388422429561615,0.000533384270966053
1772568100967721500,6.317721435546875,0.0012240540236234665,-0.0015556057915091515,0.001858040690422058
1772568100977793500,6.32779345703125,0.0017166687175631523,-0.0005814153701066971,0.0008592968806624413
1772568100987865300,6.337865234375,-0.0023049707524478436,0.00040235649794340134,0.0012369323521852493
1772568100997937400,6.3479375,0.00221421429887414,0.000843999907374382,0.00007945951074361801
1772568101008009700,6.358009765625,-0.0018865205347537994,0.0012368159368634224,0.00031914375722408295
1772568101018081800,6.368081787109375,0.0009648441337049007,-0.0012610009871423244,0.0023548752069473267
1772568101028153600,6.378153564453125,-0.00105596287176013,-0.0013313083909451962,-0.0010113604366779327
1772568101038224400,6.388224365234375,-0.0015993611887097359,-0.0008596102707087994,-0.00043798238039016724
1772568101048296400,6.39829638671875,0.0008936244994401932,0.0008860914967954159,-0.002643878571689129
1772568101058368500,6.408368408203125,-0.0010151108726859093,0.00009884079918265343,0.0010523181408643723
1772568101068440600,6.418440673828125,0.00034629693254828453,0.0019441451877355576,0.0012712301686406136
1772568101078512600,6.4285126953125,-0.0009660767391324043,-0.0009590126574039459,-0.0001713549718260765
1772568101088584700,6.438584716796875,-0.000558346975594759,-0.0008349092677235603,-0.0006110426038503647
1772568101098656800,6.44865673828125,-0.0006281160749495029,-0.0013096760958433151,0.0003203134983778
1772568101108728600,6.458728515625,0.000022227875888347626,0.001892775297164917,0.000941363163292408
1772568101118800600,6.468800537109375,-0.0003833724185824394,-0.00010596727952361107,0.0003591664135456085
1772568101128872700,6.478872802734375,-0.00014635128900408745,-0.0021523400209844112,0.000950387679040432
1772568101138944500,6.488944580078125,0.0011942177079617977,0.000620946753770113,-0.0003001764416694641
1772568101149016600,6.4990166015625,0.00003867223858833313,0.0005074958316981792,0.001180274412035942
1772568101159088600,6.509088623046875,0.0006697778590023518,-0.00017188116908073425,0.0018267836421728134
1772568101169160700,6.51916064453125,-0.0007347734645009041,0.00215438986197114,-0.000154874287545681
1772568101179232500,6.529232421875,-0.0006349189206957817,-0.0025169861037284136,0.0009072739630937576
1772568101189304600,6.5393046875,0.0011366158723831177,0.000141914002597332,0.00028409436345100403
1772568101199376600,6.549376708984375,0.0010527539998292923,0.0005811545997858047,0.0020611323416233063
1772568101209448400,6.559448486328125,0.0012458334676921368,-0.00026786141097545624,-0.000269133597612381
1772568101219520500,6.5695205078125,0.000697852112352848,-0.0009425831958651543,-0.000317571684718132
1772568101229592600,6.579592529296875,-0.002706466242671013,0.0010148403234779835,0.00011865422129631042
1772568101239663600,6.58966357421875,0.0012193387374281883,-0.0002302415668964386,0.0004652906209230423
1772568101249735700,6.599735595703125,-0.0006150463595986366,-0.002290729433298111,0.0007896637544035912
1772568101259807500,6.609807373046875,-0.0007731420919299126,0.0002199532464146614,0.0015467749908566475
1772568101269879600,6.619879638671875,0.0006958572193980217,0.0001893267035484314,0.000851157121360302
1772568101279951600,6.62995166015625,-0.0018757963553071022,0.0013860594481229782,0.0024555986747145653
1772568101290023700,6.640023681640625,0.0011900346726179123,0.00031200656667351723,-0.000747918151319027
1772568101300095500,6.650095458984375,-0.00015501631423830986,-0.0018795488867908716,0.00024691224098205566
1772568101310167600,6.66016748046875,0.0013051945716142654,-0.00034982897341251373,-0.00026920903474092484
1772568101320239600,6.670239501953125,-0.000032796524465084076,-0.0013423427008092403,0.0009793005883693695
1772568101330311400,6.6803115234375,0.00018052291125059128,0.0014313394203782082,0.0018301811069250107
1772568101340384000,6.690384033203125,0.0012459754943847656,0.00013499241322278976,0.0019470294937491417
1772568101350456000,6.7004560546875,0.0013972432352602482,-0.002335355617105961,0.000812256708741188
1772568101360528000,6.71052783203125,0.00004828674718737602,0.0048254565335810184,-0.0009729685261845589
1772568101370600000,6.720599853515625,0.0011819940991699696,-0.0018630721606314182,0.0008182739838957787
1772568101380672000,6.730672119140625,0.001028397586196661,-0.0000730929896235466,-0.0021621445193886757
1772568101390744000,6.740744140625,0.0002741902135312557,-0.0015388969331979752,0.0013569565489888191
1772568101400815900,6.75081591796875,0.0016292817890644073,0.0006408528424799442,0.001968846656382084
1772568101410888000,6.760887939453125,-0.004875489044934511,0.0005793338641524315,-0.0003984374925494194
1772568101420960000,6.7709599609375,0.0014288644306361675,-0.0018695404287427664,-0.0013470100238919258
1772568101431031000,6.781031005859375,0.002340464387089014,0.0023078937083482742,-0.0014591291546821594
1772568101441103000,6.79110302734375,0.0005836747586727142,3.082677721977234e-7,0.00008306000381708145
1772568101451175000,6.8011748046875,0.0016161822713911533,0.0008557159453630447,-0.0013870056718587875
1772568101461247000,6.8112470703125,-0.0006578834727406502,-0.0012478041462600231,-0.0011526010930538177
1772568101471319000,6.821319091796875,-0.0007151416502892971,-0.0011761654168367386,-0.0006146430969238281
1772568101481390800,6.831390869140625,-0.0013296352699398994,0.00038263900205492973,-0.00002929195761680603
1772568101491463000,6.841462890625,0.00006666034460067749,-0.0029242082964628935,-0.0003840252757072449
1772568101501535000,6.851534912109375,-0.0005542561411857605,0.00048778951168060303,0.0017851777374744415
1772568101511607000,6.86160693359375,-0.0007673087529838085,-0.0005292715504765511,-0.0005908943712711334
1772568101521678800,6.871678955078125,-0.0004048096016049385,-0.0005890326574444771,0.0015206551179289818
1772568101531751000,6.8817509765625,-5.415640771389008e-7,0.0005358867347240448,-0.0007379716262221336
1772568101541823000,6.891822998046875,0.0005245800130069256,-0.0007768780924379826,-0.0007399274036288261
1772568101551894800,6.901894775390625,-0.0006016707047820091,0.000606101006269455,-0.0010690940544009209
1772568101561966800,6.911966796875,-0.0006275353953242302,0.0020135031081736088,0.000975634902715683
1772568101572039000,6.922038818359375,-0.00015242770314216614,0.0015455856919288635,0.0006240978837013245
1772568101582111000,6.932111083984375,-0.0005777524784207344,0.0032695182599127293,-0.00042729452252388
1772568101592182800,6.942182861328125,-0.0008501941338181496,-0.000007501337677240372,-0.0004179729148745537
1772568101602254800,6.9522548828125,0.00006387243047356606,-0.000017095357179641724,-0.0017234506085515022
1772568101612326000,6.962325927734375,-0.001982233952730894,-0.0011952780187129974,-0.0007338197901844978
1772568101622398000,6.97239794921875,-0.0007254751399159431,-0.003314180299639702,-0.0012340983375906944
1772568101632470000,6.982469970703125,-0.0037529561668634415,0.00011064484715461731,-0.0004892116412520409
1772568101642541800,6.992541748046875,-0.0008537396788597107,-0.0011423826217651367,-0.0025878846645355225
1772568101652614000,7.00261376953125,0.0003071324899792671,0.00020863907411694527,0.00010883156210184097
1772568101662686000,7.01268603515625,-0.00016318680718541145,-0.0021815600339323282,-0.0003986479714512825
1772568101672757800,7.0227578125,-0.00018289405852556229,0.0019910805858671665,-0.0010125068947672844
1772568101682829800,7.032829833984375,-0.0012574582360684872,0.00012083491310477257,-0.0024596238508820534
1772568101692902000,7.04290185546875,0.0009135506115853786,-0.0001934184692800045,-0.0013059424236416817
1772568101702974000,7.052973876953125,-0.0026158690452575684,0.002523005474358797,0.0013409024104475975
1772568101713045800,7.063045654296875,0.00024356646463274956,0.0011568041518330574,0.002113485708832741
1772568101723117800,7.073117919921875,0.0018511121161282063,-0.00015495577827095985,-0.0006563030183315277
1772568101733190000,7.08318994140625,0.0012851906940340996,-0.0013451226986944675,0.0007168231531977654
1772568101743261700,7.09326171875,0.00007557403296232224,-0.0001249276101589203,0.00005288422107696533
1772568101753334000,7.103333984375,-0.003276812843978405,-0.00069404486566782,-0.0033469079062342644
1772568101763406000,7.113406005859375,0.0016025369986891747,0.0025066579692065716,-0.0007921298965811729
1772568101773478100,7.12347802734375,-0.0001849769614636898,0.0007108887657523155,0.0011802064254879951
1772568101783550000,7.133550048828125,0.0007087630219757557,0.0018660398200154305,-0.001723085530102253
1772568101793620700,7.143620849609375,-0.00036369217559695244,0.0026436829939484596,0.0008199671283364296
1772568101803692800,7.15369287109375,-0.00025406619533896446,0.001339504960924387,0.0003802254796028137
1772568101813765000,7.16376513671875,-0.0013486254028975964,-0.0021878520492464304,-0.0007292469963431358
1772568101823837000,7.1738369140625,-0.0005244137719273567,-0.00012714089825749397,0.0006850240752100945
1772568101833909000,7.183908935546875,-0.00029245205223560333,0.0005074902437627316,0.0001132432371377945
1772568101843981000,7.19398095703125,-0.0024665091186761856,-0.00014380551874637604,-0.0010170526802539825
1772568101854053000,7.20405322265625,0.0009556524455547333,-0.0008436841890215874,-0.001041286624968052
1772568101864125000,7.214125,0.0016128122806549072,-0.002459538634866476,0.000993369147181511
1772568101874197000,7.224197021484375,-0.0006383578293025494,0.0011679530143737793,0.0003954898566007614
1772568101884269000,7.23426904296875,0.0006754067726433277,-0.0012725405395030975,-0.0003981590270996094
1772568101894340900,7.2443408203125,0.0000847172923386097,-0.0014030355960130692,-0.0005395729094743729
1772568101904413000,7.254412841796875,-0.0009030112996697426,-0.00010219402611255646,-0.0012576477602124214
1772568101914485000,7.264485107421875,-0.0009248489513993263,0.0032589812763035297,0.00002226792275905609
1772568101924557000,7.27455712890625,0.00038567883893847466,0.0026442897506058216,0.0003786412999033928
1772568101934628900,7.28462890625,-0.0004465589299798012,-0.0008569676429033279,-0.002563352696597576
1772568101944701000,7.294700927734375,0.0006054462864995003,0.0016370480880141258,0.0013541635125875473
1772568101954773000,7.30477294921875,-0.0011051017791032791,0.00009960494935512543,-0.0017084712162613869
1772568101964844000,7.314843994140625,0.0004459591582417488,-0.00007233861833810806,-0.001310001127421856
1772568101974916000,7.324916015625,-0.0018960251472890377,0.0001553618349134922,-0.00020239222794771194
1772568101984988000,7.33498779296875,0.002358324360102415,0.0022008870728313923,-0.00285186804831028
1772568101995060000,7.34506005859375,-0.0009594419971108437,-0.0007781251333653927,-0.0016555758193135262
1772568102005132000,7.355132080078125,-0.0002570166252553463,-0.001085303258150816,-0.0016313856467604637
1772568102015203800,7.365203857421875,-0.000054350122809410095,-0.001858152449131012,-0.0025397902354598045
1772568102025276000,7.37527587890625,-0.00023377733305096626,-0.000570997130125761,0.0024457667022943497
1772568102035348000,7.385347900390625,0.0011228369548916817,-0.0005262559279799461,-0.0011806599795818329
1772568102045420000,7.395419921875,-0.00045748986303806305,-0.0012141559273004532,0.0005122879520058632
1772568102055491800,7.405491943359375,-0.00012832321226596832,-0.002558785956352949,0.00038152653723955154
1772568102065564000,7.41556396484375,0.0010352241806685925,0.001443149521946907,0.001871565356850624
1772568102075636000,7.425635986328125,-0.0022545787505805492,0.002714808564633131,-0.0006227511912584305
1772568102085707800,7.435707763671875,0.00021073035895824432,0.0012583350762724876,0.001200864091515541
1772568102095779800,7.44577978515625,0.0011156722903251648,0.00028787925839424133,-0.0009951787069439888
1772568102105852000,7.455851806640625,0.0008876374922692776,0.0003138696774840355,0.0010139169171452522
1772568102115924000,7.465924072265625,-0.0000346149317920208,0.0013719438575208187,-0.0008308542892336845
1772568102125995000,7.4759951171875,0.0003342726267874241,-0.00021901028230786324,-0.0009674793109297752
1772568102136066800,7.48606689453125,-0.0015168902464210987,0.00046196021139621735,-0.00011979509145021439
1772568102146139000,7.496138916015625,0.0007780739106237888,0.00018147379159927368,0.003407844342291355
1772568102156211000,7.5062109375,0.000004159752279520035,-0.0016076376195997,0.0008323024958372116
1772568102166283000,7.516282958984375,-0.00019817613065242767,0.0019025243818759918,-0.0022958992049098015
1772568102176354800,7.526354736328125,0.00021328218281269073,-0.0001505063846707344,-0.001027435064315796
1772568102186427000,7.536427001953125,-0.0004657674580812454,-0.0016501357313245535,0.0022049620747566223
1772568102196499000,7.5464990234375,0.0013217460364103317,0.002743813209235668,-0.0004131915047764778
1772568102206570800,7.55657080078125,0.0009250645525753498,0.002570840995758772,-0.0003742007538676262
1772568102216642800,7.566642822265625,0.0022939294576644897,0.002569775562733412,0.0015685753896832466
1772568102226715000,7.57671484375,0.0010690269991755486,0.00048520835116505623,0.00010406225919723511
1772568102236787000,7.586786865234375,0.00046635372564196587,-0.0014692852273583412,0.00040819495916366577
1772568102246858800,7.596858642578125,0.00013647647574543953,0.0010700779967010021,0.0004403265193104744
1772568102256930800,7.606930908203125,-0.001675538718700409,0.0011284016072750092,0.0012544551864266396
1772568102267003000,7.6170029296875,-0.0022406536154448986,-0.0007861927151679993,0.0004732459783554077
1772568102277074700,7.62707470703125,-0.0024976483546197414,-0.00019656866788864136,-0.0012508844956755638
1772568102287145700,7.637145751953125,0.00039653852581977844,-0.0009108590893447399,-0.00160315353423357
1772568102297217800,7.6472177734375,0.0008785710670053959,-0.0007428135722875595,0.0003795698285102844
1772568102307289900,7.657289794921875,0.002665524836629629,0.00018409127369523048,0.0012455647811293602
1772568102317362000,7.66736181640625,-0.0014493251219391823,0.0002695787698030472,0.003654659725725651
1772568102327433700,7.677433837890625,0.0018864097073674202,0.0016396786086261272,0.002345140092074871
1772568102337505500,7.687505615234375,-0.00107955327257514,0.0007254150696098804,0.0011086342856287956
1772568102347577600,7.69757763671875,0.0020518070086836815,-0.0013121743686497211,-0.0014913920313119888
1772568102357649700,7.707649658203125,-0.0006781998090445995,0.0012710918672382832,0.0009296881034970284
1772568102367721700,7.7177216796875,-0.0005330909043550491,0.0019147833809256554,-0.0005064969882369041
1772568102377793800,7.727793701171875,-0.0014454894699156284,-0.0013808785006403923,0.0007688915356993675
1772568102387865900,7.737865966796875,0.00006874464452266693,0.00025493139401078224,0.001376984640955925
1772568102397937700,7.747937744140625,0.0005723484791815281,-0.0025344635359942913,0.0020318562164902687
1772568102408009700,7.758009765625,-0.0016437256708741188,0.00007721874862909317,0.0001359209418296814
1772568102418081800,7.768081787109375,0.0006564464420080185,-0.002150249434635043,-0.0003690142184495926
1772568102428152800,7.77815283203125,-0.00034407246857881546,0.0029049147851765156,-0.00013851746916770935
1772568102438225000,7.788224853515625,0.00248553603887558,-0.0016046157106757164,0.0017970679327845573
1772568102448296700,7.798296630859375,-0.0020574857480823994,0.00015955651178956032,0.001234392635524273
1772568102458368800,7.80836865234375,-0.001069186720997095,0.0000809933990240097,-0.0003762878477573395
1772568102468440800,7.81844091796875,-0.0000058175064623355865,0.0004917150363326073,0.002494499087333679
1772568102478512600,7.8285126953125,0.00017873942852020264,-0.000837735366076231,0.00043321214616298676
1772568102488584700,7.838584716796875,0.0030050971545279026,0.0006210939027369022,0.0003548283129930496
1772568102498656800,7.84865673828125,0.0011576618999242783,0.0026008877903223038,0.0008195498958230019
1772568102508728800,7.858728759765625,0.0017399406060576439,-0.002053225878626108,0.0014341631904244423
1772568102518800600,7.868800537109375,-0.002833239734172821,0.0021015717647969723,-0.0010321903973817825
1772568102528872700,7.878872802734375,-0.0004397858865559101,0.002325514331459999,-0.00011263974010944366
1772568102538944800,7.88894482421875,-0.0013710935600101948,-0.00013258308172225952,0.0008082818239927292
1772568102549016800,7.899016845703125,0.0005491292104125023,-0.00024662306532263756,0.0006582718342542648
1772568102559088600,7.909088623046875,-0.0009006955660879612,-0.0026863450184464455,-0.0018115434795618057
1772568102569160700,7.91916064453125,0.002417381387203932,-0.001168704591691494,0.00035226158797740936
1772568102579231700,7.929231689453125,-0.00011528469622135162,-0.0002685561776161194,0.00018235202878713608
1772568102589303800,7.9393037109375,-0.00001121126115322113,0.0008892104960978031,0.0011805929243564606
1772568102599375600,7.949375732421875,0.0033036251552402973,0.00013234000653028488,-0.0016354331746697426
1772568102609447700,7.95944775390625,0.0011805351823568344,-0.0015304188709706068,-0.00006461050361394882
1772568102619519700,7.969519775390625,0.0007783975452184677,0.0006523081101477146,-0.0002222694456577301
1772568102629591800,7.979591796875,0.0006038644351065159,-0.0017101787962019444,0.0010809805244207382
1772568102639663600,7.98966357421875,-0.00027125049382448196,-0.0013003181666135788,-0.001002676784992218
1772568102649735700,7.999735595703125,0.0018994007259607315,0.001304603647440672,0.00041543692350387573
1772568102659807700,8.009807861328126,0.0006511770188808441,-0.0001822393387556076,-0.0010306593030691147
1772568102669879600,8.019879638671876,0.001914875116199255,-0.0009163273498415947,-0.0030857492238283157
1772568102679951600,8.02995166015625,0.00011244788765907288,-0.0026583008002489805,0.0023684054613113403
1772568102690023700,8.040023681640625,-0.0012216088362038136,-0.00133415125310421,0.0004576193168759346
1772568102700095700,8.050095703125,0.001239418052136898,-0.000489130150526762,0.0011250069364905357
1772568102710167600,8.06016748046875,0.0007303794845938683,-0.0026198902633041143,-0.0003516068682074547
1772568102720238600,8.070238525390625,-0.0007178476080298424,0.0015357062220573425,-0.00107492133975029
1772568102730310700,8.080310546875,0.0013330490328371525,0.002925315871834755,-0.0011025238782167435
1772568102740382700,8.0903828125,0.0007812422700226307,-0.00014371098950505257,-0.0011515263468027115
1772568102750454800,8.100454833984376,-0.00007528159767389297,0.0004542376846075058,0.0005788421258330345
1772568102760526600,8.110526611328124,-0.0023197936825454235,0.00147263053804636,0.0007346365600824356
1772568102770598700,8.1205986328125,-0.001058807596564293,0.0013867216184735298,0.0003775935620069504
1772568102780670700,8.130670654296875,0.0009422912262380123,-0.002794973785057664,-0.000623755156993866
1772568102790742500,8.140742431640625,0.000788563396781683,0.0026278002187609673,0.00033461302518844604
1772568102800814600,8.150814697265625,0.003165434580296278,-0.0007392340339720249,-0.0028265593573451042
1772568102810886700,8.16088671875,-0.0012052790261805058,0.0003878478892147541,-0.001266484148800373
1772568102820958700,8.170958740234376,0.00016518356278538704,0.001397718209773302,0.0014344938099384308
1772568102831030500,8.181030517578124,-0.0012214295566082,0.0014752158895134926,-0.0005361195653676987
1772568102841102600,8.1911025390625,0.001740538515150547,-0.0013578548096120358,0.00030011311173439026
1772568102851173600,8.201173583984374,-0.0013221022672951221,0.0004954999312758446,0.000917176716029644
1772568102861245700,8.21124560546875,0.0005626166239380836,0.0003634071908891201,-0.0019422592595219612
1772568102871317500,8.2213173828125,0.00040079839527606964,-0.0006197113543748856,-0.00013633724302053452
1772568102881389600,8.2313896484375,-0.0006554112769663334,0.00026232749223709106,0.000589640811085701
1772568102891461600,8.241461669921875,0.0009629903361201286,0.0035828277468681335,-0.0021818317472934723
1772568102901533700,8.25153369140625,0.0007145176641643047,-0.0013293726369738579,0.0025713788345456123
1772568102911605500,8.26160546875,-0.0004181782715022564,0.00031591393053531647,0.0022523188963532448
1772568102921677600,8.271677490234374,0.0011858437210321426,0.0016373745165765285,-0.0014910204336047173
1772568102931749600,8.28174951171875,0.00174761563539505,0.0004222625866532326,0.0007222797721624374
1772568102941821700,8.29182177734375,-0.001462825108319521,-0.0027058864943683147,-0.0006524445489048958
1772568102951893500,8.3018935546875,-0.00006936723366379738,-0.0020638112910091877,-0.0005218768492341042
1772568102961965800,8.3119658203125,0.0012811217457056046,0.0026896647177636623,0.0014925375580787659
1772568102972038000,8.322037841796876,0.0005143182352185249,-0.0013413778506219387,-0.0007078293710947037
1772568102982109700,8.332109619140626,-0.00009155087172985077,0.0003886115737259388,0.00020563509315252304
1772568102992180500,8.342180419921876,-0.002055197488516569,-0.00014446349814534187,0.0029998039826750755
1772568103002252500,8.35225244140625,-0.0012557157315313816,0.0010030921548604965,-0.002225317060947418
1772568103012324600,8.36232470703125,-0.002336413599550724,-0.00021572038531303406,-0.00078557338565588
1772568103022396700,8.372396728515625,-0.00021760258823633194,-0.0012578153982758522,-0.00043989531695842743
1772568103032468700,8.38246875,0.0010694032534956932,-0.0011422913521528244,0.0004174094647169113
1772568103042540800,8.392540771484375,-0.002316539641469717,-0.0010112635791301727,-0.0004441235214471817
1772568103052612900,8.40261279296875,0.0007456541061401367,0.002806825563311577,0.0017354469746351242
1772568103062684700,8.4126845703125,0.0007722857408225536,-0.004246290773153305,-0.0020363880321383476
1772568103072756700,8.4227568359375,-0.0004727146588265896,0.0015074103139340878,0.0018427595496177673
1772568103082828800,8.432828857421875,-0.0010748556815087795,0.00082803750410676,-0.0014142869040369987
1772568103092900900,8.44290087890625,-0.0006948146037757397,-0.003015318885445595,-0.0002183709293603897
1772568103102972700,8.45297265625,-0.002771814353764057,-0.0003231293521821499,0.00005433708429336548
1772568103113044700,8.463044677734375,0.0016760369762778282,-0.0002248091623187065,-0.0022016186267137527
1772568103123115800,8.47311572265625,0.00042515015229582787,0.0007688160985708237,0.0002924315631389618
1772568103133187800,8.483187744140626,0.0010022553615272045,-0.0016747205518186092,0.0004584789276123047
1772568103143259600,8.493259765625,0.0008312808349728584,-0.0015503510367125273,0.0008371798321604729
1772568103153331700,8.503331787109374,0.001172499731183052,0.00271682720631361,-0.0013508796691894531
1772568103163403800,8.51340380859375,-0.00045149587094783783,-0.0011900300160050392,-0.00061052106320858
1772568103173475800,8.523475830078125,0.0012948717921972275,0.0002243928611278534,0.00015241466462612152
1772568103183547600,8.533547607421875,0.0034365856554359198,-0.0004049120470881462,0.0006118100136518478
1772568103193619700,8.54361962890625,-0.00007906509563326836,-0.0006875172257423401,-0.002054874785244465
1772568103203691800,8.55369189453125,0.0009739487431943417,-0.0020934001076966524,-0.0004196939989924431
1772568103213763800,8.563763916015626,-0.0016231127083301544,-0.0008343541994690895,-0.0010886183008551598
1772568103223835600,8.573835693359374,-0.0013703787699341774,0.00036779651418328285,-0.00021270476281642914
1772568103233907700,8.58390771484375,0.0003778529353439808,0.0000954754650592804,-0.0002725338563323021
1772568103243978800,8.593978759765625,0.000060137826949357986,0.00026085739955306053,-0.00044137798249721527
1772568103254050800,8.60405078125,0.0013717799447476864,0.0023089544847607613,0.0007837610319256783
1772568103264122600,8.61412255859375,-0.0004234565421938896,-0.0007467567920684814,0.0009728455916047096
1772568103274194700,8.624194580078125,0.0001477082259953022,0.0000734538771212101,-0.0011334829032421112
1772568103284266800,8.634266845703126,-0.0008536404930055141,0.0015935860574245453,0.0008348599076271057
1772568103294338800,8.6443388671875,0.001256109680980444,0.0016944254748523235,-0.0017818557098507881
1772568103304410600,8.65441064453125,0.0007706154137849808,-0.0009109452366828918,-0.000012185424566268921
1772568103314482700,8.664482666015624,-0.0006407834589481354,-0.0019805936608463526,0.0005300501361489296
1772568103324554800,8.6745546875,-0.0026599918492138386,0.0003787009045481682,-0.0010012676939368248
1772568103334626600,8.68462646484375,0.00007930910214781761,0.00006616860628128052,-0.001187346875667572
1772568103344698000,8.694697998046875,-0.0008461391553282738,0.0016166609711945057,-0.0007476592436432838
1772568103354770400,8.7047705078125,0.0003385106101632118,-0.0008038175292313099,-0.00023729726672172546
1772568103364841200,8.71484130859375,0.0007909815758466721,0.001371186226606369,0.00032170023769140244
1772568103374913300,8.724913330078126,-0.0002777152694761753,0.0020765461958944798,-0.0008283806964755058
1772568103384985000,8.734985107421876,-0.0005560158751904964,-0.0015767780132591724,-0.0005050729960203171
1772568103395057200,8.74505712890625,-0.0000028405338525772095,-0.002949937479570508,-0.00041435565799474716
1772568103405129200,8.755129150390625,0.0001396387815475464,0.0005073780193924904,0.00022134091705083847
1772568103415201500,8.765201416015625,-0.0015820232219994068,-0.0019380864687263966,-0.0017114989459514618
1772568103425273300,8.7752734375,0.0020934054628014565,-0.0014179712161421776,0.000699460506439209
1772568103435345400,8.785345458984375,-0.0010683774016797543,-0.00014819903299212456,0.0003282558172941208
1772568103445417500,8.79541748046875,0.0004237922839820385,-0.001108801458030939,-0.0013362197205424309
1772568103455489300,8.8054892578125,-0.0006227637641131878,0.0016327397897839546,0.0024003591388463974
1772568103465561300,8.815561279296874,-0.00054499926045537,-0.0015984734054654837,-0.0005456302314996719
1772568103475633400,8.82563330078125,0.0007965127006173134,0.003531177993863821,0.0007974188774824142
1772568103485704400,8.835704345703125,-0.0000647539272904396,0.0014331392012536526,-0.0004963446408510208
1772568103495776500,8.845776611328125,-0.0006741434335708618,-0.000558000523597002,0.0013491231948137283
1772568103505848300,8.855848388671875,0.0018697082996368408,0.0012601395137608051,0.0008995812386274338
1772568103515920400,8.86592041015625,0.00021637184545397758,0.00011200597509741783,0.0020798658952116966
1772568103525992400,8.875992431640626,-0.0005415640771389008,0.00274267653003335,-0.00032097380608320236
1772568103536064500,8.886064453125,-0.0002653212286531925,-0.0004976466298103333,-0.0008746981620788574
1772568103546136300,8.89613623046875,0.0013754526153206825,0.0004333946853876114,-0.0003391364589333534
1772568103556208400,8.90620849609375,0.0011686081998050213,-0.0005229683592915535,-0.00034288596361875534
1772568103566280400,8.916280517578125,0.0005195955745875835,-0.002021795604377985,-0.0010848427191376686
1772568103576352300,8.926352294921875,0.00022487621754407883,0.0010072309523820877,0.0008613560348749161
1772568103586424300,8.93642431640625,0.0004009110853075981,-0.001219970639795065,0.0011090300977230072
1772568103596496400,8.946496337890625,0.0021630008704960346,-0.0018620544578880072,-0.0035821115598082542
1772568103606567400,8.9565673828125,0.0017038718797266483,0.0010501123033463955,0.00107655581086874
1772568103616639500,8.966639404296876,-0.0017821267247200012,0.0002768472768366337,-0.0024482086300849915
1772568103626711300,8.976711181640624,-0.0008968915790319443,-0.0007324907928705215,-0.00007453374564647675
1772568103636783400,8.986783447265625,0.0009897188283503056,-0.0009726625867187977,0.000009797513484954834
1772568103646855400,8.99685546875,0.0004584179259836674,-0.0031679063104093075,0.00299014151096344
1772568103656927200,9.00692724609375,0.0002798456698656082,0.003000738564878702,0.0001051444560289383
1772568103666999300,9.016999267578125,0.0003339075483381748,-0.0015479403082281351,-0.0011590579524636269
1772568103677071400,9.0270712890625,0.0012524519115686417,0.0010993587784469128,0.0015740850940346718
1772568103687143400,9.037143310546876,-0.001024817582219839,-0.00003195181488990784,0.0008369218558073044
1772568103697215200,9.04721533203125,0.0005058459937572479,0.0016468665562570095,0.0022259894758462906
1772568103707287300,9.057287353515624,-0.00026061199605464935,0.00013126153498888016,0.00014925654977560043
1772568103717359400,9.067359375,0.0011686338111758232,-0.0006933235563337803,-0.0003624986857175827
1772568103727430400,9.077430419921875,-0.0012111663818359375,0.00003451807424426079,0.002115040086209774
1772568103737502500,9.08750244140625,-0.001286134123802185,0.0038333330303430557,-0.00036558788269758224
1772568103747574300,9.09757421875,-0.0014243517071008682,0.00019758567214012146,-0.0005813045427203178
1772568103757646300,9.107646240234375,-0.0015109013766050339,0.0011040763929486275,0.0005505383014678955
1772568103767718400,9.117718505859376,-0.0002954350784420967,0.002279595471918583,-0.002195713110268116
1772568103777790200,9.127790283203124,0.0009578573517501354,-0.0020079046953469515,0.00013187993317842484
1772568103787862300,9.1378623046875,-0.00020354706794023514,-0.00024435948580503464,-0.0002188580110669136
1772568103797934300,9.147934326171875,0.0003294041380286217,0.0003793030045926571,-0.0001406138762831688
1772568103808006400,9.15800634765625,0.0007139644585549831,-0.0007141907699406147,-0.00018082838505506516
1772568103818078200,9.168078125,0.0008339253254234791,0.0014975550584495068,-0.000075487419962883
1772568103828150300,9.178150390625,-0.000782880000770092,0.0009835651144385338,0.0017911214381456375
1772568103838221300,9.18822119140625,0.0006465520709753036,0.002653332892805338,0.00036739930510520935
1772568103848293400,9.19829345703125,0.00053390022367239,-0.0018391534686088562,0.0025349464267492294
1772568103858365200,9.208365234375,-0.000581610482186079,0.001322814729064703,0.0008692601695656776
1772568103868437200,9.218437255859374,-0.0005635013803839684,-0.0014876192435622215,-0.0010508783161640167
1772568103878509300,9.22850927734375,-0.0005174269899725914,-0.00015606684610247612,0.00004218984395265579
1772568103888581400,9.238581298828125,-0.0005043772980570793,0.0012985514476895332,0.0002712216228246689
1772568103898653200,9.248653076171875,-0.0002354769967496395,-0.0019806146156042814,-0.001142970286309719
1772568103908725200,9.258725341796875,0.0017994442023336887,0.0016127885319292545,-0.0005546780303120613
1772568103918797300,9.26879736328125,0.0020591369830071926,-0.0010769767686724663,0.0006645293906331062
1772568103928869000,9.278869140625,-0.0005036229267716408,0.0023089665919542313,-0.0001666434109210968
1772568103938940200,9.288940185546876,0.00020865118131041527,-0.0018936507403850555,0.0007514404132962227
1772568103949012200,9.29901220703125,0.0012741819955408573,-0.0012355837970972061,0.001843070611357689
1772568103959084300,9.309084228515625,-0.0012730453163385391,-0.0013445285148918629,0.001899738796055317
1772568103969156400,9.31915625,-0.00033321604132652283,-0.000767421443015337,-0.0011245468631386757
1772568103979228200,9.329228271484375,-0.0008035870268940926,0.00019328435882925987,-0.00003330223262310028
1772568103989300200,9.33930029296875,0.001350643578916788,-0.000100728590041399,-0.0008024228736758232
1772568103999372300,9.349372314453126,0.00023908494040369987,0.0016051302663981915,0.00027677416801452637
1772568104009444400,9.3594443359375,0.0019123489037156105,-0.0012804046273231506,-0.003521692007780075
1772568104019516200,9.36951611328125,-0.0013013682328164577,0.0016198349185287952,-0.0005901101976633072
1772568104029588200,9.379588134765624,-0.0001471545547246933,0.0015623103827238083,0.002197153866291046
1772568104039660300,9.389660400390625,0.0023427335545420647,-0.00025940919294953346,0.0008211173117160797
1772568104049731300,9.3997314453125,-0.00029992125928401947,0.000013831071555614471,-0.0017530936747789383
1772568104059803100,9.40980322265625,0.0017146207392215729,-0.000058896373957395554,-0.001231728121638298
1772568104069875200,9.419875244140625,0.000327912624925375,-0.000951321329921484,-0.00018643774092197418
1772568104079947300,9.429947265625,-0.0005714544095098972,-0.00005414150655269623,-0.00032457616180181503
1772568104090019300,9.440019287109376,-0.0000630565918982029,-0.0001902286894619465,0.00006078369915485382
1772568104100091100,9.450091064453124,0.0007227892056107521,0.003912175074219704,0.0013224640861153603
1772568104110163200,9.4601630859375,-0.001101209782063961,0.0004780287854373455,0.0005999486893415451
1772568104120235300,9.4702353515625,-0.0006538876332342625,0.0018087616190314293,0.00024645961821079254
1772568104130307000,9.48030712890625,0.0020108711905777454,0.005495375953614712,0.0007290244102478027
1772568104140379100,9.490379150390625,-0.0015366305597126484,-0.001061867456883192,-0.001472635194659233
1772568104150451500,9.500451416015625,0.0010575545020401478,0.007123624440282583,0.001392393372952938
1772568104160522200,9.510522216796875,-0.0007680486887693405,0.0008366038091480732,-0.00030044931918382645
1772568104170594300,9.52059423828125,0.0019355923868715763,0.0013434034772217274,-0.0008732955902814865
1772568104180666000,9.530666015625,-0.00012352410703897476,0.00018780818209052086,0.0008649649098515511
1772568104190738200,9.54073828125,-0.00004868954420089722,0.0015388294123113155,0.0032985610887408257
1772568104200810200,9.550810302734375,-0.0005441582761704922,-0.0019833180122077465,-0.00044235773384571075
1772568104210882300,9.56088232421875,0.0004137805663049221,-0.003130874130874872,-0.0026557110249996185
1772568104220954400,9.570954345703125,0.00019427109509706497,-0.0026687192730605602,-0.003462819382548332
1772568104231026400,9.5810263671875,0.0005540642887353897,0.0005630268715322018,0.0009372550994157791
1772568104241098500,9.591098388671876,0.0012590070255100727,0.0001851445995271206,-0.0014148931950330734
1772568104251170300,9.60117041015625,-0.00024754321202635765,0.000638947356492281,0.0013020634651184082
1772568104261241000,9.611240966796874,0.0015578726306557655,-0.0009254436008632183,-0.0005260519683361053
1772568104271313200,9.621313232421874,-0.0024999859742820263,0.0002026716247200966,-0.0010738642886281013
1772568104281385500,9.631385498046875,-0.0005732257850468159,0.0027997661381959915,0.0006077354773879051
1772568104291457500,9.64145751953125,-0.0003862716257572174,0.003441588021814823,0.0025992467999458313
1772568104301529300,9.651529296875,0.003058279398828745,0.018938206136226654,0.01062473189085722
1772568104311601400,9.661601318359375,-0.0005907835438847542,0.03300129622220993,0.015869297087192535
1772568104321673500,9.671673583984376,0.0017169592902064323,0.032800957560539246,0.02055104449391365
1772568104331745300,9.681745361328124,0.0017217532731592655,0.019977305084466934,0.019503887742757797
1772568104341816600,9.691816650390624,0.0009630811400711536,0.0074008130468428135,0.009864453226327896
1772568104351888600,9.701888671875,0.00007065571844577789,-0.005120038986206055,0.003756759688258171
1772568104361959700,9.711959716796875,-0.0007933611050248146,-0.010624699294567108,-0.0017584851011633873
1772568104372031700,9.72203173828125,0.0012628654949367046,-0.015171514824032784,-0.008081894367933273
1772568104382103800,9.732103759765625,-0.0008372687734663486,-0.02133314311504364,-0.013668515719473362
1772568104392175600,9.742175537109375,0.0009065684862434864,-0.019135236740112305,-0.010712940245866776
1772568104402247700,9.75224755859375,0.0000503011979162693,-0.015188029035925865,-0.012999781407415867
1772568104412319700,9.76231982421875,-0.000652240589261055,-0.010063840076327324,-0.008136050775647163
1772568104422391600,9.7723916015625,0.0010890364646911621,-0.008926641196012497,-0.007809383329004049
1772568104432463600,9.782463623046874,-0.00006304681301116943,-0.0021025575697422028,-0.0027491115033626556
