time,seconds_elapsed,z,y,x
1772568080918406400,0.116406494140625,-0.04742869065105915,0.00029992366149090226,-0.007522814986575394
1772568080928478500,0.126478515625,-0.0433873063057661,-0.0011806246193125844,-0.012564425882976502
1772568080938550500,0.136550537109375,-0.04547054232060909,0.0033296376130543645,-0.014275248388852923
1772568080948622600,0.14662255859375,-0.03753098149299621,-0.0006081219609826802,0.007422733879275619
1772568080958694400,0.1566943359375,-0.038573184022307395,-0.006042467635171488,0.004750427663791925
1772568080968766500,0.166766357421875,-0.03827098620533943,-0.008012781327450648,-0.01398386422684416
1772568080978838500,0.176838623046875,-0.0402110143572092,0.0007776972410734743,-0.0115143140418455
1772568080988910300,0.186910400390625,-0.041403439012169835,0.00680334160560742,-0.004009052978269756
1772568080998982400,0.196982421875,-0.03630874622166157,0.0021033928868826476,0.009978501043003052
1772568081009055500,0.207055419921875,-0.034355274066329,0.005264733861479908,-0.0018472353018820285
1772568081019127300,0.217127197265625,-0.04751695345640182,-0.004065176212834194,-0.012858002002071588
1772568081029199400,0.227199462890625,-0.04466273306906223,0.0004782211041543632,-0.007824939738307148
1772568081039271400,0.237271484375,-0.0424070630967617,0.006265572333941235,0.003074037150479853
1772568081049343200,0.24734326171875,-0.05003156662583351,0.003925082755554467,0.0035756117307581005
1772568081059415300,0.257415283203125,-0.05032908826768398,-0.0005442538113798946,0.0004614069666713476
1772568081069487400,0.2674873046875,-0.04702946220040321,0.0009027392596937715,-0.005580448747146875
1772568081079559400,0.277559326171875,-0.05390753127634525,0.005984307707147672,-0.002989865998364985
1772568081089631200,0.28763134765625,-0.04425590583384037,-0.0026893395486753432,0.01169206349523738
1772568081099703600,0.29770361328125,-0.050717795324325556,0.0027403116840869187,0.01616542778331786
1772568081109775600,0.307775634765625,-0.04233049072921276,-0.0019710260783322156,0.0010385310011915862
1772568081119848400,0.317848388671875,-0.03879647138416767,0.0037165363050997253,-0.000189220695476979
1772568081129920500,0.32792041015625,-0.03374561773538589,-0.008658148292591795,0.001531648280378431
1772568081139992600,0.33799267578125,-0.040950434547662735,-0.007633545352052897,0.0041716413951478895
1772568081150064400,0.348064453125,-0.04003858039975166,0.004651963124843314,0.00875907878326252
1772568081160136400,0.358136474609375,-0.04002513639628887,0.00025322584239766,0.00335849838135764
1772568081170208500,0.36820849609375,-0.04320318191051483,-0.00453119542254135,-0.007814637540001421
1772568081180280300,0.3782802734375,-0.044426001703739164,0.00043069216799922287,-0.005916512301098555
1772568081190352400,0.388352294921875,-0.04141980562508106,0.004048563004750758,0.007063490379136055
1772568081200424400,0.398424560546875,-0.04559972165822983,-0.0033855964508373287,0.007146401155926287
1772568081210496500,0.40849658203125,-0.04186988748013973,-0.0018652276162989436,-0.002894314935710281
1772568081220568300,0.418568359375,-0.04442483265995979,-0.007342700046161189,-0.0060800688323564825
1772568081230640400,0.428640380859375,-0.05250993943810463,-0.0020722305636387316,0.00036397447418421504
1772568081240713500,0.43871337890625,-0.04832008653283119,0.008039148744568228,0.005325761600024998
1772568081250785300,0.448785400390625,-0.043217210435867306,0.00001915222504176199,-0.0015725100137293337
1772568081260857300,0.458857421875,-0.04574935926198959,-0.006218445256585255,-0.0010372158269397914
1772568081270929400,0.468929443359375,-0.044563948869705196,-0.00233560334071517,-0.0018218451322987675
1772568081281001200,0.479001220703125,-0.043676644641160965,-0.0011262732167262584,-0.00964444678304717
1772568081291073300,0.4890732421875,-0.04725859478116035,-0.0008625351134687662,0.007594455450680106
1772568081301145600,0.4991455078125,-0.04201718699634075,0.006797752115037292,0.004439772545732558
1772568081311217700,0.5092177734375,-0.043214872348308564,0.0017371533903758972,-0.004507102160900831
1772568081321293300,0.519293212890625,-0.038726913279294964,-0.00666828964962624,-0.0009193798672407865
1772568081331365400,0.529365478515625,-0.048001522102952,-0.0009753295718692242,0.001284505118895322
1772568081341438200,0.539438232421875,-0.03842354641854763,-0.0025105854482855646,-0.003625058629363775
1772568081351510300,0.54951025390625,-0.04620411729216575,-0.011602421583561225,0.0019847258101217445
1772568081361582300,0.559582275390625,-0.046943537482619285,0.0014092366102617232,-0.008466708240564912
1772568081371654400,0.569654296875,-0.04006371484100819,0.0007564991894178092,0.0006576419248245656
1772568081381726200,0.579726318359375,-0.043805823978781695,0.0020148195542860777,0.006388239732384681
1772568081391798300,0.58979833984375,-0.05502338356375694,0.005292571716476232,0.0013349931971170007
1772568081401870300,0.599870361328125,-0.03676350425183773,-0.012740796230034901,0.00164296316774562
1772568081411942100,0.609942138671875,-0.03915536782443523,0.0007321593326050788,-0.0056994354843162
1772568081422014200,0.62001416015625,-0.037056349718570705,0.0006258494139183312,-0.006552746111713349
1772568081432086500,0.63008642578125,-0.04603869759738445,-0.002094004004029557,0.005955072479508817
1772568081442158300,0.640158447265625,-0.04393324975073337,0.00234103756765835,0.010439962808601558
1772568081452231400,0.6502314453125,-0.04917524205744266,0.0003620291122701019,0.004030990815442055
1772568081462303500,0.660303466796875,-0.04349719642102718,-0.006580784896109253,-0.0004705583875067532
1772568081472375300,0.670375244140625,-0.05008358907401562,-0.0015555040800012648,0.00015144596835598348
1772568081482447400,0.680447265625,-0.045595045483112336,0.0032695323231164363,0.009159512810315936
1772568081492519400,0.69051953125,-0.03885726166069507,0.00497962417663075,-0.0010108027440495788
1772568081502591500,0.700591552734375,-0.04693360061049461,-0.002715853096265346,0.00030912074809893964
1772568081512663300,0.710663330078125,-0.039161213043332095,0.0059894679394550615,0.004353756496403366
1772568081522735400,0.7207353515625,-0.046800914141535754,0.0002780497564002871,0.0033198468714021145
1772568081532807400,0.730807373046875,-0.04290682931244373,0.004303231885563582,0.00686504519758746
1772568081542879200,0.740879150390625,-0.04365443280935287,-0.002728045857558027,-0.0008526530402712524
1772568081552951300,0.750951416015625,-0.0348258141875267,0.00723384197736159,0.005158570073265582
1772568081563024400,0.7610244140625,-0.044857378858327863,-0.0013254216511733828,-0.0022729864332824944
1772568081573096200,0.77109619140625,-0.04650163893401622,-0.004367940285382792,0.002855389431118965
1772568081583168300,0.781168212890625,-0.045454760229587554,-0.0009811839239206165,0.008590645147487521
1772568081593240300,0.791240234375,-0.04186111965179443,-0.0026376824266742915,0.0038329292263835665
1772568081603312000,0.80131201171875,-0.04919336223602295,0.0023905392651911825,0.0005763751158490777
1772568081613384200,0.81138427734375,-0.03767185126841068,0.0037116044016554947,0.0006608019962906837
1772568081623456300,0.821456298828125,-0.03288520151376724,0.0029610052300617098,-0.0036928266359493134
1772568081633528600,0.831528564453125,-0.03438274659514427,-0.0034201380412559952,-0.004558247826248407
1772568081643600400,0.841600341796875,-0.03243511965870857,0.0006516049096826463,-0.00031825390262529255
1772568081653672400,0.85167236328125,-0.04290975192189216,-0.0067065484339371316,0.004314246469922364
1772568081663744500,0.86174462890625,-0.03932312560677528,0.0019377083306200802,0.00044363384796306486
1772568081673816300,0.87181640625,-0.048156420403718946,0.00020147738885134458,-0.004317680536024272
1772568081683889400,0.881889404296875,-0.044265842705965036,-0.0011454619743861258,-0.0010113324670121074
1772568081693961500,0.89196142578125,-0.04172784866094589,-0.0002747983533889055,0.0072987239071168
1772568081704033300,0.902033203125,-0.04247019146084785,-0.0019118158375378697,-0.0028190394761040804
1772568081714105300,0.912105224609375,-0.03588204524219036,0.0009533734683878719,-0.008499277069605887
1772568081724177400,0.922177490234375,-0.03288110986053944,-0.0041567817527335136,-0.005928951657563447
1772568081734249500,0.93224951171875,-0.04066284977793693,0.0013390939834993332,0.0005075111307203769
1772568081744321300,0.9423212890625,-0.028543957439064977,-0.003379385905759409,0.0023791319551877675
1772568081754393300,0.952393310546875,-0.03243278157114982,-0.0009225947376340627,-0.00044381651105359195
1772568081764465400,0.96246533203125,-0.03362988240122795,-0.002851014650100842,0.00015831410055980086
1772568081774537200,0.972537109375,-0.03527764960825443,0.0022254209645092486,-0.0034812114455737174
1772568081784609300,0.982609375,-0.033033670073747634,0.0017564517458900808,-0.0030646300013177094
1772568081794682400,0.992682373046875,-0.035574586728215216,-0.0007948767047375441,-0.0021148001968860626
1772568081804754200,1.002754150390625,-0.04724631982147694,-0.00846858967039734,-0.0029859752745367584
1772568081814826200,1.012826171875,-0.04110650189220905,-0.00044629159593023357,-0.0010271328243426979
1772568081824898300,1.022898193359375,-0.040354222220182416,0.005355097292363643,0.0032817250844091174
1772568081834970000,1.03297021484375,-0.04259937079846859,0.005288653593184426,0.005539568747486919
1772568081845042400,1.04304248046875,-0.04050561338961124,0.008022508137021213,-0.0013679821512661873
1772568081855114500,1.053114501953125,-0.037511692270636554,-0.006040997197292745,0.0010527239233255386
1772568081865186600,1.0631865234375,-0.04065525099337101,0.003207901796372607,0.0021666582482866943
1772568081875258400,1.07325830078125,-0.033925065955519675,0.0013966693896334617,0.0009853943081572652
1772568081885330400,1.083330322265625,-0.04694061487317085,-0.001784280467731878,-0.003067205550894141
1772568081895403300,1.0934033203125,-0.046042789250612254,-0.0040892694744747125,0.0017401033992879092
1772568081905475300,1.103475341796875,-0.03362111457288265,0.00035689627942629156,-0.00000526069700717926
1772568081915547400,1.11354736328125,-0.04784194762706756,-0.0014295304796192794,-0.0012339622417464851
1772568081925619500,1.123619384765625,-0.03272913416922092,0.0016463333017658441,0.0008325783666223287
1772568081935691300,1.133691162109375,-0.031381811213493344,-0.004200410831905901,-0.0001946275229565799
1772568081945763300,1.143763427734375,-0.025994857478141783,0.008378472834685817,0.0011462656919844448
1772568081955835400,1.15383544921875,-0.0376665905714035,0.005089094166783615,-0.0009972308764234184
1772568081965907500,1.163907470703125,-0.040811902859807014,0.004187103825761005,-0.0054246736635454
1772568081975979300,1.173979248046875,-0.04200958821177482,0.0008983736118301749,0.0032650114116258917
1772568081986051300,1.18405126953125,-0.039918753412365914,0.0072666756678838275,-0.007470189750194549
1772568081996123400,1.194123291015625,-0.04710311195850372,0.0024102851452771573,0.001916921270918101
1772568082006196200,1.2041962890625,-0.05159224007129669,-0.0006095832657068967,-0.0007833689300343394
1772568082016268300,1.214268310546875,-0.043513563033938406,-0.005899990424560382,-0.0021643018944188953
1772568082026340400,1.22434033203125,-0.03902034326791763,-0.0064907685250975185,-0.002321684413217008
1772568082036412200,1.234412109375,-0.04065934264659881,-0.001521656609326601,-0.005059292683564126
1772568082046484500,1.244484375,-0.04904021750092506,-0.002726602819142863,-0.0028482290379703043
1772568082056556500,1.254556640625,-0.03647182782888412,-0.004993314775265753,0.005140650824084878
1772568082066628400,1.26462841796875,-0.03766366796195507,-0.0029831348634790627,0.005241352985892444
1772568082076700400,1.274700439453125,-0.05277881950736046,-0.00013128909631632268,0.004144461127277463
1772568082086772500,1.2847724609375,-0.05113222134411335,-0.004486242035962641,0.007155095919035375
1772568082096844500,1.294844482421875,-0.03332476197481155,-0.005175548607530072,0.006445924736373126
1772568082106916400,1.304916259765625,-0.043646834024786946,0.001480091623077169,-0.001516067118756473
1772568082116989400,1.314989501953125,-0.05008358907401562,0.004925446303980425,0.0009408975793048739
1772568082127061200,1.325061279296875,-0.03601064005792141,-0.004201159750577062,0.00025629458231851454
1772568082137133300,1.33513330078125,-0.036761750686168666,0.0006080488957464694,-0.002872833756264299
1772568082147205400,1.345205322265625,-0.045888475471734996,0.0014731504256371409,0.002789283658657223
1772568082157277400,1.35527734375,-0.036465982609987256,-0.0009259557384997606,0.0029763123970478773
1772568082167349200,1.365349365234375,-0.0448468574643135,0.0021861027342732994,0.005910374821256846
1772568082177421300,1.37542138671875,-0.03766834413707256,0.008934280086541548,0.0030905316275544464
1772568082187493400,1.385493408203125,-0.04409808492362499,-0.0038006617914419618,-0.0033464791500009594
1772568082197565400,1.3955654296875,-0.04125321688652038,-0.0034289972011465578,0.0064307636998593804
1772568082207637200,1.40563720703125,-0.0376624989181757,0.0006209083773195743,-0.0006165609957650304
1772568082217710300,1.41571044921875,-0.03736263918876648,0.0005188545086421072,0.00270156884258613
1772568082227782100,1.4257822265625,-0.03960954133272171,0.0003568140810355544,-0.0024816424815915523
1772568082237854200,1.435854248046875,-0.048584290426969524,-0.010317770334193482,0.004974080351833254
1772568082247926300,1.44592626953125,-0.040358313873410226,0.0018495185905136166,0.0027053134359419344
1772568082257998600,1.45599853515625,-0.04245674745738506,-0.0035680038130376486,-0.0020779205189086496
1772568082268070400,1.4660703125,-0.03811725694835186,-0.00523595529156737,-0.0010313158091157673
1772568082278142500,1.476142578125,-0.039616555595397944,0.003332331893639639,-0.0012729973441921174
1772568082288214500,1.486214599609375,-0.04740121812224388,0.009629578007478266,-0.0012355514106340705
1772568082298286300,1.496286376953125,-0.04695288983285427,0.0023076284884009507,-0.0006631583501584828
1772568082308358400,1.5063583984375,-0.03887421279549599,0.002351476763281971,0.0022439064692705867
1772568082318430500,1.516430419921875,-0.038728666844964024,0.0028963516291696575,-0.0015070983610115944
1772568082328499700,1.526499755859375,-0.03603577449917793,0.00016257928372360764,0.0038463732298463582
1772568082338571800,1.53657177734375,-0.040675124737620354,-0.005079732683394104,0.0011234145393595098
1772568082348643800,1.546643798828125,-0.048158173969388006,0.004455582036217674,0.008898907379060983
1772568082358715600,1.556715576171875,-0.0451695135474205,-0.00794218204296194,0.003666212623659521
1772568082368787700,1.56678759765625,-0.04037760309576988,-0.0003986987276934087,-0.0016131160187534987
1772568082378859800,1.57685986328125,-0.035737083813548086,-0.0044231045387219635,-0.0024504070931114256
1772568082388931800,1.586931884765625,-0.04830605800747871,0.003087335023470223,0.004321406863071024
1772568082399003600,1.597003662109375,-0.04666121340990066,0.0025996428380720316,0.004307250473555177
1772568082409075700,1.60707568359375,-0.0444201564848423,0.0016324509068857877,-0.004954553667455911
1772568082419147800,1.617147705078125,-0.04682020336389541,0.005137737347790971,0.0012843589884229004
1772568082429219800,1.6272197265625,-0.04009177189171314,-0.00027401290209963915,-0.0054391040476970375
1772568082439292700,1.637292724609375,-0.04727671495974064,0.000884865676285699,-0.007446735809370875
1772568082449364700,1.64736474609375,-0.04009761711061001,0.0022337321351282298,0.004852956456504762
1772568082459436500,1.6574365234375,-0.049375148543715476,0.004549790525157004,0.00008133987421169876
1772568082469508600,1.667508544921875,-0.04219721973836422,-0.00626233006408438,-0.005316847641207278
1772568082479580700,1.67758056640625,-0.04324643653035164,0.0033283589714206752,-0.010357234694901853
1772568082489652700,1.68765283203125,-0.047132922574877736,0.006731116619613021,0.00010234612962231039
1772568082499724500,1.697724609375,-0.03545300617516041,0.003473539595771581,0.0017418569649569689
1772568082509796600,1.707796630859375,-0.04203530717492103,0.004937063676537946,-0.0022448563173413276
1772568082519868700,1.71786865234375,-0.042030046477913856,-0.0007540971697773784,0.0001387874161824584
1772568082529940700,1.727940673828125,-0.04501812237799167,0.0024738610339351,0.00402582144998014
1772568082540012800,1.7380126953125,-0.04247136050462723,-0.003689145974675193,-0.00949687327221036
1772568082550086000,1.7480859375,-0.04771218376755714,-0.00993132829987444,-0.005280260224174708
1772568082560157700,1.75815771484375,-0.04651508293747902,-0.001140630535641685,0.0038820473314262922
1772568082570229800,1.768229736328125,-0.04172609509527683,-0.00045480369594879446,-0.002701806304603815
1772568082580301800,1.7783017578125,-0.04516775998175144,-0.0001671275946777314,0.004142871958389878
1772568082590373600,1.78837353515625,-0.052798108729720114,0.007677357094315811,0.0071572696098126465
1772568082600445700,1.79844580078125,-0.040080081453919406,0.002570179281570017,-0.004576769863627851
1772568082610517800,1.808517822265625,-0.043219548523426056,-0.005028203425556421,-0.003156418204307556
1772568082620589800,1.81858984375,-0.048454526567459105,-0.0027818766703363506,0.002622895849496126
1772568082630661600,1.82866162109375,-0.044859716945886606,-0.004179943432612345,0.006665193510241806
1772568082640733700,1.838733642578125,-0.04141980562508106,-0.005289539509173482,0.005237498794682324
1772568082650805800,1.8488056640625,-0.04695405887663364,-0.0022847956020850685,-0.0029192301812581718
1772568082660878600,1.858878662109375,-0.042615152889490124,0.00023009156198240815,0.004981514739617705
1772568082670950700,1.86895068359375,-0.03812544025480747,0.0002899593899026513,0.006924556832481175
1772568082681022700,1.879022705078125,-0.030489246287941932,0.0009816862474195658,0.006826612883340567
1772568082691094500,1.889094482421875,-0.034226679250597955,-0.0006403071975335478,0.005301211680658161
1772568082701166600,1.89916650390625,-0.041560675400495524,0.0040846206988208,0.0009231792595237493
1772568082711238700,1.90923876953125,-0.047101942914724346,0.0026173611578531562,-0.0027064459471032023
1772568082721310700,1.919310791015625,-0.05114683439135551,-0.0028241631757933644,0.0033931130370125173
1772568082731382800,1.9293828125,-0.041871056523919106,0.0016186324440874158,-0.008645498873572795
1772568082741454800,1.939454833984375,-0.04411445153653622,-0.0031651038342621176,0.0038128180201165377
1772568082751527000,1.94952685546875,-0.043515316599607466,-0.002967526302393526,0.005641640882473439
1772568082761598700,1.9595986328125,-0.04201601795256137,0.0002297901678830385,0.003576251051574945
1772568082771671800,1.969671875,-0.04066635690927505,0.006388605058565735,0.005029116741009056
1772568082781743900,1.979743896484375,-0.045604982355237,0.0013759371288586408,-0.00866146362768486
1772568082791815700,1.989815673828125,-0.044999417677521705,0.0008725267845205963,0.004583473599050193
1772568082801887700,1.9998876953125,-0.03452653898000717,-0.0005408745442051441,-0.001748432836215943
1772568082811959800,2.009959716796875,-0.038266310030221934,-0.0010024276413489132,0.0045874556544236835
1772568082822031600,2.020031494140625,-0.049936289557814595,0.0006823653741274029,0.002524111650139093
1772568082832103700,2.030103759765625,-0.04695055174529552,-0.00490687860082835,0.0027568244274705648
1772568082842175700,2.04017578125,-0.03736965345144272,-0.005550720329163596,-0.001602046635467559
1772568082852247800,2.050247802734375,-0.0312356807410717,0.003970346669387072,-0.005256203495152294
1772568082862319600,2.060319580078125,-0.0429079983562231,-0.01074194142986089,0.010858571813162415
1772568082872391700,2.0703916015625,-0.043511224946379656,-0.00879624158903025,0.005427139615267515
1772568082882464800,2.08046484375,-0.04844809682667255,-0.006288916676910594,-0.0011344473900273442
1772568082892536600,2.09053662109375,-0.046804421272873875,-0.008730546808522194,0.0013709778259508312
1772568082902608600,2.100608642578125,-0.04546177449226379,0.0004069733656942844,-0.0019207206632010638
1772568082912680700,2.1106806640625,-0.037082653203606604,-0.0031956451029982414,0.0013405826876871287
1772568082922752500,2.12075244140625,-0.034836920103430744,-0.006723152508866042,0.004849778118729591
1772568082932824600,2.130824462890625,-0.039326048216223715,0.0033480043868068603,-0.005317834021896123
1772568082942897000,2.14089697265625,-0.03499006483852863,0.0013464461728930472,-0.003064045479428023
1772568082952969000,2.150968994140625,-0.04636486081182956,-0.005523530928138643,-0.00430065633598715
1772568082963040800,2.161040771484375,-0.03738602006435394,-0.008514310241956263,-0.0023209537608548996
1772568082973112800,2.17111279296875,-0.040975568988919256,-0.003767554106283933,0.004746701336745172
1772568082983185000,2.181184814453125,-0.044862639555335045,-0.007917833052994682,0.00473027992490679
1772568082993257700,2.1912578125,-0.052795770642161365,0.004000860538659617,0.0016839162326417862
1772568083003329800,2.201329833984375,-0.04800970540940761,0.000118046022253111,0.0016149791822768747
1772568083013401900,2.21140185546875,-0.0435182392090559,-0.007741508371708914,-0.003662541095539927
1772568083023473700,2.2214736328125,-0.040975568988919256,-0.010979951436817646,-0.0047534050721675155
1772568083033545700,2.231545654296875,-0.03872925136685371,-0.001709562130551785,-0.002398549041710794
1772568083043617800,2.24161767578125,-0.04201835604012012,0.0037852267602924254,-0.004358670133538544
1772568083053689600,2.251689697265625,-0.044263504618406294,-0.006731180551694705,0.00009418108947575092
1772568083063761700,2.26176171875,-0.04246960693895817,0.0005384633914101869,-0.0032237295531667765
1772568083073833700,2.271833740234375,-0.03588379880785942,-0.002964220100454986,-0.00034866730719804764
1772568083083905800,2.28190576171875,-0.037677696487307545,-0.0035386498543899503,0.0034272527686320243
1772568083093977600,2.2919775390625,-0.04111643876433372,0.005844415179267526,0.0035162827589549123
1772568083104050700,2.30205078125,-0.051288873210549354,0.0018174794844351707,0.002862896884139627
1772568083114122800,2.312122802734375,-0.03318213863372803,-0.002627033168496564,0.0033007037795148787
1772568083124194600,2.322194580078125,-0.038570845934748646,-0.0036932467610575254,0.0032528460497967897
1772568083134266600,2.3322666015625,-0.03946516442596912,-0.0011692173093091696,-0.001568217431101948
1772568083144339000,2.3423388671875,-0.047844870236516,-0.0015522800764534621,-0.006639291884005069
1772568083154410800,2.35241064453125,-0.042758945274353026,0.00021259243790991604,-0.0005817088780924678
1772568083164482800,2.36248291015625,-0.04904197106659412,-0.005435304655414075,-0.0033445063886232674
1772568083174555000,2.372554931640625,-0.05427811815440654,-0.009159613275015726,-0.001218764672614634
1772568083184627000,2.382626953125,-0.04290156861543655,0.0016976707633584737,-0.005883980004675686
1772568083194698800,2.39269873046875,-0.04499649506807327,-0.00499920565993525,-0.004067486900929361
1772568083204771800,2.402771728515625,-0.04290332218110561,0.0046408480757847426,0.003362644833512604
1772568083214843600,2.41284375,-0.03811725694835186,0.005124613004736602,-0.0013491495866328478
1772568083224915700,2.422915771484375,-0.038268063595890994,0.009278042889758944,-0.009173413471505045
1772568083234987800,2.43298779296875,-0.03213116827607155,-0.003940947044966742,-0.0024021109719760715
1772568083245059800,2.443059814453125,-0.03602876023650169,-0.0043289691150188445,-0.005877732926979661
1772568083255131600,2.453131591796875,-0.03453355324268341,-0.005296827766485512,-0.0035340193450450895
1772568083265203700,2.46320361328125,-0.03423427803516388,0.006569952974840998,-0.001435859755706042
1772568083275275800,2.47327587890625,-0.04231646220386028,-0.0011132858709897845,-0.003152253485843539
1772568083285347600,2.48334765625,-0.04785013093352317,-0.014822881467407569,-0.002379040623642504
1772568083295419600,2.493419677734375,-0.047993338796496386,0.003861506866896525,0.005438300330098718
1772568083305491700,2.50349169921875,-0.04544248526990413,0.006150640717381611,-0.003931695159431547
1772568083315564500,2.513564453125,-0.054420741495490074,-0.012861116407765074,-0.0027258630336262283
1772568083325641700,2.523641845703125,-0.046342064458131785,-0.0028932098240125924,0.002778415204770863
1772568083335713500,2.533713623046875,-0.037515783923864364,0.009560239098314195,-0.002080952726211399
1772568083345785600,2.54378564453125,-0.04319792121350765,-0.004256853726878762,-0.005988865151256323
1772568083355857700,2.553857666015625,-0.0432002593010664,0.00010563406525179743,0.003315718685556203
1772568083365929700,2.5639296875,-0.036167876446247096,0.0023584453601855782,0.00013993819365277886
1772568083376001500,2.57400146484375,-0.04694061487317085,0.013023686558334156,-0.0021925233419053257
1772568083386073600,2.584073486328125,-0.042000820383429525,0.003738720737444237,0.0024677418204024433
1772568083396145700,2.594145751953125,-0.03960428063571453,-0.006877548486134037,0.0016460319076664746
1772568083406217500,2.604217529296875,-0.054420156973600385,-0.008515652815671636,0.00468234912995249
1772568083416289500,2.61428955078125,-0.043349312382936475,-0.004884529771702364,0.0014303067977540194
1772568083426362600,2.624362548828125,-0.03960603420138359,0.001566847457922995,0.0027260456967167553
1772568083436434400,2.634434326171875,-0.05112812969088554,-0.0013937285138759762,0.005677004456799477
1772568083446506500,2.644506591796875,-0.0409562797665596,-0.007660296361660585,0.0065676879525184625
1772568083456578600,2.65457861328125,-0.040060207709670066,-0.0004393229990266263,-0.0017460034171119332
1772568083466650400,2.664650390625,-0.037514030358195304,-0.003451419095508754,-0.0035268041529692706
1772568083476722400,2.674722412109375,-0.03960720324516296,-0.005386195683525875,-0.0020964242899790403
1772568083486794500,2.68479443359375,-0.040655835515260696,0.0010821692135185002,0.00010820961482822894
1772568083496866600,2.694866455078125,-0.03721066349744796,-0.0013538531612139195,0.00022544278632849455
1772568083506938400,2.7049384765625,-0.04080079694390297,-0.00888318922012113,0.001288980364613235
1772568083517010400,2.715010498046875,-0.04573942238986492,-0.004492772241448983,0.002176412457320839
1772568083527082500,2.72508251953125,-0.04439326847791671,0.0008123940951190888,0.0018353074020706116
1772568083537155600,2.735155517578125,-0.04304068482518196,-0.0035023364319931713,0.002011723414901644
1772568083547227600,2.7452275390625,-0.04438450064957142,0.003730765759851783,0.00389094302393496
1772568083557299700,2.7552998046875,-0.04244038084447384,-0.010321250066068023,0.007144428394548595
1772568083567371500,2.76537158203125,-0.04079202911555767,0.004940607340494171,0.00044113136362284417
1772568083577443600,2.775443603515625,-0.04468085324764252,-0.005455954717798158,0.003774239575397223
1772568083587515600,2.785515625,-0.048121933612227434,-0.006705571186402812,0.000949829804431647
1772568083597587700,2.795587646484375,-0.039143092864751816,0.0011837664244696497,0.0014091544118709862
1772568083607659500,2.805659423828125,-0.04602992976903915,-0.001254794967221096,-0.003772065884619951
1772568083617731600,2.815731689453125,-0.04513327319025993,-0.0022876816789153963,0.0005174480028450488
1772568083627803600,2.8258037109375,-0.04154313974380493,-0.0030705300191417335,0.0033188056917861104
1772568083637875500,2.83587548828125,-0.0436444959372282,0.0004061879144050181,-0.0038226270280778407
1772568083647948500,2.845948486328125,-0.04768588028252124,-0.009466962191136553,-0.005364011251181364
1772568083658020600,2.8560205078125,-0.04020750722587108,0.0015709299779962747,-0.00326196093801409
1772568083668092400,2.866092529296875,-0.04110650189220905,-0.0022732421616092325,-0.0132975624631159
1772568083678164500,2.87616455078125,-0.04933598557710647,-0.0018919694927521048,-0.0029901399930007755
1772568083688236500,2.886236572265625,-0.044696050816774364,0.0027780407454352824,-0.0004216777444817126
1772568083698308400,2.896308349609375,-0.04574351404309272,-0.006911414223117754,-0.0009112878923304378
1772568083708380400,2.90638037109375,-0.04395020088553429,-0.005381208981154486,-0.006111596481781453
1772568083718452500,2.916452392578125,-0.03572130172252655,-0.003130333914980292,0.0031239955057390033
1772568083728524500,2.926524658203125,-0.044697219860553736,-0.009269055865705013,0.0011582666570320724
1772568083738596600,2.9365966796875,-0.052178515526652335,-0.004078821145696565,-0.007074870289675891
1772568083748668700,2.946668701171875,-0.03661912734508514,-0.012388174266926944,0.004340422090794891
1772568083758741500,2.956741455078125,-0.04934007723033428,-0.0016660609155427664,-0.004084072709549218
1772568083768813600,2.9668134765625,-0.03781798174083233,0.0012268292480614035,-0.0050790020310319955
1772568083778885600,2.9768857421875,-0.047097266739606854,-0.0014990337855648249,0.003978219448588788
1772568083788957700,2.986957763671875,-0.045452422142028805,0.0009681417792569845,-0.0017614384482614695
1772568083799029500,2.997029541015625,-0.03601823884248733,-0.0034697950024157763,-0.007986158182006329
1772568083809101600,3.0071015625,-0.042753100055456156,-0.004891416170215234,-0.004445435101538896
1772568083819173600,3.017173583984375,-0.049182840842008586,-0.0005391849106177688,-0.00039785847747698423
1772568083829245400,3.027245361328125,-0.04274783935844898,-0.0012088917325716465,0.005493446317128837
1772568083839317500,3.0373173828125,-0.05187397962212562,0.002036264201113954,0.00013517068699002264
1772568083849389600,3.0473896484375,-0.0425900184482336,-0.004960371486889198,-0.0008563063020817935
1772568083859461600,3.057461669921875,-0.03959375924170017,-0.00476821904880926,-0.003856638895533979
1772568083869534500,3.067534423828125,-0.034058921468257904,0.0029828152030706404,-0.00030628947019577024
1772568083879606500,3.0776064453125,-0.03675415190160274,-0.010698084021825342,-0.000930522315762937
1772568083889678600,3.0876787109375,-0.0464765044927597,-0.0014087434199173002,-0.004387549168150872
1772568083899750400,3.09775048828125,-0.04243278205990791,-0.0021234218947589396,-0.0026067666986025867
1772568083909822500,3.107822509765625,-0.04692191017270088,-0.001940786203695461,0.0004986702371388673
1772568083919894500,3.11789453125,-0.05321311927139759,-0.003512300703581422,0.000009242752380669117
1772568083929966300,3.12796630859375,-0.05082300926446914,-0.00621888364800252,-0.0035918322131969034
1772568083940038700,3.13803857421875,-0.03660919047296047,-0.006226162772160023,0.003973324077762663
1772568083950110700,3.14811083984375,-0.04992752172946929,-0.0017591551596298812,0.0018505232375115154
1772568083960182800,3.158182861328125,-0.051579380589723584,-0.0021932174616493285,0.0031986499108374116
1772568083970254600,3.168254638671875,-0.03706862467825413,-0.015735228805663064,0.0035309871377423403
1772568083980327700,3.17832763671875,-0.040509705042839045,-0.0046891076643019915,0.004437032599374652
1772568083990399500,3.1883994140625,-0.0533738627910614,-0.006486192814679816,-0.00033489451017230747
1772568084000471600,3.198471435546875,-0.03796118960380554,0.004724672168027609,-0.0003773088797926903
1772568084010543600,3.208543701171875,-0.04604220472872257,0.0007277023531962186,-0.0019358816997148095
1772568084020615700,3.21861572265625,-0.04320318191051483,-0.0013245540014933793,0.009721092215832323
1772568084030687500,3.2286875,-0.0408124873816967,0.0010251143971923738,0.0020920221094973385
1772568084040759600,3.238759521484375,-0.047097266739606854,-0.009544128213729708,0.0019573080802336336
1772568084050831600,3.24883154296875,-0.045752281871438025,-0.0038437154818791895,-0.0004541735082864761
1772568084060903400,3.2589033203125,-0.04335866473317146,-0.004243747650133445,0.0005948971532285213
1772568084070975500,3.2689755859375,-0.042758945274353026,-0.0014051723564974963,0.0001762516160495579
1772568084081047600,3.279047607421875,-0.042459670066833495,-0.013178484394401311,0.00020586130302399394
1772568084091120400,3.289120361328125,-0.04200841916799545,-0.009229463640833274,-0.0037438079045154153
1772568084101192400,3.2991923828125,-0.04514905528128147,0.0008581237998325377,0.00890077054258436
1772568084111264500,3.309264404296875,-0.03826747907400131,-0.0037616358221508562,0.001969747436698526
1772568084121336600,3.319336669921875,-0.03512508939504623,-0.011901477595372125,-0.012869254048448055
1772568084131408400,3.329408447265625,-0.04126023114919662,0.0037973647226579484,-0.0012002426352351904
1772568084141480400,3.33948046875,-0.04380173232555389,-0.007563110464345663,0.0026231150452047584
1772568084151552800,3.349552734375,-0.039167058262228965,-0.008035066224494949,0.001135452037025243
1772568084161624600,3.35962451171875,-0.03467442301809787,-0.00835868128882721,0.0007969407976604997
1772568084171696600,3.369696533203125,-0.04080255050957202,0.00047064058589749033,-0.002103785612527281
1772568084181768700,3.379768798828125,-0.040054947012662885,-0.006006510405801236,0.001604896179679781
1772568084191840800,3.3898408203125,-0.05203121601045131,-0.006803095010435209,-0.006515172313991934
1772568084201912600,3.39991259765625,-0.04290332218110561,-0.007206798706809059,-0.0033550643152557313
1772568084211985700,3.409985595703125,-0.042756022664904594,0.0032472839586902406,0.014250406208541243
1772568084222057500,3.420057373046875,-0.05203296957612037,-0.008571794316545128,0.007682736522331833
1772568084232129500,3.430129638671875,-0.049186932495236396,-0.00420151594360359,0.006551138676516711
1772568084242201600,3.44020166015625,-0.04185585895478725,-0.008643955370457843,-0.0005048625159077346
1772568084252273700,3.450273681640625,-0.03302607128918171,-0.0037538817739579825,-0.002673310862481594
1772568084262345500,3.460345458984375,-0.046936523219943044,0.002464353420073166,0.005879029834922403
1772568084272417500,3.47041748046875,-0.044994156980514524,-0.0002647244839463383,0.002041954156383872
1772568084282489600,3.480489501953125,-0.04544423883557319,-0.004169842163706198,0.009629651072714478
1772568084292561400,3.4905615234375,-0.041403439012169835,-0.00759880283223465,0.0015690576813183724
1772568084302633500,3.500633544921875,-0.049782560300827026,0.0009389248179271817,0.00993230554740876
1772568084312705500,3.51070556640625,-0.04394727827608585,-0.0038678909419104456,0.010848561875801533
1772568084322772700,3.520772705078125,-0.04036065196096897,-0.00289977656211704,-0.0009681691787205636
1772568084332845000,3.530844970703125,-0.04320493547618389,0.0031249818864278493,-0.0005605930248275398
1772568084342916900,3.540916748046875,-0.03811491886079311,-0.005845319361565634,-0.0002614091488532722
1772568084352989000,3.550989013671875,-0.04005962318778038,-0.005002374864555895,0.004338467595726252
1772568084363061000,3.56106103515625,-0.04095744881033897,-0.007955872641596943,0.0016623619879595935
1772568084373133000,3.571133056640625,-0.05158347224295139,-0.008975762874400243,-0.00363393605556339
1772568084383204900,3.581204833984375,-0.042455578413605685,-0.004602625824091956,0.0010274616179056465
1772568084393277000,3.59127685546875,-0.04918576345145702,-0.003358416182966903,0.0027967545790597795
1772568084403349000,3.601348876953125,-0.048884150156378745,-0.014898860179912298,-0.00026725436775013804
1772568084413420800,3.6114208984375,-0.03960720324516296,-0.001955043057911098,-0.013574114382173865
1772568084423494000,3.621493896484375,-0.055472880896925925,-0.003872146991919726,-0.004293605540692806
1772568084433566000,3.63156591796875,-0.05024316354990005,0.001949846292985603,-0.0020111388930119573
1772568084443637800,3.6416376953125,-0.03797112647593021,-0.002719853417947888,-0.004511047683656216
1772568084453709800,3.651709716796875,-0.042758945274353026,-0.005983814516803249,-0.006126958447694778
1772568084463782000,3.661781982421875,-0.03991699984669685,-0.020672895270399748,-0.00808243989702314
1772568084473854000,3.67185400390625,-0.04007014458179474,-0.00952629116293974,-0.00504035052107647
1772568084483925800,3.68192578125,-0.049797757869958874,0.008081627046270296,-0.004979852505493909
1772568084493997800,3.691997802734375,-0.05293547137379646,-0.0010859046737197787,0.004264817837625742
1772568084504070000,3.70206982421875,-0.04171323561370373,-0.0066763176924549035,0.0019670988218858836
1772568084514141700,3.7121416015625,-0.034082302343845364,-0.006127661700593307,-0.0065963477914221585
1772568084524213800,3.7222138671875,-0.041862873217463493,-0.0070588142040185625,0.001061016827635467
1772568084534285800,3.732285888671875,-0.03392974213063717,-0.00677481876402162,0.005780976287927478
1772568084544359000,3.74235888671875,-0.041112931632995606,0.0031806849958840758,0.006226107973232865
1772568084554431000,3.752430908203125,-0.03737549867033958,-0.0025428072174545377,0.005541011785902082
1772568084564503000,3.7625029296875,-0.04725041147470474,0.005900109155569225,-0.0036840588076040145
1772568084574574800,3.772574951171875,-0.041865211305022236,0.001696693515824154,0.0020926248976960776
1772568084584647000,3.78264697265625,-0.04366495420336723,-0.004661808665422722,-0.004056198321934789
1772568084594719000,3.792718994140625,-0.036781039908528324,-0.0022080223051365463,-0.0016767010405659675
1772568084604791000,3.802791015625,-0.046211131554841994,-0.0021962496689520777,-0.003082677114661783
1772568084614862800,3.81286279296875,-0.03963233768641949,-0.004575765216629952,-0.0005688676628284156
1772568084624935000,3.822934814453125,-0.05115384865403175,-0.002025167418364435,-0.0011396532881073652
1772568084635007000,3.833007080078125,-0.051604515030980104,-0.0053167380433529615,-0.0037512422922998663
1772568084645079800,3.843079833984375,-0.04411854318976402,-0.006259507919335738,-0.007919650550745427
1772568084655151900,3.85315185546875,-0.03858370541632175,0.0025753669133409857,-0.0031352840847335755
1772568084665224000,3.863223876953125,-0.030654665982723234,-0.0031807580611202865,0.001893576927948743
1772568084675295700,3.873295654296875,-0.037840193572640415,0.00015872509251348672,-0.0073173190097324545
1772568084685367800,3.883367919921875,-0.049210897892713545,-0.00487046471373178,-0.0024934425172396003
1772568084695440000,3.89343994140625,-0.04082943851649761,-0.010415148027753457,0.0017540040604770183
1772568084705512000,3.903511962890625,-0.043371524214744564,-0.0019206841305829583,-0.0016202581455931067
1772568084715583700,3.913583740234375,-0.053548050314188,0.0010697481233626603,-0.0010665515192784369
1772568084725655800,3.92365576171875,-0.04411795866787433,-0.0018053780546877533,-0.0008297470887191593
1772568084735727900,3.933727783203125,-0.03544248478114605,-0.003080503423884511,-0.0040700624505057926
1772568084745799700,3.943799560546875,-0.052954760596156114,-0.01310826870240271,-0.000007215192075818777
1772568084755871700,3.953871826171875,-0.04562427157759666,-0.0017360665449872611,-0.0024616408731788397
1772568084765944800,3.96394482421875,-0.05490881727337837,-0.0007159571164753288,-0.008655417479388415
1772568084776017000,3.974016845703125,-0.05057575650513172,-0.0034610089077614244,0.0004268471099436283
1772568084786089000,3.9840888671875,-0.034715924072265626,0.0001771649315021932,-0.005617017897870391
1772568084796161000,3.9941611328125,-0.04444470640420913,-0.0006306717195082456,-0.0019628062392584977
1772568084806232800,4.00423291015625,-0.04953647658526897,-0.007410979509400203,0.0016476393428631127
1772568084816305000,4.014304931640625,-0.042055765441060065,-0.00761317841745913,-0.0019512071330100296
1772568084826377000,4.024376953125,-0.05207914680540562,0.001387463169870898,-0.004107965041790157
1772568084836449000,4.034448974609375,-0.052232876062393185,-0.004036342843994498,-0.0006306808526627719
1772568084846520800,4.044520751953125,-0.04654956972897052,-0.002972987928800285,-0.00415679088588804
1772568084856593000,4.054593017578125,-0.05103460618853569,-0.006899239728134125,-0.0020889168369583786
1772568084866665000,4.0646650390625,-0.05133388139605522,-0.010975795851508156,-0.00838838230734691
1772568084876736800,4.07473681640625,-0.04624854095578193,-0.0012827332869172095,-0.005183448786195367
1772568084886809900,4.084809814453125,-0.045052609169483185,-0.004662438853085041,0.0022752879882231352
1772568084896882000,4.0948818359375,-0.04789806172847748,-0.004670750023704022,-0.0005044241244904696
1772568084906953700,4.10495361328125,-0.048642742615938185,-0.011207129522506147,-0.0009961896968074143
1772568084917025800,4.11502587890625,-0.03802314892411232,-0.00003984795319847762,-0.002374072187580168
1772568084927097900,4.125097900390625,-0.048046530288457866,0.0017475560533814132,0.0032277298748493192
1772568084937169700,4.135169677734375,-0.051042204973101614,-0.0069587970288004725,-0.0026649083603173494
1772568084947241700,4.14524169921875,-0.04161620498001575,-0.00434693402997218,-0.0026838505228050052
1772568084957313800,4.155313720703125,-0.04715045823156833,-0.003717814946733415,-0.009637121993117033
1772568084967385900,4.1653857421875,-0.04041851962804794,-0.003351538917608559,-0.005933883561007678
1772568084977457700,4.175457763671875,-0.044159459722042084,-0.0006040942398365587,-0.010850425039324908
1772568084987529700,4.18552978515625,-0.034436522608995435,-0.002253770276159048,-0.0005085523103363812
1772568084997602800,4.195602783203125,-0.04490881678462028,0.0017003650439437479,-0.008197316714655607
1772568085007675000,4.2056748046875,-0.05000234053134918,-0.007705085351457819,0.0016325148389674722
1772568085017747000,4.215746826171875,-0.045516135028004646,-0.004098731422564015,0.0005016293792054056
1772568085027819000,4.225819091796875,-0.04641162256300449,-0.004684413222875446,-0.0034655937513336536
1772568085037890800,4.235890869140625,-0.04835340428054333,-0.01085522907860577,0.0026287410683929918
1772568085047963000,4.245962890625,-0.04087386218011379,-0.0017206954459194092,-0.006573825432360172
1772568085058035000,4.256034912109375,-0.05479074385166168,-0.0033287242976017296,0.00253982067592442
1772568085068107000,4.26610693359375,-0.04775894551873207,0.0026428700584452598,-0.0021413046113215387
1772568085078178800,4.2761787109375,-0.05524257927238941,-0.0058953325157519425,-0.008489632458426058
1772568085088251000,4.2862509765625,-0.055989598247408866,-0.011074991042818873,-0.002892086446005851
1772568085098323000,4.296322998046875,-0.05449439125359058,-0.007820437093125656,0.0030521358459256586
1772568085108394800,4.306394775390625,-0.054043724876642225,-0.008281414801534265,-0.00723236240632832
1772568085118467800,4.3164677734375,-0.05225158076286315,-0.005191924353595822,0.0007286796007305383
1772568085128540000,4.326539794921875,-0.06063304013907909,-0.00300698152994737,0.0021359525827690956
1772568085138611700,4.33661181640625,-0.05569733730256557,0.006055564578762278,-0.0009043832275085151
1772568085148683800,4.346683837890625,-0.046267830178141595,-0.00289454326457344,0.0031824476947076618
1772568085158755800,4.356755859375,-0.0408779538333416,-0.00932996487324126,0.0031381884278729555
1772568085168827600,4.36682763671875,-0.03653670975863933,0.0003566588174086064,-0.0017680325858294964
1772568085178899700,4.376899658203125,-0.04790741407871246,-0.004894521442754194,-0.006182816820777952
1772568085188971800,4.3869716796875,-0.035785014608502384,0.006748643143149093,-0.004188428133167326
1772568085199043800,4.3970439453125,-0.055388709744811054,0.0008817421374376863,0.0017454188952222465
1772568085209115600,4.40711572265625,-0.05179506916701793,0.003946171209355816,-0.007426624603103846
1772568085219187700,4.417187744140625,-0.04475917918086052,-0.0046991267348174,0.0018075791449286042
1772568085229260000,4.427260009765625,-0.049397360375523565,0.004179194513941184,0.0030000220661982892
1772568085239332900,4.437332763671875,-0.04595686453282833,-0.0020169841119088232,0.0020369491877034306
1772568085249405000,4.447405029296875,-0.04775193125605583,-0.005458146674884483,-0.004668156207818537
1772568085259477000,4.45747705078125,-0.05164017086625099,-0.00297730791089125,-0.00833977565895766
1772568085269548800,4.467548828125,-0.045209261035919185,-0.0033849662631750105,-0.0017619133722968398
1772568085279620900,4.477620849609375,-0.04700432775914669,0.004847750558424741,-0.0013369294258765876
1772568085289693000,4.48769287109375,-0.05044190099239349,0.002447155690100044,-0.0006041764382272958
1772568085299765000,4.497764892578125,-0.04400456142127514,-0.008550925058452412,-0.0005263071627356112
1772568085309836800,4.5078369140625,-0.038466801038384436,-0.0024439134202431886,-0.002440799014549702
1772568085319908900,4.517908935546875,-0.04101648552119732,0.00121441729106009,-0.0035171960744075476
1772568085329981000,4.52798095703125,-0.04325695792436599,-0.009131547091156244,0.004549699193611741
1772568085340052700,4.538052734375,-0.0493868389815092,-0.003369001509062946,-0.0018363303153775632
1772568085350124800,4.548124755859375,-0.04698854566812515,-0.003133256524428725,-0.0006057290744967759
1772568085360196900,4.55819677734375,-0.04833119244873523,-0.012057170480582862,-0.0025589820341207084
1772568085370269700,4.568269775390625,-0.05775894600749015,0.0011336710718926042,-0.007954593999963254
1772568085380341800,4.578341796875,-0.03621054654419422,-0.0020857932981103657,-0.0020724040935747325
1772568085390413800,4.588413818359375,-0.04967734636068344,-0.00532452862416394,0.0018507059006020426
1772568085400485600,4.598485595703125,-0.04772796585857868,-0.006958459102082997,-0.0011441285338252782
1772568085410557700,4.6085576171875,-0.04577858535647392,-0.00939730362156406,0.005020659439917654
1772568085420629800,4.618629638671875,-0.04712357022464275,-0.008124068815354258,-0.006717800480313599
1772568085430701800,4.628701904296875,-0.044129649105668065,-0.00793131358907558,-0.0030804303586483
1772568085440773600,4.638773681640625,-0.04128536559045314,0.0038576161430682984,-0.002757682943996042
1772568085450845700,4.648845703125,-0.04712298570275306,-0.0015582257600501178,-0.004573335797525942
1772568085460917800,4.658917724609375,-0.05670213043093681,-0.014795472870673983,-0.0023923932955600318
1772568085470989800,4.66898974609375,-0.053415363845229144,-0.010981924198195337,-0.002693495133984834
1772568085481061600,4.6790615234375,-0.04503624255657196,-0.010155355447251348,0.002736183498241007
1772568085491135000,4.689135009765625,-0.04937982471883297,0.000039510026481002564,0.009919135538581758
1772568085501206800,4.699206787109375,-0.04204758213460445,0.002896899618441239,-0.004285203038528561
1772568085511278800,4.70927880859375,-0.04833294601440429,-0.003486335145263001,-0.002338379819691181
1772568085521351000,4.719350830078125,-0.04503799612224102,0.006875831453083083,0.0060039531225338574
1772568085531423000,4.729423095703125,-0.034407296514511104,0.0032231541644316165,-0.0021027079002931713
1772568085541494800,4.739494873046875,-0.04323533061444759,0.002645619137957692,-0.010739475478138773
1772568085551566800,4.74956689453125,-0.04757248303592205,-0.004045475998520851,-0.0015328355904668568
1772568085561639000,4.759638916015625,-0.051469490474462504,0.002315683930693194,0.00848862781142816
1772568085571710700,4.769710693359375,-0.0406990901350975,-0.0043583596062846475,-0.005229772145953029
1772568085581782800,4.77978271484375,-0.04893091190755367,0.0002475176208186895,0.006551303073298186
1772568085591854800,4.789854736328125,-0.0489338345170021,0.0004881397099699825,-0.0032425438514910635
1772568085601927000,4.799927001953125,-0.04878244334757328,-0.008012991390004753,-0.0035047201853245493
1772568085611998700,4.809998779296875,-0.051775779944658276,-0.004413286397606134,-0.0057709480842575425
1772568085622071800,4.82007177734375,-0.03860416368246078,-0.007255213558953255,0.004362031134404242
1772568085632143600,4.8301435546875,-0.03920972836017608,-0.006688026396557688,0.0010191869799047709
1772568085642215700,4.840215576171875,-0.04355155695676803,0.006310059929639101,-0.002468673402164131
1772568085652287700,4.850287841796875,-0.042352118039131165,0.0073769311093259595,-0.005074800779949874
1772568085662359800,4.86035986328125,-0.03876198459267616,0.001693332514958456,-0.00033542423313483595
1772568085672431600,4.870431640625,-0.04908814829587936,-0.0023778898461721838,-0.0020297705282457173
1772568085682503700,4.880503662109375,-0.05043488672971725,0.0031192919311579313,0.003656604545097798
1772568085692575700,4.89057568359375,-0.04160334549844265,-0.0038988432026002555,-0.004631002535205334
1772568085702647800,4.900647705078125,-0.055368251478672026,-0.010736735531780868,-0.00919173457948491
1772568085712720000,4.910719970703125,-0.05342530071735382,0.0038094570192508397,0.0018141367498785256
1772568085722792000,4.9207919921875,-0.052980479559302324,-0.006043426616396755,0.004370031777769327
1772568085732864000,4.930864013671875,-0.04459960470497608,-0.0016905012370552867,0.003659143562056124
1772568085742935800,4.940935791015625,-0.059117374879121776,0.004482871901942417,-0.001507061828393489
1772568085753009000,4.9510087890625,-0.04744739535152912,0.00020278342994861303,0.00039941111374646425
1772568085763081000,4.9610810546875,-0.053879474225640295,0.00581362731535919,0.0028856749715283512
1772568085773152800,4.97115283203125,-0.047889878422021866,-0.0037075584142003204,0.0018058255792595445
1772568085783224800,4.981224853515625,-0.04938742350339889,-0.010009151909593492,-0.001418104903306812
1772568085793297000,4.991296875,-0.04220306495726108,-0.002438616190617904,-0.0036607327309437095
1772568085803368700,5.00136865234375,-0.04624444930255413,-0.0025076811051461846,0.0033131431359797714
1772568085813440800,5.011440673828125,-0.04849310501217842,0.005811252695182338,0.0019873378923162817
1772568085823512800,5.021512939453125,-0.05103869784176349,0.0124523438106291,0.0038893173224292693
1772568085833585000,5.0315849609375,-0.03952010948359966,-0.002779419851768762,-0.001761785508133471
1772568085843656700,5.04165673828125,-0.032338673546910286,0.0016208792001008987,-0.002714483123086393
1772568085853728800,5.051728759765625,-0.04506020795404911,-0.0021560820553451774,-0.005173621511925012
1772568085863800800,5.06180078125,-0.044908232262730594,-0.0011335797403473407,-0.0014511851890012621
1772568085873872600,5.07187255859375,-0.03877367503046989,0.0019596461677923796,-0.002344097174424678
1772568085883944700,5.08194482421875,-0.03757774324417114,0.009924496700288728,-0.003625241292454302
1772568085894017800,5.092017822265625,-0.05224690458774566,0.001423411266086623,-0.0016747830781154334
1772568085904089900,5.10208984375,-0.05464636694490909,0.0013681739475112408,-0.000045848435722291464
1772568085914162000,5.112161865234375,-0.052848962134122844,-0.000004073386918753385,-0.006420717229880392
1772568085924234000,5.12223388671875,-0.03758651107251644,-0.008689968202961609,-0.006740140176285058
1772568085934305800,5.132305908203125,-0.054796004548668856,-0.00408857535473071,0.004283138945605606
1772568085944377900,5.1423779296875,-0.057040568605065345,0.006427950688265263,-0.003527589604258537
1772568085954450000,5.152449951171875,-0.04881342300772667,0.00825610683034174,-0.002421454993262887
1772568085964522000,5.16252197265625,-0.05001110835969448,-0.004441133385756984,-0.0018342114235274493
1772568085974593800,5.17259375,-0.049859132668375966,-0.01395293936561793,-0.005493117523565888
1772568085984665900,5.182665771484375,-0.05330313564240932,-0.008597385415527969,-0.0057693954479880625
1772568085994738000,5.192738037109375,-0.04387596660554409,0.0028290859460830685,-0.001702255606930703
1772568086004810000,5.20281005859375,-0.051958735296130175,-0.0005656436592806131,0.0014042955736629664
1772568086014881800,5.2128818359375,-0.05464870503246784,-0.011384961174288765,-0.0019205014674924313
1772568086024953900,5.222953857421875,-0.04177753302156925,-0.003095472664153203,0.0008178739878349006
1772568086035026700,5.233026611328125,-0.052853053787350654,0.00039438787875697013,-0.001033142440021038
1772568086045098800,5.2430986328125,-0.050313890698552126,-0.0017313447040971368,-0.0025645897909998892
1772568086055170800,5.2531708984375,-0.047915012863278386,0.0017159370724111795,0.002835296491160989
1772568086065243000,5.263242919921875,-0.05285889900624752,-0.004958891915855929,-0.0036257710154168304
1772568086075314700,5.273314697265625,-0.04926642747223377,-0.008109967224765568,-0.0012047544135712087
1772568086085386800,5.28338671875,-0.05270984592437744,-0.009368086660234257,-0.0038232663488946854
1772568086095458800,5.293458740234375,-0.04986731597483158,-0.005310463566193357,-0.006985474973171949
1772568086105530600,5.303530517578125,-0.05061842660307884,-0.00007356755970977246,-0.0037919761614874
1772568086115602700,5.313602783203125,-0.05316285038888454,-0.0007022573846857995,0.0033680881936103105
1772568086125674800,5.3236748046875,-0.0450736519575119,0.003369887425052002,0.002791767876688391
1772568086135746800,5.333746826171875,-0.0498620552778244,0.00893745842431672,-0.00424711778415367
1772568086145818600,5.343818603515625,-0.05375087940990925,-0.002140016836533323,0.0025607721324078735
1772568086155890700,5.353890625,-0.05270224713981151,0.0018065379653126,-0.0037184725338593122
1772568086165962800,5.363962646484375,-0.05016016144156456,0.007313702280540019,-0.002697641586139798
1772568086176034800,5.374034912109375,-0.03923544732332229,-0.003000478723924607,-0.0017502412008121608
1772568086186108000,5.38410791015625,-0.04522328956127167,-0.0014575783971697092,-0.007219703854154795
1772568086196180000,5.394179931640625,-0.04926292034089565,-0.0014270279952790588,-0.00408314112778753
1772568086206251800,5.404251708984375,-0.04656944347321987,-0.0031789131639059632,0.004755414366163313
1772568086216323800,5.41432373046875,-0.050907764938473696,-0.002258583448594436,0.0015206519623287022
1772568086226396000,5.42439599609375,-0.035195232021808624,-0.004033301503537223,-0.006542918837442993
1772568086236467700,5.4344677734375,-0.049260582253336904,0.001230802170280367,-0.011602357651479541
1772568086246539800,5.444539794921875,-0.057935471618175506,-0.003816653945017606,-0.004413432528078556
1772568086256611800,5.45461181640625,-0.0511994413614273,-0.0033238380599301307,0.0001805989976041019
1772568086266684000,5.464683837890625,-0.042670097947120664,0.0027268676806241274,0.007220745033770799
1772568086276755700,5.474755615234375,-0.04985094936192035,0.0013011365932878106,-0.006752122875023633
1772568086286827800,5.484827880859375,-0.04087736931145191,-0.0015647924981545655,-0.0034863990773446856
1772568086296899800,5.49489990234375,-0.034442367827892305,-0.007386804049368948,-0.00556678554797545
1772568086306972000,5.504971923828125,-0.050451253342628476,-0.005467480758810416,0.0038250564471818504
1772568086317043700,5.515043701171875,-0.04387187495231628,0.0011384933774825185,-0.0026136896297335624
1772568086327120400,5.525120361328125,-0.05105740254223346,0.0002687065393198281,-0.0046373226781375705
1772568086337193200,5.535193115234375,-0.050910687547922134,-0.006265024344669655,0.001511464008875191
1772568086347265300,5.545265380859375,-0.043729836133122445,-0.001647155285673216,0.0012820939661003648
1772568086357337300,5.55533740234375,-0.05839549034535885,0.007989464383944869,-0.004010386418830603
1772568086367409200,5.5654091796875,-0.04762041383087635,0.005368331233272329,0.000799717276636511
1772568086377481200,5.575481201171875,-0.05988894377350807,0.0007783365618903189,-0.0020146094917319712
1772568086387553300,5.58555322265625,-0.04447627058625221,0.004383466648077592,-0.005744662865530699
1772568086397625000,5.595625,-0.04552431833446026,-0.007409426873130723,-0.0011266842086799442
1772568086407697200,5.605697265625,-0.04597264662384987,-0.0022430753522086886,0.0000288425019942224
1772568086417769200,5.615769287109375,-0.04897065939605236,0.0016096636863425374,-0.005096318492013961
1772568086427841300,5.62584130859375,-0.05286123709380627,-0.008569456228986382,-0.0004614252329804003
1772568086437913000,5.6359130859375,-0.04971475576162338,0.003951888564089313,-0.006480776854045689
1772568086447985200,5.645985107421875,-0.04492635244131088,-0.004373155316617339,-0.0037208106214180587
1772568086458057200,5.65605712890625,-0.045675124981999396,-0.0032434480337891728,-0.011199366341158748
1772568086468129300,5.66612939453125,-0.048070495685935015,-0.004227390170376748,-0.008088723507337272
1772568086478201000,5.676201171875,-0.04477554579377174,-0.007632832965999841,0.006046586687862873
1772568086488273200,5.686273193359375,-0.053453357768058776,0.004758364375075325,0.006535685379058122
1772568086498346000,5.696345947265625,-0.054502574560046195,-0.005666145136067643,0.0028886889125220474
1772568086508418000,5.70641796875,-0.04627659800648689,-0.0015280224180314688,-0.008480700233299285
1772568086518490000,5.716489990234375,-0.04403378751575947,-0.004856436188379302,-0.012432871925178914
1772568086528562200,5.726562255859375,-0.04104395805001258,-0.00017295454726554452,-0.0004026442504487931
1772568086538634200,5.73663427734375,-0.04134147969186306,0.0033191710179671643,0.0032079291958361862
1772568086548706300,5.746706298828125,-0.04028641768097877,-0.001336783295404166,-0.0022179135114885865
1772568086558778400,5.7567783203125,-0.042830841466784474,0.005140139367431402,-0.0024214367269538343
1772568086568850200,5.76685009765625,-0.03803659292757511,0.0006992251773830502,0.0009111965607851743
1772568086578922200,5.776922119140625,-0.042674774122238156,-0.0018001812897622583,0.0018365495110861955
1772568086588994300,5.786994384765625,-0.047907998600602145,-0.0037351862066425383,0.004865706340223551
1772568086599066400,5.79706640625,-0.051502223700284955,-0.0008658595817163586,-0.006102390262018888
1772568086609138200,5.80713818359375,-0.0559966125100851,0.005110136954812333,0.004661361140850931
1772568086619210200,5.817210205078125,-0.04357376878857613,0.0036000429191160943,-0.002831058707460761
1772568086629282300,5.8272822265625,-0.04506722221672535,-0.000198098121676594,-0.002594327342137694
1772568086639354000,5.83735400390625,-0.046266661134362216,-0.005467060633702204,-0.002834529306180775
1772568086649426200,5.84742626953125,-0.052101358637213706,0.0024488087910693136,-0.0009921163098886609
1772568086659498200,5.857498291015625,-0.050153731700778005,-0.004483803483704105,-0.0025677133298479017
1772568086669571000,5.867571044921875,-0.04686170441806316,0.001705908868741244,-0.007346526837907731
1772568086679643100,5.87764306640625,-0.057333998593688006,0.001495882847253233,0.0009385960243642329
1772568086689715200,5.887715087890625,-0.048806993266940116,-0.001747400789754465,0.007719561401382088
1772568086699787300,5.897787353515625,-0.0458142411917448,-0.010686165255168452,-0.0030359518961049613
1772568086709859000,5.907859130859375,-0.04895195469558239,-0.003225857578171417,-0.004971888394746929
1772568086719931100,5.91793115234375,-0.037725627282261844,-0.0011181995081249623,-0.0020190664711408316
1772568086730003200,5.928003173828125,-0.049850364840030664,0.0025300482005812227,-0.0025767186202108857
1772568086740075000,5.938074951171875,-0.04222352322340012,0.0033846100701484826,-0.004854253364447504
1772568086750147000,5.94814697265625,-0.05389817892611026,-0.004657178156077861,-0.0029911811726167797
1772568086760219100,5.95821923828125,-0.03683832305371761,-0.006732139532919973,-0.004703866842016577
1772568086770291200,5.968291259765625,-0.042671851512789724,-0.0014449381113052367,-0.001072195808775723
1772568086780363000,5.978363037109375,-0.05479191289544105,-0.0024590013915207235,0.00016472557503730058
1772568086790435000,5.98843505859375,-0.038927404287457466,-0.006998672381462529,-0.004341846862901002
1772568086800507100,5.998507080078125,-0.05629062702059746,-0.00021966149951331316,0.0014655425079166888
1772568086810579200,6.0085791015625,-0.049260582253336904,0.003695456984452903,-0.0016141571983695029
1772568086820651300,6.0186513671875,-0.044478608673810954,-0.0011191950219683348,0.007436835469864308
1772568086830723300,6.028723388671875,-0.050319735917448996,-0.006791057512769475,0.0014230916056782005
1772568086840795400,6.03879541015625,-0.044184009641408915,0.0005951620147097856,-0.009625924745667725
1772568086850868200,6.0488681640625,-0.051665305307507514,-0.0019885069360956547,0.007109868537820876
1772568086860940300,6.058940185546875,-0.055853989169001576,0.002263871545065194,0.0024721805335022507
1772568086871012000,6.06901220703125,-0.04223930531442165,0.006314261180721223,-0.0040406354266218835
1772568086881084200,6.079084228515625,-0.0542103136152029,0.008643626576894894,-0.0035564321062527596
1772568086891156200,6.08915625,-0.041191842088103295,0.004092612209031358,-0.0029798925936222074
1772568086901228300,6.099228271484375,-0.04523439547717571,-0.0026133882356341926,0.0002329502393491566
1772568086911300000,6.109300048828125,-0.05555880561470985,0.003248270339379087,-0.009765515879448503
1772568086921372200,6.1193720703125,-0.04732523027658462,-0.005076545212464407,0.002056969062425196
1772568086931444200,6.1294443359375,-0.04552899450957775,-0.008569775889394804,0.0006013268940150738
1772568086941516300,6.139516357421875,-0.04627367539703846,0.0020953374445904045,-0.011080178674589842
1772568086951588000,6.149588134765625,-0.04628010513782501,0.00249219127506949,0.0015820450270548462
1772568086961660200,6.15966015625,-0.04119359565377235,-0.004939566160878166,-0.0110501853951253
1772568086971732200,6.169732177734375,-0.052561961886286736,-0.004977888877270743,-0.006430672368314117
1772568086981804000,6.179803955078125,-0.05256605353951454,0.0007238481619860976,-0.00552371359122917
1772568086991876000,6.1898759765625,-0.04239654170274734,0.004998274078173563,0.00417562345052138
1772568087001948200,6.1999482421875,-0.03880582373440265,-0.0017552735689561813,-0.012125029818713664
1772568087012020200,6.210020263671875,-0.049882513543963426,0.007949534232355653,0.0018207674200646578
1772568087022092000,6.220092041015625,-0.05527297441065311,-0.002077573459036648,0.005542783617880195
1772568087032165400,6.230165283203125,-0.05856792430281639,-0.007647299882769585,-0.00773726145485416
1772568087042237200,6.2402373046875,-0.047943069913983345,-0.0015446447592694311,-0.009076729897689075
1772568087052309200,6.250309326171875,-0.049286301216483114,-0.002253468882059678,-0.0038526203075423832
1772568087062381300,6.26038134765625,-0.059313189712166786,-0.005637384832464158,-0.006112217536289244
1772568087072453400,6.270453369140625,-0.054227849271893495,-0.006657393796276301,0.0013977379687130451
1772568087082525200,6.280525146484375,-0.03731763100326061,0.0015707747143693268,0.006231514800712466
1772568087092597200,6.29059716796875,-0.04150689938664436,0.002997272986685857,-0.0005092646963894367
1772568087102669300,6.30066943359375,-0.041209962266683574,-0.01111003495673649,0.000288242356851697
1772568087112741000,6.3107412109375,-0.045403322303295135,-0.005494889355544001,-0.001739482344780117
1772568087122813200,6.320813232421875,-0.04824760581851005,0.0007086049270816146,-0.003862630244903266
1772568087132885200,6.33088525390625,-0.043012627774477,0.006259571851417422,-0.004390362179744988
1772568087142957300,6.340957275390625,-0.04481003258526325,0.005489409462828189,-0.0019097974103875457
1772568087153029000,6.351029052734375,-0.05079962838888168,-0.000426554848998785,0.00291267257630825
1772568087163101200,6.36110107421875,-0.046612698093056674,0.0036032577895093705,-0.0041924467211589215
1772568087173173200,6.37117333984375,-0.06427402698993682,-0.001882863737689331,-0.00625341610526666
1772568087183245000,6.3812451171875,-0.05289981553852558,-0.00007301957043819128,-0.005445953913591802
1772568087193317000,6.391317138671875,-0.03882862008810043,-0.0031337040490005165,-0.001852295069489628
1772568087203389200,6.40138916015625,-0.04316694155335426,-0.005756243705470115,-0.002683320799842477
1772568087213462000,6.4114619140625,-0.05543430245220661,-0.003059332771692425,-0.00601726926183328
1772568087223534000,6.4215341796875,-0.0578267505466938,0.004186236176081002,-0.010122859683446585
1772568087233606100,6.431606201171875,-0.04870119480490684,0.002317209167499095,-0.009146452399343252
1772568087243678200,6.44167822265625,-0.04631050027608871,0.00005810512909665704,-0.0022358327606692907
1772568087253750000,6.45175,-0.03598433657288551,-0.0010442300896160305,-0.002958521012030542
1772568087263822000,6.461822021484375,-0.057685296249389645,0.0028599377420730886,-0.006260850493051111
1772568087273894100,6.47189404296875,-0.05095101955831051,0.0019527506361249833,-0.006396349973604083
1772568087283966200,6.48196630859375,-0.04347498458921909,0.0005664291105698793,-0.006572017067763954
1772568087294038300,6.492038330078125,-0.053498950475454325,0.0005213752592913806,-0.005175740403775125
1772568087304110300,6.5021103515625,-0.04616612336933613,-0.000461754026543349,-0.005871942507009953
1772568087314182400,6.512182373046875,-0.05319675265848636,-0.008104733927221969,-0.008458031743764877
1772568087324250000,6.52225,-0.04810790508687496,-0.00305491232490167,-0.003448003295715898
1772568087334322200,6.532322265625,-0.04975684133768082,-0.0008455839786678552,-0.006245196266192942
1772568087344394200,6.542394287109375,-0.049154783791303634,-0.006418680536421016,-0.005733648281171917
1772568087354466300,6.55246630859375,-0.045865094596147536,0.004845357671938836,-0.014070866656862198
1772568087364538000,6.5625380859375,-0.040327334213256835,0.0049161944184452295,-0.006423950366582721
1772568087374610400,6.5726103515625,-0.04287526513040066,-0.00003737286832183599,0.0052468876775354145
1772568087384682500,6.5826826171875,-0.05200023635029793,-0.008161067224340512,-0.010472659501805901
1772568087394754300,6.59275439453125,-0.04766133036315441,0.003403954091435298,-0.0015045593440532684
1772568087404826400,6.602826416015625,-0.047507601106166836,0.0018272519597783683,-0.00827078380966559
1772568087414898400,6.6128984375,-0.044507250246405596,0.00539372140285559,-0.006120839234162121
1772568087424971300,6.62297119140625,-0.0510907202899456,-0.0013793711949605493,-0.01150088830469176
1772568087435043300,6.633043212890625,-0.05078852247297763,0.0013439345553983002,-0.0034457565397024155
1772568087445115400,6.643115478515625,-0.047343350455164905,-0.0016621793248690663,-0.002884195400495082
1772568087455187200,6.653187255859375,-0.04809095395207405,0.0016745730155613273,-0.012280658771842718
1772568087465259300,6.66325927734375,-0.04030921403467655,-0.0009879424582701175,-0.009851805923413485
1772568087475331300,6.673331298828125,-0.05018763397037983,-0.004323982412647456,-0.0032160577033646404
1772568087485403400,6.6834033203125,-0.05647299785017967,0.00030321159712038933,-0.001994187758211046
1772568087495475200,6.69347509765625,-0.0507855998635292,0.006900582301849499,-0.003310257059149444
1772568087505547300,6.70354736328125,-0.05467267042994499,0.005751841524988413,0.001911879769619554
1772568087515619300,6.713619384765625,-0.04120236348211765,-0.006612650472251698,0.0014080401670187712
1772568087525691400,6.72369140625,-0.0474830511868,0.0063801934232469645,-0.005951656679715961
1772568087535763200,6.73376318359375,-0.05421148265898228,-0.00463597097126767,-0.0033481413841247557
1772568087545835300,6.743835205078125,-0.05106500132679939,0.002939953308878466,-0.010558164094481617
1772568087555907300,6.7539072265625,-0.04103635926544666,-0.005844040719931945,-0.006849555367510765
1772568087565979100,6.763979248046875,-0.038346389529109,0.006803524268697947,-0.0066610470580868416
1772568087576051200,6.77405126953125,-0.055552375873923296,0.005052963407477364,-0.002818272291123867
1772568087586123300,6.784123291015625,-0.043728667089343067,0.002685731952637434,-0.0043673648966476315
1772568087596195300,6.7941953125,-0.049560441982746124,-0.0015885569662321358,-0.005417312340997159
1772568087606267100,6.80426708984375,-0.046566520863771436,-0.0023755517586134373,0.0015018559303134678
1772568087616339200,6.814339111328125,-0.04641746778190136,-0.0035368688892573118,0.004138597642071545
1772568087626411300,6.824411376953125,-0.0377449165046215,0.009759478864306583,0.0032137378821149466
1772568087636483300,6.8344833984375,-0.03744856390655041,-0.0032838987751863894,0.004887881639413535
1772568087646555400,6.844555419921875,-0.048076340904831885,-0.0008278382594231516,-0.005236658544465899
1772568087656628500,6.85462841796875,-0.05646189193427562,0.0008382317892741411,-0.007229330199025571
1772568087666700300,6.8647001953125,-0.04868482819199562,0.0044634822148829694,-0.0019844518154859543
1772568087676772400,6.8747724609375,-0.0392611662864685,0.002635554401669651,-0.008850940051488577
1772568087686844400,6.884844482421875,-0.05751870751082897,-0.005584558666683733,-0.0012665310707874594
1772568087696916200,6.894916259765625,-0.04001636856794357,0.00841910623917356,0.005002849788591265
1772568087706988300,6.90498828125,-0.03911678937971592,-0.002132180589949712,-0.00392860815320164
1772568087717060400,6.915060302734375,-0.0483937362909317,-0.00015668839905411003,-0.00454827442150563
1772568087727132400,6.92513232421875,-0.0519838697373867,-0.00397613708935678,-0.0022819551910273727
1772568087737204200,6.935204345703125,-0.04644961648583412,0.00015740991826169193,-0.006723152508866042
1772568087747276300,6.9452763671875,-0.04689677573144436,-0.0033297106782905757,-0.00711050785863772
1772568087757348400,6.955348388671875,-0.054226680228114124,0.0006557787613011896,-0.005259089571982622
1772568087767420400,6.96542041015625,-0.05751812298893928,-0.006481206112308427,-0.0003355886299163103
1772568087777492200,6.9754921875,-0.05931202066838741,-0.0008816873385105281,0.0010455635301768779
1772568087787564300,6.985564208984375,-0.05392506693303585,-0.011964505494758486,-0.007034026822634041
1772568087797636400,6.99563623046875,-0.05571954913437366,-0.000594166500866413,0.003183927265740931
1772568087807708200,7.005708251953125,-0.047640872097015376,0.005727136341994628,-0.009576222118735312
1772568087817780200,7.0157802734375,-0.0477881716132164,-0.0019206384648103266,-0.004269859338924289
1772568087827852300,7.025852294921875,-0.03402326563298702,-0.00032969774524681266,0.0011933197041042148
1772568087837924400,7.03592431640625,-0.04344751206040382,0.0026244393526110798,-0.005152523924969136
1772568087847996200,7.04599609375,-0.051072600111365316,0.004330110759334638,-0.0019193141574040055
1772568087858068200,7.056068115234375,-0.051372459840774536,0.0073279317352920766,-0.002124207346048206
1772568087868140300,7.066140380859375,-0.042543256697058676,0.0040320137287490065,-0.007800645547267049
1772568087878212000,7.076212158203125,-0.042994507595896715,0.007853343848884106,0.0005310198704712093
1772568087888284200,7.0862841796875,-0.042994507595896715,-0.00033438305351883173,0.0053740394548513
1772568087898357500,7.096357421875,-0.05227320807278156,0.0005403904870152473,-0.0010808175066486
1772568087908429300,7.10642919921875,-0.04703939907252788,0.0024681345460470763,-0.001802501111011952
1772568087918501400,7.11650146484375,-0.042401217877864834,0.0015639796474017202,-0.005561707514058798
1772568087928573400,7.126573486328125,-0.0392570746332407,-0.00006353022288531064,-0.008338734479341655
1772568087938645200,7.136645263671875,-0.051827217870950695,0.003022745354659855,-0.00253070578770712
1772568087948717300,7.14671728515625,-0.045541853991150856,-0.0024133538851980117,-0.005069613148178905
1772568087958789400,7.156789306640625,-0.03821078045070171,-0.0005416873949579894,-0.0013873261725530028
1772568087968861400,7.166861328125,-0.04809563012719154,-0.00007137560262344777,-0.00722702864408493
1772568087978933200,7.176933349609375,-0.046451954573392865,0.004296747345849871,-0.00954325143089518
1772568087989005300,7.18700537109375,-0.034031448939442634,-0.011419667161488905,-0.006422744790185242
1772568087999077400,7.197077392578125,-0.03297930953800678,-0.003898322612792253,-0.0031519246922805905
1772568088009149400,7.2071494140625,-0.035817163312435146,0.007888223366020247,-0.005126841494441032
1772568088019221200,7.21722119140625,-0.05108019889593124,0.0014303341972175985,-0.00367255103290081
1772568088029293300,7.227293212890625,-0.046586979129910465,0.00027723690564744174,0.0009617029053159057
1772568088039365400,7.237365478515625,-0.037462592431902884,0.0004215681466273963,-0.010970233760401606
1772568088049437200,7.247437255859375,-0.03955634984076023,0.004356962233642116,-0.0035990474052727222
1772568088059509200,7.25750927734375,-0.038061727368831635,0.0025109142418485134,-0.009004815438948571
1772568088069581300,7.267581298828125,-0.05422025048732757,-0.009078848789539188,-0.004454823984391987
1772568088079653400,7.2776533203125,-0.05466390260159969,0.001005633378587663,-0.009546813361160457
1772568088089725200,7.28772509765625,-0.03521218315660953,-0.007320524746971205,-0.002689513078611344
1772568088099797200,7.29779736328125,-0.03730710960924625,-0.0030279055869672448,-0.000589636456221342
1772568088109869300,7.307869384765625,-0.05226853189766407,0.003992987759457901,-0.005757759809121489
1772568088119941000,7.317941162109375,-0.045533086162805554,-0.0006523812278173863,-0.00271466578617692
1772568088130013200,7.32801318359375,-0.053013797307014464,0.008456935765221715,-0.0008375102700665593
1772568088140085200,7.338085205078125,-0.055256023275852204,0.008149559449637309,-0.00014777444023638962
1772568088150157300,7.3481572265625,-0.04897007487416267,-0.005174918419867754,-0.0021070918144658205
1772568088160229000,7.35822900390625,-0.05226502476632595,-0.003308028569445014,0.003956592138670384
1772568088170301200,7.36830126953125,-0.040000001955032345,-0.0033585531802847977,-0.004886676063016056
1772568088180374300,7.378374267578125,-0.03596329378485679,-0.004480780409555882,-0.0018346863475628195
1772568088190446300,7.3884462890625,-0.03835691092312336,0.004891397903906181,0.004453581875376403
1772568088200518400,7.398518310546875,-0.03820376618802547,0.0015111169490031897,-0.0017386420945636927
1772568088210590500,7.408590576171875,-0.03386310663521289,0.001544434696715325,-0.0008314458554610609
1772568088220662300,7.418662353515625,-0.044485622936487196,-0.004081926418235525,-0.0008075900558382272
1772568088230734300,7.428734375,-0.05465630381703376,-0.0020534710642416028,-0.001413264331407845
1772568088240806400,7.438806396484375,-0.04403261847198009,-0.0012142346279695629,-0.0020372231823392213
1772568088250878200,7.448878173828125,-0.03999123412668705,-0.0036911735349800436,-0.0069528878778219215
1772568088260950300,7.4589501953125,-0.037594109857082364,0.0030972170966677365,-0.0002539016958326101
1772568088271022300,7.469022216796875,-0.0352004927188158,0.003242141992691904,-0.010014759666472672
1772568088281094400,7.479094482421875,-0.04627484444081783,0.0034963907483965156,-0.007321319331414997
1772568088291166200,7.489166259765625,-0.0390916549384594,-0.0015449826859869063,-0.008491495621949435
1772568088301238300,7.49923828125,-0.05106149419546127,-0.006778051900723949,-0.002912252451200038
1772568088311310300,7.509310302734375,-0.05734627355337143,-0.004499804770434275,-0.001862341539468616
1772568088321382400,7.51938232421875,-0.04582242449820041,0.001234784225653857,-0.004060472638253122
1772568088331454200,7.5294541015625,-0.04357727591991424,0.004188775193039327,-0.005286836095433682
1772568088341526300,7.5395263671875,-0.04387479756176471,0.002432953634811565,-0.0006282149009406566
1772568088351598300,7.549598388671875,-0.04597030853629112,-0.006593699176609516,-0.0014446458503603935
1772568088361670100,7.559670166015625,-0.04686696511507034,-0.0043665885785128915,-0.008445318392664193
1772568088371742200,7.5697421875,-0.04596504783928394,0.013235740140127017,0.0015557780746370553
1772568088381814300,7.579814208984375,-0.04462006297111511,0.00041937618954107164,0.001810446955449879
1772568088391886300,7.58988623046875,-0.0529991842597723,-0.010081194232497363,-0.004308437783643603
1772568088401958100,7.599958251953125,-0.04851414780020714,0.0036941966091282663,-0.006107650959026068
1772568088412030200,7.6100302734375,-0.04417991798818111,0.007395608410332351,-0.008229903810005634
1772568088422102300,7.620102294921875,-0.05181085125803947,0.003947157590044662,-0.002879427893832326
1772568088432174000,7.630174072265625,-0.05091419467926025,-0.0026719226229935883,-0.006676390757691115
1772568088442246100,7.64024609375,-0.04268529551625252,-0.00030321159712038933,-0.002791585213597864
1772568088452319200,7.6503193359375,-0.04463409149646759,-0.0001657667546533048,-0.0018522220042534172
1772568088462391000,7.66039111328125,-0.04508417335152626,-0.001721773158153519,-0.0031109898936934766
1772568088472463000,7.670463134765625,-0.04867722940742969,-0.0033233448695857075,-0.005748096931632608
1772568088482535200,7.68053515625,-0.037304771521687506,-0.005917389083933085,-0.005618095610104501
1772568088492607200,7.690607177734375,-0.034164135408401484,0.0006810045341029763,-0.0044780404631979765
1772568088502679000,7.700678955078125,-0.045540100425481796,-0.007019340710155666,-0.010709043807256966
1772568088512751000,7.710751220703125,-0.041348493954539295,-0.007025341192679479,-0.004209196926560252
1772568088522823200,7.7208232421875,-0.04479132788479328,-0.0037973099237307902,-0.0027416268583387135
1772568088532895000,7.73089501953125,-0.04464052123725414,0.0009568258007988333,-0.006003112872317433
1772568088542967000,7.740967041015625,-0.05272328992784023,0.000824742120038718,-0.0018897044704295693
1772568088553039000,7.7510390625,-0.04449088363349438,-0.009995242115249856,-0.003613313392642885
1772568088563111400,7.761111328125,-0.0447948350161314,-0.005527138524176553,0.004348240071069449
1772568088573183200,7.771183349609375,-0.05437281070053577,-0.0018337456326466054,0.0023872969953343272
1772568088583255300,7.78125537109375,-0.04449497528672218,-0.007114727376028895,0.0056108986843377345
1772568088593327400,7.791327392578125,-0.046886838859319685,-0.011735674308100715,-0.0017812025946564972
1772568088603399200,7.801399169921875,-0.04987725284695625,0.007062193471193313,-0.005448785191494971
1772568088613471200,7.81147119140625,-0.03820785784125328,-0.004528272813092917,-0.0005722103973850607
1772568088623543300,7.821543212890625,-0.048533437022566794,-0.0015360047950875014,-0.005983732318412512
1772568088633615400,7.831615478515625,-0.053473231512308116,0.004292600893694907,-0.005437313949409872
1772568088643687200,7.841687255859375,-0.04554594564437866,-0.0010115516627207397,0.00013736264407634735
1772568088653759200,7.85175927734375,-0.0403115521222353,0.007592683618701994,-0.00008943184912204742
1772568088663831300,7.861831298828125,-0.04854278937280178,0.0038617351957596835,-0.005662555806338787
1772568088673903000,7.871903076171875,-0.046451954573392865,-0.003711348673328757,-0.002495031686127186
1772568088683975200,7.88197509765625,-0.04659925408959389,-0.003981151191191748,-0.008245247509609907
1772568088694047200,7.892047119140625,-0.04614917223453521,-0.004857824427867308,-0.003261248551961034
1772568088704119300,7.902119384765625,-0.053632221466302865,-0.004103471529763192,-0.0002549976743757725
1772568088714191000,7.912191162109375,-0.04105681753158569,-0.007150127482973038,0.0006743738639168441
1772568088724263200,7.92226318359375,-0.03342939139306545,0.002460124769527465,-0.00020262816632166504
1772568088734335200,7.932335205078125,-0.04315232850611209,-0.004125710761034861,-0.005460165102034807
1772568088744407300,7.9424072265625,-0.042702246651053426,-0.007400969572039321,-0.0030733612970449027
1772568088754479000,7.95247900390625,-0.044050738650560375,0.005910493552265688,-0.00463191585065797
1772568088764551200,7.96255126953125,-0.040756957802176474,0.00245212412616238,-0.006363653280399739
1772568088774623200,7.972623291015625,-0.052126493078470226,0.0034674112490843977,0.001456902543734759
1772568088784696000,7.982696044921875,-0.052424599242210386,0.005910393087565899,-0.008400949527975172
1772568088794768100,7.99276806640625,-0.04569324516057968,-0.010937190007325261,-0.006075118662603199
1772568088804840200,8.002840087890625,-0.04015606929957866,-0.004367675423901528,-0.00784311471581459
1772568088814912000,8.012912109375,-0.04868424367010593,-0.008296858965838327,-0.0035859139290638268
1772568088824984000,8.022984130859374,-0.049130233871936796,0.001121706639463082,0.005974087707232683
1772568088835056400,8.033056396484374,-0.050474049696326254,0.0026169775653630493,0.0020372049160301683
1772568088845128200,8.043128173828125,-0.052419923067092894,-0.009641789035080001,-0.00026862434092909097
1772568088855200300,8.0532001953125,-0.04853051441311836,-0.0031626196162309497,-0.006625811347924173
1772568088865272300,8.063272216796875,-0.04673252508044243,0.003695895375870168,-0.008196001540403813
1772568088875344400,8.073344482421875,-0.05421323622465133,-0.005580996736418455,0.0002792918654158711
1772568088885416200,8.083416259765626,-0.05316811108589172,0.003980776731856167,0.0018263021117076277
1772568088895488300,8.09348828125,-0.050776832035183905,0.00017209603074006737,-0.005614131821040064
1772568088905560300,8.103560302734374,-0.033870705419778824,0.003407342491764575,-0.005551113054808229
1772568088915632000,8.113632080078125,-0.04688976146876812,-0.010519877910707146,0.0014683737858198582
1772568088925704200,8.1237041015625,-0.04748889640569687,-0.004329096979182213,-0.003938965150434523
1772568088935776300,8.1337763671875,-0.05347264699041843,-0.0028081710222177206,-0.005215049500856548
1772568088945848300,8.143848388671875,-0.038359249010682106,-0.0031928320914041248,-0.0022049444320611654
1772568088955920100,8.153920166015626,-0.04867956749498844,-0.0020825053624808788,-0.006497618390992284
1772568088965992200,8.1639921875,-0.04478840527534485,-0.0009974957379046826,-0.005311112020164728
1772568088976064300,8.174064208984374,-0.06109598147571087,0.0035395814361516382,-0.009427790091373026
1772568088986136300,8.18413623046875,-0.04463876767158508,0.005225406498089433,-0.004132715890556573
1772568088996208000,8.1942080078125,-0.05272153636217117,-0.0018280008784495292,-0.0058756688340567045
1772568089006280200,8.2042802734375,-0.03596504735052585,0.000617766572162509,-0.002064494781754911
1772568089016352300,8.214352294921875,-0.04330079706609249,-0.007888862686837092,-0.0071231481445021925
1772568089026424000,8.224424072265625,-0.04749474162459373,-0.005975256751012056,0.00025594752244651316
1772568089036496100,8.23449609375,-0.043754970574378965,-0.00019497458282858132,-0.000510926930513233
1772568089046568200,8.244568115234374,-0.03656652037501335,-0.0015406353044323622,-0.008994111381843686
1772568089056640300,8.25464013671875,-0.04808569325506687,-0.008066475142911075,-0.003623505993094295
1772568089066712000,8.264712158203125,-0.04973170689642429,0.0038951716744806616,-0.0016958075998350977
1772568089076784000,8.2747841796875,-0.04330138158798218,-0.005388707301020622,0.0007126600476913154
1772568089086856200,8.284856201171875,-0.04749006544947624,0.0024267065571155397,0.001355341865401715
1772568089096928000,8.294927978515625,-0.03985737861394882,-0.001414223312633112,-0.005768957056570797
1772568089107000000,8.305,-0.040755204236507414,-0.00346725598545745,-0.0048095191735774276
1772568089117072100,8.315072021484376,-0.05213116925358772,-0.002420559944119304,-0.0055410665848292405
1772568089127144200,8.325144287109374,-0.047943069913983345,0.0064339237713254985,-0.005397018471639603
1772568089137216000,8.335216064453125,-0.029086978274583813,0.0015094912474974988,0.0025970490221865474
1772568089147288000,8.3452880859375,-0.04015782286524772,0.003694059611810371,-0.0014912797373719513
1772568089157360000,8.355360107421875,-0.05302548774480819,-0.00507528483713977,-0.00573386747688055
1772568089167432200,8.36543212890625,-0.04584872798323631,-0.001576163275539875,-0.004411952957045287
1772568089177504300,8.375504150390626,-0.04839139820337295,0.010633923611277714,-0.007084222639910876
1772568089187576300,8.385576416015626,-0.037164486268162725,0.0037173034900799392,-0.0037020876546390354
1772568089197649200,8.395649169921874,-0.044643443846702574,-0.0022808044135570523,-0.008549454620573669
1772568089207721200,8.40572119140625,-0.04568915350735187,0.002890606874972582,-0.0016213723904453217
1772568089217793300,8.415793212890625,-0.041347324910759924,0.000626516134198755,-0.0031994170958176255
1772568089227865300,8.425865234375,-0.044189270338416096,-0.009092612453410401,0.0026434637134894728
1772568089237937200,8.435937255859375,-0.048078094470500946,-0.0025703436783514914,-0.00692965313270688
1772568089248009200,8.44600927734375,-0.04209142127633095,0.0013751334112603218,0.0017685805751010775
1772568089258081300,8.456081298828124,-0.04433598533272743,-0.011595242924103513,-0.00020611703135073184
1772568089268153000,8.466153076171874,-0.038946693509817124,-0.0012837927328422664,-0.005065539761260151
1772568089278225200,8.47622509765625,-0.04702829315662384,0.005111305998591706,0.0008629552385769784
1772568089288297200,8.486297119140625,-0.03610708616971969,-0.0009904814752284437,0.002145944253820926
1772568089298369300,8.496369384765625,-0.04209025223255157,-0.000028705504676327107,0.003237812877446413
1772568089308441000,8.506441162109375,-0.04268938716948032,-0.0012215228852815924,-0.0016808840253390372
1772568089318513200,8.51651318359375,-0.0450824197858572,-0.005426482028141617,-0.0035476094789803026
1772568089328585200,8.526585205078124,-0.05062076469063759,-0.0024133264857344326,-0.0009000358459539711
1772568089338657000,8.536656982421874,-0.04852291562855243,-0.00960755797191523,-0.0019950462747365233
1772568089348729000,8.54672900390625,-0.060197571331262585,-0.006095092871552333,-0.0017919797169975936
1772568089358801200,8.55680126953125,-0.05047054256498813,0.0074918901253491635,-0.0017690554991364477
1772568089368873200,8.566873291015625,-0.04657996486723423,-0.007413244531722739,-0.001206416647695005
1772568089378945000,8.576945068359375,-0.04792670330107212,-0.003249055790668353,-0.006446016067918389
1772568089389017300,8.587017333984376,-0.041647184640169144,0.00022767127603292464,-0.002120481019001454
1772568089399089400,8.59708935546875,-0.051824295261502264,-0.001484000613214448,0.0006430654102005064
1772568089409161200,8.6071611328125,-0.045538346859812735,0.0008851214046124369,0.0009673837274312972
1772568089419233300,8.6172333984375,-0.054368719047307966,-0.009153402729937806,0.0033092341458424925
1772568089429305300,8.627305419921875,-0.05392389788925647,-0.004581135511491447,-0.0017498210757039487
1772568089439377400,8.63737744140625,-0.04584229824244976,-0.0048098936329130084,-0.004290847328025847
1772568089449449200,8.64744921875,-0.0395534272313118,0.003906286723539233,-0.006076086776982992
1772568089459521300,8.657521240234376,-0.0459843370616436,0.0016034531412646173,-0.012250154035724698
1772568089469593300,8.66759326171875,-0.05750584802925587,-0.0020406207158230245,0.0001666618037968874
1772568089479665200,8.6776650390625,-0.03880523921251297,0.000360841802181676,0.0012210479612462222
1772568089489737200,8.6877373046875,-0.04718728311061859,0.007172732040425762,0.0016182671179063618
1772568089499809300,8.697809326171875,-0.05870587146878242,0.0041685178562998765,0.001326846423279494
1772568089509881300,8.70788134765625,-0.047478959533572195,-0.003330815789988264,-0.00901473404476419
1772568089519953200,8.717953125,-0.05256663806140423,-0.004719977726601064,-0.01142088187104091
1772568089530025200,8.728025146484375,-0.04956862528920173,-0.0036548601125832646,0.000850314952712506
1772568089540097300,8.73809716796875,-0.046425066566467284,-0.005026897384459153,-0.000919653861876577
1772568089550169300,8.74816943359375,-0.04283317955434322,-0.005925654588779434,-0.004784750058501958
1772568089560241200,8.7582412109375,-0.044478608673810954,-0.002677091988455504,-0.005511877022963017
1772568089570313200,8.768313232421875,-0.056899698829650874,0.00093732651588507,0.003114551823958754
1772568089580385300,8.77838525390625,-0.05645253958404064,0.00005599537040106952,-0.005602039524447173
1772568089590457000,8.78845703125,-0.03714928869903088,0.00028304559192620217,-0.00019603402875363826
1772568089600529200,8.798529052734375,-0.0440279422968626,0.003266025191778317,-0.002253825075086206
1772568089610601200,8.808601318359376,-0.041184243303537364,-0.0002368866289500147,-0.008782222196832298
1772568089620673300,8.81867333984375,-0.05210954194366932,0.0025700057516340165,-0.004655369791481644
1772568089630745000,8.8287451171875,-0.04986263979971409,0.00045422830721363424,-0.007737590248417109
1772568089640817200,8.838817138671875,-0.038487843826413154,-0.0017007303701248018,0.0050535022635944185
1772568089650889200,8.84888916015625,-0.04088496809601783,-0.005141162280738353,-0.0029723851406015453
1772568089660961000,8.8589609375,-0.04731880053579807,0.007008426590496674,-0.010890884913876651
1772568089671033000,8.869033203125,-0.05884089602530002,-0.0022835534930694848,-0.0011603124836459754
1772568089681105200,8.879105224609376,-0.047915012863278386,0.0006849226573947816,-0.0038153022381477056
1772568089691177200,8.88917724609375,-0.04745908578932285,0.0034906916599720715,-0.004182053191307932
1772568089701249000,8.8992490234375,-0.049854456493258474,-0.002408832973707467,0.0016324235074222087
1772568089711321000,8.909321044921874,-0.05090250424146652,0.003918041093414649,-0.00391092636603862
1772568089721394200,8.919394287109375,-0.054043724876642225,-0.007401745890174061,0.0023891236262395974
1772568089731466200,8.92946630859375,-0.051500470134615894,-0.0024594215166289356,-0.0023706563877873123
1772568089741538300,8.939538330078125,-0.05225099624097347,-0.0004992912916466593,-0.0023104141005314887
1772568089751610400,8.9496103515625,-0.038481998607516284,0.0022669037523679434,-0.0016008410590700804
1772568089761682200,8.95968212890625,-0.04566226550042629,0.00448110920311883,0.0012714447079226374
1772568089771754200,8.969754150390624,-0.060623687788844104,0.0060239638641010965,-0.00016775778234004974
1772568089781826300,8.979826416015625,-0.04999591079056263,0.002972513004764914,-0.0011259900889359414
1772568089791898400,8.9898984375,-0.055986675637960434,-0.002750522550847381,-0.005494487496744841
1772568089801970200,8.99997021484375,-0.047159226059913635,0.003200330411270261,-0.0057015726424753665
1772568089812042200,9.010042236328125,-0.04551321241855621,-0.0027268494143150744,-0.005427614539302885
1772568089822114300,9.0201142578125,-0.03982172277867794,0.005132156990375369,-0.0007837890551425516
1772568089832186000,9.03018603515625,-0.05014321030676364,0.0012814363789744674,-0.003029467356391251
1772568089842258200,9.040258056640624,-0.05283551813066006,-0.0032372922876384106,0.0034667810614220796
1772568089852330200,9.050330322265625,-0.046402270212769506,0.0049758247843477875,0.0011751629929058253
1772568089862402300,9.06040234375,-0.04684592232704162,0.006696164037240669,-0.0013931713914498685
1772568089872474000,9.07047412109375,-0.03771978206336498,0.0033884825276676565,-0.0003640658057294786
1772568089882546200,9.080546142578125,-0.049987142962217325,-0.00522556176171638,0.008246361754462122
1772568089892618200,9.0906181640625,-0.055520227169990534,0.0014612773247528821,-0.00002500657709315419
1772568089902690000,9.10068994140625,-0.042651393246650696,-0.0035745705511420964,0.0005467654288746416
1772568089912762000,9.11076220703125,-0.05402560469806194,-0.00103919772147201,0.0012151114108040928
1772568089922834200,9.120834228515625,-0.04639408690631389,-0.0027693003165535626,-0.0035955037413164972
1772568089932906200,9.13090625,-0.0477402408182621,0.005274122744332999,-0.0019646876690909264
1772568089942978000,9.14097802734375,-0.04968728323280811,-0.009525889304140582,-0.0020343553718179465
1772568089953050000,9.151050048828125,-0.04654723164141178,0.0009537661940325051,-0.002713770737033337
1772568089963122200,9.1611220703125,-0.05941957269608974,0.00020053667393513021,-0.0028303097887896
1772568089973194200,9.1711943359375,-0.0429606053262949,0.000740808429941535,0.00039922845065593716
1772568089983266000,9.18126611328125,-0.039516017830371855,0.0002668068431783467,0.0064747124394401905
1772568089993338400,9.19133837890625,-0.046101241439580914,-0.000278433348890394,-0.001807286883983761
1772568090003410400,9.201410400390625,-0.04909691612422466,-0.009917080578813329,-0.005827354446612298
1772568090013482200,9.211482177734375,-0.04536006768345833,0.004229490795917809,-0.0034049130726605654
1772568090023554300,9.22155419921875,-0.05478314506709575,-0.004044023826951161,-0.006409757444448769
1772568090033626400,9.23162646484375,-0.056875148910284036,-0.011497152844490483,0.0011423932344652712
1772568090043698400,9.241698486328126,-0.052236383193731306,-0.0005792246600612998,0.001395125886518508
1772568090053770200,9.251770263671874,-0.04730126487910747,-0.003108715738216415,-0.00035067660119384526
1772568090063842300,9.26184228515625,-0.03832359317541122,-0.0074420413679443295,-0.0057634954301640385
1772568090073914400,9.271914306640625,-0.04610942474603653,-0.008645562805654481,-0.004379676388949156
1772568090083986200,9.281986083984375,-0.048801148048043246,-0.0016753493336960673,0.001305858434177935
1772568090094058200,9.292058349609375,-0.0441629668533802,-0.00403493633819744,-0.00593565539298579
1772568090104130300,9.30213037109375,-0.052693479311466215,-0.005147473290516063,-0.002855261566955596
1772568090114202400,9.312202392578126,-0.04626140043735504,0.0021119780521374194,-0.011170870899036525
1772568090124274200,9.322274169921876,-0.04311901075839996,-0.00484254466034472,-0.0020627046834677458
1772568090134346200,9.33234619140625,-0.04461304870843887,-0.00599117583935149,-0.003315536022465676
1772568090144418300,9.342418212890625,-0.05837678564488887,-0.004791289397142827,-0.00685302596623078
1772568090154490000,9.352489990234375,-0.0522451510220766,-0.0029313407441601156,-0.0014609759306535124
1772568090164562200,9.362562255859375,-0.05000117148756981,-0.00007171352934092283,-0.0037184542675502597
1772568090174634200,9.37263427734375,-0.041317514294385904,0.0023858904895372687,-0.0017965280279517173
1772568090184706300,9.382706298828126,-0.043859599992632864,-0.000827619063714519,-0.0016055720331147312
1772568090194778000,9.392778076171876,-0.04520692294836044,0.002711697510955855,-0.007271781101264059
1772568090204850200,9.40285009765625,-0.05238952792882919,0.0025755495764315127,0.0009550357025116681
1772568090214922200,9.412922119140624,-0.046855274677276605,0.00027981245522387324,0.002547839585598558
1772568090224994300,9.422994384765625,-0.055385202613472934,-0.0022269188018515704,-0.00629310879483819
1772568090235066000,9.433066162109375,-0.04580781145095825,-0.017719141765031962,-0.0062499089739285404
1772568090245138200,9.44313818359375,-0.04775193125605583,0.0006679806557483971,-0.005324044566974043
1772568090255210200,9.453210205078125,-0.04685352111160755,0.004842864320753142,0.0035201734827831387
1772568090265282000,9.463281982421876,-0.05612696089148521,-0.006123359984811395,-0.00003313508462160826
1772568090275354000,9.47335400390625,-0.04670096089839935,0.009168956492096186,0.005612834913097321
1772568090285426200,9.48342626953125,-0.04460778801143169,0.0028661208876874294,0.0020983422524295746
1772568090295498200,9.493498291015625,-0.04012333607375622,-0.002715378172229975,-0.0038533692262135446
1772568090305570000,9.503570068359375,-0.04460895705521106,-0.0022053554240148514,-0.0016652297984808683
1772568090315642000,9.51364208984375,-0.042212417307496065,-0.0013220149845350534,0.0015508644375018775
1772568090325714200,9.523714111328125,-0.03816869487464428,0.0008009502524975687,0.002950830895919353
1772568090335786200,9.5337861328125,-0.045050855603814124,-0.005651267227344214,0.0028272593151777983
1772568090345858300,9.5438583984375,-0.05537643478512764,0.002252710830233991,0.00006398688061162829
1772568090355930400,9.553930419921874,-0.0483458054959774,-0.001956778357271105,0.0013253303196281193
1772568090366002400,9.56400244140625,-0.03772504276037216,-0.010001379595091566,0.0002070120804943144
1772568090376074200,9.57407421875,-0.03278524827063083,-0.004581546503445133,-0.008110752676054834
1772568090386146300,9.584146240234375,-0.04953939919471741,0.00044373431266285474,-0.0028566863390617073
1772568090396218400,9.59421826171875,-0.0507335774153471,0.002964165301527828,-0.0015195742500945925
1772568090406290200,9.604290283203126,-0.043701779082417486,-0.0035426045102998614,-0.002121540464926511
1772568090416362200,9.6143623046875,-0.049232525202631945,0.0019504856138024477,-0.0007812500381842255
1772568090426434300,9.624434326171874,-0.054909986317157745,-0.007112425821088254,-0.002329685056582093
1772568090436506400,9.63450634765625,-0.048920975035429,0.004596186950150877,-0.00329571707714349
1772568090446578200,9.644578125,-0.04727554591596126,-0.0031216300187166778,0.0022048165678977966
1772568090456650200,9.654650146484375,-0.0481716179728508,-0.01155225316574797,0.0021318243969231845
1772568090466722300,9.664722412109375,-0.04772445872724056,-0.0013691420618910342,0.0009210786339826882
1772568090476794400,9.67479443359375,-0.049369303324818606,-0.0058214635619428,-0.004757460192777216
1772568090486866200,9.6848662109375,-0.046672903847694396,-0.007958165063383057,-0.004075889403093606
1772568090496938500,9.6949384765625,-0.04877133743166923,-0.0005174662691541016,-0.0010260916447266935
1772568090507010600,9.705010498046875,-0.04577858535647392,0.008347210046742111,-0.00968360974965617
1772568090517082400,9.715082275390625,-0.03290858238935471,-0.00649732613004744,-0.0009833302152343095
1772568090527154400,9.725154541015625,-0.042786417803168296,-0.010573608258785679,0.0014886128562502563
1772568090537226500,9.7352265625,-0.038143560433387756,-0.008312768921023235,-0.0004500087898224592
1772568090547298300,9.74529833984375,-0.05220832614302635,-0.00427699233260937,-0.0014555691031739116
1772568090557370400,9.755370361328126,-0.048019642281532285,0.006965729093085974,-0.0008894596530124544
1772568090567442400,9.7654423828125,-0.035298692396283145,0.007982212659250944,0.005294124352745712
1772568090577514500,9.775514404296874,-0.03709317459762096,-0.013211181087605654,0.006507208203244954
1772568090587586300,9.78558642578125,-0.0384422511190176,-0.006550261893682181,0.0057980370205827055
1772568090597658400,9.795658447265625,-0.04188099339604377,-0.007421729232277721,-0.00200960452305153
1772568090607730400,9.80573046875,-0.040084173107147215,-0.008006780844926833,-0.0065610207497142255
1772568090617802500,9.815802490234375,-0.03244797914028168,-0.01113367156065069,-0.0008624620482325554
1772568090627874300,9.825874267578126,-0.03858136732876301,-0.0015598788610193877,0.0036891185752116144
1772568090637946400,9.8359462890625,-0.03962941507697105,-0.007244637366011738,0.003212587104644626
1772568090648018400,9.846018310546874,-0.04965630357265472,-0.00848394250315614,0.0009182656223885715
1772568090658090200,9.85609033203125,-0.04800912088751793,0.0037146183426491914,0.002429638299718499
1772568090668162300,9.866162353515625,-0.042318800291419024,-0.00682758099772036,0.001954239340312779
1772568090678234400,9.876234375,-0.03977788363695144,-0.0035995040629990395,-0.0003503295413218438
1772568090688306400,9.886306396484375,-0.039027942052483555,-0.0020030651844106613,0.004915500298701227
1772568090698378200,9.896378173828126,-0.04052256452441215,-0.004718626019731164,0.0009431991342455148
1772568090708450300,9.9064501953125,-0.038725159713625903,-0.010724387506861239,-0.006973053883016109
1772568090718522400,9.9165224609375,-0.039324879172444344,-0.011187748968601226,-0.0064202240395359695
1772568090728594200,9.92659423828125,-0.0459101027816534,0.0059992769474163645,0.002801942210830748
1772568090738666200,9.936666259765625,-0.03992635219693184,-0.0001958330993540585,0.004562248147930949
1772568090748738300,9.94673828125,-0.039621816292405125,-0.002798261549556628,0.0019812917440198362
1772568090758810400,9.956810302734375,-0.048747956556081766,-0.0033851215268019584,0.0012861308204010129
1772568090768882200,9.966882080078125,-0.04799509236216545,-0.00270029020095244,-0.0023064320451579986
1772568090778954200,9.976954345703126,-0.053534021788835526,-0.003363960007764399,0.0032840083730407057
1772568090789026300,9.9870263671875,-0.045153146934509274,-0.0021030001612380145,-0.0010027473017573357
1772568090799098400,9.997098388671875,-0.04126432280242443,-0.0048455951339565215,-0.0019320275085046887
1772568090809170200,10.007170166015625,-0.058470893669128415,-0.00517192274518311,0.005490067049954086
1772568090819242200,10.0172421875,-0.041264907324314114,-0.0051524417265784,0.0021620916710235177
1772568090829314600,10.027314453125,-0.04859539634287357,-0.0018535006458871065,-0.0040574952298775314
1772568090839386400,10.037386474609375,-0.04844634326100349,0.0025993231776636093,-0.0028910635326988995
1772568090849458400,10.04745849609375,-0.03423077090382576,-0.008454305416718124,-0.0021799926538951693
1772568090859530500,10.057530517578124,-0.04006488388478756,0.0005046981191262602,-0.004367675423901528
1772568090869602600,10.0676025390625,-0.054876668569445605,-0.005075303103448823,-0.0017423866879194975
1772568090879674400,10.07767431640625,-0.05023848737478256,-0.002985500350501388,-0.003669993749633431
1772568090889746400,10.087746337890625,-0.06266250014007091,-0.007308414184069261,0.005211925962008535
1772568090899818500,10.097818603515625,-0.050989598003029823,-0.010238284490350634,0.0005915178860537708
1772568090909890300,10.107890380859375,-0.05308101732432842,-0.014120103492913767,-0.0024814415521919727
1772568090919962400,10.11796240234375,-0.053528176569938656,0.006991776849795133,0.003578424742352217
1772568090930034400,10.128034423828124,-0.04813537761569023,-0.002726575419679284,-0.0020531514038331805
1772568090940106500,10.1381064453125,-0.04708616082370281,-0.01293014478967525,-0.005588412857893854
1772568090950178300,10.14817822265625,-0.04753624267876148,0.0029138416200876235,0.0009594744156114757
1772568090960250400,10.15825048828125,-0.04215045798718929,-0.006363717212481424,-0.004624408397637308
1772568090970322400,10.168322509765625,-0.0432002593010664,-0.011346821120986714,0.0015986491019837558
1772568090980394200,10.178394287109375,-0.054873161438107484,-0.004678613669751212,0.0012536167902871965
1772568090990466300,10.18846630859375,-0.05891454578340053,-0.006301958821574226,-0.0017471724608913062
1772568091000538400,10.198538330078126,-0.04215338059663772,0.004057449564104899,-0.0031562720738351345
1772568091010610400,10.2086103515625,-0.048889410853385926,0.0031044596882071345,0.002714026465360075
1772568091020682200,10.21868212890625,-0.050990767046809195,-0.001496038110880181,0.005049319278821349
1772568091030754300,10.22875439453125,-0.05173720149993896,-0.0082728661688976,-0.0022205255936831236
1772568091040826400,10.238826416015625,-0.044102176576852795,-0.0028858485014643517,0.0035880145546048877
1772568091050898400,10.2488984375,-0.05413023411631584,-0.00412418552422896,0.0015811682442203163
1772568091060970200,10.25897021484375,-0.04559796809256077,0.00047172743128612635,0.004219681787956506
1772568091071042300,10.269042236328126,-0.04903554132580757,-0.002128719124384224,0.0035908275661990043
1772568091081114400,10.2791142578125,-0.05426876580417156,-0.0002636285054031759,0.0007265241762623191
1772568091091186200,10.289186279296874,-0.05396715250909328,-0.010676118785189464,0.008109930692147464
1772568091101258200,10.29925830078125,-0.03870879310071468,-0.0049914972775150085,-0.00426905562132597
1772568091111330300,10.309330322265625,-0.05890870056450367,0.004241911886073649,0.00356980304447934
1772568091121402400,10.31940234375,-0.04903671036958694,-0.0026059264483861626,0.001496376037597656
1772568091131474200,10.32947412109375,-0.043052959784865376,0.005794265027763322,-0.00110701139383018
1772568091141546200,10.339546142578126,-0.04290566026866436,0.003764558431599289,0.0009264306625351309
1772568091151618300,10.349618408203124,-0.058765492701530454,-0.008817119980277493,0.0017363040070049465
1772568091161690000,10.359690185546874,-0.05098258374035358,-0.006514998784055933,0.006592548399139195
1772568091171762400,10.369762451171875,-0.05562310302257537,-0.0015013170741964132,0.004172901770472527
1772568091181834500,10.37983447265625,-0.03932020299732685,0.0014895170385483651,-0.0008947934152558445
1772568091191906600,10.389906494140625,-0.04829670565724373,-0.0062503108327277,0.0082627466336824
1772568091201978400,10.399978271484375,-0.07194236966073513,-0.013278492436464876,-0.0012200981131754815
1772568091212050400,10.410050537109376,-0.03215454915165901,-0.007733215467398986,-0.010251363167632371
1772568091222122500,10.42012255859375,-0.054905310142040246,0.0014120404887013136,-0.0021869886502623556
1772568091232194300,10.4301943359375,-0.06254033506512642,-0.0018301289034541694,0.004886347269453108
1772568091242266400,10.440266357421875,-0.04787818798422813,-0.005518608157848939,-0.001172386513929814
1772568091252338400,10.45033837890625,-0.05400047025680542,-0.00017166677247732877,0.0019323928346857428
1772568091262410500,10.460410400390625,-0.06806698953211307,-0.004902238958328962,0.0018806809137575328
1772568091272482300,10.470482421875,-0.008515314888954162,0.0002508877548389137,-0.008122552711702882
1772568091282554400,10.480554443359376,-0.06447510251998902,-0.006201612852793186,0.012083108639437705
1772568091292626400,10.49062646484375,-0.04697393262088299,-0.003566588174086064,-0.0017169234531000256
1772568091302698500,10.500698486328124,-0.05430149902999401,-0.0004265183163806796,-0.001853098787087947
1772568091312770300,10.510770263671875,-0.05729542014896869,0.0009592643530573695,-0.004775215045176446
1772568091322842400,10.52084228515625,-0.05177168829143047,-0.002361879426287487,0.0023402247169055043
1772568091332918000,10.53091796875,0.014784896677732466,0.00724080144111067,-0.0026990846245549616
1772568091342989800,10.54098974609375,-0.06573533171415329,0.002863947196910158,0.007967581345699727
1772568091353062000,10.551061767578124,-0.05916179854273796,-0.006901733079319819,-0.001446910872682929
1772568091363134000,10.561134033203125,-0.05153904857933521,-0.008496299661230295,0.0009859057648107408
1772568091373206000,10.5712060546875,-0.03569207562804222,-0.008232716821599751,-0.00722149395244196
1772568091383277800,10.58127783203125,-0.08627659996151923,-0.007928372713318093,0.007141852844972163
1772568091393350000,10.591349853515625,-0.03377075217664242,-0.00042136721722781654,-0.005231562244240194
1772568091403422000,10.601421875,-0.052934302330017086,0.006786682731751352,-0.0008694580445997417
1772568091413493800,10.61149365234375,-0.06250877088308333,-0.0012432141272816807,0.011526022745948284
1772568091423565800,10.62156591796875,-0.08808043451309204,0.003038116453727707,0.0063887694553472095
1772568091433638000,10.631637939453125,-0.05753273603618145,-0.0035550347336102276,-0.0023326989975757896
1772568091443710000,10.6417099609375,-0.07755787145495414,-0.006698922249907627,-0.0058407801837660365
1772568091453781800,10.65178173828125,-0.06331716465651989,-0.006456071671051904,0.009304602103121578
1772568091463853800,10.661853759765625,-0.04025309993326664,0.009654191858926787,0.0070553070726804435
1772568091473926000,10.67192578125,-0.03634907823204994,0.000760115918610245,0.001021287605445832
1772568091483997700,10.681997802734376,-0.012250994285941123,-0.006425128543516621,-0.002991473433561623
