time,seconds_elapsed,z,y,x
1772366282657562400,0.103562255859375,-0.027866496568918226,-0.002133577962592244,-0.00017104571796953678
1772366282667632600,0.113632568359375,-0.03460720300078392,0.0030161238176282493,0.00025434008724987506
1772366282677702700,0.12370263671875,-0.03520575341582298,0.004688778870739043,0.0027647885382175445
1772366282687772400,0.1337724609375,-0.036250878554582595,-0.003786404937226325,0.00650616702362895
1772366282697843500,0.143843505859375,-0.03445230470001697,0.004897252255957573,0.006361790116876364
1772366282707913700,0.153913818359375,-0.028019641304016112,0.0020965338878333566,0.006263992298208176
1772366282717983500,0.1639833984375,-0.025485154390335083,-0.0006354757587891072,0.0036329496748745437
1772366282728053000,0.174052978515625,-0.024749825853109357,-0.0010745430294889955,0.0007751490909606218
1772366282738123300,0.184123291015625,-0.024009821140766142,-0.0022705022152513265,0.0002928819993510842
1772366282748193000,0.194193115234375,-0.02610825472474098,0.008213135338295251,0.007828647799044847
1772366282758263000,0.204262939453125,-0.01219663375020027,0.007235805605584755,-0.001576345938630402
1772366282768333000,0.2143330078125,-0.03404430842101574,-0.0035757852606941015,0.0031679259790107607
1772366282778403000,0.224403076171875,-0.025526070922613144,-0.004289267292292788,0.0031967136820778247
1772366282788473000,0.23447314453125,-0.018498948764801026,0.008956784179294481,0.005150478098355234
1772366282798543000,0.244543212890625,-0.04184241495132446,0.004629367700545117,-0.0011667056918144225
1772366282808613000,0.254613037109375,-0.03780219964981079,0.00669894051621668,0.005564319596253335
1772366282818683100,0.26468310546875,-0.0247480722874403,0.011192142015928401,0.003171067784167826
1772366282828753000,0.2747529296875,-0.029499650728702545,0.00890850632446818,0.0011446765230968593
1772366282838823200,0.2848232421875,-0.03690320498347282,0.007156767286313697,0.008844766039028763
1772366282848893200,0.29489306640625,-0.032138182538747784,-0.003359667425137013,-0.001042385192401707
1772366282858964000,0.3049638671875,-0.0210837045609951,0.001311320060584694,0.004339052117615938
1772366282869034000,0.315033935546875,-0.028579028752446174,0.004724599102791398,0.007355258133634924
1772366282879104300,0.325104248046875,-0.03229132727384567,-0.001909002825943753,0.0017510449184104798
1772366282889174000,0.335174072265625,-0.03409983800053596,-0.009027977118827402,-0.002534633044153452
1772366282899244000,0.345244140625,-0.034090485650300976,0.001707698967028409,0.004910604927875101
1772366282909314000,0.35531396484375,-0.033488428103923794,-0.011333422783296555,0.0040837987149134275
1772366282919384000,0.365384033203125,-0.026035189488530158,-0.008326998375775291,-0.01086575047262013
1772366282929454000,0.3754541015625,-0.028267478585243224,-0.0006299228008370846,-0.00391132822483778
1772366282939524000,0.385524169921875,-0.048182723888754844,-0.004477328077144921,0.000023052082024514675
1772366282949594000,0.395593994140625,-0.024556933629512785,-0.003929886794835329,-0.001590191800892353
1772366282959664000,0.4056640625,-0.033979426491260525,0.0023262235910166055,0.0003580927226692438
1772366282969734000,0.41573388671875,-0.021253800430893897,0.0025725173691287634,-0.0028370500568300483
1772366282979804200,0.42580419921875,-0.022758944296836853,0.005650061650946736,-0.0046816550102084875
1772366282989874200,0.435874267578125,-0.02830897963941097,-0.007274420582922175,-0.004837539691664278
1772366282999944000,0.44594384765625,-0.026039281141757964,-0.0012326744669582694,0.0010176160773262381
1772366283010015000,0.456014892578125,-0.030368250256776808,0.0031783195088617502,-0.00579955312423408
1772366283020085000,0.4660849609375,-0.04293897801637649,-0.007341101744119077,0.0022686390517279503
1772366283030155300,0.4761552734375,-0.041886254093050954,-0.0012462920003570616,0.008401808044500648
1772366283040225000,0.48622509765625,-0.03275777574181556,-0.000162743680505082,0.001028174003958702
1772366283050295000,0.496294921875,-0.02376724455654621,-0.0006486092349980026,-0.002971234363131225
1772366283060365000,0.506364990234375,-0.0367822089523077,-0.0017221019517164675,0.012153927119635045
1772366283070435000,0.51643505859375,-0.029894203004240987,-0.0003849715964403003,-0.0016030878150835631
1772366283080505000,0.526505126953125,-0.0322901582300663,0.004124843111354857,0.003605879004858434
1772366283090575000,0.5365751953125,-0.029738720181584355,-0.008664715030696242,0.004231353959441185
1772366283100645000,0.54664501953125,-0.028103227934241293,-0.0025029227316379545,-0.002815715007856488
1772366283110715100,0.556715087890625,-0.023334113836288452,0.0003500646798405796,0.002153707435168326
1772366283120785000,0.566784912109375,-0.026783377507328985,0.001395509479008615,0.003344268926605582
1772366283130855200,0.576855224609375,-0.02648351777791977,0.009887571356538682,0.004841448681801557
1772366283140925200,0.58692529296875,-0.04279869276285171,-0.0015638883158564567,0.0038260610941797495
1772366283150995000,0.596994873046875,-0.03545300617516041,-0.008822691204538569,-0.00023808307219296693
1772366283161066000,0.60706591796875,-0.02573357619345188,-0.0019759945143945513,0.0022729864332824944
1772366283171136300,0.61713623046875,-0.030075989311933515,0.0018949834337458013,0.0035762875841930507
1772366283181206000,0.6272060546875,-0.04204056787192821,0.00017289974833838642,0.0009106485715135932
1772366283191276000,0.637276123046875,-0.035759880167245864,0.004367310097720473,0.0017244491724297403
1772366283201346000,0.647345947265625,-0.035166005927324294,0.004737193722883239,0.004300546738132834
1772366283211416000,0.657416015625,-0.03067278616130352,0.002381049917638302,-0.004069587526470422
1772366283221486000,0.667486083984375,-0.03696867143511772,-0.0012077774877194314,0.013978950589708983
1772366283231556000,0.67755615234375,-0.022609891214966774,-0.002455914385290816,-0.0006346081091091036
1772366283241626000,0.687626220703125,-0.03203822929561138,-0.00001875949939712882,0.0005518617291003466
1772366283251696000,0.697696044921875,-0.022919687816500663,-0.002334708291571587,-0.002664360371045768
1772366283261766000,0.707765869140625,-0.032353871116042134,-0.005251938311988487,0.006927570773474872
1772366283271836200,0.717836181640625,-0.029817630636692044,0.005739804027322679,0.001809460574761033
1772366283281906200,0.72790625,-0.025637130081653595,-0.0003410502563230693,0.0036862507646903396
1772366283291976000,0.737975830078125,-0.029525369691848755,0.0025098639290779827,0.000586348520591855
1772366283302046000,0.7480458984375,-0.026249124500155447,-0.003527562204794958,-0.004696487253159284
1772366283312117000,0.758116943359375,-0.034172903236746786,-0.003298877148609608,0.0023870777996256947
1772366283322187300,0.768187255859375,-0.039111528682708736,0.010275785222835837,0.007596117684803902
1772366283332257000,0.778257080078125,-0.020541852769255638,0.005247463066270575,0.005058744694292545
1772366283342327000,0.7883271484375,-0.03580839548408985,0.007829259720398113,0.0030726489109918474
1772366283352397000,0.79839697265625,-0.032955928662419316,0.00047886042497120797,-0.006757730631902814
1772366283362467000,0.808467041015625,-0.03504910154938698,0.0016364238291047513,0.007365268070995807
1772366283372537000,0.818537109375,-0.029360534518957135,-0.008309818912111222,0.004413834386877715
1772366283382607000,0.828607177734375,-0.04087561574578285,0.00018786898860707877,0.001600420933961868
1772366283392677000,0.838677001953125,-0.039383915883302686,0.00401377481915988,-0.0038708500839769837
1772366283402747100,0.8487470703125,-0.032797523230314256,-0.002663684517610818,-0.0008782806718721986
1772366283412817000,0.85881689453125,-0.02427344051301479,-0.006547996871359646,0.00484349450841546
1772366283422887200,0.86888720703125,-0.03549918340444565,-0.0007164320405106991,0.002801576884649694
1772366283432957200,0.878957275390625,-0.033842648369073865,0.006310635318374261,0.002738119727000594
1772366283443027000,0.88902685546875,-0.03653320262730121,-0.002981536561436951,0.002969992254115641
1772366283453098000,0.899097900390625,-0.025907179194688795,0.006399510045070201,0.007665237398259341
1772366283463168300,0.909168212890625,-0.03218669785559177,-0.0004997205499093979,0.011369060352258384
1772366283473238000,0.919238037109375,-0.03382335914671421,-0.00019584223250858484,0.006015570495091378
1772366283483308000,0.92930810546875,-0.036059155374765395,-0.006355004183063283,0.006201923380047082
1772366283493378000,0.9393779296875,-0.031712066081166265,0.002603542695054784,0.0038473230779170987
1772366283503448000,0.949447998046875,-0.024667992788553236,0.001507600684510544,-0.00460329254437238
1772366283513518000,0.95951806640625,-0.03633738779425621,0.0032900271218735725,0.011131890595518052
1772366283523588000,0.969588134765625,-0.027211247530579564,-0.0030206812617368994,0.006471753297373652
1772366283533658000,0.979658203125,-0.02496492990851402,-0.000663423211639747,0.0004898293435573578
1772366283543728000,0.98972802734375,-0.03275134600102901,0.004729430541535839,0.0029211846763268112
1772366283553798000,0.9997978515625,-0.030360651472210884,-0.0007926025492604821,-0.0019393705647438764
1772366283563868200,1.0098681640625,-0.032603461962938306,-0.006547394083160907,-0.000803133076429367
1772366283573938200,1.019938232421875,-0.042024201259016986,-0.0029272764903958883,0.0017342033814638851
1772366283584008000,1.030008056640625,-0.04096563211679458,0.00044943340108729896,0.0036306846525520084
1772366283594078000,1.040077880859375,-0.03393500282764435,0.002561886377260089,0.009130049253813922
1772366283604149000,1.05014892578125,-0.021055647510290144,0.0024119747788645327,0.0005318053217604756
1772366283614219300,1.06021923828125,-0.02657937936782837,0.0003207563869655132,0.006646342679299414
1772366283624289000,1.0702890625,-0.040784430330991744,-0.006465588418068364,0.0024885288801044223
1772366283634359000,1.080359130859375,-0.0332920287489891,-0.004795600246079266,-0.0019399185540154575
1772366283644429000,1.090428955078125,-0.030738837134838104,0.0011191858888138085,0.001088343225978315
1772366283654499000,1.1004990234375,-0.028939678758382794,0.006136447795247659,-0.0037558454021811485
1772366283664569000,1.110569091796875,-0.032087329134345054,-0.0028232863929588347,-0.002973608983308077
1772366283674639000,1.12063916015625,-0.028202012133598325,0.0006971062855329365,0.0035135245462879537
1772366283684709000,1.130709228515625,-0.04091828584372997,-0.008318285346357151,0.007318579385057092
1772366283694779100,1.140779052734375,-0.03463993622660637,-0.002530523124616593,-0.0013680734828114508
1772366283704849000,1.150848876953125,-0.029246552750468252,0.002481943875690922,-0.0028520649628713726
1772366283714919200,1.160919189453125,-0.03567220188379287,-0.0004279339553322643,0.0015063129097223282
1772366283724989200,1.1709892578125,-0.03761573716700077,0.005574101204751059,0.003321618703380227
1772366283735059200,1.18105908203125,-0.03910276085436344,0.006478310902323574,0.003795519825443625
1772366283745129500,1.19112939453125,-0.03026537440419197,-0.0063895457734819494,0.0030887232629582284
1772366283755200500,1.201200439453125,-0.028925065711140632,-0.008069507350213825,0.0008441226739436387
1772366283765270300,1.211270263671875,-0.02728723537623882,-0.0068309419985860586,0.0020517814306542275
1772366283775340300,1.22134033203125,-0.02698620660305023,-0.00653721974901855,0.001039791376516223
1772366283785410300,1.231410400390625,-0.03551379645168781,0.003962775284284726,0.002379296351969242
1772366283795480300,1.241480224609375,-0.03432254084050655,0.004136323486594483,0.004045585596375167
1772366283805550300,1.25155029296875,-0.035823008531332017,0.004541552419774234,-0.0008393369009718298
1772366283815620400,1.261620361328125,-0.031181904727220534,0.004906641138810664,-0.00006283610314130782
1772366283825690400,1.2716904296875,-0.033279753789305686,0.007117713917559013,-0.0018987462934106588
1772366283835760400,1.281760498046875,-0.04001636856794357,0.0006750862499698996,-0.0009167860513553022
1772366283845830400,1.291830322265625,-0.03896890534162521,0.0026269509701058267,0.00597447129972279
1772366283855900200,1.301900146484375,-0.03777414259910583,0.0004711977083235979,0.006533968346007168
1772366283865970400,1.311970458984375,-0.03418634724020958,0.003020799992745742,0.0003216331698000431
1772366283876040200,1.322040283203125,-0.031948212924599644,0.0030687673203181475,-0.00040463527813553807
1772366283886110200,1.332110107421875,-0.0430213956028223,0.0026538207107223567,0.0009231792595237493
1772366283896181200,1.34218115234375,-0.042265608799457545,-0.008529032887052744,-0.0002794379958882928
1772366283906251500,1.35225146484375,-0.03088496760725975,-0.007154684927081689,0.00555942422542721
1772366283916321300,1.3623212890625,-0.0388081618219614,0.005778720398759469,0.0018498656503856182
1772366283926391300,1.372391357421875,-0.03326630978584289,0.00049325427650474,0.00257485545668751
1772366283936461300,1.38246142578125,-0.035354221975803374,0.004817839477350935,0.0054209656028077
1772366283946531300,1.39253125,-0.032954759618639945,0.007768670373270288,-0.002817285910435021
1772366283956601300,1.402601318359375,-0.022026538369059562,-0.009513787874393165,-0.00016205869391560553
1772366283966671000,1.412671142578125,-0.03803308579623699,0.003034134398354217,0.005630224439315498
1772366283976741400,1.422741455078125,-0.038191491228342055,0.005249545425502583,0.00919869404323399
1772366283986811400,1.432811279296875,-0.034758594170212744,-0.0022045243069529533,0.011108838513493537
1772366283996881200,1.442881103515625,-0.0319154796987772,-0.000263345377612859,-0.003710216162167489
1772366284006951400,1.452951416015625,-0.03715630296170711,-0.007277799850096926,-0.000009352350234985351
1772366284017021400,1.463021484375,-0.04403963273465633,-0.0010992664787918328,0.003140015058778226
1772366284027091200,1.47309130859375,-0.04179214606881142,0.003952336088661104,-0.0003862593712285161
1772366284037161500,1.483161376953125,-0.03221709299385547,-0.0035304756810888645,-0.008357895837537944
1772366284047232500,1.493232421875,-0.0323684841632843,0.0006919003874529153,0.0002552534027025103
1772366284057302300,1.50330224609375,-0.032819735062122345,0.0015312007558066396,0.001245579614304006
1772366284067372300,1.513372314453125,-0.03686170392930507,-0.00048764651962555943,-0.0005781286815181374
1772366284077442300,1.5234423828125,-0.032820904105901716,0.006675614439556375,0.0005089724354445934
1772366284087512300,1.53351220703125,-0.03984802626371384,0.00005479892715811729,0.009161175044439732
1772366284097582300,1.543582275390625,-0.04567570950388908,0.003974155194824561,0.007548515683412552
1772366284107652400,1.55365234375,-0.041027591437101364,0.00011452062460593878,0.00505870816167444
1772366284117722400,1.563722412109375,-0.02455751815140247,0.007746988264424726,0.005734159737825394
1772366284127792400,1.57379248046875,-0.03292962517738342,0.0006934164911042898,0.002305646593868732
1772366284137862100,1.583862060546875,-0.03306932590901852,-0.0018344306192360816,0.007615224244073033
1772366284147932400,1.593932373046875,-0.03142097418010235,0.003949833604320884,0.005442483314871788
1772366284158002400,1.60400244140625,-0.02513794838786125,0.004926962407631799,0.00478928010314703
1772366284168072200,1.614072265625,-0.03187982386350632,0.001453514143405482,-0.0021294497767463325
1772366284178142200,1.62414208984375,-0.038760815548896786,0.0004314776192884892,0.0010346402773633598
1772366284188212500,1.63421240234375,-0.02917699464559555,-0.0013419252614025026,-0.003294219239801168
1772366284198283500,1.644283447265625,-0.030222119784355163,-0.0029509861595463007,0.006043846741504967
1772366284208353300,1.654353271484375,-0.02947276272177696,0.0004435881821904331,0.0008450359893962741
1772366284218423300,1.66442333984375,-0.022438626301288605,-0.0020639741919469086,0.006594429828971624
1772366284228493300,1.674493408203125,-0.04473638282716274,-0.001262631213804707,0.004924852648936212
1772366284238563300,1.684563232421875,-0.03919803792238235,-0.003963661200273782,0.0021518077390268444
1772366284248633300,1.69463330078125,-0.03515606905519962,-0.005779076591785997,0.0014321516949683426
1772366284258703000,1.704703125,-0.02632745043337345,-0.002639846984297037,0.005321852609887719
1772366284268773400,1.7147734375,-0.028870120653510092,0.006667175404774025,0.0020660656843334434
1772366284278843400,1.724843505859375,-0.03949146791100502,0.005084810717310756,0.0072007982242852445
1772366284288913200,1.7349130859375,-0.024969606083631513,-0.0009313169002067298,0.005285794915817678
1772366284298983400,1.7449833984375,-0.03170212920904159,0.00033033706606365736,0.005027107447013258
1772366284309053400,1.755053466796875,-0.040678047347068785,-0.0029353684653062374,0.004783398351632058
1772366284319123200,1.765123291015625,-0.030644144588708875,0.00011726057096384464,0.006619418139755725
1772366284329193500,1.775193359375,-0.03662789517343044,0.004151429724181071,0.001271225512214005
1772366284339263500,1.785263427734375,-0.03348492097258567,-0.00386640223772265,0.004290975192189217
1772366284349334300,1.795334228515625,-0.03003916443288326,0.009386069841496645,0.003200184280797839
1772366284359404300,1.805404296875,-0.044999417677521705,0.0019843056850135325,0.0035625878524035213
1772366284369474300,1.815474365234375,-0.021052724900841712,0.010265747886011376,0.000981302654929459
1772366284379544300,1.82554443359375,-0.017454992669820785,0.0022158768180292098,-0.00022588117774575948
1772366284389614300,1.8356142578125,-0.022990999487042425,-0.006243844559323042,0.00024557225890457627
1772366284399684400,1.845684326171875,-0.031523265510797496,0.006486138015752658,-0.00011303192041814327
1772366284409754400,1.85575439453125,-0.03466390162408352,0.00014608480664901434,-0.00397303181681782
1772366284419824400,1.865824462890625,-0.018204349732398987,-0.008920735618378967,-0.005349032877758145
1772366284429894100,1.87589404296875,-0.020744681864976883,0.0019177889205981044,0.004137355533055961
1772366284439964400,1.88596435546875,-0.026875731965899465,0.0009540675881318748,0.0028605039976537226
1772366284450034400,1.896034423828125,-0.027924948757886883,0.0013675163603853434,-0.004218677140958607
1772366284460104200,1.906104248046875,-0.02239478715956211,0.00440836362731643,-0.0003008461100980639
1772366284470174200,1.91617431640625,-0.018062310913205145,-0.010254477573325857,0.0007480418883264064
1772366284480244500,1.926244384765625,-0.029431261667609215,0.002941834738710895,0.0003784048583358526
1772366284490314200,1.936314208984375,-0.03678162443041801,0.002530450059380382,-0.001511281345784664
1772366284500385300,1.94638525390625,-0.01913257049322128,-0.0006436864647082984,0.0019209946578368543
1772366284510455300,1.956455322265625,-0.02033259393274784,-0.0028500739351846275,0.001722914802469313
1772366284520525300,1.966525390625,-0.019889526340365407,-0.0008663162394426763,-0.0023234014462679624
1772366284530595300,1.97659521484375,-0.016028759258985517,-0.002758842854620889,0.0007715323617681861
1772366284540665300,1.986665283203125,-0.01961421653032303,0.000978297847090289,0.005385638561099767
1772366284550735400,1.9967353515625,-0.018272154271602628,-0.0016725819878745823,0.002755874579399824
1772366284560805400,2.006805419921875,-0.0254582663834095,0.003130023387726396,-0.005402918489463627
1772366284570875400,2.01687548828125,-0.02231938383579254,0.0015552209522109478,-0.0005607391552999616
1772366284580945200,2.026945068359375,-0.017983984979987145,-0.0016409904063679277,0.003411635074391961
1772366284591015400,2.037015380859375,-0.022327567142248154,0.0004784768324811011,0.0012375789709389209
1772366284601085400,2.04708544921875,-0.023066402810811994,-0.004745212632557377,-0.003788761291094124
1772366284611155200,2.0571552734375,-0.01617898138463497,0.00022163426089100537,0.008127448082529009
1772366284621225500,2.0672255859375,-0.029507834035158154,0.004801436331821605,0.0005317322565242648
1772366284631296500,2.077296630859375,-0.022635610178112983,0.0074216926996596155,-0.0019412702608853577
1772366284641366300,2.0873662109375,-0.019797756403684613,-0.000028285379568114875,0.0015152999337762593
1772366284651436300,2.097436279296875,-0.012918518283963202,-0.007596866603475063,-0.0030443361319601532
1772366284661506300,2.10750634765625,-0.022205402067303655,-0.0007464983852114527,0.000026741876453161238
1772366284671576300,2.117576416015625,-0.024757424637675284,-0.0012328753963578491,-0.0013511588806286454
1772366284681646300,2.127646240234375,-0.01937105542421341,-0.0003897847688756883,-0.00586618861965835
1772366284691716400,2.13771630859375,-0.02700023512840271,0.0032953700172714886,0.004047887151315808
1772366284701786400,2.147786376953125,-0.02983925794661045,0.0005396415683440864,0.011639328661002217
1772366284711856400,2.1578564453125,-0.014121464332938193,-0.0006894983678124844,0.0032335020285099744
1772366284721926100,2.167926025390625,-0.01741173804998398,0.010076983848260715,0.0037190570557489987
1772366284731996400,2.177996337890625,-0.02040098299384117,-0.003987818393995985,0.0036736470114439724
1772366284742066200,2.188066162109375,-0.019047814819216725,-0.00009307597777806222,-0.0031882746472954747
1772366284752136200,2.19813623046875,-0.03386018402576446,0.001746597072156146,-0.0022446736542508007
1772366284762207200,2.208207275390625,-0.023677812707424164,0.007876322865672409,0.0019828078476712106
1772366284772277000,2.218277099609375,-0.01768821690380573,0.0072510488404892385,-0.004970956812985241
1772366284782347300,2.22834716796875,-0.015445406413078308,-0.00012755363611504435,0.005484349695220589
1772366284792417300,2.238417236328125,-0.01858896513581276,0.006171446043392643,0.0053445758983492846
1772366284802487000,2.248487060546875,-0.020536592072248457,0.0044627241630572825,-0.0006719809774309397
1772366284812557300,2.258557373046875,-0.017691139513254163,0.001847399698663503,0.003735569799132645
1772366284822627300,2.26862744140625,-0.018895839127898214,0.00042377837002277374,-0.001958952048048377
1772366284832697000,2.278697021484375,-0.02294073060452938,0.00218006571913138,-0.0014652502469718455
1772366284842767400,2.288767333984375,-0.02354278815090656,0.00001872296677902341,-0.003947860842943191
1772366284852837000,2.298837158203125,-0.032225860822200775,-0.0007533573842607438,0.001195420329645276
1772366284862907100,2.3089072265625,-0.020702596288919448,-0.0017174897086806595,-0.004809299977868795
1772366284872977200,2.31897705078125,-0.02294774486720562,0.0002596099174115807,-0.0035026012934744354
1772366284883048200,2.329048095703125,-0.02234685636460781,0.00689852734208107,-0.002689312149211764
1772366284893118200,2.3391181640625,-0.0295277077794075,0.0038795631133951244,0.0007861088763922452
1772366284903188200,2.349188232421875,-0.02548573891222477,0.002683402998233214,-0.008486052261851727
1772366284913258200,2.35925830078125,-0.016806173372268675,-0.00830747169139795,-0.007614566656947135
1772366284923328300,2.369328369140625,-0.019648118799924848,0.005821235233079642,0.001215476736985147
1772366284933398300,2.379398193359375,-0.01904547673165798,0.0033583796503487973,0.0009970482133328914
1772366284943468000,2.389468017578125,-0.02039922942817211,0.0051306774193421,-0.006941708896681666
1772366284953538300,2.399538330078125,-0.027438626545667647,0.003764448833744973,0.0002480564769357443
1772366284963608300,2.4096083984375,-0.0311877499461174,-0.004890658118389546,0.0011458090342581272
1772366284973678000,2.419677978515625,-0.02759410936832428,0.0008075626563746482,-0.008530475925467908
1772366284983749000,2.4297490234375,-0.023255203381180763,-0.003121301225153729,0.00013513415437191724
1772366284993819100,2.439819091796875,-0.02071077959537506,-0.00565646399226971,0.0006244885738939046
1772366285003889200,2.44988916015625,-0.025200492230057714,-0.0035389969142619517,-0.005216857865452766
1772366285013959200,2.459959228515625,-0.013829787909984587,-0.003938745954725891,0.0002950008912011981
1772366285024029200,2.470029296875,-0.026256723284721374,-0.00603677767990157,-0.004199205255508423
1772366285034099200,2.48009912109375,-0.033743864169716836,-0.003758503150148317,0.00032404432259500025
1772366285044169200,2.490169189453125,-0.027165070301294326,-0.002444205681188032,0.004574504841305315
1772366285054239200,2.5002392578125,-0.03240589356422424,0.0003814279324840754,-0.004338540660962462
1772366285064309200,2.510309326171875,-0.023134791871905324,0.006567012099083513,-0.0003095774058252573
1772366285074379300,2.520379150390625,-0.029569793355464932,0.0003056410162243992,-0.0007664177952334284
1772366285084449300,2.53044921875,-0.02628127320408821,0.0033322679615579542,-0.008317673425003886
1772366285094520000,2.54052001953125,-0.04049743008315563,0.010166306099528446,-0.00022558891680091617
1772366285104590000,2.550590087890625,-0.023876550149917602,0.006140082790749147,0.0004734992632642388
1772366285114660400,2.560660400390625,-0.028355741390585897,0.005565041115460917,-0.00274842192530632
1772366285124730000,2.570730224609375,-0.03434007649719715,0.002966759117413312,0.010009864295646547
1772366285134800100,2.580800048828125,-0.0241641349196434,0.00563159441249445,0.0013457520531490444
1772366285144870400,2.590870361328125,-0.027450901505351066,0.003152308284770697,0.001586465473845601
1772366285154940200,2.600940185546875,-0.02339899576604366,0.0007824738808907568,-0.0029341902883723374
1772366285165010200,2.61101025390625,-0.021748305949568746,-0.00002700673793442547,-0.005655505011044442
1772366285175080200,2.621080078125,-0.020402152037620542,0.003503806869871914,-0.0031063319848850367
1772366285185150200,2.631150146484375,-0.023688334101438523,-0.002067992779938504,-0.000748443747125566
1772366285195220200,2.64122021484375,-0.027128829944133757,0.0016720705312211065,0.0009500672664493322
1772366285205291300,2.651291259765625,-0.028633389288187025,-0.004347719481261447,0.006631254708021879
1772366285215361000,2.661361083984375,-0.021754735690355298,-0.0033726273714099076,0.0043109220016747715
1772366285225431300,2.671431396484375,-0.028939678758382794,-0.00162520831534639,-0.006763612383417785
1772366285235501300,2.681501220703125,-0.026245617368817326,0.009452933665784076,0.0011720029214397072
1772366285245571000,2.691571044921875,-0.026540800923109054,0.0023797164770774544,-0.0042481224311515684
1772366285255641300,2.701641357421875,-0.0266869313955307,0.0009019446752499789,0.0012251944134011863
1772366285265711400,2.71171142578125,-0.02563771460354328,-0.008220286598289385,-0.0014287541614845395
1772366285275781000,2.721781005859375,-0.023244097465276718,-0.007699477594578639,0.0011128200801089406
1772366285285851100,2.73185107421875,-0.021596914780139923,-0.0042517117608804255,-0.0012627864774316549
1772366285295921200,2.741921142578125,-0.026085458371043205,-0.0013668953058775513,0.0013146993277594447
1772366285305992200,2.7519921875,-0.02129237887561321,-0.005935217001568525,0.0029221345243975517
1772366285316062200,2.762062255859375,-0.02712006211578846,-0.002697303659422323,-0.0009164207251742482
1772366285326132200,2.77213232421875,-0.034599604216217994,0.0026115707378834485,-0.0014785481199622154
1772366285336202200,2.7822021484375,-0.03863514334261417,0.00011129662105813622,-0.00035370880849659443
1772366285346272300,2.792272216796875,-0.030996611288189885,0.0035456184512935576,0.003691876787878573
1772366285356342300,2.80234228515625,-0.03159340813755989,-0.007096798993693664,0.0007328077865764498
1772366285366412300,2.812412353515625,-0.024115619602799416,0.002262620302895084,0.002756312970817089
1772366285376482300,2.822482421875,-0.021577625557780266,-0.001664161219401285,0.0003997033746913075
1772366285386552000,2.832552001953125,-0.03445639635324478,-0.004559069810155779,-0.007003412488661706
1772366285396622000,2.8426220703125,-0.034463410615921015,-0.0018546148907393216,-0.00013235767539590597
1772366285406693000,2.852693115234375,-0.03581014904975891,0.0004498809256590903,-0.0017632468128576874
1772366285416763400,2.862763427734375,-0.025642390778660772,0.006575578998029232,-0.0017441767862066625
1772366285426833200,2.872833251953125,-0.02565115860700607,0.007345887517090886,-0.0010391703220084308
1772366285436903200,2.882903076171875,-0.02086976954936981,-0.0014532401487696914,0.003906286723539233
1772366285446973200,2.89297314453125,-0.031052725389599797,0.0019404939427506178,-0.0001644698467105627
1772366285457043200,2.903043212890625,-0.03240004834532738,0.000031290187407284976,0.0028198431937023994
1772366285467113200,2.91311328125,-0.027464930030703542,-0.005600112428842112,0.002889912755228579
1772366285477183000,2.923182861328125,-0.03479366548359394,0.004675928522320464,-0.005118037133477628
1772366285487253200,2.933253173828125,-0.03313596140444278,0.0018886906902771442,-0.008631561679765582
1772366285497323300,2.9433232421875,-0.026841829696297646,-0.00010020897146314382,-0.006366100965812802
1772366285507394300,2.953394287109375,-0.03431903370916843,0.002542021766165271,-0.0010410700181499122
1772366285517464000,2.963464111328125,-0.02608604289293289,0.004717292579170316,0.00008829933796077966
1772366285527534300,2.973534423828125,-0.027722704184055327,0.001826932299369946,-0.004803199030645191
1772366285537604000,2.98360400390625,-0.026523265266418454,0.002453320569405332,-0.0020592340847477315
1772366285547674000,2.993674072265625,-0.029968437284231184,-0.0004955101656727493,0.0014643369315192102
1772366285557744400,3.003744384765625,-0.03281505888700485,0.006412305594561621,0.0026293255902826783
1772366285567814100,3.013814208984375,-0.03430968135893345,0.0024708744924049823,0.0038801293689757583
1772366285577884200,3.02388427734375,-0.035054362246394154,-0.0016791030602063982,-0.005341324495337903
1772366285587954200,3.0339541015625,-0.030717209824919697,-0.006786810595914721,0.0008847834778949618
1772366285598024200,3.044024169921875,-0.027870588222146032,-0.005630361436633393,0.00005326455719769001
1772366285608095200,3.05409521484375,-0.036846506360173226,-0.0022326361565850675,-0.003943915320187807
1772366285618165200,3.064165283203125,-0.026966332858800887,-0.001930639269016683,-0.004146780948527157
1772366285628235000,3.074235107421875,-0.026954057899117468,0.005688000774849206,0.0015034268328920006
1772366285638305300,3.08430517578125,-0.029788404542207717,-0.0004601465913467109,0.004982574185542762
1772366285648375300,3.094375244140625,-0.030533085429668424,-0.005576329694455489,-0.0031676702506840226
1772366285658445000,3.104445068359375,-0.030977906587719914,0.001187602349370718,0.001411218504793942
1772366285668515300,3.114515380859375,-0.028577275186777114,-0.007579495343565941,0.003955824953690171
1772366285678585300,3.12458544921875,-0.030218028131127356,-0.001679998109349981,-0.003994257267937064
1772366285688655000,3.134655029296875,-0.029170564904808998,0.0056204519639723,0.0006415858391672373
1772366285698725000,3.14472509765625,-0.027069208711385725,-0.0017095438642427325,-0.002660086054727435
1772366285708796200,3.154796142578125,-0.03903670988082886,-0.0010989102857653051,-0.0030602278208360072
1772366285718866200,3.1648662109375,-0.02841536262333393,0.008131357072666287,-0.000740991093032062
1772366285728936000,3.17493603515625,-0.02901391303837299,0.006861428468395024,0.003019019027613103
1772366285739006000,3.185005859375,-0.02916004351079464,-0.002439730435470119,0.006233268366381526
1772366285749076200,3.195076171875,-0.03603928163051605,0.0059321847942657765,-0.0031131635844707487
1772366285759146000,3.20514599609375,-0.02990589344203472,0.00320704327984713,0.007948584384284913
1772366285769216000,3.215216064453125,-0.024373393756151197,-0.007707039846526458,0.004243884647451341
1772366285779286300,3.225286376953125,-0.020185878938436506,0.004838169879326597,0.0008933686431497335
1772366285789356000,3.23535595703125,-0.025426702201366422,-0.008193499056063591,0.005305960921011865
1772366285799426000,3.245426025390625,-0.028117256459593773,-0.0009952581150457262,-0.010820998015441
1772366285809497000,3.2554970703125,-0.03125847709476948,-0.0013320523213595152,0.0037124446518719194
1772366285819566800,3.26556689453125,-0.04233575142621994,-0.006453687917720526,0.0004772621229290962
1772366285829637000,3.27563720703125,-0.034403789383172984,-0.003156655666325241,-0.0007035816920921206
1772366285839707100,3.28570703125,-0.02887538135051727,-0.0004147365470416844,0.000005370294861495495
1772366285849777000,3.29577685546875,-0.03336801659464836,-0.006189027365855872,-0.0014063231339678168
1772366285859847200,3.30584716796875,-0.036656536746025085,0.007774981383047997,-0.00479994762763381
1772366285869917200,3.315917236328125,-0.03979600381553173,0.001210325637832284,-0.0014309095859527587
1772366285879987000,3.325987060546875,-0.033655601364374156,-0.004055851262062787,0.0034549262268468734
1772366285890057000,3.336056884765625,-0.03439852868616581,0.0014560531603638083,-0.0006136749189347029
1772366285900127200,3.346127197265625,-0.02886485995650291,0.003389130981639027,-0.003044482262432575
1772366285910198000,3.356197998046875,-0.03350187210738659,0.0015373747682664543,0.002811623354628682
1772366285920268000,3.36626806640625,-0.03844634277224541,0.004384964485419914,0.007607771589979529
1772366285930338000,3.376338134765625,-0.04502981281578541,0.005400963994394987,0.009864793269149958
1772366285940408000,3.386407958984375,-0.03380523896813392,0.0011071301248390226,-0.0005938742399215698
1772366285950478000,3.39647802734375,-0.030515549772977827,0.006277070975489914,0.001430215466208756
1772366285960548000,3.406548095703125,-0.030671617117524145,-0.002036757391458377,0.0063593424314633005
1772366285970618000,3.4166181640625,-0.03456277933716774,0.0010314162738155573,-0.005010558171011507
1772366285980688100,3.426688232421875,-0.03172258747518063,-0.0022734796236269176,0.004980784087255597
1772366285990758100,3.436758056640625,-0.042051673787832256,0.004056782843824476,0.009237199422717094
1772366286000828000,3.446827880859375,-0.03218085263669491,0.0025741522037889806,0.005391154986433684
1772366286010899000,3.45689892578125,-0.02979483428299427,0.005318108016531914,-0.004210201573558152
1772366286020969200,3.46696923828125,-0.03382920436561108,0.005583910212712362,0.004740764786303043
1772366286031039000,3.4770390625,-0.03786298992633819,0.006140795176802202,0.0022952713303267956
1772366286041109000,3.48710888671875,-0.03053600803911686,0.0015951419706456361,-0.009013838995620608
1772366286051179300,3.49717919921875,-0.03712532330155372,0.0041818431287538255,-0.004185651654191315
1772366286061249000,3.5072490234375,-0.035628362742066384,0.0008507533441297709,0.011226802337355912
1772366286071319000,3.517319091796875,-0.024397359153628347,0.008612162859551608,0.0010798676585778593
1772366286081389300,3.527389404296875,-0.032926702567934986,0.006865985912503674,0.0028911548642441627
1772366286091459000,3.537458984375,-0.030978491109609603,-0.002055160697828978,0.006705269792303442
1772366286101529000,3.547529052734375,-0.03367372154295444,0.002319145396258682,0.002180778105184436
1772366286111600000,3.55760009765625,-0.03666822718381881,0.006004300182405859,0.0007813961686566472
1772366286121670000,3.567669921875,-0.02141103681921959,-0.002791411683661863,-0.003220313753373921
1772366286131740200,3.577740234375,-0.030543606823682783,0.0008559683753643184,-0.005894976322725415
1772366286141810200,3.58781005859375,-0.03907295023798942,-0.0025781251260079442,0.001568527958355844
1772366286151880000,3.5978798828125,-0.040277649852633476,-0.003963725132355466,-0.00011109569165855646
1772366286161950200,3.6079501953125,-0.03847790695428848,-0.0007081848019734024,-0.0020897022882476446
1772366286172020000,3.61802001953125,-0.03772971893548965,0.004105937481485307,0.0010579480877146124
1772366286182090000,3.628090087890625,-0.037730303457379336,0.0036497090134304014,0.006730331168323755
1772366286192160300,3.63816015625,-0.03025134587883949,-0.004271448507811874,0.004270224665105343
1772366286202230000,3.64822998046875,-0.04013444198966026,0.00784780002408661,0.0029264819059520958
1772366286212301000,3.658301025390625,-0.0425245519965887,0.001382028942927718,-0.0026566519886255264
1772366286222371000,3.66837109375,-0.027559038054943082,-0.0017629728182218967,-0.0015310454921796917
1772366286232441000,3.678441162109375,-0.035033903980255125,-0.000761047500371933,0.002527655314095318
1772366286242511000,3.688510986328125,-0.036223406025767325,0.0002761500602588057,-0.0005931070549413561
1772366286252581000,3.6985810546875,-0.037116555473208426,0.004130606131860986,0.0009980711266398428
1772366286262651000,3.70865087890625,-0.024254151290655133,-0.006549768703337759,-0.00391531028021127
1772366286272721200,3.71872119140625,-0.0339805955350399,-0.005696001418214291,-0.00045008185505867004
1772366286282791200,3.728791259765625,-0.03143383366167545,-0.003204476863425225,0.0006432298069819807
1772366286292861000,3.73886083984375,-0.04235679421424866,-0.008666139802802354,-0.003690598146244883
1772366286302931000,3.748930908203125,-0.03472001572549343,0.008012279003951697,0.001528415143676102
1772366286313001200,3.759001220703125,-0.034115620091557504,0.006362557301856577,0.00284516029804945
1772366286323072000,3.769072021484375,-0.020944588351249693,-0.0005004877348896116,0.0036623218998312946
1772366286333142000,3.77914208984375,-0.028878303959965705,-0.002075710295513272,-0.0036032851889729496
1772366286343212000,3.7892119140625,-0.03739946406781673,0.0011042623143177478,0.0004452230168506503
1772366286353282000,3.799281982421875,-0.03111760731935501,0.0019257804308086632,0.007876468996144831
1772366286363352000,3.80935205078125,-0.04487842164635658,0.0007386804049368947,-0.0011207476582378148
1772366286373422000,3.819422119140625,-0.021081950995326042,0.0019220815032254903,0.0019648703321814534
1772366286383492000,3.8294921875,-0.030652912417054173,-0.003621935090515762,-0.0003394245548173785
1772366286393562000,3.83956201171875,-0.037984570479393,0.0032319219927769154,0.000571698940731585
1772366286403632000,3.849632080078125,-0.03857552210986614,0.0009175989021081477,0.0025472002647817134
1772366286413702000,3.859701904296875,-0.03917991774380207,0.001321384796872735,0.0006105331137776374
1772366286423773000,3.86977294921875,-0.04441548030972481,-0.002554616386257112,0.001854030368849635
1772366286433843200,3.87984326171875,-0.03812894738614559,0.005464421152044087,0.002628193079121411
1772366286443913000,3.889912841796875,-0.027802783682942388,0.0008877700194250791,0.0027838950974866748
1772366286453983000,3.89998291015625,-0.03647942661345005,-0.003015027839085087,-0.0018035788232460617
1772366286464053200,3.91005322265625,-0.040215690532326695,-0.0005989979396108537,0.0019013035766780376
1772366286474123000,3.920123046875,-0.03796645030081272,0.006033681540517136,0.00021006255410611628
1772366286484193000,3.930193115234375,-0.03811784147024155,0.00632325733792968,0.002720547537691891
1772366286494263300,3.94026318359375,-0.02719137378633022,0.003310384923312813,-0.004859386197291315
1772366286504333000,3.9503330078125,-0.02793956180512905,0.0025520225703716277,-0.0010916676942259072
1772366286514403000,3.960403076171875,-0.033932080218195916,0.004603265144908801,-0.0040276846135035155
1772366286524474000,3.97047412109375,-0.02285363684296608,-0.0001573551193345338,-0.006157170922867953
1772366286534544000,3.9805439453125,-0.030035072779655454,-0.0018103282244410364,-0.003741195822320878
1772366286544614100,3.9906142578125,-0.03976794676482677,-0.003067625676002353,0.0015328355904668568
1772366286554684200,4.00068408203125,-0.03827916951179504,-0.0032879538957960902,0.004217873423360288
1772366286564754000,4.01075390625,-0.04067161760628223,-0.005332319204974919,0.005024367500655353
1772366286574824200,4.02082421875,-0.03199205206632614,0.005716651480598375,-0.00006539338640868664
1772366286584894200,4.030894287109375,-0.030045594173669813,0.0005648034090641886,0.004291596246697008
1772366286594964000,4.0409638671875,-0.031844168028235434,-0.005806256859656423,0.0067485244121402495
1772366286605034200,4.0510341796875,-0.031098318096995353,-0.0006814611918292939,0.0040166882954537865
1772366286615104000,4.06110400390625,-0.039921091499924656,-0.003056053969217464,0.0015741905141621827
1772366286625174000,4.071174072265625,-0.034089901128411294,0.003027558527095243,0.00007934884652495384
1772366286635245000,4.0812451171875,-0.034247137516736983,0.00044673912050202484,0.00439118416365236
1772366286645315000,4.091315185546875,-0.032898645517230034,-0.0030254396352451295,0.003976465882919729
1772366286655385000,4.101385009765625,-0.03528641743659973,-0.0002668159763328731,0.007218151217885315
1772366286665455000,4.111455078125,-0.031845337072014805,0.000006237944541499018,-0.0023765198729932308
1772366286675525000,4.121525146484375,-0.03857961376309395,0.0028219529523979873,-0.0018040902798995375
1772366286685595100,4.13159521484375,-0.05219546666145324,-0.0021230383022688326,0.003909538126550614
1772366286695665200,4.1416650390625,-0.034385084682703015,0.004806587430974468,0.0005549304690212011
1772366286705735000,4.15173486328125,-0.04052373356819153,0.0018011402709875255,0.00047839463409036397
1772366286715805000,4.161804931640625,-0.04007423623502254,-0.002805184480687603,-0.0030967969715595244
1772366286725875200,4.171875244140625,-0.029898294657468794,0.0011693451734725384,-0.005013736508786678
1772366286735946000,4.181946044921875,-0.029153029248118398,-0.005692220292240381,0.00020016221459954976
1772366286746017000,4.19201708984375,-0.03469371224045753,0.001276276146667078,0.008801292223483324
1772366286756087000,4.202087158203125,-0.04217676147222519,0.010216940308222547,-0.0036457726238295434
1772366286766156800,4.21215673828125,-0.043511809468269345,0.00477385420515202,-0.0010154241202399133
1772366286776227000,4.22222705078125,-0.03797112647593021,0.0021555066666100174,0.006275025148876011
1772366286786296800,4.232296875,-0.02824585127532482,-0.0020605766584631054,0.001007496542111039
1772366286796366800,4.242366943359375,-0.039164720174670216,-0.008573465683823452,-0.004439480284787714
1772366286806437000,4.25243701171875,-0.024658055916428563,0.006133927044598386,-0.005242722959071398
1772366286816507000,4.2625068359375,-0.033332945281267165,0.0014263338755350558,0.004866254329495132
1772366286826577000,4.272576904296875,-0.0294406140178442,-0.00020177878295071422,-0.003362717898748815
1772366286836647000,4.28264697265625,-0.0393178649097681,-0.005666282133385539,-0.00445106112472713
1772366286846717000,4.292717041015625,-0.03258709535002708,-0.005592933769384399,0.0074805284811183806
1772366286856788000,4.3027880859375,-0.02570142748951912,0.0013169186843093484,0.004210676497593522
1772366286866858000,4.31285791015625,-0.03393967900276184,0.003114405693486333,0.0007399681797251105
1772366286876927700,4.322927734375,-0.031401100435853,-0.003250270500220358,0.0035975861005485056
1772366286886998000,4.332998046875,-0.027057518273591992,-0.0017132519249804317,0.003400309962779283
1772366286897068000,4.343068115234375,-0.03094458884000778,0.0057623446526937185,0.0026968013359233737
1772366286907137800,4.3531376953125,-0.022264438778162,0.000864781869482249,0.0034487887470051643
1772366286917208000,4.3632080078125,-0.03124912474453449,-0.0032217293923255054,0.010600012208521366
1772366286927278000,4.373278076171875,-0.027507015606760978,-0.000247298425110057,-0.0007550196183845401
1772366286937347800,4.383347900390625,-0.03409165469408035,0.00460774952378124,0.0014970701573416589
1772366286947417900,4.39341796875,-0.03259410961270332,-0.0053014217432122675,0.0031866672120988366
1772366286957488000,4.403488037109375,-0.04066986404061317,0.0049468178855720905,0.0031609117163345214
1772366286967559000,4.413558837890625,-0.03498538866341114,-0.0017424871526192872,-0.00031907588653266427
1772366286977629000,4.42362890625,-0.032440380355715746,-0.003580954626156017,0.002698591434210539
1772366286987699000,4.433698974609375,-0.029892449438571927,0.0017438297263346612,-0.0000678045392036438
1772366286997769000,4.44376904296875,-0.02779401585459709,-0.0024236469503492114,-0.0022662644315510987
1772366287007839000,4.4538388671875,-0.038711715710163117,-0.007291983639076352,0.003080686086975038
1772366287017909000,4.463908935546875,-0.03720832540988922,-0.0006776435332372785,-0.00023249358162283896
1772366287027979000,4.47397900390625,-0.02762450450658798,-0.006356072762142866,-0.0030759368466213343
1772366287038049000,4.484049072265625,-0.023740941071510313,-0.00547588326097466,-0.005351736291497946
1772366287048118800,4.494118896484375,-0.025082418808341025,-0.0002827624641358852,-0.007017331416159868
1772366287058188800,4.504188720703125,-0.02791910353899002,-0.0006040577072184533,0.003028225247375667
1772366287068259000,4.514259033203125,-0.0380891998976469,-0.0026861612109001726,-0.003131101099960506
1772366287078330000,4.524330078125,-0.030901334220170974,-0.004699035403272137,-0.0021303630921989678
1772366287088400000,4.53439990234375,-0.03658931672871112,-0.0024344423389993605,-0.002022628401406109
1772366287098470000,4.544469970703125,-0.03209960409402847,-0.008683346665930002,0.00563004177622497
1772366287108540200,4.5545400390625,-0.021322774013876913,-0.001095229624491185,0.0029896468026563523
1772366287118610000,4.56460986328125,-0.02236731463074684,0.003784249512758106,0.0004995104873552919
1772366287128680000,4.574679931640625,-0.029843349599838254,-0.0006968505572061986,-0.004931026661396026
1772366287138750000,4.58475,-0.02610825472474098,-0.004767579727992416,0.002405380641296506
1772366287148820000,4.594820068359375,-0.037630350214242936,-0.006217066150251776,0.003739734517596662
1772366287158890000,4.604889892578125,-0.038379122754931445,-0.004841192953474819,0.007886259737797082
1772366287168959700,4.614959716796875,-0.02834989617168903,-0.011406844212533905,-0.004423223269730806
1772366287179030800,4.62503076171875,-0.024151275438070295,-0.002703541603963822,0.001644625401869416
1772366287189101000,4.63510107421875,-0.04136076891422272,-0.00026568346517160535,0.002378419569134712
1772366287199171000,4.645171142578125,-0.03207914582788944,-0.002791283819498494,0.0016917890118435025
1772366287209240800,4.65524072265625,-0.030731822872161862,-0.006064140610862523,0.0029373686261475085
1772366287219311000,4.66531103515625,-0.0256412217348814,-0.0047259234101977195,0.00311681684628129
1772366287229380900,4.675380859375,-0.030139117676019667,0.0035680586119648068,0.002011924344301224
1772366287239451000,4.685450927734375,-0.026847090393304823,0.00221935654990375,0.002906644694320857
1772366287249521000,4.69552099609375,-0.03672083415389061,-0.0012338891765102744,-0.00616659633833915
1772366287259591000,4.7055908203125,-0.026244448325037955,0.0076782247439958155,-0.006412022466771305
1772366287269661000,4.715660888671875,-0.031330957809090614,0.003650394000019878,-0.0026421850718557835
1772366287279732000,4.72573193359375,-0.03552490236759186,-0.009691738257184624,-0.0005018485749140382
1772366287289801700,4.7358017578125,-0.031025837382674216,-0.0013802205783315002,0.005718742972984909
1772366287299872000,4.7458720703125,-0.027874095353484153,-0.0025372177268844095,0.007829524581879377
1772366287309942000,4.75594189453125,-0.031465982365608214,0.0014454130353406072,0.001935863433405757
1772366287320011800,4.76601171875,-0.03041735009551048,-0.0035973760379943995,0.00256553963907063
1772366287330082000,4.77608203125,-0.03191197256743908,-0.002030674710543826,-0.0030688495187088847
1772366287340152000,4.786152099609375,-0.03474398112297058,0.008300786222284659,0.004931976509466767
1772366287350221800,4.796221923828125,-0.04147591972649097,-0.00342020197333768,-0.00015730945356190205
1772366287360291800,4.806291748046875,-0.00959901847243309,-0.0003982877357397228,-0.00008789747916162013
1772366287370362000,4.816362060546875,-0.05747603741288185,-0.005097332272166386,0.0030361893581226465
1772366287380432000,4.826431884765625,-0.04071428770422935,-0.00600299414130859,0.0012909896586090325
1772366287390503000,4.8365029296875,-0.021404607078433037,-0.000490587395383045,0.006673815208114683
1772366287400573000,4.846572998046875,-0.0255932909399271,0.0016945563576649873,-0.0039127895295619965
1772366287410643000,4.856642822265625,-0.02963175267577171,-0.00784629305358976,-0.004010587348230183
1772366287420713000,4.866712890625,-0.03307634017169475,0.0010305120915174483,-0.00020374241117388007
1772366287430783000,4.876782958984375,-0.03277297331094742,-0.005699261954380199,0.001828822862356901
1772366287440853000,4.88685302734375,-0.018560323563218115,-0.015889834845485167,-0.0003283551715314388
1772366287450923000,4.896923095703125,-0.035171266624331475,-0.0014810414711479097,0.008032463275454938
1772366287460993000,4.906992919921875,-0.041458384069800375,0.0024077187288552523,-0.0001096709195524454
1772366287471062800,4.917062744140625,-0.0226087221711874,-0.00531997118005529,-0.006479827005974948
1772366287481133000,4.927133056640625,-0.026049802535772323,0.0008650375978089868,-0.00347103711143136
1772366287491204000,4.9372041015625,-0.0308346987247467,-0.00013261340372264384,0.0029104806192219255
1772366287501273900,4.94727392578125,-0.029788404542207717,-0.002429948826972395,-0.0016227058310061692
1772366287511343900,4.95734375,-0.022303601744771,-0.003573419773671776,0.0007004033543169499
1772366287521414100,4.9674140625,-0.03143500270545482,-0.002130390491662547,0.006474931635148823
1772366287531484000,4.97748388671875,-0.03128828771114349,-0.00031121224048547447,0.0035437004888430237
1772366287541554000,4.987553955078125,-0.028289105895161627,-0.005092966624302789,0.005902428976818919
1772366287551624000,4.9976240234375,-0.028588381102681158,-0.004262287953821942,0.00035542584154754875
1772366287561694000,5.00769384765625,-0.04115560173094272,0.0010910557728726416,0.00009944178648293017
1772366287571764000,5.017763916015625,-0.02171148107051849,0.005606359506538138,-0.0044646512586623424
1772366287581833700,5.027833740234375,-0.03518529514968395,-0.003236059311777353,0.0006005231764167547
1772366287591904000,5.037904052734375,-0.034438276174664495,-0.002199026147928089,-0.002570069683715701
1772366287601975000,5.04797509765625,-0.03683598496615886,-0.007556543726241215,0.002746924087963998
1772366287612045000,5.058045166015625,-0.03878770355582237,-0.003760941702406853,-0.0018378464190289376
1772366287622114800,5.06811474609375,-0.03370236311554908,0.003126662386860698,0.0020043986249715087
1772366287632185000,5.07818505859375,-0.03145546097159385,0.004471491991402581,-0.004348915924504399
1772366287642254800,5.0882548828125,-0.04147825781404972,-0.004963147965865209,-0.0017490721570327878
1772366287652324900,5.098324951171875,-0.026669980260729788,-0.0013770787731744347,0.0003636091480031609
1772366287662395000,5.108394775390625,-0.03370645476877689,0.0059466882436536245,0.010039090390130878
1772366287672465000,5.11846484375,-0.04298749333322048,0.0034928744839038696,0.009531761922501027
1772366287682535000,5.128534912109375,-0.04044306954741478,0.0004786868950352072,-0.0016730477787554262
1772366287692605000,5.13860498046875,-0.03999240317046642,-0.008538513101451099,-0.004943886142969131
1772366287702676000,5.148676025390625,-0.030413258442282674,-0.002054174317140132,-0.001280212536267936
1772366287712746000,5.15874609375,-0.04357084617912769,-0.0020458814128302034,-0.0009025017976760864
1772366287722816000,5.16881591796875,-0.038028409621119495,-0.007709450999321415,0.0002813742246478796
1772366287732885500,5.178885498046875,-0.03218143715858459,0.004655789916589856,-0.0005387465192005038
1772366287742955800,5.188955810546875,-0.028289690417051313,-0.009629240080760791,-0.0001875949939712882
1772366287753025500,5.199025634765625,-0.03636953649818897,-0.0007126874471548944,-0.0001591360844671726
1772366287763095600,5.209095458984375,-0.04205459639728069,-0.0011417447804939,-0.002075856425985694
1772366287773165800,5.219165771484375,-0.04474807326495647,-0.0017700053472071884,-0.0028350772954523562
1772366287783235600,5.229235595703125,-0.0465332031160593,0.00011805515540763735,0.0008604527542367577
1772366287793305600,5.2393056640625,-0.04293780897259712,0.0007788845511619002,0.002603716224990785
1772366287803376600,5.249376708984375,-0.005979074409604072,0.0019577464716508983,-0.002523746323958039
1772366287813446400,5.2594462890625,-0.04757599016726017,-0.0009839238702785223,0.002181764485873282
1772366287823516700,5.2695166015625,-0.03261515240073204,-0.004016596963908523,0.0015344064930453895
1772366287833586700,5.279586669921875,-0.0362111310660839,-0.003482060828944668,0.00668952423390001
1772366287843656400,5.289656494140625,-0.03337035468220711,0.0029754173479042945,-0.005174772289395332
1772366287853726700,5.299726806640625,-0.03307926278114319,0.005299777775397524,-0.000553140370734036
1772366287863796700,5.309796630859375,-0.017819734328985214,0.0047616523107048125,-0.000434190166182816
1772366287873866500,5.319866455078125,-0.04938566993772983,0.001982049795845523,0.003930288653634488
1772366287883936800,5.329936767578125,-0.02843231375813484,0.007537966889934614,-0.00046721565295010804
1772366287894006800,5.3400068359375,-0.030825346374511717,0.004233153190882876,-0.004330613082833588
1772366287904076500,5.35007666015625,-0.03442249408364296,0.002017258106544614,-0.006224427472800016
1772366287914147600,5.360147705078125,-0.03548164774775505,-0.0021751520819962024,-0.0003083718294277787
1772366287924217600,5.370217529296875,-0.03234159615635872,-0.0010414170780219138,-0.0009705620652064681
1772366287934287600,5.38028759765625,-0.038328269350528715,-0.0036161172710824758,-0.0009742518596351146
1772366287944357600,5.390357666015625,-0.03653320262730121,0.0028479276438709345,0.003960501128807663
1772366287954427600,5.400427734375,-0.039679099437594414,0.0011631254952400923,-0.0073173007434234015
1772366287964497700,5.41049755859375,-0.047613399568200106,-0.010986426843376829,0.0009727174896746873
1772366287974567700,5.420567626953125,-0.03280336844921112,0.00668797159763053,0.003843377555161714
1772366287984637400,5.430637451171875,-0.03954641296863556,-0.0008740520213264972,-0.0010160817073658107
1772366287994707700,5.440707763671875,-0.042839609295129776,-0.0014781827937811612,-0.00014178309086710213
1772366288004777700,5.45077783203125,-0.045240240696072576,-0.0009150233525317162,0.000458959281258285
1772366288014847500,5.460847412109375,-0.035058453899621964,-0.006009350816858932,-0.0031136750411242245
1772366288024918500,5.47091845703125,-0.03639583998322487,0.006857419013557955,0.006219495569355786
1772366288034988500,5.480988525390625,-0.034147768795490266,0.009576697042770683,0.0008050327725708485
1772366288045058800,5.491058837890625,-0.02681201907992363,0.0013448022050783037,-0.0006209449099376797
1772366288055128600,5.501128662109375,-0.04177168780267238,-0.0038513781985267995,0.008129859235323965
1772366288065198600,5.511198486328125,-0.0254582663834095,0.00001032959776930511,0.0008899711096659302
1772366288075268600,5.5212685546875,-0.030686814686655996,-0.005295275130216032,0.006476100678928196
1772366288085338600,5.531338623046875,-0.052686465048789974,-0.008267011816846206,0.00028736557401716706
1772366288095408600,5.54140869140625,-0.023508301359415052,-0.000919653861876577,0.00004566577263176441
1772366288105478400,5.551478515625,-0.04639408690631389,0.005812092945398762,-0.004091799358278513
1772366288115548700,5.561548583984375,-0.05417056612670421,0.007078468752559274,0.000028860768303275108
1772366288125618700,5.57161865234375,-0.021707389417290685,-0.0035932843847665936,-0.0009060089290142059
1772366288135689500,5.581689453125,-0.030083588096499442,-0.0006683094493113458,-0.0045827246803790325
1772366288145759500,5.591759521484375,-0.038624037426710126,-0.007668826727988198,-0.0039182328896597025
1772366288155829800,5.601829833984375,-0.02649696178138256,-0.006140950440429151,-0.004676430845819413
1772366288165899500,5.6118994140625,-0.020660510712862012,-0.0009924907692242413,-0.004679353455267847
1772366288175969500,5.621969482421875,-0.05970131224691867,-0.0006387819607276469,0.0066920449845492835
1772366288186039800,5.632039794921875,-0.03173018625974655,0.00015392105323262513,-0.001916793406754732
1772366288196109600,5.642109619140625,-0.027854806131124496,-0.010584796373080461,-0.003893975231237709
1772366288206179600,5.6521796875,-0.034142508098483085,-0.005228639634791761,-0.006511464253254234
1772366288216249600,5.66224951171875,-0.01529459976553917,-0.0068810647506266824,-0.002913293630816042
1772366288226319600,5.672319580078125,-0.03220247994661331,0.0014304620613809673,0.005206701797619462
1772366288236389600,5.6823896484375,-0.04492284530997276,-0.002212954208580777,-0.003197590464912355
1772366288246460700,5.692460693359375,-0.033553894555568696,-0.0028462471434380857,-0.0026522680744528767
1772366288256530400,5.702530517578125,-0.029964930152893064,-0.006370640143612399,0.0032840997045859694
1772366288266600700,5.7126005859375,-0.02143617126047611,0.00405870080627501,0.0007172448912635445
1772366288276670700,5.722670654296875,-0.023987024787068364,0.007168594721425324,-0.004379311062768102
1772366288286740500,5.732740478515625,-0.03206862443387508,0.0011815653342287986,-0.001982771315053105
1772366288296810800,5.742810791015625,-0.021149171012639998,-0.0005351845889352262,-0.002056165344826877
1772366288306880800,5.752880859375,-0.029081717577576636,-0.001563148530339822,0.008834208112396299
1772366288316950500,5.762950439453125,-0.030287586236000058,-0.0015065321054309605,0.0014448650460690258
1772366288327020500,5.7730205078125,-0.02999532529115677,-0.004139017767179757,-0.0009461582763120531
1772366288337090800,5.7830908203125,-0.028951953718066213,-0.004642775171389803,-0.0026968744011595844
1772366288347160600,5.79316064453125,-0.025210429102182387,-0.007557849767338484,-0.0007413929518312215
1772366288357231600,5.803231689453125,-0.024171149182319638,-0.0005082691825460642,0.008203253265097736
1772366288367301600,5.813301513671875,-0.03121171534359455,-0.00027064276807941493,-0.001247442777827382
1772366288377371600,5.82337158203125,-0.03060907327532768,-0.0004426931330468505,-0.003588306815549731
1772366288387441700,5.833441650390625,-0.02208382151424885,-0.002375387361831963,-0.009367547804117202
1772366288397511700,5.84351171875,-0.019093992048501967,0.003799474481353536,-0.004662329255230724
1772366288407581400,5.85358154296875,-0.02746902168393135,0.004031958929821848,-0.008018252087011932
1772366288417651700,5.863651611328125,-0.025831775870919227,0.000308974617626518,-0.008959405394643545
1772366288427721500,5.873721435546875,-0.022077391773462293,-0.008578890777612104,0.0018287132645025848
1772366288437791500,5.88379150390625,-0.019960253489017487,0.0016692301201634108,-0.0014061770034953952
1772366288447861800,5.89386181640625,-0.024305004695057867,0.003577027369709685,0.0008717413332313299
1772366288457932800,5.903932861328125,-0.019521862071752546,0.0016748652765061706,-0.003872457519173622
1772366288468002600,5.91400244140625,-0.025363573837280273,-0.005706477146456018,0.002721935777179897
1772366288478072600,5.924072509765625,-0.027615152156352994,-0.008803237585397437,0.004064290296845138
1772366288488142800,5.934142822265625,-0.022525720062851903,-0.003504656253242865,0.004244176908396184
1772366288498212600,5.944212646484375,-0.026412790629267692,-0.0032904472469817846,-0.0057019379686564205
1772366288508282600,5.95428271484375,-0.027760113584995267,-0.0013873901046346873,0.000719692576676607
1772366288518352400,5.964352294921875,-0.023862521624565123,-0.0021402634317055345,0.004905051969923079
1772366288528422700,5.974422607421875,-0.026101240462064742,0.0008408895372413099,0.0027950740786269307
1772366288538492700,5.98449267578125,-0.021612112349271774,-0.0010189129852689802,-0.0024600699706003068
1772366288548562400,5.9945625,-0.02415069091618061,-0.004099781735334545,0.005571151195839047
1772366288558633500,6.004633544921875,-0.02086100172102451,-0.001203804565500468,-0.0038961306557059286
1772366288568703700,6.014703857421875,-0.03058160074651241,-0.005217533718887717,-0.005144742477312684
1772366288578773500,6.0247734375,-0.012625672817230224,0.0065166518850252025,0.0014378873160108923
1772366288588843500,6.034843505859375,-0.02444704351425171,0.0064601724574342365,0.0005347279312089085
1772366288598913800,6.044913818359375,-0.025189970836043355,-0.002265725575434044,-0.0019080621110275386
1772366288608983600,6.054983642578125,-0.02234685636460781,0.001754332854039967,-0.007590053270198405
1772366288619053600,6.065053466796875,-0.025644144344329833,0.0032110710009932517,-0.007088204695284366
1772366288629123600,6.07512353515625,-0.017716273954510687,-0.005902730370918288,-0.001282952482625842
1772366288639193600,6.085193603515625,-0.02923310874700546,0.004553635583212599,-0.002339987254887819
1772366288649263600,6.095263671875,-0.022950082954764365,-0.0026982535074930635,-0.006998188324272632
1772366288659334700,6.105334716796875,-0.021606267130374907,-0.00311739223501645,0.0024818068783730267
1772366288669404400,6.115404296875,-0.02011398274600506,-0.005876235089637339,0.002079509687796235
1772366288679474700,6.125474609375,-0.00874853912293911,-0.0009006934330798685,0.0002916033577173948
1772366288689544700,6.135544677734375,-0.02536532740294933,-0.0013689959314186126,-0.0002867445195093751
1772366288699614500,6.145614501953125,-0.029713001218438145,-0.0019691537816543133,0.002530760586634278
1772366288709684700,6.155684814453125,-0.025686229920387268,0.003194576523918658,0.0061456266155466436
1772366288719754800,6.165754638671875,-0.02867722842991352,0.0038122700308449563,-0.006535977640002966
1772366288729824500,6.175824462890625,-0.03136953625380993,-0.004450887594791129,-0.0030514234598726033
1772366288739894000,6.18589404296875,-0.029124387675523757,0.0013446104088332502,-0.003006999796256423
1772366288749965000,6.195965087890625,-0.025687983486056325,0.001985118535766378,-0.0028162264645099637
1772366288760035000,6.20603515625,-0.01865209349989891,-0.005708312910515815,-0.002317592759989202
1772366288770104800,6.216104736328125,-0.0216413384437561,-0.0050946379915811114,-0.0032911139672622083
1772366288780174800,6.2261748046875,-0.03390694577693939,-0.0025250706313643605,-0.007098214632645249
1772366288790245000,6.2362451171875,-0.021192425632476804,-0.0006195749367587268,-0.010350311763770877
1772366288800315000,6.24631494140625,-0.019390929168462752,-0.01037962918980047,0.0006964943641796708
1772366288810385000,6.256385009765625,-0.027771804022789,0.0011654727159533648,-0.0048675695037469265
1772366288820455200,6.266455078125,-0.02852291465103626,0.005498825745144859,0.006585917728953063
1772366288830525000,6.27652490234375,-0.0319675021469593,-0.000026294351881369948,-0.001135068444535136
1772366288840596000,6.286595947265625,-0.035868601238727565,0.002135121465707198,-0.006286313727870583
1772366288850666000,6.296666015625,-0.019714169773459432,-0.0006948960621375591,0.001954969992674887
1772366288860736000,6.306736083984375,-0.022706921848654745,-0.003600417378451675,-0.004011865989863872
1772366288870806000,6.316805908203125,-0.032433950614929194,-0.0008817969363648444,-0.00042929479535669087
1772366288880876000,6.3268759765625,-0.03154021664559841,0.0012388302131090313,-0.0029070830857381223
1772366288890945800,6.33694580078125,-0.02540507489144802,0.0034457930723205206,-0.0005117489144206047
1772366288901016000,6.34701611328125,-0.024801263779401776,-0.008203344596643,-0.00581062250752002
1772366288911086000,6.357086181640625,-0.022557868766784665,-0.002626128986198455,-0.006008519699797034
1772366288921155800,6.36715576171875,-0.031246202135086058,-0.000741794810630381,-0.004733458262681961
1772366288931227000,6.377226806640625,-0.03080255002081394,-0.0008792305199429392,-0.0021862579979002473
1772366288941297200,6.387297119140625,-0.030050270348787305,0.0009869926101993768,0.004021364470571279
1772366288951367000,6.397366943359375,-0.03528407934904098,0.0009277732362505048,0.0018797858646139502
1772366288961437000,6.40743701171875,-0.03319149098396301,-0.005994226312963292,-0.004138378446362913
1772366288971507200,6.417507080078125,-0.026004209828376767,0.000919936989666894,0.0008744082143530249
1772366288981577000,6.427576904296875,-0.03243862679004669,-0.001701926813367754,-0.004070500841923058
1772366288991647000,6.43764697265625,-0.028542788395285606,0.003042673897836357,-0.005915251925773918
1772366289001717000,6.447717041015625,-0.03677285660207271,-0.009571600742544978,0.0020103899743407964
1772366289011787000,6.457787109375,-0.034223756641149516,-0.0034628446718212216,-0.0028179800301790237
1772366289021858000,6.467858154296875,-0.023306641307473182,-0.00257640809295699,0.004392462805286049
1772366289031928000,6.477927978515625,-0.03318447672128677,-0.010375309207709505,0.0007956438897177577
1772366289041997800,6.487997802734375,-0.028393735313415526,-0.0077209496408700935,-0.008860109738633036
1772366289052068000,6.498068115234375,-0.03378244261443615,-0.005680648585455492,-0.0063675988031551235
1772366289062138000,6.50813818359375,-0.02988835778534412,-0.00851935174325481,-0.006021196518279611
1772366289072208000,6.518207763671875,-0.0381067355543375,-0.0029411314858123656,0.0010964534671977161
1772366289082278000,6.52827783203125,-0.039597850894927976,-0.0026076343482825904,-0.002074687382206321
1772366289092348200,6.53834814453125,-0.034061844077706335,-0.004577336119208485,0.002843077938817441
1772366289102418000,6.54841796875,-0.029424831926822662,0.006990342944534495,-0.005855959486588835
1772366289112489000,6.558489013671875,-0.02268354097306728,0.004672905448172241,0.0017705898690968751
1772366289122559000,6.56855908203125,-0.0359977805763483,0.003634191783890128,0.0025990400498732925
1772366289132629000,6.57862890625,-0.03674129242002964,-0.009323662996618076,-0.004611768111772835
1772366289142699000,6.588698974609375,-0.030748774006962774,-0.006794354581553488,-0.002793612773902714
1772366289152769000,6.59876904296875,-0.031492870372533795,-0.003440989033039659,0.001655073730647564
1772366289162839000,6.608839111328125,-0.037030630755424496,-0.008072658288525417,-0.004806048574857414
1772366289172909000,6.618908935546875,-0.032090836265683174,0.001573185867164284,0.006622742608003318
1772366289182979000,6.62897900390625,-0.027006080347299573,-0.005253527480876073,-0.001393463652394712
1772366289193048800,6.639048828125,-0.036737200766801835,0.006782353616505861,-0.000162277889624238
1772366289203119900,6.649119873046875,-0.04093114532530308,-0.0008580233351327478,0.0013868877811357377
1772366289213190100,6.659190185546875,-0.0419803621172905,-0.00451073715640232,-0.006449066541530191
1772366289223260000,6.669260009765625,-0.01804652882218361,-0.006784527307283133,0.0038378976624459027
1772366289233330000,6.679329833984375,-0.028674305820465085,0.005792794589884579,0.00033040099814534183
1772366289243400200,6.689400146484375,-0.04334522072970867,0.0014594780933111905,-0.005788337610475719
1772366289253470000,6.699469970703125,-0.040055531534552574,-0.008630703163240104,0.004614325395040214
1772366289263540000,6.7095400390625,-0.03736673084199428,-0.008612062394851818,0.0016688830602914094
1772366289273610000,6.71960986328125,-0.031683424508571624,-0.005241078991256654,-0.0034644247075542806
1772366289283680000,6.729679931640625,-0.030327918246388433,0.00008679236746393144,0.0022303163353353736
1772366289293751000,6.7397509765625,-0.03436228832900524,-0.00035862244563177227,0.007740896450355648
1772366289303821000,6.749821044921875,-0.027628011637926102,-0.0035068208108656107,-0.0035961613284423944
1772366289313890800,6.759890869140625,-0.03346154009699821,-0.008922087325248866,-0.0029509587600827216
1772366289323961000,6.769961181640625,-0.023289105650782585,-0.009345646499563008,-0.006607800767198205
1772366289334031000,6.780031005859375,-0.024782559078931808,0.00011467588823288679,-0.00892440714649856
1772366289344100900,6.790100830078125,-0.03615384792089462,-0.005405895897839218,0.0036757293706759808
1772366289354171100,6.800171142578125,-0.037949499166011806,-0.0028051114154513924,0.0002157981751486659
1772366289364241000,6.810240966796875,-0.024035540103912352,0.0012644121789373458,0.002975947070866823
1772366289374311000,6.820310791015625,-0.03212707662284374,0.00543689382430166,0.00648578182272613
1772366289384381000,6.830380859375,-0.03750584705173969,-0.005943911764677613,-0.0006783741855993867
1772366289394452000,6.840451904296875,-0.033166941064596174,-0.0009745623868890106,-0.005922521916776895
1772366289404522000,6.85052197265625,-0.035413843208551406,-0.0067598769232165064,-0.00027253333106637
1772366289414592000,6.860592041015625,-0.033921558824181554,0.0005947784222196787,0.011345971737615763
1772366289424661800,6.870661865234375,-0.030779753667116164,-0.0012592610797844826,0.00015493483338505028
1772366289434732000,6.88073193359375,-0.0349696065723896,0.004543424716452136,0.0013509031523019075
1772366289444802000,6.890802001953125,-0.031679332855343814,0.0010583682128228248,0.0017485241677612066
1772366289454871800,6.900871826171875,-0.03676642686128616,0.0020800942096859216,-0.001988689599186182
1772366289464942000,6.910942138671875,-0.038109658163785934,-0.004694505358627065,-0.003438559613935649
1772366289475012000,6.92101220703125,-0.0378016151279211,-0.00651926396721974,-0.0010465133782476186
1772366289485083100,6.931083251953125,-0.04782032031714916,-0.011646726516168564,0.00014240414537489414
1772366289495153000,6.94115283203125,-0.031655951979756354,-0.007439959008712321,-0.004857157707586884
1772366289505223000,6.951222900390625,-0.03284954567849636,-0.0018219821296166627,-0.0046427843045443295
1772366289515293000,6.96129296875,-0.032547932383418084,0.007866669121338054,0.004369483788497746
1772366289525363000,6.971363037109375,-0.021632570615410802,-0.000434034902555868,-0.009922478273138403
1772366289535433000,6.981432861328125,-0.0041284781068563455,-0.0008294730940833688,-0.009717457220330834
1772366289545503000,6.9915029296875,-0.04752046058773994,-0.004805984642775729,0.004579107951186597
1772366289555573000,7.001572998046875,-0.04706511803567409,-0.0072502085902728134,-0.0027739216927438973
1772366289565643000,7.01164306640625,-0.02940262009501457,-0.003316622867854312,-0.006086261111125349
1772366289575713800,7.0217138671875,-0.03074994305074215,0.0016812128189019858,-0.005346183333545923
1772366289585784000,7.0317841796875,-0.03329144422709942,0.002650642372947186,0.0002366583000868559
1772366289595854000,7.04185400390625,-0.04077390893697738,-0.005364403976825997,-0.011619235721044242
1772366289605923800,7.051923828125,-0.01833177550435066,-0.00350451925592497,-0.0037816008979454636
1772366289615993900,7.061993896484375,-0.03030921354591846,-0.013508812327310443,0.00008596125040203332
1772366289626064100,7.072064208984375,-0.04542436509132385,-0.0031881285168230532,0.006188698572292923
1772366289636134000,7.0821337890625,-0.025671616873145103,-0.002548743767896667,0.00288910903763026
1772366289646204000,7.092203857421875,-0.03404489294290542,-0.0010330237090121954,-0.004304492260888219
1772366289656274200,7.102274169921875,-0.04436521142721176,-0.0058125313368160274,-0.0003020516864955425
1772366289666345000,7.112344970703125,-0.03194938196837902,-0.0044081535647623234,-0.0059208048837259405
1772366289676415000,7.1224150390625,-0.03329612040221691,-0.0020743768549524246,-0.007099091415479779
1772366289686485000,7.132485107421875,-0.043323008897900576,-0.0010739219749812037,-0.0038427565006539225
1772366289696555000,7.142554931640625,-0.03493804239034653,-0.005848762560822069,-0.004026332906633615
1772366289706625000,7.152625,-0.0341851781964302,-0.008954446091735735,0.0021899112597107886
1772366289716695000,7.162695068359375,-0.029698388171195984,0.0011471424748189746,-0.009849595700018107
1772366289726764800,7.172764892578125,-0.015940496453642844,-0.0036134777894243596,-0.005399265227653086
1772366289736835000,7.1828349609375,-0.03299859876036644,-0.0013432678351178765,-0.002231850705295801
1772366289746904800,7.19290478515625,-0.03883738791644573,-0.0026954770285170524,-0.002447393152117729
1772366289756974800,7.202974853515625,-0.037943069425225254,0.0003002707213629037,-0.0011778846729546784
1772366289767046000,7.2130458984375,-0.03345569487810135,-0.002644660156732425,-0.0033078093737363813
1772366289777116200,7.2231162109375,-0.038843817657232285,0.003215454915165901,0.003855542916990816
1772366289787186000,7.23318603515625,-0.04228606706559658,0.00010559753263369202,0.0006740998692810536
1772366289797256000,7.243255859375,-0.03495791613459587,-0.0006876808700617402,-0.003940444721467793
1772366289807326000,7.253325927734375,-0.03137128981947899,-0.006248895193776116,0.0016362228997051716
1772366289817396000,7.26339599609375,-0.035410920599102974,-0.00883981586927548,-0.0061389411464333535
1772366289827466000,7.273466064453125,-0.03945113590061664,-0.0010634188472758979,0.0005958470012992621
1772366289837535700,7.28353564453125,-0.036601591688394546,-0.000011535174166783689,-0.005998290566727519
1772366289847606000,7.29360595703125,-0.04362754480242729,-0.0007437036399263889,-0.006143288527987897
1772366289857677000,7.303677001953125,-0.04108604362607002,0.002450288362102583,-0.0032188889812678097
1772366289867746800,7.313746826171875,-0.031062077739834784,-0.0044050665585324165,0.0022543182654306292
1772366289877816800,7.32381689453125,-0.04587327790260315,-0.004459865485690534,-0.006342025970481335
1772366289887887000,7.33388720703125,-0.0434744000673294,0.0012713442432228475,0.0006494038194417953
1772366289897956900,7.343956787109375,-0.0280506209641695,0.0013450670665595679,-0.003904606223106384
1772366289908027000,7.35402685546875,-0.03029284693300724,-0.006087384489132091,0.003911693551018834
1772366289918097000,7.364096923828125,-0.04240881666243076,-0.005262907230574637,0.001897358053922653
1772366289928167000,7.3741669921875,-0.02983224368393421,-0.0018194887784309685,0.0038515608616173265
1772366289938237000,7.38423681640625,-0.03716214818060398,-0.013230077584320678,-0.002542268361337483
1772366289948307000,7.394306884765625,-0.038059973803162575,-0.0020711619845591484,-0.004616261623799801
1772366289958377700,7.404377685546875,-0.02983224368393421,0.0019740765519440174,-0.005715381972119212
1772366289968448000,7.414447998046875,-0.04269640143215656,-0.0013397424374707043,-0.0018763883311301468
1772366289978518000,7.42451806640625,-0.04014905503690243,-0.0035729722490999843,0.009278992737829684
1772366289988587800,7.434587890625,-0.045535424250364304,-0.004338915120298043,-0.004784055938757956
1772366289998658000,7.444657958984375,-0.03760229316353798,-0.004584578710747882,-0.0068148311140015716
1772366290008728000,7.45472802734375,-0.034012159717082976,-0.002450708487210795,-0.003538001400418579
1772366290018797800,7.4647978515625,-0.022039982372522353,-0.0073530661765486,-0.004554338836111128
1772366290028867800,7.474867919921875,-0.03654781567454338,-0.0011419091772753745,0.00008026216197758912
1772366290038938000,7.484938232421875,-0.026817279776930807,-0.01140177531177178,-0.007148739243485033
1772366290049007900,7.4950078125,-0.03459668160676956,-0.005215853218454867,-0.0015646920334547757
1772366290059079000,7.505078857421875,-0.03804243814647198,0.0008356014407705515,-0.0049703357584774495
1772366290069149000,7.51514892578125,-0.03519932367503643,-0.002454270417476073,-0.011667349179089069
1772366290079219000,7.525218994140625,-0.03534837675690651,-0.0018574005028698592,-0.008336195462383329
1772366290089289000,7.5352890625,-0.04133563447296619,0.0015334475118201226,-0.0012065262455493212
1772366290099359000,7.54535888671875,-0.04627659800648689,0.0032350546647794544,0.0012567220628261564
1772366290109429000,7.555428955078125,-0.029531214910745618,-0.0012335786492563784,0.0008031696090474725
1772366290119499000,7.5654990234375,-0.03432137179672718,-0.001193502367194742,-0.0026697306659072637
1772366290129569000,7.575569091796875,-0.04584288276433945,0.0007671484475955366,0.0016843363577499985
1772366290139638800,7.585638671875,-0.0486813210606575,-0.009932670873589813,-0.002979052343405783
1772366290149709000,7.595708984375,-0.03806055832505226,-0.005264724728325382,-0.004702295939438045
1772366290159780000,7.605780029296875,-0.037761283117532726,0.0002876121691893786,-0.011434965195320546
1772366290169849900,7.615849853515625,-0.03926291985213756,-0.007035013203322887,-0.007198350538872182
1772366290179920000,7.625919921875,-0.044346506726741786,-0.007874587566312402,-0.004284435853548348
1772366290189990100,7.635990234375,-0.03417582584619522,-0.007999090728815645,0.002942300529591739
1772366290200060000,7.646059814453125,-0.031032851645350454,-0.0025672110063489524,-0.004658675993420183
1772366290210130000,7.6561298828125,-0.03836450970768928,-0.003775792211666703,0.00297390124425292
1772366290220200000,7.666199951171875,-0.03761690621078014,-0.0019766977672930806,0.0034163843147456646
1772366290230270000,7.67627001953125,-0.050938160076737404,0.0004373137050308287,-0.001449760416895151
1772366290240340000,7.686340087890625,-0.02788637031316757,-0.001669860307825729,0.006801094849593937
1772366290250409700,7.69640966796875,-0.030423195314407347,-0.005291366140078753,-0.007865509210713207
1772366290260480000,7.70647998046875,-0.03610767069160938,0.005785752927744761,0.0011182269075885414
1772366290270551000,7.716551025390625,-0.040299277162551876,0.006780718781845644,-0.004736052078567445
1772366290280621000,7.72662109375,-0.04238777387440204,-0.0019183551761787383,-0.00726389005575329
1772366290290690800,7.73669091796875,-0.03775193076729774,-0.0015124138569459317,-0.0031425358094274995
1772366290300761000,7.746760986328125,-0.03311082696318626,0.0011597005622927098,0.0036371509259566664
1772366290310830800,7.756830810546875,-0.03520984506905079,-0.004520473099127412,-0.004977642282098531
1772366290320900900,7.76690087890625,-0.04492927505075931,-0.01158631069897674,-0.00842233937587589
1772366290330971000,7.776970947265625,-0.03161737353503704,-0.0060918688680045305,-0.006593333850428462
1772366290341041000,7.787041015625,-0.043891748696565626,-0.003097618955466896,-0.0008086860343813895
1772366290351111000,7.79711083984375,-0.041945875325798986,-0.004006358697684481,-0.000353672275878489
1772366290361181000,7.807180908203125,-0.035658757880330086,-0.0003175780491903424,-0.005968808743916452
1772366290371252000,7.817251953125,-0.03491758412420749,-0.007390585175342857,-0.008076302417181432
1772366290381322000,7.827322021484375,-0.031176059508323667,-0.0048102680922485885,0.004331270669959485
1772366290391392000,7.83739208984375,-0.04284603903591633,-0.003317846710560843,-0.00012154402043670416
1772366290401461800,7.847461669921875,-0.04224690409898758,-0.008217720181867479,-0.005212948875315487
1772366290411532000,7.857531982421875,-0.03820785784125328,-0.008006050192564725,-0.010941994046606124
1772366290421602000,7.86760205078125,-0.03207797678411007,-0.007139852684130892,-0.0022342983907088637
1772366290431671800,7.877671875,-0.030130934369564055,-0.011165153544303029,-0.001001980116777122
1772366290441741800,7.887741943359375,-0.04060147497951984,-0.005053547929367051,-0.00809438606314361
1772366290451812000,7.89781201171875,-0.04538929377794265,-0.005946012390218675,0.0010534180430695414
1772366290461881900,7.9078818359375,-0.03161971162259578,-0.007264328447170555,-0.004723813651502132
1772366290471953000,7.917952880859375,-0.03760170864164829,-0.007836621042946353,-0.004629997888207435
1772366290482023000,7.92802294921875,-0.042832010510563845,-0.014961404022108762,0.005851575572416186
1772366290492093000,7.938093017578125,-0.034006314498186106,-0.007477998597314581,-0.0036351416319608688
1772366290502163000,7.948162841796875,-0.02428454642891884,0.0008093162220437079,-0.005220145801082253
1772366290512233000,7.95823291015625,-0.024133155259490013,0.001793103095004335,-0.007446480081044137
1772366290522303000,7.968302978515625,-0.029825813943147657,0.0031206345048733052,-0.003131576023995876
1772366290532373000,7.978373046875,-0.040462943291664125,-0.00294072049385868,-0.0028236791186034677
1772366290542443000,7.988443115234375,-0.04390636174380779,-0.007358326873555779,-0.004385192814283073
1772366290552512800,7.9985126953125,-0.04346212510764599,-0.0017205858480650931,0.0038878742840141056
1772366290562583000,8.0085830078125,-0.042864743736386296,-0.005343552985042333,0.002363404663093388
1772366290572653000,8.018653076171875,-0.039272272202372546,-0.004986017384799197,-0.00017261662054806947
1772366290582723800,8.028723876953125,-0.032687633115053176,-0.010636919285962358,-0.002222607952915132
1772366290592793900,8.0387939453125,-0.036574119159579276,-0.00028438816564157603,-0.001681194552592933
1772366290602864000,8.048864013671874,-0.04733750523626804,0.005501346495794132,0.002584244339540601
1772366290612934000,8.058933837890624,-0.040599136891961096,-0.0032881913578137753,0.005840761917456984
1772366290623004000,8.06900390625,-0.0374532400816679,-0.0025971129542682317,0.00758212569206953
1772366290633074000,8.079073974609376,-0.03445405826568603,-0.008572853762470186,-0.0028961963655427096
1772366290643144000,8.08914404296875,-0.04417641085684299,-0.00466644830792211,0.0022466829482465983
1772366290653214000,8.0992138671875,-0.04358662827014923,0.002870358671387657,-0.0021567031098529694
1772366290663284000,8.109283935546875,-0.03505143963694572,-0.003836299360403791,0.0038118499057367443
1772366290673354000,8.11935400390625,-0.035651743617653844,0.002495817137416452,-0.0032157837087288497
1772366290683424000,8.129424072265625,-0.038792379730939866,-0.01679857458770275,-0.009758592948317527
1772366290693493800,8.13949365234375,-0.022480711877346037,-0.009357126874802633,-0.0005851429441943764
1772366290703564800,8.149564697265625,-0.022945406779646873,-0.009159996867505833,-0.007828136342391372
1772366290713635000,8.159635009765625,-0.024580899026989934,-0.0040029885636642575,-0.0019299451492726801
1772366290723705000,8.169705078125,-0.06813070241808891,-0.0025149784956127403,-0.0035413624012842772
1772366290733779500,8.179779541015625,-0.022487726140022278,-0.006128986007999628,-0.007214753684401512
1772366290743849500,8.189849365234375,-0.030272973188757896,-0.0024755598006770013,-0.0019052856320515275
1772366290753919500,8.19991943359375,-0.03221358586251735,-0.004702652132464572,-0.0051198272317647935
1772366290763989500,8.209989501953125,-0.02457856093943119,-0.00021534151742234824,-0.0026467881817370652
1772366290774059500,8.2200595703125,-0.0319154796987772,-0.004050343969883397,-0.009175641961209475
1772366290784129300,8.23012939453125,-0.03534779223501682,-0.0016611290120985358,-0.011098024858534335
1772366290794199600,8.240199462890626,-0.03474222755730152,-0.008046592265507206,-0.008115684579499065
1772366290804270600,8.2502705078125,-0.03623509646356106,-0.007612493430869653,0.0012053206691518426
1772366290814340400,8.26034033203125,-0.03788403271436691,0.0008798241749871521,-0.00048661447316408155
1772366290824410400,8.270410400390626,-0.03264379397332668,-0.0062715180175378915,-0.0023595322055742145
1772366290834480600,8.280480712890625,-0.041166123124957085,-0.004272389222728088,-0.007165215454250574
1772366290844550400,8.29055029296875,-0.03263619518876076,-0.0017176449723076074,-0.00519987019803375
1772366290854620400,8.300620361328125,-0.03054243777990341,-0.0046333680222276595,0.003313179668597877
1772366290864690400,8.3106904296875,-0.027254502150416374,-0.006069556571496651,-0.001692994588240981
1772366290874760400,8.320760498046875,-0.02545943542718887,-0.007078340888395905,-0.002750358154065907
1772366290884830500,8.33083056640625,-0.028005612778663633,-0.006681194796971976,-0.0018901245955377816
1772366290894900500,8.340900390625,-0.034140170010924335,-0.0033026674077380447,-0.0031986499108374116
1772366290904970500,8.350970458984374,-0.018729250389337537,0.0016271445441059767,-0.001862980860285461
1772366290915041500,8.36104150390625,-0.026959903118014335,-0.008665463949367404,-0.005166406319849192
1772366290925111600,8.371111572265624,-0.023825112223625183,-0.0067905003903433675,-0.0012738923933357
1772366290935181300,8.381181396484376,-0.02921440404653549,-0.004496215440705418,-0.010294489923305809
1772366290945251600,8.39125146484375,-0.032353871116042134,-0.003726875036023557,-0.005884235733002424
1772366290955321600,8.401321533203125,-0.034603111347556115,-0.002545848557911813,-0.0039025238638743754
1772366290965391400,8.411391357421875,-0.03251753724515438,0.004353217640286311,-0.010805763913691042
1772366290975461400,8.42146142578125,-0.029679098948836326,-0.008815119819436222,-0.007467084477655589
1772366290985531400,8.431531494140625,-0.036416882771253586,-0.009635057900194078,-0.00802281866427511
1772366290995601400,8.441601318359375,-0.03866553848087787,-0.001000920670852065,-0.004378690008260309
1772366291005671400,8.45167138671875,-0.03941606458723545,0.002410458675213158,-0.003209682761505246
1772366291015741400,8.461741455078124,-0.03447510105371475,-0.004635514313541353,-0.0004559270739555359
1772366291025812500,8.4718125,-0.03266775937080383,-0.0019381375888828187,-0.0009099544517695903
1772366291035882500,8.481882568359374,-0.03416179732084274,-0.01055362491668202,-0.006090243166498839
1772366291045952500,8.491952392578124,-0.02742810515165329,-0.0032645912865176797,-0.004294372725673019
1772366291056022500,8.5020224609375,-0.04314005354642868,-0.0029208284833002834,0.0027070670016109944
1772366291066092500,8.512092529296876,-0.033113749572634694,-0.003374426602851599,-0.008196202469803392
1772366291076162300,8.522162353515625,-0.029376316609978675,-0.010510589492553844,-0.006317147257551551
1772366291086232300,8.532232421875,-0.03401508232653141,-0.006206891816109419,-0.005426408962905406
1772366291096302600,8.542302490234375,-0.03969721961617469,-0.003345483636157587,-0.006234875801578164
1772366291106372400,8.552372314453125,-0.04134147969186306,-0.004148708044132218,-0.010092939469218253
1772366291116442400,8.5624423828125,-0.031469489496946335,-0.0032613216171972453,-0.010757796586118638
1772366291126513400,8.572513427734375,-0.03071662530303001,-0.011337797564314678,-0.0089766487903893
1772366291136583700,8.582583740234375,-0.0371568874835968,0.0004124258589465171,-0.008228022380173205
1772366291146653400,8.5926533203125,-0.034168811583518977,-0.0011211951828096062,-0.009560366962477564
1772366291156724500,8.602724365234375,-0.02878010428249836,-0.009178299709176644,-0.0033768925545737145
1772366291166794500,8.61279443359375,-0.04778700256943703,-0.005369993467396125,-0.0020931363543495534
1772366291176864500,8.622864501953124,-0.03192190943956375,-0.0007661712000612169,-0.007439538883604109
1772366291186934500,8.6329345703125,-0.035359482672810555,-0.01072345592509955,-0.003471840829029679
1772366291197004500,8.643004638671876,-0.04030395333766937,-0.00509935069931671,0.0007179755436256528
1772366291207074300,8.65307421875,-0.03686579558253288,-0.004156946149514988,-0.00025569179411977526
1772366291217144600,8.66314453125,-0.043294951847195624,-0.0033369989356026052,-0.0003024170126765966
1772366291227214300,8.67321435546875,-0.038650340911746024,-0.008748173796758055,-0.004509513313695788
1772366291237284400,8.683284423828125,-0.022039397850632667,-0.005128083603456616,-0.005377162993699312
1772366291247354600,8.693354736328125,-0.024130817171931267,-0.007000060620950535,0.0005215761886909604
1772366291257424400,8.70342431640625,-0.03160685214102268,-0.0051503958999644965,-0.002660962837561965
1772366291267495400,8.713495361328125,-0.04687924007475376,-0.0033688462454359975,-0.0035938597735017536
1772366291277565400,8.7235654296875,-0.03595686404407024,-0.001499892302090302,-0.0033045214381068944
1772366291287635500,8.733635498046874,-0.028923312145471572,-0.006504650919977575,-0.006411072618700563
1772366291297705500,8.74370556640625,-0.03386076854765415,-0.0034853944303467866,-0.003859159646183252
1772366291307775500,8.753775390625,-0.030278233885765074,-0.006123003791784867,0.0011654270501807332
1772366291317845200,8.76384521484375,-0.04121113131046295,-0.005855986886052414,-0.004549333867430686
1772366291327915500,8.77391552734375,-0.03717500766217709,-0.0013608856901992112,0.0034389614727348087
1772366291337985500,8.783985595703125,-0.03283668619692325,0.0004907517921645194,-0.0010619301430881023
1772366291348055300,8.79405517578125,-0.04061491898298263,0.0005582092714961618,-0.0022048896331340073
1772366291358125600,8.80412548828125,-0.03418284010887146,-0.006819059764547273,-0.0013713979510590433
1772366291368195600,8.814195556640625,-0.03702478553652763,-0.0016842815588228404,-0.008671711027063428
1772366291378266400,8.824266357421875,-0.03955985697209835,-0.005184654362592846,-0.008040208190493284
1772366291388336400,8.83433642578125,-0.03103343616724014,-0.0029806963112205265,-0.0024198475580662487
1772366291398406400,8.844406494140625,-0.03402443467676639,-0.00013017485146410763,0.00045110476836562153
1772366291408476400,8.854476318359374,-0.04524433234930038,0.0019437818783801049,0.0033598318219184875
1772366291418546400,8.86454638671875,-0.03685936584174633,-0.0010469061038922518,-0.0029821941485628483
1772366291428616400,8.874616455078124,-0.03880407016873359,0.0018900332639925181,0.00284826557058841
1772366291438686500,8.8846865234375,-0.03162029614448547,-0.0025073705778922884,0.0003477905243635177
1772366291448756500,8.894756591796876,-0.034765023910999296,-0.005143993558641523,-0.003278327550925314
1772366291458826500,8.904826416015625,-0.03266600580513477,-0.004771808378538116,-0.005903086563944816
1772366291468896500,8.914896484375,-0.04074643640816211,-0.006170423130085692,-0.005009790986031293
1772366291478966500,8.924966552734375,-0.04417991798818111,-0.0049432924879249185,-0.004528035351075232
1772366291489036500,8.93503662109375,-0.04074468284249305,-0.007081720155570656,0.0014915537320077418
1772366291499107300,8.945107421875,-0.03131517571806908,-0.01798750124447979,-0.005495272948034108
1772366291509177300,8.95517724609375,-0.03251344559192657,-0.006932594008464366,0.00298146349620074
1772366291519247600,8.96524755859375,-0.03819733644723892,-0.006309776801848784,0.0007578326299786568
1772366291529317400,8.9753173828125,-0.0352051688939333,-0.008048482828494161,-0.0001378741007298231
1772366291539387400,8.985387451171874,-0.04867547584176063,-0.002290558622591197,-0.00542765107192099
1772366291549457700,8.995457763671874,-0.03566518762111664,-0.0002696289879269898,0.003980338340438902
1772366291559527400,9.00552734375,-0.04014847051501274,-0.005051876562088727,-0.0024637962976470588
1772366291569597400,9.015597412109376,-0.04447568606436252,-0.010007836735341698,-0.004926313953660428
1772366291579667500,9.02566748046875,-0.023825112223625183,-0.006228153799846768,-0.0073020301090553396
1772366291589737500,9.035737548828125,-0.033249943172931666,-0.007622402903530746,-0.0018718582864850758
1772366291599807500,9.045807373046875,-0.03639057928621769,-0.007997930818190798,-0.001963664755783975
1772366291609878500,9.05587841796875,-0.0392395389765501,0.004782612900342792,-0.006121880413778126
1772366291619948300,9.0659482421875,-0.03909457754790783,-0.002735863837832585,-0.004587400855496525
1772366291630018600,9.0760185546875,-0.029815877071022987,-0.0033258016881532967,-0.0035137802746146914
1772366291640088600,9.086088623046875,-0.02891805144846439,-0.0005901844454929233,-0.0011113953080028295
1772366291650158300,9.096158447265625,-0.03280336844921112,0.007511754736443981,-0.00625456688273698
1772366291660228600,9.106228515625,-0.035950434303283686,-0.0005010174578521401,-0.001434124456346035
1772366291670298400,9.11629833984375,-0.037003158226609226,-0.005389154825592413,0.0008498948276042938
1772366291680368400,9.126368408203126,-0.028627544069290158,0.006566564574511722,-0.004476159033365548
1772366291690438400,9.1364384765625,-0.03461187917590141,0.004494324877718463,0.0021301438964903352
1772366291700508400,9.14650830078125,-0.03207388513088226,-0.005211633701063693,0.0009297185981646179
1772366291710578400,9.156578369140625,-0.03641454468369484,-0.005875422238884494,0.00613554361294955
1772366291720648400,9.1666484375,-0.047487727361917496,-0.006813789934385568,-0.0018019713880494236
1772366291730719500,9.176719482421875,-0.03372106781601906,-0.004793189093284309,-0.006461743360012769
1772366291740786400,9.186786376953124,-0.034621231526136394,-0.0017505517280660568,-0.0032168431546539065
1772366291750856200,9.196856201171874,-0.04165887507796287,-0.005851730836043134,0.004636244965903461
1772366291760926200,9.20692626953125,-0.04225917905867099,-0.0031472393840085715,-0.0003717193892225623
1772366291770996000,9.216995849609376,-0.03612520634829998,0.0004504197817761451,0.0021459625201299785
1772366291781066200,9.227066162109375,-0.03582885375022888,-0.005823765116883441,0.001191876665689051
1772366291791136300,9.23713623046875,-0.0356798006683588,-0.00865673265364021,-0.008702252295799552
1772366291801206000,9.2472060546875,-0.03822305541038513,-0.007399225139524787,-0.006570683627203106
1772366291811276300,9.2572763671875,-0.03388824107646942,-0.005992673676693812,0.00420209133233875
1772366291821346300,9.26734619140625,-0.04661211357116699,-0.004269777140533552,-0.0011585223853588103
1772366291831416000,9.277416015625,-0.04436638047099113,-0.0040383156053721905,-0.0002233969597145915
1772366291841486300,9.287486328125,-0.03718611357808113,-0.00915036138948053,-0.0014779635980725287
1772366291851556400,9.297556396484374,-0.042568975660204886,-0.01039653465882875,-0.0061852279735729095
1772366291861627100,9.307627197265624,-0.03763444186747074,-0.00665954922074452,0.004700177047587931
1772366291871697200,9.317697265625,-0.036436171993613244,-0.009278545213257893,-0.005744644599221646
1772366291881767200,9.32776708984375,-0.04301321229636669,-0.01107865343778394,-0.009621741760894656
1772366291891837200,9.337837158203126,-0.04061550350487232,-0.011279235777491703,-0.002799823318980634
1772366291901907200,9.3479072265625,-0.039569209322333335,-0.0012672617231495678,-0.002818747215159237
1772366291911977200,9.357977294921875,-0.03253624194562435,-0.009699793699476867,0.0003319719007238745
1772366291922047200,9.368047119140625,-0.032686464071273805,-0.0060063551421742885,-0.0035766529103741047
1772366291932117200,9.3781171875,-0.03552957854270935,-0.0066754500427749,-0.007175919511355459
1772366291942187300,9.388187255859375,-0.039272856724262235,-0.010575087829818948,0.0051860974010080095
1772366291952257300,9.39825732421875,-0.03358662778139114,-0.0018279369463678448,-0.0014152005601674317
1772366291962327300,9.408327392578125,-0.03059329118430614,0.001994909277418628,-0.004832717386074364
1772366291972397000,9.41839697265625,-0.03209492791891098,-0.009403431968251243,-0.0010519202057272196
1772366291982468000,9.428468017578124,-0.03299684519469738,-0.003809173891460523,-0.007863755645044148
1772366291992538000,9.4385380859375,-0.03404489294290542,-0.006324298517545685,-0.006374941859394311
1772366292002608400,9.4486083984375,-0.036139234873652455,-0.013412640210147946,-0.0016209887979552148
1772366292012678100,9.45867822265625,-0.03269756998717785,-0.0138616078203544,0.001050714629329741
1772366292022748200,9.468748046875,-0.03239829477965832,-0.003631917628413066,-0.0031625191515311595
1772366292032818200,9.478818115234375,-0.04167874882221222,-0.006015186902601271,0.0008180749172344803
1772366292042888200,9.48888818359375,-0.03060264353454113,-0.004089525202801451,-0.004070025917887687
1772366292052958200,9.498958251953125,-0.03718611357808113,-0.00119055235828273,-0.011106865752115846
1772366292063028200,9.5090283203125,-0.041975685942173005,-0.007975855983700602,0.007119915007799863
1772366292073098200,9.51909814453125,-0.02521978145241737,0.00032640980961732565,-0.0043431072382256386
1772366292083168300,9.529168212890625,-0.030457682105898855,-0.008111830388288945,-0.0009347235668450593
1772366292093238000,9.539238037109374,-0.03569382919371128,0.002687549450388178,-0.002391534779034555
1772366292103309000,9.54930908203125,-0.03509352521300316,-0.002413819676078856,-0.003556633035652339
1772366292113379300,9.55937939453125,-0.04406418265402317,-0.008380290332436561,-0.0037128099780529733
1772366292123449000,9.569448974609376,-0.03552840949892998,-0.0010355353265069425,-0.005250102547928691
1772366292133519000,9.57951904296875,-0.04271276804506779,-0.013866685854271053,-0.001860861968435347
1772366292143589400,9.58958935546875,-0.03986965357363224,-0.011736505425162613,-0.003204458597116172
1772366292153659100,9.5996591796875,-0.031795652711391446,-0.010823491366626694,0.00010356997232884168
1772366292163729200,9.609729248046875,-0.03270224616229534,-0.010528472209116443,-0.00009991671051830052
1772366292173799200,9.619799072265625,-0.022833763098716736,-0.0014613503899890928,-0.00670998250003904
1772366292183869200,9.629869140625,-0.04198912994563579,0.00146841945159249,0.006850633079744875
1772366292193939200,9.639939208984375,-0.03421089715957641,-0.006402651850227266,0.0030295038890093564
1772366292204009200,9.65000927734375,-0.040188802525401114,-0.005789095662301406,-0.0008366700198501349
1772366292214079200,9.660079345703124,-0.04542611865699291,-0.0032253826541360467,0.0011141352543607354
1772366292224149200,9.670149169921874,-0.039143092864751816,-0.005374523512041196,-0.0035748628120869396
1772366292234219300,9.68021923828125,-0.038083354678750035,-0.0024591475219931454,-0.0024174364052712916
1772366292244290000,9.6902900390625,-0.04422141904234886,-0.004422894476167857,-0.004142725827917457
1772366292254360300,9.7003603515625,-0.03912321912050247,-0.0014035192555282264,-0.00255001327637583
1772366292264430300,9.710430419921876,-0.028493688556551933,-0.009637112859962507,0.0014168810606002807
1772366292274500000,9.7205,-0.039572716453671455,-0.005867686457000672,-0.0030384909130632878
1772366292284570000,9.730570068359375,-0.0398714071393013,-0.006897120836284011,-0.0037419995399191972
1772366292294640400,9.740640380859375,-0.04300502898991108,-0.009792029427038506,-0.0016181392537429928
1772366292304710100,9.750710205078125,-0.044802433800697324,-0.014633295445749536,-0.0012123714644461869
1772366292314780200,9.7607802734375,-0.029383330872654913,-0.012317182256793603,-0.002732639834284782
1772366292324850200,9.77085009765625,-0.02968552868962288,-0.006857893937593325,-0.0006862286984920501
1772366292334920200,9.780920166015624,-0.042106618845462795,-0.004818734526494518,0.0024437764229252932
1772366292344990200,9.790990234375,-0.04061316541731357,-0.008290922415396198,-0.0012198241185396909
1772366292355060200,9.801060302734374,-0.03283843976259231,-0.008013091854704543,-0.00357135568074882
1772366292365131300,9.81113134765625,-0.03418225558698177,-0.010636389562999829,0.00263615718986839
1772366292375201300,9.821201171875,-0.03747369834780693,-0.0018688169460278003,0.00327039997279644
1772366292385271300,9.831271240234376,-0.03748129713237285,-0.005237727123545482,0.0002461933134123683
1772366292395341000,9.841341064453125,-0.03658347150981426,-0.0018736575179267674,-0.000640672523714602
1772366292405411300,9.851411376953125,-0.03792904089987278,-0.0029528767225332556,0.0010544774889945983
1772366292415481000,9.861481201171875,-0.036873394367098807,0.003406666638329625,-0.0035436274236068125
1772366292425551000,9.871551025390625,-0.04420271434187889,0.007549803458200767,-0.005278999848850071
1772366292435621400,9.881621337890625,-0.03342120808660984,-0.008754804466944188,0.004037767616100609
1772366292445691100,9.891691162109375,-0.03836334066390991,-0.001138584709027782,-0.0053284650137647984
1772366292455761200,9.90176123046875,-0.025641806256771087,0.00022313209823332725,-0.0007789484832435846
1772366292465831200,9.9118310546875,-0.03760930742621422,0.007944392266357318,-0.0001140913663432002
1772366292475901200,9.921901123046876,-0.03896247560083866,-0.011942512858659028,0.006621281303279101
1772366292485971200,9.93197119140625,-0.02624211023747921,-0.0019858309218194333,0.00346570334918797
1772366292496041200,9.942041259765626,-0.03626607612371444,0.007739855270739645,-0.00041665450949221846
1772366292506112000,9.952112060546876,-0.03909925372302532,0.0001274257719516754,-0.0012721753602847456
1772366292516182300,9.962182373046875,-0.029968437284231184,-0.004809957564994693,0.0056775707123801105
1772366292526252300,9.972252197265625,-0.030714287215471266,-0.009450805640779434,0.007373670573160052
1772366292536322000,9.982322021484375,-0.024879005190730094,-0.004875835008593276,0.003310805048421025
1772366292546392300,9.992392333984375,-0.03895253872871399,-0.0011318718404509126,-0.001794372603483498
1772366292556462300,10.00246240234375,-0.04254910191595554,-0.003736894106538966,0.003938325829617679
1772366292566532000,10.012531982421875,-0.016513912427425382,-0.00800290838740766,0.003493833465129137
1772366292576602000,10.02260205078125,-0.06888590469956397,-0.00842787406751886,0.0024804551715031263
1772366292586672400,10.03267236328125,-0.0379021528929472,-0.0047785121139604595,-0.0163486388631165
1772366292596742100,10.0427421875,-0.04268412647247314,-0.0022106343873310834,0.0010409969529137015
1772366292606812200,10.052812255859376,-0.04253039721548557,-0.008071626242063938,0.0008501140233129263
1772366292616882200,10.062882080078126,-0.025170681613683698,-0.005938167010480538,-0.010032003062218428
1772366292626952200,10.0729521484375,-0.027415245670080184,-0.0026036979586817324,0.0022482173182070252
1772366292637022200,10.083022216796875,-0.02397299626171589,-0.0016799067778047172,0.0037661476004868743
1772366292647093200,10.09309326171875,-0.04133271186351776,0.0025455836964305488,0.0032880086947232484
1772366292657163300,10.103163330078125,-0.028614684587717053,-0.005107716668862849,-0.003184146461449563
1772366292667233300,10.1132333984375,-0.052395373147726056,-0.008815567344008013,0.006937726841308176
1772366292677303300,10.12330322265625,-0.04789630816280842,-0.009860592018067837,0.002967617633938789
1772366292687373000,10.133373046875,-0.03248655758500099,-0.014731056731799617,-0.000558656796067953
1772366292697443300,10.143443359375,-0.006453121662139892,0.00448937470796518,0.00009261018689721822
1772366292707513000,10.15351318359375,-0.043268648362159726,-0.008567647864390165,0.00027677111476659774
1772366292717583000,10.1635830078125,-0.043726329001784324,-0.0060180912457406515,-0.0016740341594442725
1772366292727653400,10.1736533203125,-0.02577799985706806,-0.009068564857542514,-0.00004040507562458515
1772366292737726000,10.183725830078124,-0.032221769168972965,-0.012588108152663334,-0.005949884847737849
1772366292747796000,10.1937958984375,-0.04344225136339664,-0.007328744586044922,0.00021338702235370872
1772366292757866200,10.2038662109375,-0.053170449173450464,-0.012174239255301653,-0.004033639430254698
1772366292767936000,10.21393603515625,-0.02189969711899757,-0.004276508275419474,-0.006501600446365773
1772366292778006000,10.224006103515626,-0.034767361998558045,-0.011507756436895578,-0.0008000643365085124
1772366292788077000,10.2340771484375,-0.03835691092312336,-0.006015223435219377,-0.0043399654330685735
1772366292798147000,10.24414697265625,-0.03551028932034969,0.00023403708473779258,0.0010033318236470222
1772366292808217000,10.254217041015625,-0.031166122636198997,-0.004621787182288244,-0.0011237433329224587
1772366292818287000,10.264287109375,-0.029368717825412748,-0.005663642651727423,-0.006177117732353508
1772366292828356900,10.27435693359375,-0.03655599898099899,-0.0015691855454817414,-0.006746478585526346
1772366292838427100,10.28442724609375,-0.04104863422513008,-0.004105873549403623,0.0024358853774145246
1772366292848497200,10.2944970703125,-0.04134790943264961,-0.013116689470876007,0.0021280980698764325
1772366292858567000,10.30456689453125,-0.02833352955877781,-0.008492874728282912,-0.004850545303709805
1772366292868637200,10.31463720703125,-0.03626315351426601,0.0047263618016149846,-0.0027462299682199953
1772366292878707200,10.324707275390624,-0.030130934369564055,-0.0035325945729389784,-0.00043236353527754544
1772366292888777000,10.33477685546875,-0.04001052334904671,-0.005020257581118494,-0.0033429537523537874
1772366292898847000,10.344846923828126,-0.02790332144796848,-0.018288621349213642,-0.006497216532193124
1772366292908917200,10.354917236328125,-0.03389174820780754,-0.007900050801131873,-0.0008971680354326963
1772366292918987000,10.364987060546875,-0.03269815450906753,0.0022646021974273025,0.0001954860394820571
1772366292929058000,10.37505810546875,-0.022539748588204383,-0.009094658280024304,-0.0034701237959787246
1772366292939128000,10.385128173828125,-0.031255554485321045,-0.0080256225427147,-0.004602854152955115
1772366292949198000,10.395197998046875,-0.01646831972002983,-0.008861863304302095,-0.008045541952736676
1772366292959268000,10.40526806640625,-0.035839375144243235,-0.008002917520562187,0.009372662370651959
1772366292969338000,10.415338134765625,0.10546586907804012,0.001405501150060445,-0.02443801995757967
1772366292979408100,10.425408203125,0.031736031478643414,-0.010201569209154694,-0.010746398409269749
1772366292989478100,10.43547802734375,-0.19858429775834083,-0.027275563204754143,0.0364446840936318
1772366292999548000,10.4455478515625,-0.11523206081092358,-0.0005223981725983321,0.0033724721077829597
1772366293009618000,10.455617919921876,-0.05431786564290523,-0.008654796424880623,0.006065656714513898
1772366293019688200,10.465688232421876,-0.06174070912003517,-0.005313797167595476,0.004774922784231603
1772366293029758000,10.475758056640625,-0.11804653370976448,-0.014522592479735611,0.0049472106112167236
1772366293039828000,10.485827880859375,-0.04703881455063819,-0.012411555142514408,0.00331657720208168
1772366293049898200,10.495898193359375,0.01930734253823757,-0.003177314861863851,-0.009195844499021768
1772366293059968000,10.505968017578125,-0.020901333731412886,-0.008168793873069808,-0.004783106090687215
1772366293070039000,10.5160390625,-0.022810382223129273,-0.014281458933930843,-0.004700725036859512
1772366293080109000,10.526109130859375,-0.02415185995995998,0.006764735761424526,0.004359875709936022
1772366293090179000,10.536178955078125,-0.028934418061375616,-0.009703346496587618,-0.003744191497005522
1772366293100249000,10.5462490234375,-0.049724692633748055,-0.0017332444002386182,0.008163871102780104
